seconds,sensor_accX_m_s_,sensor_accY_m_s_,sensor_accZ_m_s_,sensor_gyroX___s_,sensor_gyroY___s_,sensor_gyroZ___s_,sensor_magX__T_,sensor_magY__T_,sensor_magZ__T_,sensor_yaw___,sensor_pitch___,sensor_roll___,label3
0.0,-4.66132831573486,-2.30703735351562,7.93077754974365,-0.0914639979600906,-0.0762199983000755,0.327746003866196,-991.500061035156,21.3000011444092,-928.500061035156,3.12188087201677,-0.513889806877974,0.28286586879876,ST
0.0333333333333333,-4.71097421646118,-2.2591860294342,7.9756383895874,-0.0914639979600906,-0.175305992364883,0.327746003866196,-989.100036621094,19.5,-930.900024414062,3.11601773828346,-0.516630041902418,0.275891261307432,ST
0.0666666666666667,-4.66431903839111,-2.33275747299194,7.90087032318115,-0.0228659994900227,-0.266770005226135,0.304879993200302,-1008.30004882812,13.5000009536743,-930.900024414062,3.11922263217242,-0.514914772641485,0.286640014880249,ST
0.1,-4.66431903839111,-2.33036494255066,7.92300176620483,-0.0228659994900227,-0.228659987449646,0.259148001670837,-1003.50006103516,18.9000015258789,-918.900024414062,3.11684587390956,-0.513874337334141,0.285797257334756,ST
0.133333333333333,-4.62663602828979,-2.38718867301941,7.97145128250122,-0.0,-0.175305992364883,0.221037998795509,-1003.50006103516,17.7000007629395,-938.100036621094,3.11777044380642,-0.507339745325718,0.290653809352294,ST
0.166666666666667,-4.63620615005493,-2.36685180664062,7.96546983718872,0.0533539988100529,-0.190549999475479,0.213415995240211,-986.700012207031,15.9000005722046,-930.900024414062,3.11530006428396,-0.508688892473647,0.288498401383518,ST
0.2,-4.65474843978882,-2.3877866268158,7.93496465682983,0.0762199983000755,-0.190549999475479,0.25152599811554,-1010.70001220703,18.9000015258789,-933.300048828125,3.11549284288552,-0.511582170849892,0.291842445134752,ST
0.233333333333333,-4.61347675323486,-2.36685180664062,7.83208417892456,0.0228659994900227,-0.0609759986400604,0.236281991004944,-1001.10003662109,20.7000007629395,-926.100036621094,3.11479745001925,-0.513425702372142,0.293181779198145,ST
0.266666666666667,-4.6051025390625,-2.41948843002319,7.87335586547852,0.114329993724823,-0.0152439996600151,0.289635986089706,-1001.10003662109,16.5,-928.500061035156,3.11576553996397,-0.509963856366451,0.297612333304077,ST
0.3,-4.69482421875,-2.41948843002319,7.93436670303345,-0.0228659994900227,0.0457319989800453,0.144817993044853,-1005.90002441406,13.5000009536743,-933.300048828125,3.11412367119313,-0.515132032840732,0.29591205970188,ST
0.333333333333333,-4.74088096618652,-2.39197373390198,7.9816198348999,0.129574000835419,-0.144817993044853,0.388722002506256,-991.500061035156,17.7000007629395,-933.300048828125,3.10956373950598,-0.517224338094917,0.290586686630471,ST
0.366666666666667,-4.68106698989868,-2.36505722999573,7.8775429725647,0.167683988809586,-0.282013982534409,0.411587983369827,-993.900024414062,19.5,-928.500061035156,3.10762586351739,-0.517149259116332,0.290897402572166,ST
0.4,-4.71336650848389,-2.34352421760559,7.86498212814331,0.167683988809586,-0.266770005226135,0.480185985565186,-993.900024414062,19.5,-935.700012207031,3.10415885821811,-0.521075377524697,0.288789109791688,ST
0.433333333333333,-4.63859891891479,-2.33515024185181,7.80636405944824,0.144817993044853,-0.243903994560242,0.533540010452271,-996.300048828125,22.5,-930.900024414062,3.10192759446016,-0.517430457429799,0.289819440404997,ST
0.466666666666667,-4.70977783203125,-2.33215951919556,7.88053369522095,0.152439996600151,-0.198172003030777,0.571649968624115,-991.500061035156,22.5,-930.900024414062,3.09763199412584,-0.520304398673017,0.286893121471483,ST
0.5,-4.682861328125,-2.38180541992188,7.9493203163147,0.0533539988100529,-0.213415995240211,0.37347799539566,-1005.90002441406,17.7000007629395,-928.500061035156,3.09711590916172,-0.513638124877517,0.290578480038511,ST
0.533333333333333,-4.67149639129639,-2.34591674804688,7.92359972000122,0.0685980021953583,-0.228659987449646,0.274392008781433,-1001.10003662109,14.7000007629395,-933.300048828125,3.09382442133324,-0.51427102092648,0.287424964505293,ST
0.566666666666667,-4.6529541015625,-2.39496445655823,7.88711309432983,0.129574000835419,-0.205793991684914,0.175305992364883,-1001.10003662109,14.1000003814697,-933.300048828125,3.09634075608565,-0.513654648227777,0.294272155660529,ST
0.6,-4.68585205078125,-2.36924433708191,7.93017959594727,0.152439996600151,-0.205793991684914,0.0914639979600906,-1008.30004882812,18.9000015258789,-933.300048828125,3.09384744657282,-0.5148587046553,0.289943001378609,ST
0.633333333333333,-4.730712890625,-2.36685180664062,7.9098424911499,0.167683988809586,-0.297257989645004,0.137196004390717,-998.700012207031,20.7000007629395,-930.900024414062,3.09324802161173,-0.519853303798212,0.290238110634918,ST
0.666666666666667,-4.72293710708618,-2.33455204963684,7.87335586547852,0.137196004390717,-0.266770005226135,0.221037998795509,-1003.50006103516,24.3000011444092,-921.300048828125,3.09086526751622,-0.521561836366814,0.287757292624101,ST
0.7,-4.66910409927368,-2.38479614257812,7.91821670532227,0.0838419944047928,-0.205793991684914,0.289635986089706,-1010.70001220703,18.9000015258789,-928.500061035156,3.09137601408442,-0.513890521811802,0.292007100718884,ST
0.733333333333333,-4.67448711395264,-2.36445927619934,7.92659044265747,0.0914639979600906,-0.282013982534409,0.274392008781433,-1005.90002441406,14.7000007629395,-916.500061035156,3.08849600190679,-0.514037760430366,0.289425191527055,ST
0.766666666666667,-4.72114229202271,-2.35728144645691,7.91283321380615,0.106707997620106,-0.236281991004944,0.304879993200302,-1003.50006103516,10.5,-935.700012207031,3.0866384980816,-0.519126748423849,0.288995248200408,ST
0.8,-4.70379638671875,-2.37642192840576,7.94094610214233,0.0457319989800453,-0.0762199983000755,0.342989981174469,-993.900024414062,20.7000007629395,-928.500061035156,3.08530224690887,-0.516227066458785,0.29034399952404,ST
0.833333333333333,-4.59852313995361,-2.41829204559326,7.9074501991272,0.0685980021953583,-0.228659987449646,0.274392008781433,-991.500061035156,20.7000007629395,-926.100036621094,3.08660163942536,-0.507395455552175,0.296279390562183,ST
0.866666666666667,-4.68645000457764,-2.37283325195312,7.94274044036865,0.0228659994900227,-0.106707997620106,0.221037998795509,-1003.50006103516,16.5,-926.100036621094,3.08218279577712,-0.514424730641326,0.290070140691955,ST
0.9,-4.61407470703125,-2.40274024009705,7.9517126083374,0.0838419944047928,-0.129574000835419,0.289635986089706,-1008.30004882812,21.9000015258789,-930.900024414062,3.0820260739914,-0.507018583276444,0.292966101334724,ST
0.933333333333333,-4.69003915786743,-2.38718867301941,7.88173007965088,0.0990860015153885,-0.137196004390717,0.266770005226135,-1008.30004882812,20.7000007629395,-930.900024414062,3.08094915610552,-0.517506790227501,0.293621697665367,ST
0.966666666666667,-4.6888427734375,-2.38718867301941,7.88830947875977,0.0914639979600906,-0.0914639979600906,0.358233988285065,-996.300048828125,26.7000007629395,-914.100036621094,3.07906200369447,-0.517286256380276,0.293339084378201,ST
1.0,-4.63441181182861,-2.43085312843323,7.80875635147095,0.0304879993200302,-0.144817993044853,0.320124000310898,-1005.90002441406,12.9000005722046,-918.900024414062,3.08116382356144,-0.515495884134043,0.301293438696752,ST
1.03333333333333,-4.67927265167236,-2.41470313072205,7.83686923980713,0.0685980021953583,-0.0457319989800453,0.396344006061554,-1010.70001220703,9.30000019073486,-921.300048828125,3.07779712729031,-0.518618934823635,0.298415701530068,ST
1.06666666666667,-4.77856397628784,-2.39317011833191,7.9517126083374,0.0457319989800453,-0.0914639979600906,0.396344006061554,-996.300048828125,19.5,-923.700012207031,3.07248806152167,-0.522175615084246,0.29193288192632,ST
1.1,-4.83179903030396,-2.36445927619934,7.96905899047852,0.0914639979600906,-0.221037998795509,0.442075997591019,-989.100036621094,14.7000007629395,-930.900024414062,3.06805610210826,-0.526334241029834,0.287828945922609,ST
1.13333333333333,-5.02260637283325,-2.15092206001282,7.78303623199463,0.282013982534409,-0.213415995240211,0.617381989955902,-1001.10003662109,21.9000015258789,-918.900024414062,3.05558671170378,-0.556009506819314,0.268674208636635,ST
1.16666666666667,-5.25827503204346,-2.06658387184143,7.37211227416992,0.487807989120483,0.152439996600151,1.18140995502472,-991.500061035156,20.7000007629395,-935.700012207031,3.05285341874606,-0.602046147088232,0.271115427319232,ST
1.2,-5.13984251022339,-2.24901747703552,6.84993314743042,0.137196004390717,0.739333987236023,1.2423859834671,-1013.10003662109,15.3000001907349,-921.300048828125,3.07372316648289,-0.621005898671736,0.31525996865947,ST
1.23333333333333,-5.49813032150269,-2.41111421585083,7.37749528884888,-0.78506600856781,1.08232402801514,0.3125019967556,-984.300048828125,20.1000003814697,-926.100036621094,3.07221235153595,-0.61832961740288,0.317271158705914,ST
1.26666666666667,-5.91683006286621,-2.18980145454407,7.9433388710022,-0.899396002292633,0.121951997280121,-0.160062000155449,-991.500061035156,15.9000005722046,-933.300048828125,3.04316859792484,-0.622849862639087,0.271369641234818,ST
1.3,-5.87017488479614,-2.02710652351379,7.58923816680908,-0.510673999786377,-1.45580196380615,0.37347799539566,-998.700012207031,18.9000015258789,-930.900024414062,3.03085007748326,-0.639354990269927,0.261024170011068,ST
1.33333333333333,-5.53461694717407,-1.98762905597687,7.35177516937256,-0.434453994035721,-2.12653803825378,0.609759986400604,-989.100036621094,24.3000011444092,-923.700012207031,3.02475066043891,-0.625311568531082,0.263334869848012,ST
1.36666666666667,-5.31509828567505,-1.96549785137177,7.2363338470459,-0.129574000835419,-1.92074394226074,0.175305992364883,-1005.90002441406,6.90000009536743,-923.700012207031,3.02142426116212,-0.613588043842378,0.264602158988303,ST
1.4,-5.32526683807373,-1.75076448917389,6.94025278091431,0.518296003341675,-1.31098401546478,-0.495429992675781,-998.700012207031,16.5,-923.700012207031,3.01375552911739,-0.637010022605716,0.246569807361067,ST
1.43333333333333,-5.39046430587769,-1.85543954372406,6.9199161529541,0.297257989645004,-0.647870004177094,-1.37195992469788,-1001.10003662109,21.3000011444092,-926.100036621094,3.03044774626588,-0.643247236521312,0.262761675340407,ST
1.46666666666667,-5.28459310531616,-1.88654291629791,6.59871339797974,0.121951997280121,-0.25152599811554,-1.80641400814056,-998.700012207031,24.3000011444092,-930.900024414062,3.04991166666061,-0.654746845775004,0.280268590485044,ST
1.5,-4.95561456680298,-2.20774579048157,6.50839376449585,-0.655492007732391,2.33233189582825,-2.0731840133667,-1003.50006103516,15.9000005722046,-928.500061035156,3.09156204031403,-0.627749979483799,0.331005202135602,ST
1.53333333333333,-5.06088781356812,-2.61807179450989,7.08201265335083,-0.945127964019775,3.61282801628113,-2.0579400062561,-1013.10003662109,20.1000003814697,-940.500061035156,3.12218825785042,-0.595389133943126,0.359309559141805,ST
1.56666666666667,-5.091392993927,-2.56304264068604,7.32067203521729,-0.571649968624115,4.1311240196228,-0.945127964019775,-1001.10003662109,26.1000003814697,-930.900024414062,3.12209283124421,-0.587203310370837,0.340588247458662,ST
1.6,-5.30253744125366,-2.71915793418884,7.41278600692749,-0.381099998950958,3.40703392028809,-0.182927995920181,-979.500061035156,12.9000005722046,-928.500061035156,3.13527183084414,-0.596757270928649,0.353701092270535,ST
1.63333333333333,-5.06268215179443,-2.82801985740662,7.89309453964233,-1.00610399246216,1.89025592803955,-0.175305992364883,-998.700012207031,18.3000011444092,-928.500061035156,3.1324546249945,-0.546841222854535,0.34673454710024,ST
1.66666666666667,-5.17812347412109,-3.2467200756073,8.01691055297852,-0.632625997066498,1.35671591758728,-0.221037998795509,-979.500061035156,17.1000003814697,-923.700012207031,-3.12856458132077,-0.541560171731528,0.386163638697385,ST
1.7,-5.28698587417603,-3.34302115440369,7.66639852523804,-0.350611984729767,-0.304879993200302,-0.396344006061554,-972.300048828125,18.3000011444092,-928.500061035156,-3.11496871343337,-0.562735775388041,0.411808260634335,ST
1.73333333333333,-5.12189817428589,-3.75633788108826,8.06057453155518,-0.472563982009888,-1.01372599601746,0.274392008781433,-991.500061035156,29.1000003814697,-926.100036621094,-3.10770513030422,-0.521659930383279,0.435943472251495,ST
1.76666666666667,-4.94604444503784,-3.62235379219055,7.84703779220581,-0.3125019967556,-1.22714197635651,0.495429992675781,-979.500061035156,26.7000007629395,-921.300048828125,-3.11589930123289,-0.51824401930338,0.432108151108715,ST
1.8,-4.83718204498291,-3.90706992149353,7.85541152954102,-0.0762199983000755,-0.800309956073761,0.853663980960846,-974.700012207031,21.9000015258789,-918.900024414062,-3.10856049822371,-0.503469594986354,0.460253121661014,ST
1.83333333333333,-4.58476591110229,-3.51109933853149,9.59600734710693,-0.861285984516144,-0.37347799539566,1.07470202445984,-986.700012207031,19.5,-923.700012207031,3.11697262002631,-0.422544304850297,0.352278816551751,ST
1.86666666666667,-4.96518468856812,-4.24502086639404,8.46731185913086,0.160062000155449,-0.975615978240967,0.487807989120483,-993.900024414062,20.1000003814697,-923.700012207031,-3.12256632033731,-0.481181081318312,0.462641788236622,ST
1.9,-5.05012130737305,-4.33892917633057,7.64725780487061,0.403965979814529,-0.617381989955902,1.14329993724823,-984.300048828125,15.9000005722046,-935.700012207031,-3.10449642505719,-0.521109470687924,0.513698945390234,ST
1.93333333333333,-5.69252681732178,-4.01294136047363,7.58086395263672,0.274392008781433,-0.236281991004944,1.60824191570282,-984.300048828125,22.5,-921.300048828125,-3.12735213228298,-0.586291344244992,0.484871946687295,ST
1.96666666666667,-5.68774127960205,-3.79521703720093,7.12448072433472,0.342989981174469,1.00610399246216,2.53812599182129,-993.900024414062,24.3000011444092,-930.900024414062,-3.13432538384886,-0.617051913025064,0.486659614769276,ST
2.0,-5.77507019042969,-3.51887512207031,6.93726205825806,0.37347799539566,1.96647596359253,2.79727387428284,-977.100036621094,23.7000007629395,-928.500061035156,3.13049204810822,-0.643572392490276,0.466923882662002,ST
2.03333333333333,-6.02748680114746,-3.19228911399841,6.87027025222778,0.602137982845306,2.26373386383057,2.98020195960999,-986.700012207031,21.3000011444092,-921.300048828125,3.10277387848385,-0.677429553325682,0.431914804009449,ST
2.06666666666667,-5.56033706665039,-3.13068032264709,6.51437520980835,1.29574000835419,2.5000159740448,3.39178991317749,-969.900024414062,21.9000015258789,-926.100036621094,3.10469419478003,-0.662422608121733,0.442907563755113,ST
2.1,-5.7086763381958,-2.88245105743408,6.26016426086426,1.53202199935913,2.5076379776001,3.10215401649475,-965.100036621094,26.7000007629395,-930.900024414062,3.09183395156767,-0.69756871284018,0.426453396718686,ST
2.13333333333333,-6.22367763519287,-2.62883830070496,6.3917555809021,1.53964400291443,2.5000159740448,2.9268479347229,-957.900024414062,20.7000007629395,-926.100036621094,3.06298355592879,-0.738569511942284,0.385249843406014,ST
2.16666666666667,-6.4934401512146,-2.59055709838867,6.25059413909912,1.33385002613068,1.80641400814056,2.40092992782593,-967.500061035156,18.9000015258789,-921.300048828125,3.06359025733149,-0.768967352674316,0.387959675369118,ST
2.2,-6.46054220199585,-2.68865275382996,6.00954246520996,1.12805593013763,1.96647596359253,1.82165801525116,-957.900024414062,18.3000011444092,-921.300048828125,3.08481648389774,-0.78025924508826,0.416870763919478,ST
2.23333333333333,-6.26794004440308,-2.83878660202026,6.1830039024353,0.983237981796265,2.05031800270081,1.12043392658234,-967.500061035156,21.3000011444092,-923.700012207031,3.09619749446085,-0.748903297589726,0.428304851189478,ST
2.26666666666667,-6.8278021812439,-2.7442798614502,7.32426071166992,1.65397393703461,1.15854394435883,0.693601965904236,-943.500061035156,15.3000001907349,-916.500061035156,3.05392151375028,-0.720250642510004,0.355859564113597,ST
2.3,-5.95032644271851,-2.86988997459412,6.45874786376953,3.33081388473511,-0.320124000310898,0.541162014007568,-945.900024414062,21.3000011444092,-923.700012207031,3.1003877380072,-0.699925599040111,0.410746494319616,ST
2.33333333333333,-5.99339246749878,-2.57141661643982,6.12139511108398,3.55947399139404,-0.487807989120483,0.190549999475479,-953.100036621094,18.9000015258789,-916.500061035156,3.100722089913,-0.733230528396602,0.391141573694559,ST
2.36666666666667,-6.61426496505737,-1.81536388397217,5.92759704589844,4.42838191986084,0.0914639979600906,0.335367977619171,-960.300048828125,15.3000001907349,-921.300048828125,3.04869588371487,-0.817082070070207,0.290239709316713,ST
2.4,-6.9617862701416,-1.48877787590027,6.06576776504517,4.70277404785156,0.571649968624115,0.731711983680725,-955.500061035156,10.5,-923.700012207031,3.02650741276086,-0.84062991002619,0.2318736388449,ST
2.43333333333333,-7.09576988220215,-0.122021168470383,5.84086608886719,4.984787940979,0.114329993724823,2.34757590293884,-948.300048828125,7.50000047683716,-923.700012207031,2.87252288669275,-0.881899104085533,0.0100801110436318,ST
2.46666666666667,-7.67776298522949,0.179442897439003,4.72951650619507,4.05490398406982,-0.259148001670837,3.22410583496094,-955.500061035156,11.7000007629395,-923.700012207031,2.83169054981732,-1.01667234586436,-0.0535344331631343,ST
2.5,-9.17431735992432,0.958823204040527,6.16027450561523,1.12043392658234,1.53964400291443,5.09911775588989,-945.900024414062,-1.5,-928.500061035156,2.72150948182287,-0.975526558886888,-0.169012324129288,ST
2.53333333333333,-8.4110860824585,0.765622973442078,7.06765747070312,-0.0838419944047928,0.342989981174469,5.07625198364258,-953.100036621094,8.70000076293945,-914.100036621094,2.74113957549813,-0.869974517890521,-0.118851781685967,ST
2.56666666666667,-7.2004451751709,0.386998504400253,6.92709398269653,-1.2423859834671,-1.57013201713562,2.9192259311676,-950.700012207031,4.5,-921.300048828125,2.7669366228715,-0.801645571372903,-0.0593343573592356,ST
2.6,-6.44977569580078,0.288903057575226,6.40132617950439,-1.54726600646973,-2.37806391716003,0.510673999786377,-955.500061035156,12.3000001907349,-918.900024414062,2.76963203173349,-0.784683925824334,-0.0433009109655253,ST
2.63333333333333,-6.77576351165771,-0.0687864422798157,6.6573314666748,-1.49391198158264,-2.4923939704895,-0.846041977405548,-955.500061035156,3.30000019073486,-928.500061035156,2.80707807343861,-0.789767774483672,0.0136754074583165,ST
2.66666666666667,-6.01791620254517,-0.61847984790802,5.89410066604614,-0.922261953353882,-2.41617393493652,-1.6692179441452,-955.500061035156,10.5,-916.500061035156,2.87624559622775,-0.788592985743214,0.107649861075487,ST
2.7,-7.27341842651367,-1.0395724773407,6.53351545333862,-0.243903994560242,-1.87501192092896,-0.746955990791321,-960.300048828125,15.9000005722046,-921.300048828125,2.91408155870288,-0.82893106055416,0.158588804517671,ST
2.73333333333333,-7.34579372406006,-1.24174475669861,7.06107759475708,0.937505960464478,-1.89787793159485,1.11281192302704,-965.100036621094,12.9000005722046,-930.900024414062,2.9201648599131,-0.794916226729953,0.169812066294427,ST
2.76666666666667,-6.11003065109253,-1.10237753391266,6.33732461929321,0.663114011287689,-2.63721203804016,1.41006994247437,-965.100036621094,5.10000038146973,-940.500061035156,2.91297757956719,-0.755862819430103,0.168051017973592,ST
2.8,-7.13524770736694,-0.73751026391983,7.02339458465576,-0.579271972179413,-2.9344699382782,0.685979962348938,-967.500061035156,6.90000009536743,-938.100036621094,2.86157161004844,-0.785244493808134,0.104721749415271,ST
2.83333333333333,-6.26554775238037,-0.595750391483307,6.74884700775146,-1.18140995502472,-2.56861400604248,0.617381989955902,-965.100036621094,5.70000028610229,-926.100036621094,2.84160106806003,-0.742505353322626,0.0889397044815845,ST
2.86666666666667,-6.43781280517578,-1.00667464733124,7.3972339630127,-2.14940404891968,-2.32470989227295,0.647870004177094,-984.300048828125,10.5,-926.100036621094,2.86007981146578,-0.708181974852807,0.13699584448533,ST
2.9,-5.7122654914856,-0.86790543794632,7.86677646636963,-1.93598794937134,-2.42379593849182,0.25152599811554,-989.100036621094,9.90000057220459,-933.300048828125,2.83511127083651,-0.622089407335023,0.112873939394548,ST
2.93333333333333,-5.09498167037964,-0.581394970417023,7.75013828277588,-1.71494996547699,-0.899396002292633,0.259148001670837,-981.900024414062,11.1000003814697,-942.900024414062,2.80753721108703,-0.579284763577889,0.0779098821635452,ST
2.96666666666667,-4.94963312149048,-0.378026366233826,7.73757743835449,-1.6615959405899,0.937505960464478,0.762199997901917,-974.700012207031,6.90000009536743,-933.300048828125,2.78325767794082,-0.570352007090276,0.0511920257218453,ST
3.0,-4.94185733795166,-0.399559497833252,8.31538391113281,-2.01982998847961,2.9192259311676,1.21951997280121,-967.500061035156,17.7000007629395,-942.900024414062,2.7703868755131,-0.541269857671817,0.0504105748319184,ST
3.03333333333333,-4.4023323059082,-0.74050098657608,8.08988380432129,-2.14178204536438,3.66618180274963,0.274392008781433,-981.900024414062,17.7000007629395,-935.700012207031,2.78590912753291,-0.503499881750281,0.0945384504664484,ST
3.06666666666667,-4.97236251831055,-1.10776078701019,8.50260257720947,-2.33233189582825,4.28356409072876,-0.655492007732391,-981.900024414062,17.7000007629395,-938.100036621094,2.80469829010135,-0.532419474183164,0.134363144462894,ST
3.1,-5.03935432434082,-1.68317437171936,8.24300861358643,-1.42531394958496,5.23631381988525,-1.92836594581604,-962.700012207031,8.70000076293945,-923.700012207031,2.85292576463722,-0.547799202411398,0.206277148805825,ST
3.13333333333333,-5.26784515380859,-1.73999786376953,8.57437992095947,-0.640248000621796,5.31253385543823,-2.70580983161926,-957.900024414062,17.7000007629395,-923.700012207031,2.87101641664018,-0.550056391419405,0.205306797877745,ST
3.16666666666667,-5.27502298355103,-1.57311606407166,8.28368186950684,0.731711983680725,3.60520601272583,-3.01831197738647,-948.300048828125,11.7000007629395,-923.700012207031,2.88729182551271,-0.564115918139037,0.190517969600148,ST
3.2,-5.72542428970337,-1.36017715930939,7.35596227645874,1.64635193347931,2.97257995605469,-2.78202986717224,-948.300048828125,14.1000003814697,-916.500061035156,2.90881511603648,-0.656778940106632,0.184400424628963,ST
3.23333333333333,-6.35825967788696,-1.758540391922,7.9337682723999,1.6920839548111,2.54574799537659,-2.10367202758789,-948.300048828125,17.1000003814697,-911.700012207031,2.94919102469688,-0.667355655301302,0.218327193817212,ST
3.26666666666667,-6.37201690673828,-1.15022897720337,7.1825008392334,1.6920839548111,0.777444005012512,-1.51677799224854,-938.700012207031,12.3000001907349,-923.700012207031,2.92608470728052,-0.71967024627646,0.1590752540957,ST
3.3,-5.65005826950073,-1.41879510879517,5.84445476531982,1.38720393180847,-0.411587983369827,-0.403965979814529,-924.300048828125,15.9000005722046,-921.300048828125,2.98499845193455,-0.753002670634882,0.23538351199121,ST
3.33333333333333,-6.20214462280273,-1.57191967964172,5.84086608886719,-0.205793991684914,-0.655492007732391,-0.655492007732391,-936.300048828125,13.5000009536743,-916.500061035156,3.00600161678385,-0.79599233903953,0.263712579581526,ST
3.36666666666667,-6.63998508453369,-1.94157207012177,5.19128274917603,-0.884151995182037,-0.403965979814529,-0.579271972179413,-931.500061035156,9.30000019073486,-916.500061035156,3.07441803661938,-0.873668867201264,0.35950091365164,ST
3.4,-7.08021831512451,-3.2766273021698,5.81095886230469,-1.37195992469788,1.39482593536377,0.0076219998300075,-921.900024414062,16.5,-918.900024414062,-3.09574917869121,-0.818037724062573,0.515283726532955,ST
3.43333333333333,-6.16864824295044,-4.52854061126709,5.60579586029053,-1.43293595314026,1.08232402801514,-1.47104597091675,-936.300048828125,15.3000001907349,-904.500061035156,-2.97706747921571,-0.709270613592132,0.682888396184907,ST
3.46666666666667,-7.55215311050415,-3.44410729408264,6.21590185165405,-1.63110792636871,0.609759986400604,-3.09453201293945,-926.700012207031,19.5,-916.500061035156,-3.08620674852365,-0.812911490891339,0.516659951004069,ST
3.5,-7.76210117340088,-3.40582609176636,5.55016851425171,1.58537602424622,0.0152439996600151,0.0076219998300075,-941.100036621094,21.9000015258789,-921.300048828125,-3.0558122183192,-0.87207082584813,0.547211864347547,ST
3.53333333333333,-8.03485488891602,-3.44231271743774,5.3180890083313,0.762199997901917,0.67835795879364,0.0304879993200302,-926.700012207031,18.9000015258789,-918.900024414062,-3.03026747838069,-0.903782581836779,0.57355058780756,ST
3.56666666666667,-8.12337970733643,-2.69164347648621,5.93896150588989,0.236281991004944,0.282013982534409,0.67835795879364,-902.700012207031,15.3000001907349,-911.700012207031,3.13651081842365,-0.895540029612522,0.425823556871875,ST
3.6,-7.4032154083252,-2.7442798614502,4.99628829956055,-0.46494197845459,-0.388722002506256,0.617381989955902,-929.100036621094,14.7000007629395,-909.300048828125,-3.09307032538145,-0.914333958748129,0.50049414767449,ST
3.63333333333333,-7.6029953956604,-2.25200819969177,4.55366230010986,-0.868907988071442,0.205793991684914,0.541162014007568,-941.100036621094,22.5,-914.100036621094,-3.131711520531,-0.981670825660908,0.460330261774406,ST
3.66666666666667,-7.82789707183838,-2.47272300720215,4.44300603866577,-0.190549999475479,1.57775402069092,1.02134799957275,-938.700012207031,15.9000005722046,-914.100036621094,-3.09393510869431,-0.997900035072933,0.507544205193497,ST
3.7,-7.59163045883179,-2.19638109207153,4.50700712203979,0.442075997591019,2.10367202758789,1.51677799224854,-921.900024414062,13.5000009536743,-918.900024414062,-3.13960020558996,-0.991630955337412,0.451850185545461,ST
3.73333333333333,-7.68314647674561,-2.40214228630066,4.93109083175659,0.922261953353882,1.43293595314026,1.36433792114258,-924.300048828125,15.3000001907349,-909.300048828125,-3.1383192835129,-0.954545390442285,0.45024709696458,ST
3.76666666666667,-8.08509826660156,-2.11682796478271,5.37371635437012,1.39482593536377,0.411587983369827,1.34909391403198,-912.300048828125,13.5000009536743,-906.900024414062,3.0835364536724,-0.952078384414083,0.371089256365046,ST
3.8,-7.80337333679199,-2.08632278442383,4.94843673706055,1.50153398513794,-1.14329993724823,1.60824191570282,-912.300048828125,20.7000007629395,-914.100036621094,3.10107758953483,-0.967163518586481,0.391346043348487,ST
3.83333333333333,-8.07313537597656,-2.155109167099,5.21461057662964,0.884151995182037,-1.14329993724823,1.6844619512558,-912.300048828125,14.1000003814697,-909.300048828125,3.09362594190218,-0.960154951873864,0.385462347426833,ST
3.86666666666667,-7.92718887329102,-2.42666602134705,5.55854272842407,0.442075997591019,-1.41769194602966,1.27287399768829,-905.100036621094,10.5,-911.700012207031,3.10640218518993,-0.916844883494049,0.406660014628732,ST
3.9,-8.09048175811768,-2.17365145683289,5.87675476074219,0.487807989120483,-1.74543797969818,0.907018005847931,-912.300048828125,15.3000001907349,-911.700012207031,3.05895991838824,-0.909603171845577,0.350832561291108,ST
3.93333333333333,-7.8536171913147,-1.93439435958862,5.75174283981323,1.18140995502472,-2.59148001670837,1.09756803512573,-921.900024414062,12.9000005722046,-921.300048828125,3.03213423255227,-0.909259931020732,0.318583647405929,ST
3.96666666666667,-8.04263019561768,-1.43135607242584,5.73918199539185,0.899396002292633,-3.09453201293945,1.74543797969818,-919.500061035156,14.1000003814697,-916.500061035156,2.96242677022741,-0.931996500049523,0.23772533160635,ST
4.0,-6.98032855987549,-0.480906963348389,5.78763151168823,-0.861285984516144,-3.23934984207153,2.09605002403259,-917.100036621094,17.1000003814697,-921.300048828125,2.82375612793217,-0.872017736970583,0.0805674923713485,ST
4.03333333333333,-5.80378103256226,-0.236266478896141,5.4556622505188,-2.13416004180908,-2.29422187805176,1.32622802257538,-936.300048828125,11.7000007629395,-921.300048828125,2.7809058664991,-0.812684329166288,0.0447688099690676,ST
4.06666666666667,-5.82770681381226,-0.91874760389328,7.17412662506104,-2.87349390983582,0.853663980960846,0.327746003866196,-933.900024414062,12.9000005722046,-916.500061035156,2.82658280393297,-0.68142989434025,0.131100862762082,ST
4.1,-5.7421727180481,-1.72803509235382,7.84524297714233,-2.0731840133667,1.61586391925812,-0.297257989645004,-943.500061035156,12.9000005722046,-923.700012207031,2.87578433403655,-0.623673520376012,0.220583748465959,ST
4.13333333333333,-5.72004127502441,-2.04624700546265,8.03664875030518,-0.792688012123108,1.95885396003723,-0.0914639979600906,-933.900024414062,15.9000005722046,-918.900024414062,2.8933789713664,-0.607284472642451,0.251022243401891,ST
4.16666666666667,-4.64637470245361,-2.52236890792847,7.45824480056763,0.0914639979600906,1.22714197635651,0.891773998737335,-929.100036621094,20.7000007629395,-923.700012207031,2.93089292889943,-0.536125636140009,0.325054291019463,ST
4.2,-4.44659471511841,-3.05052924156189,6.6902289390564,-0.144817993044853,0.350611984729767,0.87652999162674,-924.300048828125,16.5,-911.700012207031,2.97879822524338,-0.545030764399994,0.426466882719709,ST
4.23333333333333,-4.57220506668091,-3.37890958786011,6.55385255813599,-0.160062000155449,0.0609759986400604,0.899396002292633,-924.300048828125,15.9000005722046,-909.300048828125,2.99909481376266,-0.555787217835643,0.475097939857567,ST
4.26666666666667,-4.88622999191284,-3.72224378585815,7.05031108856201,0.388722002506256,-0.983237981796265,0.609759986400604,-926.700012207031,11.1000003814697,-916.500061035156,2.99962940338878,-0.548897841919306,0.483907487796739,ST
4.3,-5.52564477920532,-3.85622763633728,7.26743698120117,1.40244793891907,-3.07166600227356,0.106707997620106,-931.500061035156,17.1000003814697,-911.700012207031,2.99602626698585,-0.586446998202547,0.483617795829995,ST
4.33333333333333,-6.87984037399292,-3.5152862071991,6.67647171020508,1.98934197425842,-4.68753004074097,-0.800309956073761,-926.700012207031,13.5000009536743,-928.500061035156,2.99393096328525,-0.72962242638704,0.478930263844554,ST
4.36666666666667,-8.452956199646,-3.08342695236206,6.90316820144653,1.84452390670776,-3.33081388473511,-0.853663980960846,-948.300048828125,5.70000028610229,-921.300048828125,2.9555204177333,-0.833878399192153,0.416600945208292,ST
4.4,-8.52353763580322,-2.4117124080658,6.32416582107544,1.60824191570282,-1.38720393180847,-0.0609759986400604,-955.500061035156,17.7000007629395,-930.900024414062,2.91958033842604,-0.896822897215062,0.36108617699492,ST
4.43333333333333,-8.40689945220947,-1.85244882106781,5.83368825912476,1.20427596569061,0.449698001146317,1.15854394435883,-941.100036621094,15.9000005722046,-921.300048828125,2.87645518828427,-0.942290009114034,0.303796439358598,ST
4.46666666666667,-8.35665512084961,-0.909177303314209,6.25537919998169,0.823175966739655,1.11281192302704,2.41617393493652,-948.300048828125,20.1000003814697,-918.900024414062,2.74038988993391,-0.926013768242037,0.139690115438789,ST
4.5,-8.03485488891602,-0.0131591456010938,6.25418281555176,1.76830399036407,0.731711983680725,4.25307607650757,-953.100036621094,16.5,-911.700012207031,2.61489768228507,-0.910886899247634,-0.0087563577115351,ST
4.53333333333333,-6.68125677108765,0.267968058586121,4.50401639938354,2.37044191360474,0.99848198890686,5.44972991943359,-941.100036621094,3.90000009536743,-918.900024414062,2.55197535489132,-0.977105812539244,-0.0768677765422603,ST
4.56666666666667,-6.24162197113037,0.633433401584625,4.79411602020264,1.15092194080353,1.82927989959717,4.59606599807739,-936.300048828125,8.10000038146973,-902.100036621094,2.48568963235529,-0.914476154988186,-0.143502458157095,ST
4.6,-7.05748891830444,0.726145565509796,6.65254592895508,0.480185985565186,1.04421401023865,4.02441596984863,-938.700012207031,9.30000019073486,-909.300048828125,2.48954125797671,-0.813860641963638,-0.117388056980211,ST
4.63333333333333,-6.83797025680542,0.495860517024994,6.87086820602417,0.358233988285065,-0.342989981174469,3.05642199516296,-936.300048828125,9.90000057220459,-918.900024414062,2.50563347441689,-0.781100069522867,-0.0783724827611671,ST
4.66666666666667,-7.06167602539062,0.535936117172241,6.96058988571167,0.228659987449646,-1.02897000312805,1.60824191570282,-941.100036621094,11.7000007629395,-914.100036621094,2.4987708914453,-0.789019632563754,-0.0799036108894692,ST
4.7,-7.24769830703735,-0.0927121639251709,6.97733783721924,0.419209986925125,-0.746955990791321,0.129574000835419,-931.500061035156,12.9000005722046,-916.500061035156,2.56567413077958,-0.802973057699853,0.0116103549712888,ST
4.73333333333333,-7.94513320922852,-0.672312676906586,6.96358060836792,0.213415995240211,0.670735955238342,-1.36433792114258,-941.100036621094,6.30000019073486,-918.900024414062,2.63660388789298,-0.84938734412635,0.0978871983762608,ST
4.76666666666667,-7.92001104354858,-1.08084440231323,6.66630363464355,1.01372599601746,2.75916385650635,-1.63872992992401,-931.500061035156,9.90000057220459,-921.300048828125,2.70013375569288,-0.86889782243711,0.162719680825375,ST
4.8,-6.73748254776001,-1.68496870994568,6.98092651367188,1.6768399477005,2.00458598136902,-1.90549993515015,-933.900024414062,8.70000076293945,-909.300048828125,2.77367898678731,-0.756989511302653,0.237279592580764,ST
4.83333333333333,-6.2667441368103,-1.3900842666626,6.56342267990112,1.05945801734924,0.823175966739655,-3.58996200561523,-919.500061035156,6.90000009536743,-914.100036621094,2.77877870408513,-0.751473693246608,0.21316347481883,ST
4.86666666666667,-6.53231954574585,-0.853550016880035,6.58974123001099,0.274392008781433,0.632625997066498,-2.84300589561462,-929.100036621094,13.5000009536743,-909.300048828125,2.73999189606313,-0.777145058457739,0.1338162698938,ST
4.9,-5.68534898757935,-1.0975923538208,6.52753400802612,0.0228659994900227,1.2500079870224,-1.50153398513794,-919.500061035156,5.70000028610229,-911.700012207031,2.77222302232648,-0.711944172860067,0.168809343002797,ST
4.93333333333333,-6.33971738815308,-1.338045835495,7.71484804153442,-1.12805593013763,1.81403601169586,-1.22714197635651,-917.100036621094,11.7000007629395,-914.100036621094,2.77986423144812,-0.683566309111103,0.175807725936878,ST
4.96666666666667,-6.6274242401123,-1.39367318153381,7.68135213851929,-1.04421401023865,1.85214591026306,-0.525918006896973,-921.900024414062,9.90000057220459,-918.900024414062,2.78400115414672,-0.706717472586018,0.182519393742595,ST
5.0,-6.60050773620605,-1.21602463722229,7.4630298614502,-1.06708002090454,1.77592599391937,-0.205793991684914,-905.100036621094,14.7000007629395,-904.500061035156,2.77006644333439,-0.720480749964632,0.164360020495482,ST
5.03333333333333,-6.64477014541626,-1.25490391254425,7.56052732467651,-0.685979962348938,1.08232402801514,-0.0762199983000755,-907.500061035156,12.9000005722046,-914.100036621094,2.76943123723064,-0.716169097646411,0.166047152388419,ST
5.06666666666667,-6.92111253738403,-1.18133234977722,6.84096097946167,-0.548784017562866,-0.655492007732391,-0.792688012123108,-909.900024414062,13.5000009536743,-904.500061035156,2.77484355905945,-0.781701420005724,0.173025223095993,ST
5.1,-7.16216373443604,-1.13706982135773,6.19975185394287,-0.579271972179413,-0.381099998950958,-0.754577994346619,-902.700012207031,15.3000001907349,-902.100036621094,2.78271338671282,-0.847399663915238,0.183592710962048,ST
5.13333333333333,-6.51856231689453,-1.1735565662384,6.01193523406982,-0.160062000155449,0.739333987236023,-0.304879993200302,-909.900024414062,14.1000003814697,-909.300048828125,2.79151580755504,-0.817866448265633,0.193807728779668,ST
5.16666666666667,-6.12438583374023,-1.35180306434631,5.9951868057251,0.769822001457214,0.541162014007568,-0.289635986089706,-917.100036621094,14.1000003814697,-906.900024414062,2.81614727303812,-0.784884146355597,0.220811221422862,ST
5.2,-5.80198669433594,-1.57670485973358,4.95322179794312,0.914639949798584,-0.0838419944047928,-0.868907988071442,-905.100036621094,13.5000009536743,-902.100036621094,2.88724481994684,-0.839186288927193,0.307319508087307,ST
5.23333333333333,-6.82600736618042,-2.01813435554504,4.43941736221313,-0.0762199983000755,0.92988395690918,-2.11129403114319,-895.500061035156,12.3000001907349,-897.300048828125,2.99219220690223,-0.949100768404745,0.430638829785837,ST
5.26666666666667,-7.57548093795776,-2.44221782684326,4.89699649810791,-0.510673999786377,1.81403601169586,-2.59910202026367,-912.300048828125,21.9000015258789,-911.700012207031,3.03362688886184,-0.946048425783308,0.470609273467379,ST
5.3,-7.75372743606567,-2.9781539440155,4.995689868927,-0.525918006896973,1.57013201713562,-2.52288198471069,-909.900024414062,11.1000003814697,-911.700012207031,3.10172643391925,-0.927560689288225,0.544526996360235,ST
5.33333333333333,-8.66768932342529,-3.31610465049744,5.49813032150269,-0.442075997591019,0.381099998950958,-1.98171997070312,-900.300048828125,18.9000015258789,-909.300048828125,3.10933715119105,-0.931948297037472,0.54789955198343,ST
5.36666666666667,-9.2167854309082,-3.69233655929565,5.76550006866455,-0.114329993724823,-0.25152599811554,-1.18140995502472,-895.500061035156,18.3000011444092,-902.100036621094,3.13098317972293,-0.930438652168301,0.571531077392097,ST
5.4,-9.00085544586182,-3.02421092987061,5.59323501586914,-0.0152439996600151,-1.47866797447205,0.167683988809586,-902.700012207031,13.5000009536743,-894.900024414062,3.06482305999876,-0.953478784531582,0.49419787970013,ST
5.43333333333333,-7.94453477859497,-2.88603973388672,3.96150088310242,-0.0304879993200302,-1.53202199935913,0.967993974685669,-905.100036621094,17.7000007629395,-899.700012207031,-3.11656407493687,-1.01610957962216,0.623163275599712,ST
5.46666666666667,-8.20054054260254,-2.19697904586792,4.41250085830688,-0.495429992675781,-0.350611984729767,1.34909391403198,-900.300048828125,14.7000007629395,-902.100036621094,3.02095890558909,-1.03000104249669,0.460912360094813,ST
5.5,-7.9253945350647,-1.84287846088409,4.30543327331543,-0.289635986089706,-0.121951997280121,2.56861400604248,-905.100036621094,15.9000005722046,-902.100036621094,2.9580627637007,-1.03854247867222,0.398586315592159,ST
5.53333333333333,-7.31229782104492,-1.64190244674683,4.40173435211182,-0.907018005847931,0.0914639979600906,2.25611186027527,-897.900024414062,11.7000007629395,-904.500061035156,2.907762135851,-1.00170697077579,0.353444342206203,ST
5.56666666666667,-7.3284478187561,-1.68915569782257,4.68704843521118,-1.28049600124359,-0.182927995920181,1.56251001358032,-902.700012207031,18.9000015258789,-902.100036621094,2.88798824809626,-0.974687348957966,0.344293387949587,ST
5.6,-7.43491697311401,-2.08931350708008,6.1052451133728,-1.44055795669556,0.106707997620106,0.304879993200302,-900.300048828125,13.5000009536743,-899.700012207031,2.86971894275582,-0.857574312965165,0.331819535646476,ST
5.63333333333333,-7.24291324615479,-2.42726421356201,6.18599462509155,-0.335367977619171,-0.3125019967556,0.175305992364883,-900.300048828125,14.7000007629395,-899.700012207031,2.89800957414663,-0.828278939177688,0.373621260013726,ST
5.66666666666667,-7.39843034744263,-2.87048816680908,6.67348098754883,0.480185985565186,0.716467976570129,0.945127964019775,-897.900024414062,21.9000015258789,-904.500061035156,2.91961072806538,-0.796715378402039,0.403967032795002,ST
5.7,-6.95819711685181,-3.24193501472473,6.74346399307251,1.16616594791412,1.02134799957275,2.05031800270081,-893.100036621094,14.1000003814697,-904.500061035156,2.94570397105793,-0.7528216482055,0.443334917845055,ST
5.73333333333333,-6.9498233795166,-3.24372935295105,6.63220930099487,1.13567793369293,0.807931959629059,2.84300589561462,-897.900024414062,11.1000003814697,-902.100036621094,2.94446648324322,-0.7585497705962,0.449187440748785,ST
5.76666666666667,-6.76918411254883,-3.26047730445862,6.36962461471558,0.777444005012512,0.327746003866196,3.29270386695862,-905.100036621094,13.5000009536743,-894.900024414062,2.94720309771882,-0.760733260089621,0.466907891737262,ST
5.8,-6.42465353012085,-2.98353719711304,6.58914279937744,0.518296003341675,-0.327746003866196,3.75002384185791,-890.700012207031,11.7000007629395,-894.900024414062,2.89906194201421,-0.728668190361798,0.419078289669514,ST
5.83333333333333,-6.40850400924683,-3.10675454139709,6.80268001556396,1.2576299905777,-1.37195992469788,4.984787940979,-907.500061035156,16.5,-887.700012207031,2.8794857875041,-0.710098444830986,0.418554781883861,ST
5.86666666666667,-5.88333415985107,-2.72095227241516,6.1590781211853,2.11129403114319,-3.06404399871826,5.67839002609253,-895.500061035156,11.1000003814697,-904.500061035156,2.8471458222929,-0.717053142802216,0.402720578943424,ST
5.9,-5.83548259735107,-2.30883193016052,5.93537282943726,1.77592599391937,-3.91008591651917,5.38113164901733,-912.300048828125,9.30000019073486,-906.900024414062,2.79477466452702,-0.738434997606134,0.35823047061588,ST
5.93333333333333,-6.12737655639648,-1.92243146896362,5.51667261123657,1.18903195858002,-4.5655779838562,4.74088382720947,-917.100036621094,1.5,-897.300048828125,2.74868193066926,-0.803546599710666,0.322906296908542,ST
5.96666666666667,-6.56342267990112,-1.17116391658783,5.05012130737305,-0.495429992675781,-3.58234000205994,3.10215401649475,-936.300048828125,5.70000028610229,-902.100036621094,2.65418867895464,-0.896283537404909,0.221811934707847,ST
6.0,-7.59641551971436,-0.648985147476196,5.55495357513428,-1.17378795146942,-2.080806016922,3.01068997383118,-919.500061035156,1.5,-904.500061035156,2.5487570044012,-0.932755372144312,0.112178217887276,ST
6.03333333333333,-8.35246849060059,-0.275145769119263,5.7302098274231,-0.99848198890686,-0.571649968624115,3.73477983474731,-924.300048828125,10.5,-904.500061035156,2.47132550147207,-0.967894439366755,0.0409888861844227,ST
6.06666666666667,-8.37878704071045,0.167480036616325,6.53231954574585,-0.541162014007568,0.594515979290009,4.55795574188232,-926.700012207031,7.50000047683716,-909.300048828125,2.39058690702881,-0.909969242760101,-0.0341221159704252,ST
6.1,-7.73099803924561,0.57660984992981,6.59931135177612,0.121951997280121,-0.297257989645004,4.65704202651978,-938.700012207031,8.70000076293945,-897.300048828125,2.32446033390533,-0.86166854975554,-0.0960477585657485,ST
6.13333333333333,-6.69142532348633,0.748875021934509,5.89828777313232,0.594515979290009,-1.57775402069092,3.94819593429565,-924.300048828125,2.70000004768372,-897.300048828125,2.28301096575578,-0.840974724575608,-0.134125734187174,ST
6.16666666666667,-6.96417856216431,1.11374223232269,5.65603971481323,0.106707997620106,-2.08842802047729,2.72867584228516,-941.100036621094,4.5,-897.300048828125,2.22393326230283,-0.874648413585489,-0.198935497993598,ST
6.2,-7.71425008773804,1.20226740837097,6.14233016967773,-0.495429992675781,-2.05031800270081,2.39330792427063,-943.500061035156,0.300000011920929,-894.900024414062,2.21546039783476,-0.884730328992385,-0.196620501276879,ST
6.23333333333333,-6.90735483169556,0.407933503389359,6.72312688827515,-1.43293595314026,-1.76068198680878,2.0655620098114,-941.100036621094,-0.300000011920929,-897.300048828125,2.30025070660306,-0.795838445386294,-0.0631042966371177,ST
6.26666666666667,-7.41816902160645,0.324791640043259,7.58624744415283,-2.17989206314087,-1.92836594581604,1.37958192825317,-950.700012207031,-1.5,-892.500061035156,2.29959393518891,-0.770538666259112,-0.0414056285726917,ST
6.3,-6.63460206985474,-0.256603330373764,8.50439643859863,-1.79117000102997,-1.71494996547699,0.861285984516144,-950.700012207031,2.10000014305115,-892.500061035156,2.33551588198209,-0.66050431451913,0.0313379042185715,ST
6.33333333333333,-5.99219608306885,-0.305651068687439,8.51695823669434,-0.602137982845306,-1.82165801525116,-1.21951997280121,-950.700012207031,6.90000009536743,-897.300048828125,2.34332259633332,-0.610174446812308,0.0382496845185577,ST
6.36666666666667,-5.99638319015503,0.0502440109848976,8.11560344696045,0.327746003866196,-0.106707997620106,-1.60824191570282,-945.900024414062,6.90000009536743,-902.100036621094,2.32850743598886,-0.635930729944545,-0.0043095849467412,ST
6.4,-6.05619764328003,0.148937597870827,7.30392360687256,0.815553963184357,2.0655620098114,-2.12653803825378,-943.500061035156,-0.900000035762787,-885.300048828125,2.33326707764051,-0.695113105381119,-0.0186076148247866,ST
6.43333333333333,-6.46054220199585,0.0011962859425693,7.04313325881958,0.37347799539566,3.06404399871826,-2.66007804870605,-950.700012207031,8.10000038146973,-882.900024414062,2.3617414649448,-0.746979324360531,0.0031795569663639,ST
6.46666666666667,-5.94673728942871,-0.273949474096298,6.84634447097778,-0.289635986089706,2.9192259311676,-3.53660798072815,-943.500061035156,0.300000011920929,-875.700012207031,2.40609776128772,-0.719961155125107,0.0455812904096638,ST
6.5,-5.94255018234253,-0.205163031816483,6.64297580718994,-0.830797970294952,0.78506600856781,-4.86283588409424,-945.900024414062,0.300000011920929,-878.100036621094,2.4232237283897,-0.730520021475236,0.0400102643290382,ST
6.53333333333333,-6.26734209060669,-0.421092659235001,6.68963098526001,-0.815553963184357,-0.518296003341675,-5.16771602630615,-943.500061035156,6.90000009536743,-870.900024414062,2.46530673714443,-0.750067340119613,0.0722098469939352,ST
6.56666666666667,-6.31100654602051,-0.858335137367249,6.28887510299683,-0.945127964019775,-1.20427596569061,-5.83083009719849,-936.300048828125,9.30000019073486,-875.700012207031,2.54070231342215,-0.778843240406817,0.146483039596824,ST
6.6,-6.83677434921265,-1.13706982135773,6.17821884155273,-0.830797970294952,-0.586893975734711,-5.89942789077759,-955.500061035156,6.90000009536743,-863.700012207031,2.59696410133661,-0.824318688291609,0.1937539347225,ST
6.63333333333333,-7.04133892059326,-1.76990509033203,5.72123765945435,-0.137196004390717,0.739333987236023,-4.77137184143066,-945.900024414062,15.9000005722046,-887.700012207031,2.70433941645488,-0.864463717071223,0.3091182712407,ST
6.66666666666667,-7.23214673995972,-2.42786240577698,5.81574392318726,-0.0609759986400604,1.6615959405899,-3.94057393074036,-943.500061035156,10.5,-885.300048828125,2.79356057824228,-0.854133186714512,0.403173806466469,ST
6.7,-7.15977144241333,-2.65934371948242,5.80318307876587,-0.358233988285065,1.2423859834671,-3.44514393806458,-933.900024414062,15.9000005722046,-873.300048828125,2.83260821396619,-0.842241176566296,0.437050743920353,ST
6.73333333333333,-6.96537494659424,-3.05351996421814,5.26545238494873,-0.106707997620106,0.426831990480423,-3.24697184562683,-960.300048828125,14.7000007629395,-875.700012207031,2.91592097399672,-0.850349353947934,0.530877906113226,ST
6.76666666666667,-7.43850612640381,-3.33584332466125,5.63271236419678,-0.0533539988100529,0.724089980125427,-3.04879999160767,-943.500061035156,12.9000005722046,-890.100036621094,2.93546612405968,-0.847492638260766,0.540572939628675,ST
6.8,-6.88821458816528,-4.08651256561279,5.14343118667603,0.243903994560242,-0.25152599811554,-2.46952795982361,-945.900024414062,23.1000003814697,-880.500061035156,3.04184335878206,-0.806650789811581,0.672644750906606,ST
6.83333333333333,-8.32734680175781,-3.63670921325684,6.01731824874878,-0.0685980021953583,-0.0838419944047928,-2.25611186027527,-953.100036621094,16.5,-885.300048828125,2.95755413923174,-0.866943118262144,0.548802176672565,ST
6.86666666666667,-7.42654323577881,-3.50272512435913,5.59622573852539,0.632625997066498,-0.609759986400604,-0.571649968624115,-943.500061035156,17.1000003814697,-897.300048828125,2.96881295838041,-0.842852900980906,0.558396128461329,ST
6.9,-7.03475952148438,-3.28141236305237,6.0789270401001,-0.0381099991500378,-1.04421401023865,0.0533539988100529,-941.100036621094,18.3000011444092,-897.300048828125,2.91979769185367,-0.793550891954128,0.494824302194644,ST
6.93333333333333,-6.78772640228271,-3.09778237342834,6.22128486633301,-0.129574000835419,-1.76830399036407,0.937505960464478,-953.100036621094,23.7000007629395,-882.900024414062,2.88719924773875,-0.771832787972473,0.459873317360704,ST
6.96666666666667,-6.54607677459717,-2.8561327457428,6.1088342666626,-0.0304879993200302,-1.54726600646973,1.43293595314026,-957.900024414062,19.5,-890.100036621094,2.86012722712312,-0.769177138436268,0.434363173690627,ST
7.0,-6.28169727325439,-2.58517384529114,6.37261533737183,0.411587983369827,-1.00610399246216,2.75154185295105,-955.500061035156,15.9000005722046,-902.100036621094,2.81150791946035,-0.740714453614145,0.380632149824362,ST
7.03333333333333,-6.03645896911621,-2.2472231388092,6.8337836265564,0.434453994035721,0.685979962348938,2.40092992782593,-960.300048828125,20.1000003814697,-899.700012207031,2.74281592214963,-0.700579521984056,0.313901352910978,ST
7.06666666666667,-6.23743486404419,-2.34950566291809,6.64955520629883,0.327746003866196,0.853663980960846,2.5076379776001,-955.500061035156,14.1000003814697,-906.900024414062,2.74838513914429,-0.726679180927391,0.335570272974494,ST
7.1,-6.61306858062744,-2.2250919342041,6.49104738235474,0.266770005226135,1.05183601379395,2.65245604515076,-936.300048828125,16.5,-906.900024414062,2.73319376278132,-0.769635810741136,0.326235240955316,ST
7.13333333333333,-6.11062860488892,-2.12161302566528,6.6274242401123,-0.381099998950958,0.640248000621796,2.11891603469849,-948.300048828125,19.5,-909.300048828125,2.70925889259818,-0.723074478825961,0.307779801780421,ST
7.16666666666667,-6.07832908630371,-1.83809340000153,6.48028087615967,-0.426831990480423,-0.937505960464478,1.47866797447205,-941.100036621094,14.1000003814697,-914.100036621094,2.67763274195827,-0.733134960805572,0.274903179465356,ST
7.2,-6.04363679885864,-1.62934148311615,5.67876958847046,-0.746955990791321,-1.63110792636871,1.12805593013763,-948.300048828125,13.5000009536743,-911.700012207031,2.6691956997854,-0.793922403092275,0.277969066187147,ST
7.23333333333333,-6.87684965133667,-1.41759884357452,6.05619764328003,-1.07470202445984,-1.32622802257538,1.53202199935913,-945.900024414062,21.9000015258789,-914.100036621094,2.61988581031981,-0.833531604049494,0.228823565538419,ST
7.26666666666667,-7.40261745452881,-1.49057233333588,6.54488039016724,-1.02897000312805,-0.945127964019775,2.52288198471069,-941.100036621094,13.5000009536743,-899.700012207031,2.59766670621329,-0.833609774218846,0.22069116734487,ST
7.3,-7.17173433303833,-1.47083353996277,6.95341205596924,-0.510673999786377,-0.945127964019775,3.53660798072815,-929.100036621094,20.7000007629395,-914.100036621094,2.5664808683251,-0.79008925828673,0.203097906263693,ST
7.33333333333333,-6.31280088424683,-1.41460812091827,6.61247062683105,-0.259148001670837,-1.15092194080353,3.06404399871826,-943.500061035156,15.9000005722046,-923.700012207031,2.55101146001542,-0.750474399976071,0.20591003522938,ST
7.36666666666667,-6.85471868515015,-0.87388688325882,6.80746507644653,0.541162014007568,-1.11281192302704,2.13416004180908,-938.700012207031,16.5,-923.700012207031,2.4861262222893,-0.782937324542713,0.12385733753363,ST
7.4,-7.66938924789429,-0.794932007789612,6.61665773391724,1.43293595314026,-0.190549999475479,2.27897787094116,-938.700012207031,20.7000007629395,-926.100036621094,2.4748494106525,-0.85478581043808,0.112606877807269,ST
7.43333333333333,-7.01083374023438,-0.66633129119873,6.57897472381592,1.28811800479889,0.861285984516144,2.34757590293884,-936.300048828125,17.1000003814697,-928.500061035156,2.45766477763387,-0.816848533438172,0.0946603405856339,ST
7.46666666666667,-7.14481782913208,-0.510215938091278,7.02818012237549,0.792688012123108,0.3125019967556,1.94360995292664,-941.100036621094,17.1000003814697,-926.100036621094,2.43323739426766,-0.79330358920173,0.0679165627424323,ST
7.5,-6.96896362304688,-0.360082060098648,7.72202587127686,0.236281991004944,-0.335367977619171,1.71494996547699,-941.100036621094,9.30000019073486,-923.700012207031,2.40881705392851,-0.733636040283316,0.043628500334853,ST
7.53333333333333,-6.50420665740967,-0.313426911830902,7.66938924789429,-0.0076219998300075,-0.945127964019775,0.914639949798584,-931.500061035156,12.9000005722046,-918.900024414062,2.40106862206415,-0.701616215779078,0.0394809973403841,ST
7.56666666666667,-6.54906749725342,-0.139367312192917,7.07962036132812,-0.335367977619171,-0.358233988285065,-0.221037998795509,-926.700012207031,14.1000003814697,-923.700012207031,2.38830830665848,-0.745221154150247,0.0208534489285759,ST
7.6,-6.44439220428467,-0.321202784776688,6.74884700775146,-0.472563982009888,1.02134799957275,-0.609759986400604,-929.100036621094,8.70000076293945,-911.700012207031,2.4088457256446,-0.763377646973099,0.0492996660950529,ST
7.63333333333333,-6.20513534545898,-0.585581958293915,6.69860315322876,-0.693601965904236,1.28811800479889,-1.12043392658234,-917.100036621094,12.9000005722046,-909.300048828125,2.43931714845408,-0.747545327411729,0.0899006859560645,ST
7.66666666666667,-6.8062686920166,-0.872690618038177,6.72133255004883,-1.04421401023865,0.655492007732391,-1.52439999580383,-926.700012207031,14.1000003814697,-921.300048828125,2.47195253526442,-0.787792127566553,0.133178693001333,ST
7.7,-6.73628616333008,-1.30813872814178,6.25358486175537,-1.64635193347931,0.236281991004944,-1.84452390670776,-929.100036621094,14.1000003814697,-914.100036621094,2.52876791614374,-0.811321859818798,0.211495535301566,ST
7.73333333333333,-6.67946243286133,-1.21482837200165,6.28947353363037,-2.12653803825378,0.0,-2.04269599914551,-921.900024414062,27.3000011444092,-921.300048828125,2.51827616276702,-0.805696877870381,0.198321238985847,ST
7.76666666666667,-6.11062860488892,-1.51928317546844,5.52803754806519,-1.69970595836639,-0.419209986925125,-1.58537602424622,-900.300048828125,17.7000007629395,-926.100036621094,2.57084538542878,-0.815762664192146,0.273242338131008,ST
7.8,-6.38278341293335,-1.9008983373642,5.82352018356323,-1.6768399477005,-0.304879993200302,-1.40244793891907,-921.900024414062,17.7000007629395,-909.300048828125,2.60257070056915,-0.80480314621764,0.320113398229109,ST
7.83333333333333,-6.79071712493896,-2.31900024414062,5.85462331771851,-1.52439999580383,-0.106707997620106,-1.15854394435883,-929.100036621094,21.9000015258789,-909.300048828125,2.6443009898008,-0.821968661617822,0.380980464468659,ST
7.86666666666667,-7.60837841033936,-2.40333843231201,5.70508766174316,-1.265251994133,0.442075997591019,-0.731711983680725,-933.900024414062,17.1000003814697,-911.700012207031,2.65771746288564,-0.887416316746061,0.402522400145934,ST
7.9,-7.31409215927124,-2.58098697662354,5.59084224700928,-0.922261953353882,1.91312193870544,0.335367977619171,-933.900024414062,23.7000007629395,-916.500061035156,2.68004480168219,-0.874454520646593,0.434750816476327,ST
7.93333333333333,-6.63759231567383,-2.52416324615479,4.97296047210693,-1.19665396213531,1.39482593536377,0.167683988809586,-914.700012207031,18.9000015258789,-909.300048828125,2.7049734687992,-0.874328247692531,0.472320650714095,ST
7.96666666666667,-7.69032430648804,-2.75564455986023,5.05191564559937,-1.51677799224854,1.21951997280121,0.365855991840363,-919.500061035156,23.1000003814697,-914.100036621094,2.72181976193826,-0.929878773064796,0.502231104708325,ST
8.0,-7.13285493850708,-3.15400791168213,4.87067842483521,-2.66770005226135,0.937505960464478,0.167683988809586,-917.100036621094,18.3000011444092,-916.500061035156,2.77072526982341,-0.889910049214211,0.579187113765942,DLL
8.03333333333333,-7.50310564041138,-2.8962082862854,5.21999359130859,-3.94057393074036,0.0228659994900227,0.320124000310898,-917.100036621094,21.9000015258789,-906.900024414062,2.69762056242754,-0.898990713875649,0.513419342840634,DLL
8.06666666666667,-7.82550430297852,-3.66781258583069,5.83667898178101,-4.08539199829102,-1.04421401023865,1.50915598869324,-924.300048828125,21.9000015258789,-902.100036621094,2.70685340829171,-0.848874408351896,0.564165686966292,DLL
8.1,-7.78961610794067,-4.28389978408813,6.04363679885864,-4.51222372055054,-1.2576299905777,1.47104597091675,-926.700012207031,26.1000003814697,-902.100036621094,2.71738933995059,-0.810550071161053,0.620467936263104,DLL
8.13333333333333,-9.16594314575195,-4.65594482421875,6.28050136566162,-5.61741399765015,-1.15854394435883,1.63110792636871,-914.700012207031,29.7000007629395,-909.300048828125,2.69925810886136,-0.864018152082896,0.643389474460775,DLL
8.16666666666667,-7.67118358612061,-3.64388704299927,6.67049026489258,-7.67535400390625,-3.49087595939636,6.25766181945801,-924.300048828125,30.9000015258789,-899.700012207031,2.52662255002666,-0.790786201942104,0.501971621712135,DLL
8.2,-7.89309453964233,-3.5691192150116,5.21700286865234,-8.55950546264648,-5.28966808319092,8.99395942687988,-926.700012207031,32.7000007629395,-906.900024414062,2.50907268493784,-0.895288924171058,0.591185827310426,DLL
8.23333333333333,-7.24650192260742,-3.58227825164795,5.05071926116943,-9.90097808837891,-5.91467189788818,14.8628997802734,-926.700012207031,32.1000022888184,-904.500061035156,2.39216932245979,-0.870017070025317,0.601909790869194,DLL
8.26666666666667,-6.18659257888794,-3.85024619102478,5.12429094314575,-10.9299478530884,-5.88418388366699,15.9757118225098,-926.700012207031,24.3000011444092,-906.900024414062,2.29426039336392,-0.777030277624073,0.634871852071555,DLL
8.3,-6.54846906661987,-3.21202778816223,5.65903043746948,-11.0290336608887,-7.09608173370361,16.6540699005127,-933.900024414062,32.1000022888184,-904.500061035156,2.07260251760244,-0.791804612296571,0.505305592004767,DLL
8.33333333333333,-5.87496042251587,-3.09239912033081,5.18111419677734,-10.7241535186768,-7.22565603256226,15.7851619720459,-931.500061035156,41.7000007629395,-899.700012207031,1.962026597388,-0.77516572267155,0.52701475628714,DLL
8.36666666666667,-5.76490211486816,-2.99490189552307,5.45685815811157,-11.1662302017212,-7.04272794723511,14.6266174316406,-929.100036621094,35.1000022888184,-899.700012207031,1.81672266848878,-0.74870791565484,0.495463561346767,DLL
8.4,-6.93068265914917,-2.51279854774475,6.44439220428467,-10.0534181594849,-7.17230176925659,13.1631937026978,-938.700012207031,33.9000015258789,-887.700012207031,1.6030739520542,-0.782742343972286,0.364558974126883,DLL
8.43333333333333,-6.40012979507446,-2.1371648311615,6.20573329925537,-9.55798816680908,-6.49394369125366,11.9512958526611,-943.500061035156,41.7000007629395,-892.500061035156,1.4727626569561,-0.768936293572902,0.326144382763886,DLL
8.46666666666667,-6.36902618408203,-1.78784930706024,6.58974123001099,-8.94822788238525,-6.49394369125366,9.76378154754639,-945.900024414062,37.5,-892.500061035156,1.33900193279409,-0.744474141621265,0.263382237475346,DLL
8.5,-5.53282260894775,-1.33565330505371,6.32476377487183,-8.55950546264648,-6.01375770568848,8.02596569061279,-941.100036621094,42.9000015258789,-880.500061035156,1.22184396655427,-0.701051073926261,0.210146161583167,DLL
8.53333333333333,-6.13335800170898,-0.928916037082672,6.95999145507812,-7.43907165527344,-5.61741399765015,7.28663206100464,-943.500061035156,44.7000007629395,-882.900024414062,1.10325360255403,-0.709918143342704,0.134666199201307,DLL
8.56666666666667,-5.3898663520813,-1.08742392063141,7.24530601501465,-6.50156593322754,-4.69515180587769,5.16009378433228,-938.700012207031,44.7000007629395,-878.100036621094,1.05702601857495,-0.628244312150608,0.152767394157068,DLL
8.6,-5.35337972640991,-1.10716259479523,7.76150321960449,-6.07473373413086,-4.34454011917114,2.88873791694641,-943.500061035156,45.9000015258789,-885.300048828125,1.01431304318502,-0.592794871474559,0.148243633060148,DLL
8.63333333333333,-4.98193264007568,-1.5180869102478,7.8954873085022,-5.46497392654419,-3.70429182052612,0.708845973014832,-945.900024414062,44.7000007629395,-880.500061035156,1.0150838085874,-0.549177684566108,0.197394044054763,DLL
8.66666666666667,-5.14402961730957,-2.17006278038025,8.0827054977417,-5.25918006896973,-3.21648383140564,-0.495429992675781,-955.500061035156,52.5000038146973,-875.700012207031,1.03392879094933,-0.545544703736509,0.270198671854,DLL
8.7,-5.151207447052,-2.47990083694458,8.0234899520874,-5.03051996231079,-2.40855193138123,-0.975615978240967,-965.100036621094,59.1000022888184,-875.700012207031,1.03838121448511,-0.545693450739381,0.308309043232375,DLL
8.73333333333333,-5.26545238494873,-3.16058754920959,8.28427982330322,-4.48173570632935,-1.78354799747467,-0.571649968624115,-962.700012207031,53.7000007629395,-875.700012207031,1.05581857501012,-0.532790124085137,0.371410199616469,DLL
8.76666666666667,-4.706787109375,-3.70310306549072,8.40989017486572,-2.84300589561462,-0.823175966739655,0.152439996600151,-962.700012207031,54.9000015258789,-861.300048828125,1.06757695354781,-0.47291160662478,0.418744644214157,DLL
8.8,-4.58955097198486,-3.96628594398499,8.47747993469238,0.442075997591019,1.00610399246216,-0.160062000155449,-950.700012207031,54.9000015258789,-866.100036621094,1.08027312602064,-0.457575125235799,0.437102892270276,DLL
8.83333333333333,-4.39156579971313,-3.901686668396,8.33811283111572,1.97409796714783,2.03507399559021,-0.46494197845459,-972.300048828125,59.7000007629395,-868.500061035156,1.09224181337148,-0.448109125227728,0.435322741516787,DLL
8.86666666666667,-5.34919261932373,-3.27782344818115,7.63589334487915,4.05490398406982,3.43752193450928,-0.975615978240967,-953.100036621094,51.3000030517578,-878.100036621094,1.10114907757571,-0.575227709746446,0.401349895946535,DLL
8.9,-5.50770044326782,-2.85374021530151,6.60050773620605,4.44362592697144,4.28356409072876,-1.65397393703461,-950.700012207031,50.1000022888184,-873.300048828125,1.13812478557987,-0.658606023629109,0.404604016709579,DLL
8.93333333333333,-5.91443777084351,-2.59414601325989,6.08730125427246,3.83386588096619,4.59606599807739,-1.53964400291443,-943.500061035156,55.5000038146973,-868.500061035156,1.16728856544672,-0.734777359559513,0.40123595583794,DLL
8.96666666666667,-6.93128061294556,-2.03966760635376,6.20393896102905,3.41465592384338,4.13874578475952,-1.79117000102997,-953.100036621094,48.3000030517578,-858.900024414062,1.13817579673727,-0.819975006598681,0.318354685232313,DLL
9.0,-7.37211227416992,-1.79682147502899,5.67936754226685,2.31708788871765,3.87959790229797,-0.983237981796265,-948.300048828125,49.5000038146973,-861.300048828125,1.15192994495633,-0.896635068799965,0.307031611046787,DLL
9.03333333333333,-7.58923816680908,-1.70111858844757,5.66979742050171,1.2500079870224,3.72715783119202,-0.541162014007568,-943.500061035156,44.1000022888184,-868.500061035156,1.15417197121011,-0.914178678864894,0.2930273590783,DLL
9.06666666666667,-6.53351545333862,-1.96549785137177,4.72891855239868,-0.0381099991500378,2.66770005226135,-0.556405961513519,-931.500061035156,45.9000015258789,-851.700012207031,1.2424536652981,-0.909965260844921,0.396782222335021,DLL
9.1,-8.22267150878906,-1.86082279682159,5.46523237228394,-0.731711983680725,2.27897787094116,-0.495429992675781,-926.700012207031,45.9000015258789,-866.100036621094,1.1920153650776,-0.961679857747711,0.333066650141818,DLL
9.13333333333333,-7.25846481323242,-2.47810626029968,4.51059627532959,-1.73019397258759,1.43293595314026,-0.983237981796265,-917.100036621094,53.7000007629395,-868.500061035156,1.33117331153602,-0.955531454550128,0.507412868270085,DLL
9.16666666666667,-7.80755996704102,-3.08043622970581,5.37670707702637,-2.84300589561462,1.13567793369293,-1.2500079870224,-941.100036621094,48.3000030517578,-846.900024414062,1.34005671197912,-0.901124160504347,0.528648601413911,DLL
9.2,-7.67477226257324,-3.44231271743774,5.72841501235962,-2.37044191360474,-0.297257989645004,-0.990859985351562,-936.300048828125,42.3000030517578,-863.700012207031,1.3451406584693,-0.853605916290831,0.546406471924854,DLL
9.23333333333333,-7.18070650100708,-3.54160451889038,5.85043621063232,-1.51677799224854,-0.823175966739655,-0.87652999162674,-924.300048828125,49.5000038146973,-854.100036621094,1.34036784118397,-0.808312352624721,0.547567095614809,DLL
9.26666666666667,-7.08320903778076,-3.58048391342163,5.60699224472046,-0.792688012123108,-1.45580196380615,-0.891773998737335,-943.500061035156,50.1000022888184,-856.500061035156,1.35224123457399,-0.813705006778747,0.569431973579563,DLL
9.3,-7.58744382858276,-3.11572670936584,5.98741102218628,-0.731711983680725,-2.26373386383057,-0.144817993044853,-919.500061035156,50.1000022888184,-858.900024414062,1.27913230130874,-0.839861839090734,0.480442780019534,DLL
9.33333333333333,-7.15139722824097,-2.8040943145752,5.87795114517212,-1.05945801734924,-3.10977602005005,1.44817996025085,-936.300048828125,56.1000022888184,-854.100036621094,1.23407032394771,-0.828424422162846,0.442326932347484,DLL
9.36666666666667,-6.67647171020508,-2.69642853736877,5.87795114517212,-2.12653803825378,-2.83538389205933,3.11739802360535,-931.500061035156,55.5000038146973,-878.100036621094,1.19372703532055,-0.799347245444719,0.426722869816783,DLL
9.4,-6.57837629318237,-2.91774129867554,6.56521701812744,-2.71343183517456,-2.9116039276123,3.39941191673279,-936.300048828125,54.9000015258789,-856.500061035156,1.15484056636747,-0.739878458726181,0.416201176601644,DLL
9.43333333333333,-6.06158065795898,-3.14922285079956,6.87086820602417,-2.26373386383057,-2.98782396316528,2.57623600959778,-941.100036621094,59.7000007629395,-866.100036621094,1.1330821284482,-0.673486580586071,0.428637040717293,DLL
9.46666666666667,-5.60878658294678,-3.29397344589233,6.98690795898438,-1.15092194080353,-2.9420919418335,2.30946588516235,-919.500061035156,57.9000015258789,-856.500061035156,1.11628616277068,-0.625515904041949,0.438247854699787,DLL
9.5,-5.49454116821289,-3.05830502510071,6.5233473777771,0.335367977619171,-1.17378795146942,1.36433792114258,-948.300048828125,56.7000007629395,-856.500061035156,1.10717483344442,-0.650381082163615,0.435546609878595,DLL
9.53333333333333,-5.16795539855957,-2.91893768310547,5.84744548797607,1.15854394435883,0.602137982845306,0.815553963184357,-943.500061035156,54.9000015258789,-856.500061035156,1.12438469228297,-0.670405904618967,0.460023337211047,DLL
9.56666666666667,-6.11960077285767,-2.63601613044739,6.13216161727905,1.42531394958496,1.83690190315247,0.434453994035721,-945.900024414062,53.1000022888184,-858.900024414062,1.09658691104497,-0.74473280110323,0.404457282606904,DLL
9.6,-6.12737655639648,-2.8663010597229,5.83966970443726,0.967993974685669,1.38720393180847,0.114329993724823,-950.700012207031,55.5000038146973,-858.900024414062,1.13792184239249,-0.757656483370956,0.454982494581975,DLL
9.63333333333333,-6.16625595092773,-2.82562732696533,6.13993740081787,0.37347799539566,-0.167683988809586,-0.3125019967556,-936.300048828125,54.3000030517578,-861.300048828125,1.12454777185974,-0.739220550362796,0.431169942119862,DLL
9.66666666666667,-7.39543962478638,-2.56124830245972,6.58375978469849,0.754577994346619,-1.37958192825317,0.67835795879364,-941.100036621094,55.5000038146973,-861.300048828125,1.07900991049117,-0.805660792835575,0.368462587527369,DLL
9.7,-6.5293288230896,-2.48887300491333,6.01672029495239,0.190549999475479,-2.35519790649414,0.0228659994900227,-936.300048828125,54.9000015258789,-868.500061035156,1.09122069135633,-0.78328211411476,0.390030755120704,DLL
9.73333333333333,-6.43482208251953,-2.62584757804871,6.66630363464355,-0.480185985565186,-4.15398979187012,-0.0685980021953583,-955.500061035156,57.9000015258789,-856.500061035156,1.07133311068797,-0.725690746914185,0.37399295121477,DLL
9.76666666666667,-5.74336862564087,-2.8441698551178,6.9558048248291,-0.990859985351562,-4.74088382720947,-0.525918006896973,-957.900024414062,57.3000030517578,-870.900024414062,1.06932684201783,-0.64527298968284,0.388032257471753,DLL
9.8,-5.07703733444214,-2.91774129867554,7.08380699157715,-1.54726600646973,-4.41313791275024,-0.914639949798584,-962.700012207031,55.5000038146973,-863.700012207031,1.06196287716113,-0.57834747927168,0.392399082984767,DLL
9.83333333333333,-4.635009765625,-3.10496020317078,7.56890106201172,-1.95885396003723,-3.02593398094177,-0.236281991004944,-953.100036621094,58.5000038146973,-861.300048828125,1.05027544869727,-0.51125576261155,0.391793241416751,DLL
9.86666666666667,-4.54708290100098,-3.17733550071716,7.91821670532227,-2.24086785316467,-1.93598794937134,-0.335367977619171,-962.700012207031,56.1000022888184,-854.100036621094,1.03806179037164,-0.486614803355149,0.38520897648145,DLL
9.9,-4.40293025970459,-3.55595993995667,8.17601585388184,-1.37195992469788,-1.18140995502472,-0.724089980125427,-969.900024414062,55.5000038146973,-866.100036621094,1.04749153345213,-0.456531428818222,0.412605842270276,DLL
9.93333333333333,-4.41788387298584,-3.77787089347839,7.8476357460022,-0.152439996600151,-0.37347799539566,-0.87652999162674,-962.700012207031,54.9000015258789,-861.300048828125,1.06689414558781,-0.468034871712332,0.449024366447015,DLL
9.96666666666667,-4.66970205307007,-3.81794667243958,7.99597501754761,0.708845973014832,0.990859985351562,-1.15092194080353,-957.900024414062,60.9000015258789,-854.100036621094,1.07564527625415,-0.485500648726866,0.445625084429637,DLL
10.0,-4.76480674743652,-3.77846908569336,7.32485866546631,2.0731840133667,1.94360995292664,-1.27287399768829,-962.700012207031,54.3000030517578,-861.300048828125,1.10709664060856,-0.525683806793677,0.47429434949369,DLL
10.0333333333333,-4.97116613388062,-3.79641342163086,6.83139085769653,2.29422187805176,3.04879999160767,-1.54726600646973,-967.500061035156,65.7000045776367,-851.700012207031,1.14641773447256,-0.56933544854134,0.505972884600551,DLL
10.0666666666667,-5.68714332580566,-3.47879958152771,6.72731399536133,2.41617393493652,3.46038794517517,-1.265251994133,-967.500061035156,57.9000015258789,-858.900024414062,1.15349169974912,-0.647615639797381,0.476908472248894,DLL
10.1,-6.71594905853271,-3.11811923980713,6.57179689407349,2.43903994560242,3.64331603050232,0.137196004390717,-960.300048828125,57.3000030517578,-858.900024414062,1.14888518550998,-0.75046666276515,0.441416471551037,DLL
10.1333333333333,-6.62383508682251,-3.03437924385071,6.52633810043335,1.74543797969818,3.31556987762451,0.701223969459534,-953.100036621094,53.1000022888184,-854.100036621094,1.15488811303373,-0.749706425133937,0.433486382914203,DLL
10.1666666666667,-5.89709138870239,-3.00088334083557,5.97006511688232,0.815553963184357,2.90398192405701,0.6250039935112,-933.900024414062,56.1000022888184,-866.100036621094,1.18353539099571,-0.728305292555098,0.465233784899536,DLL
10.2,-6.49224376678467,-3.05351996421814,5.90905427932739,0.655492007732391,2.75916385650635,0.800309956073761,-950.700012207031,48.9000015258789,-861.300048828125,1.19671193051397,-0.777600455126456,0.47661671799692,DLL
10.2333333333333,-6.51018810272217,-3.28021597862244,5.59562730789185,0.647870004177094,2.99544596672058,0.426831990480423,-945.900024414062,59.1000022888184,-868.500061035156,1.24351846726005,-0.792030322396534,0.530704411437553,DLL
10.2666666666667,-7.25128746032715,-3.22339248657227,5.72961139678955,0.846041977405548,2.98782396316528,-0.0076219998300075,-941.100036621094,61.5000038146973,-861.300048828125,1.24230127767327,-0.838464389667855,0.513982857860763,DLL
10.3,-7.20822095870972,-3.25150513648987,5.31031322479248,1.48628997802734,2.53050398826599,-0.129574000835419,-933.900024414062,51.9000015258789,-849.300048828125,1.28179734524664,-0.861694692114106,0.549277447496719,DLL
10.3333333333333,-7.32485866546631,-3.26645874977112,4.96279239654541,1.76068198680878,1.64635193347931,-0.198172003030777,-933.900024414062,47.7000007629395,-854.100036621094,1.3190121377812,-0.891167724340054,0.580934791501486,DLL
10.3666666666667,-7.90505743026733,-2.93090057373047,5.53102827072144,1.37195992469788,0.449698001146317,-0.137196004390717,-933.900024414062,55.5000038146973,-851.700012207031,1.2535731318085,-0.901523922345934,0.486792245894109,DLL
10.4,-7.01980590820312,-2.87108635902405,5.60639429092407,1.12043392658234,-1.95123195648193,1.22714197635651,-933.900024414062,53.7000007629395,-861.300048828125,1.23569548494597,-0.83781179049751,0.467600498839051,DLL
10.4333333333333,-6.00475740432739,-2.55407047271729,5.31270599365234,0.510673999786377,-2.9116039276123,0.952749967575073,-936.300048828125,51.3000030517578,-873.300048828125,1.21136226595434,-0.791347227683032,0.443766253511969,DLL
10.4666666666667,-6.7919135093689,-2.36266469955444,6.44020557403564,0.457319974899292,-3.30032587051392,1.6920839548111,-938.700012207031,54.9000015258789,-866.100036621094,1.13188395048953,-0.776171824252137,0.346982343537601,DLL
10.5,-6.2248740196228,-2.62046432495117,6.67049026489258,0.198172003030777,-2.98782396316528,1.21951997280121,-943.500061035156,48.3000030517578,-873.300048828125,1.13761074973009,-0.711661350290558,0.370422029562794,DLL
10.5333333333333,-5.82950162887573,-2.78435564041138,6.62862062454224,0.342989981174469,-2.9344699382782,0.693601965904236,-945.900024414062,50.1000022888184,-868.500061035156,1.14528567675822,-0.677343887152637,0.394371614544023,DLL
10.5666666666667,-5.96408367156982,-2.81665515899658,6.7141547203064,0.0304879993200302,-2.4847719669342,-0.0152439996600151,-945.900024414062,53.1000022888184,-875.700012207031,1.14166144684132,-0.682223280692295,0.395797875506872,DLL
10.6,-5.38567924499512,-2.7861499786377,6.58675050735474,-0.213415995240211,-2.45428395271301,0.0533539988100529,-950.700012207031,46.5,-866.100036621094,1.13789254799656,-0.642038694511832,0.399185839609358,DLL
10.6333333333333,-5.57947778701782,-2.60790324211121,6.67527532577515,-0.0457319989800453,-2.43141794204712,1.63110792636871,-962.700012207031,55.5000038146973,-863.700012207031,1.10610299121724,-0.658489715039257,0.369469954390959,DLL
10.6666666666667,-5.97245740890503,-2.49246168136597,7.41099119186401,-0.46494197845459,-1.6844619512558,1.95123195648193,-950.700012207031,53.7000007629395,-861.300048828125,1.06325326778768,-0.650690485274319,0.322560835006284,DLL
10.7,-5.3240704536438,-2.95362997055054,7.47020769119263,-0.586893975734711,-1.20427596569061,1.61586391925812,-953.100036621094,48.3000030517578,-875.700012207031,1.08026443405187,-0.584874085982001,0.374920627982241,DLL
10.7333333333333,-4.38917303085327,-3.2706458568573,6.79310989379883,-0.46494197845459,-0.426831990480423,-0.0533539988100529,-943.500061035156,50.7000007629395,-873.300048828125,1.11687080261366,-0.527009549062368,0.448750465948643,DLL
10.7666666666667,-6.22786474227905,-3.1707558631897,7.42235612869263,0.487807989120483,1.05183601379395,-0.0914639979600906,-950.700012207031,55.5000038146973,-875.700012207031,1.09652696633863,-0.657658442385075,0.40397008581907,DLL
10.8,-6.1770224571228,-2.960209608078,7.12806987762451,2.01220798492432,2.24086785316467,0.114329993724823,-955.500061035156,53.7000007629395,-878.100036621094,1.10072191563786,-0.678403324700606,0.391296423715091,DLL
10.8333333333333,-6.84036302566528,-2.57022023200989,7.16395854949951,3.09453201293945,2.53812599182129,0.800309956073761,-950.700012207031,55.5000038146973,-873.300048828125,1.08191706759492,-0.736334657581668,0.33962401677795,DLL
10.8666666666667,-6.62383508682251,-2.24483060836792,6.87027025222778,2.97257995605469,1.96647596359253,0.945127964019775,-945.900024414062,50.1000022888184,-875.700012207031,1.07369390442923,-0.745494374795258,0.310519101921781,DLL
10.9,-5.96707439422607,-2.34890747070312,7.12627553939819,1.52439999580383,0.708845973014832,-0.0152439996600151,-941.100036621094,53.1000022888184,-870.900024414062,1.08461702420337,-0.673890285194225,0.31601127029188,DLL
10.9333333333333,-6.07234764099121,-2.32019662857056,8.03246212005615,0.716467976570129,-1.17378795146942,-0.289635986089706,-943.500061035156,53.1000022888184,-880.500061035156,1.06550559729518,-0.626460699027804,0.28019287767139,DLL
10.9666666666667,-5.38448286056519,-1.60421943664551,7.21420240402222,0.419209986925125,-2.02745199203491,0.396344006061554,-948.300048828125,45.3000030517578,-882.900024414062,1.02577815243251,-0.626354229974475,0.217584344537214,DLL
11.0,-3.97406196594238,-1.76153099536896,7.21360445022583,0.221037998795509,-0.25152599811554,0.503051996231079,-943.500061035156,59.7000007629395,-875.700012207031,1.03450827019146,-0.492360155949536,0.238433453941063,DLL
11.0333333333333,-3.88254594802856,-2.00437712669373,6.89299964904785,0.365855991840363,0.449698001146317,-0.769822001457214,-948.300048828125,48.9000015258789,-878.100036621094,1.06136669682364,-0.49613723186044,0.282610219696291,DLL
11.0666666666667,-4.59493446350098,-1.8685986995697,6.15848016738892,0.457319974899292,1.38720393180847,-1.85214591026306,-948.300048828125,47.1000022888184,-878.100036621094,1.08175765477229,-0.619874924107503,0.29628903777323,DLL
11.1,-5.94793367385864,-1.88235592842102,6.36065244674683,0.6250039935112,2.30946588516235,-1.74543797969818,-948.300048828125,50.1000022888184,-875.700012207031,1.09195585338524,-0.73256036292955,0.290345270363193,DLL
11.1333333333333,-6.71355676651001,-2.75205588340759,7.28239059448242,0.411587983369827,2.32470989227295,-2.78965187072754,-936.300048828125,54.3000030517578,-875.700012207031,1.15924033690238,-0.713946189277505,0.36488207140563,DLL
11.1666666666667,-7.32306432723999,-3.18989658355713,7.75791454315186,0.693601965904236,1.08994603157043,-3.93295192718506,-957.900024414062,54.3000030517578,-858.900024414062,1.20173990090885,-0.716810196100104,0.394744768214624,DLL
11.2,-6.46114015579224,-3.54818415641785,7.86079502105713,2.29422187805176,0.907018005847931,-4.60368776321411,-957.900024414062,51.3000030517578,-870.900024414062,1.25591758829666,-0.641655355222226,0.425761620949332,DLL
11.2333333333333,-6.1088342666626,-4.05780172348022,8.00255489349365,5.02289772033691,3.62807202339172,-5.51070594787598,-960.300048828125,47.7000007629395,-875.700012207031,1.33738432619755,-0.599389032381535,0.468053472962537,DLL
11.2666666666667,-4.27851676940918,-4.44599676132202,7.40261745452881,9.15402221679688,8.09456348419189,-6.94364166259766,-950.700012207031,50.1000022888184,-885.300048828125,1.45909215209666,-0.467256108306558,0.533389299867432,DLL
11.3,-5.05251359939575,-3.88733124732971,7.19984674453735,11.2653160095215,9.24548625946045,-8.17840576171875,-929.100036621094,42.3000030517578,-887.700012207031,1.53959301572463,-0.559707490321428,0.488452054093255,DLL
11.3333333333333,-5.38149213790894,-3.5451934337616,5.99578523635864,14.1997852325439,8.7957878112793,-7.52291393280029,-924.300048828125,36.9000015258789,-887.700012207031,1.66848585190888,-0.663282304881771,0.523464113375231,DLL
11.3666666666667,-5.57708501815796,-3.25928115844727,5.35637044906616,14.6266174316406,8.12505149841309,-8.46804141998291,-924.300048828125,38.1000022888184,-890.100036621094,1.79347035995284,-0.730712394022732,0.538684750674752,DLL
11.4,-7.10175132751465,-2.37103867530823,5.40302562713623,13.3537435531616,7.30949783325195,-11.0823879241943,-926.700012207031,33.9000015258789,-890.100036621094,1.8256700034105,-0.879338965448987,0.419232082920815,DLL
11.4333333333333,-7.31708288192749,-2.50801348686218,4.54409217834473,12.5229454040527,5.32777786254883,-8.91773986816406,-926.700012207031,41.7000007629395,-897.300048828125,2.01084589544274,-0.953940680810903,0.507302863342382,DLL
11.4666666666667,-7.2303524017334,-2.77478528022766,4.79770469665527,9.78664779663086,4.77137184143066,-8.98633766174316,-921.900024414062,38.7000007629395,-902.100036621094,2.1173506362883,-0.916505574751363,0.530212512499423,DLL
11.5,-8.45415306091309,-2.13477230072021,5.70807838439941,7.76681804656982,3.17075204849243,-7.59151172637939,-907.500061035156,32.1000022888184,-897.300048828125,2.0618711470168,-0.946405091414399,0.365501053236076,DLL
11.5333333333333,-6.93546772003174,-3.28380489349365,5.62613296508789,6.75309181213379,1.94360995292664,-5.42686367034912,-914.700012207031,35.1000022888184,-892.500061035156,2.24129671506673,-0.81664501693737,0.5255339040398,DLL
11.5666666666667,-7.5132737159729,-2.98951864242554,6.2069296836853,5.16771602630615,1.71494996547699,-6.14333200454712,-912.300048828125,30.3000011444092,-911.700012207031,2.23882115496469,-0.82654859196047,0.452637999370078,DLL
11.6,-7.20343589782715,-3.2706458568573,6.14173221588135,5.7850980758667,1.41769194602966,-5.12960577011108,-917.100036621094,24.9000015258789,-894.900024414062,2.3138649954519,-0.801019600729507,0.488182161595665,DLL
11.6333333333333,-7.3912525177002,-3.51050114631653,6.10584354400635,5.63265800476074,1.49391198158264,-5.52594995498657,-909.900024414062,30.3000011444092,-904.500061035156,2.39265598662522,-0.806925637773631,0.521785360401637,DLL
11.6666666666667,-7.98042345046997,-2.73291516304016,6.2009482383728,5.64790201187134,1.39482593536377,-5.03814172744751,-912.300048828125,26.1000003814697,-899.700012207031,2.36599600062231,-0.86493933074379,0.41679800767896,DLL
11.7,-6.89539194107056,-2.98054647445679,5.52265405654907,6.05948972702026,1.21189796924591,-3.84148788452148,-912.300048828125,22.5,-909.300048828125,2.46700300235222,-0.831581288988511,0.491042141333552,DLL
11.7333333333333,-6.90077543258667,-2.95482635498047,5.52145767211914,5.25155782699585,1.60061991214752,-4.03965997695923,-926.700012207031,27.3000011444092,-918.900024414062,2.50959374354572,-0.83297564332971,0.490498363719933,DLL
11.7666666666667,-7.01801156997681,-2.41649770736694,5.33782768249512,4.89332389831543,1.93598794937134,-3.87197589874268,-921.900024414062,20.1000003814697,-899.700012207031,2.50262126580838,-0.874880505119634,0.426402357994073,DLL
11.8,-7.33562517166138,-2.20894193649292,5.67577886581421,4.87807989120483,1.95885396003723,-2.72867584228516,-917.100036621094,22.5,-906.900024414062,2.49846619080788,-0.879288430343661,0.369993610805397,DLL
11.8333333333333,-5.23195648193359,-1.13647162914276,5.78523874282837,5.47259569168091,0.449698001146317,-2.9420919418335,-905.100036621094,26.1000003814697,-904.500061035156,2.40887999153864,-0.726986278293794,0.190470613082835,DLL
11.8666666666667,-6.63520002365112,-1.34043836593628,6.0310754776001,4.36740589141846,-1.29574000835419,-0.807931959629059,-921.900024414062,19.5,-914.100036621094,2.44724654624392,-0.81774848913092,0.211774560515645,DLL
11.9,-6.39115762710571,-1.22499680519104,5.52624273300171,4.12350177764893,-2.41617393493652,0.152439996600151,-926.700012207031,17.1000003814697,-899.700012207031,2.46379154753188,-0.841729540654865,0.209641030693986,DLL
11.9333333333333,-7.44628190994263,-0.601731836795807,5.69372272491455,3.68142580986023,-1.59299790859222,2.33233189582825,-917.100036621094,20.1000003814697,-926.100036621094,2.38383858413524,-0.912451108386678,0.0941777559127466,DLL
11.9666666666667,-7.23334312438965,-1.27404451370239,5.75533151626587,2.66007804870605,-0.701223969459534,4.24545383453369,-921.900024414062,16.5,-914.100036621094,2.46494267788157,-0.887710173035452,0.202699239761295,DLL
12.0,-7.27341842651367,-1.66044485569,6.41269063949585,1.32622802257538,0.0304879993200302,4.32167387008667,-917.100036621094,15.3000001907349,-916.500061035156,2.48389091802304,-0.834630453117616,0.242540485203906,DLL
12.0333333333333,-6.98750638961792,-1.92243146896362,7.02160024642944,0.350611984729767,-0.853663980960846,3.60520601272583,-926.700012207031,17.1000003814697,-923.700012207031,2.481520412523,-0.765937653582996,0.260193901665293,DLL
12.0666666666667,-7.20523023605347,-1.53722739219666,7.38407516479492,0.304879993200302,-1.6768399477005,2.97257995605469,-921.900024414062,11.7000007629395,-916.500061035156,2.42631295764995,-0.760793619312345,0.200051051937865,DLL
12.1,-7.04014253616333,-1.16817319393158,7.91283321380615,0.663114011287689,-2.080806016922,3.20886182785034,-929.100036621094,14.7000007629395,-914.100036621094,2.37267353387342,-0.719479874010016,0.140788061811806,DLL
12.1333333333333,-5.95750379562378,-0.419896364212036,7.14421987533569,1.60061991214752,-1.89025592803955,3.18599581718445,-912.300048828125,11.1000003814697,-914.100036621094,2.30564985841956,-0.691605765382424,0.0522167203048332,DLL
12.1666666666667,-5.84804391860962,-0.212340757250786,7.88232803344727,1.14329993724823,-0.724089980125427,3.52136397361755,-917.100036621094,10.5,-914.100036621094,2.27190787510605,-0.637490267429352,0.020618299839154,DLL
12.2,-5.39225912094116,-0.579002380371094,7.96786260604858,0.205793991684914,0.342989981174469,1.75305998325348,-919.500061035156,11.1000003814697,-911.700012207031,2.29192873320294,-0.595069249244484,0.0695524549324708,DLL
12.2333333333333,-5.57110357284546,-0.467747807502747,8.04203224182129,-0.434453994035721,1.16616594791412,-0.396344006061554,-924.300048828125,19.5,-923.700012207031,2.28714611653084,-0.606897230657529,0.0595420263607261,ST
12.2666666666667,-5.33543539047241,-0.443822085857391,7.64845418930054,-0.480185985565186,2.02745199203491,-1.48628997802734,-924.300048828125,8.70000076293945,-904.500061035156,2.29462929095204,-0.611640539421868,0.0607478824076864,ST
12.3,-6.20992040634155,-0.560459971427917,6.81344652175903,0.3125019967556,2.94971394538879,-1.83690190315247,-921.900024414062,9.90000057220459,-916.500061035156,2.32081366250121,-0.740673830031227,0.0844739998023171,ST
12.3333333333333,-7.1167049407959,-0.620872378349304,6.15249872207642,0.472563982009888,3.83386588096619,-2.41617393493652,-924.300048828125,11.1000003814697,-909.300048828125,2.3516733663212,-0.860892380351072,0.105241259102821,ST
12.3666666666667,-7.30511999130249,-1.21303391456604,5.96886873245239,0.6250039935112,4.48935794830322,-3.22410583496094,-897.900024414062,12.9000005722046,-911.700012207031,2.44923768147181,-0.882137713055693,0.206899668329771,ST
12.4,-7.77226972579956,-1.52107763290405,6.21829414367676,0.37347799539566,3.42227792739868,-3.96343994140625,-912.300048828125,11.7000007629395,-909.300048828125,2.50206922667944,-0.885871174066496,0.248693285232111,ST
12.4333333333333,-7.51746082305908,-2.00617146492004,5.76490211486816,0.282013982534409,1.87501192092896,-4.74088382720947,-897.900024414062,13.5000009536743,-904.500061035156,2.59783726984444,-0.889112595791123,0.344164615036309,ST
12.4666666666667,-6.92111253738403,-1.7423905134201,5.03935432434082,-0.327746003866196,0.564027965068817,-5.59454774856567,-897.900024414062,14.7000007629395,-909.300048828125,2.61997768804741,-0.911816477383007,0.345773590157843,ST
12.5,-7.22257614135742,-1.92123520374298,5.0590934753418,-0.525918006896973,-0.457319974899292,-5.36588764190674,-912.300048828125,16.5,-899.700012207031,2.65940555669801,-0.923511231672738,0.374751033338541,ST
12.5333333333333,-7.01621723175049,-2.48588228225708,4.60031747817993,-0.213415995240211,-1.21189796924591,-4.67228603363037,-895.500061035156,20.1000003814697,-906.900024414062,2.77463868561435,-0.924603853717248,0.502630429609506,ST
12.5666666666667,-7.46063709259033,-3.04036068916321,4.03447437286377,-0.259148001670837,-1.55488801002502,-4.00917196273804,-907.500061035156,13.5000009536743,-902.100036621094,2.90189656011297,-0.968728982118558,0.650054022305319,ST
12.6,-7.60419178009033,-2.92252659797668,4.59194374084473,-0.167683988809586,-1.21951997280121,-2.4847719669342,-909.900024414062,23.7000007629395,-899.700012207031,2.84207265435384,-0.945567371180994,0.571042678870298,ST
12.6333333333333,-7.75970888137817,-3.55296921730042,5.27801370620728,-0.358233988285065,-1.04421401023865,-1.48628997802734,-914.700012207031,24.3000011444092,-916.500061035156,2.86131112093565,-0.881622166478254,0.594303102901178,ST
12.6666666666667,-7.62393045425415,-4.35328435897827,6.02270174026489,-0.754577994346619,-2.04269599914551,-1.34147191047668,-909.900024414062,25.5000019073486,-902.100036621094,2.88140474155854,-0.795009629138698,0.626632239779753,ST
12.7,-7.66759490966797,-3.78325438499451,6.8182315826416,-0.663114011287689,-3.20123982429504,-1.50915598869324,-917.100036621094,22.5,-904.500061035156,2.79374226042595,-0.771183632075715,0.508752636552674,ST
12.7333333333333,-6.47130870819092,-3.88613486289978,6.45994424819946,0.541162014007568,-3.7728898525238,0.457319974899292,-912.300048828125,24.3000011444092,-914.100036621094,2.80320670405726,-0.704604341659486,0.536963391126571,ST
12.7666666666667,-5.87316560745239,-4.00875425338745,6.48207521438599,0.144817993044853,-2.4923939704895,0.37347799539566,-917.100036621094,23.7000007629395,-911.700012207031,2.80469718716027,-0.653823212936023,0.551261699208365,ST
12.8,-5.16137552261353,-3.81974101066589,6.74226760864258,0.564027965068817,-1.39482593536377,1.54726600646973,-917.100036621094,18.9000015258789,-918.900024414062,2.77269733942593,-0.587287166289104,0.512373311856797,ST
12.8333333333333,-4.97774600982666,-3.84486293792725,6.5137767791748,0.815553963184357,-0.945127964019775,2.78202986717224,-929.100036621094,24.9000015258789,-921.300048828125,2.76911521664111,-0.583122377767597,0.528299459708074,ST
12.8666666666667,-6.07832908630371,-3.40163898468018,6.90496253967285,0.754577994346619,0.205793991684914,3.18599581718445,-919.500061035156,21.3000011444092,-914.100036621094,2.71419974010774,-0.670127441587837,0.453602696686613,ST
12.9,-6.25717353820801,-3.29576778411865,6.65015363693237,0.983237981796265,1.08994603157043,4.26069784164429,-917.100036621094,12.3000001907349,-909.300048828125,2.70030556108969,-0.70520664819092,0.453451497268197,ST
12.9333333333333,-5.75114488601685,-2.98234081268311,6.65972375869751,0.320124000310898,0.365855991840363,3.63569402694702,-912.300048828125,21.9000015258789,-899.700012207031,2.66161960547379,-0.670939269980336,0.416399270703055,ST
12.9666666666667,-5.79421091079712,-2.87108635902405,6.8720645904541,-0.144817993044853,-1.2500079870224,3.00306797027588,-926.700012207031,20.1000003814697,-914.100036621094,2.62967345977525,-0.661286409236259,0.391880625656153,ST
13.0,-5.6285252571106,-2.80050539970398,6.65972375869751,-0.0152439996600151,-2.21800184249878,2.66770005226135,-933.900024414062,15.3000001907349,-918.900024414062,2.61306339377475,-0.660077622723131,0.393579207668411,ST
13.0333333333333,-5.90845632553101,-2.66831588745117,6.5173659324646,0.571649968624115,-2.65245604515076,2.30184388160706,-931.500061035156,18.9000015258789,-909.300048828125,2.59225487029234,-0.695017224060766,0.383122001120399,ST
13.0666666666667,-6.46592569351196,-2.38898301124573,6.88462543487549,0.792688012123108,-2.56099200248718,1.99696397781372,-931.500061035156,20.1000003814697,-911.700012207031,2.54725016609044,-0.722325740300998,0.329113180294587,ST
13.1,-6.79071712493896,-2.28789687156677,6.46532726287842,1.36433792114258,-3.29270386695862,2.18751406669617,-936.300048828125,15.9000005722046,-918.900024414062,2.54023630478515,-0.775883519006949,0.332304506709833,ST
13.1333333333333,-6.53590822219849,-2.1491277217865,5.67518043518066,1.10518991947174,-3.33081388473511,2.27135586738586,-938.700012207031,18.9000015258789,-923.700012207031,2.54622433868946,-0.817882378747656,0.353645322796324,ST
13.1666666666667,-6.91094398498535,-1.63891172409058,6.34091377258301,1.11281192302704,-2.9192259311676,2.21800184249878,-924.300048828125,15.9000005722046,-923.700012207031,2.45972769006077,-0.808358521480813,0.246388148912025,ST
13.2,-7.09218120574951,-1.30155909061432,7.3523736000061,0.884151995182037,-3.65855979919434,3.42227792739868,-943.500061035156,17.7000007629395,-928.500061035156,2.38999048733475,-0.75508480539988,0.167985556678223,ST
13.2333333333333,-6.44977569580078,-0.761435985565186,7.37809371948242,1.42531394958496,-4.984787940979,3.60520601272583,-953.100036621094,11.1000003814697,-916.500061035156,2.32749791258139,-0.708297563194048,0.0950737261070321,ST
13.2666666666667,-6.1028528213501,-0.0394774377346039,7.27222204208374,1.2576299905777,-5.5183277130127,3.11739802360535,-948.300048828125,12.3000001907349,-928.500061035156,2.25465673745699,-0.688761506764131,-0.0004659662887024,ST
13.3,-5.34380912780762,0.0322997197508812,7.6149582862854,0.617381989955902,-4.62655401229858,2.54574799537659,-967.500061035156,16.5,-923.700012207031,2.23935514911607,-0.604825651470834,-0.0082923576549956,ST
13.3333333333333,-3.77488040924072,0.212340757250786,7.97803115844727,0.0838419944047928,-3.75002384185791,0.503051996231079,-967.500061035156,13.5000009536743,-940.500061035156,2.22782361356927,-0.436496310184129,-0.0269692976189026,ST
13.3666666666667,-4.73430156707764,-0.290697485208511,8.77176666259766,-0.205793991684914,-2.9116039276123,-0.87652999162674,-981.900024414062,12.3000001907349,-928.500061035156,2.25920319891411,-0.489102115737635,0.0336553612656014,ST
13.4,-5.60160875320435,-0.24224790930748,9.1031379699707,0.213415995240211,-0.655492007732391,-2.27897787094116,-989.100036621094,12.9000005722046,-930.900024414062,2.27092579487759,-0.54976146038427,0.0286798110700101,ST
13.4333333333333,-4.11701822280884,-0.823044717311859,7.78124189376831,-0.106707997620106,0.503051996231079,-2.16464805603027,-977.100036621094,8.70000076293945,-928.500061035156,2.32226408224161,-0.485418062854754,0.106940863782463,ST
13.4666666666667,-4.68046855926514,-1.23277270793915,8.50858402252197,-0.891773998737335,1.46342396736145,-2.35519790649414,-969.900024414062,12.3000001907349,-916.500061035156,2.35356832557222,-0.50033742516801,0.147501488557349,ST
13.5,-4.42924880981445,-1.53304040431976,7.92898321151733,-0.6250039935112,0.830797970294952,-3.02593398094177,-979.500061035156,16.5,-933.300048828125,2.39160634127216,-0.502056974905083,0.194495070105523,ST
13.5333333333333,-5.15599250793457,-1.97805881500244,7.56291961669922,-0.937505960464478,0.533540010452271,-3.50611996650696,-974.700012207031,9.90000057220459,-923.700012207031,2.44157452729495,-0.581436761868058,0.260614476065106,ST
13.5666666666667,-5.7266206741333,-1.77289581298828,7.50908708572388,-0.609759986400604,0.182927995920181,-2.9192259311676,-972.300048828125,18.3000011444092,-930.900024414062,2.44057675343366,-0.636934404785113,0.236937214589854,ST
13.6,-5.25289154052734,-1.7926344871521,7.02459096908569,-0.510673999786377,1.27287399768829,-2.21800184249878,-981.900024414062,14.1000003814697,-933.300048828125,2.46116524876555,-0.628314706911392,0.253672512630408,ST
13.6333333333333,-5.29715394973755,-2.04983592033386,7.17891216278076,-0.663114011287689,1.41006994247437,-1.88263392448425,-965.100036621094,17.1000003814697,-930.900024414062,2.48637243233216,-0.618665053933741,0.281679364038619,ST
13.6666666666667,-5.55794429779053,-2.23047518730164,7.04014253616333,-0.335367977619171,0.914639949798584,-1.265251994133,-967.500061035156,16.5,-928.500061035156,2.5087904767723,-0.645681070451025,0.309004378330081,ST
13.7,-5.03217697143555,-2.50801348686218,6.24640703201294,-0.121951997280121,0.739333987236023,-1.20427596569061,-969.900024414062,12.9000005722046,-930.900024414062,2.55976997763212,-0.642440776424813,0.382929126687443,ST
13.7333333333333,-6.30143642425537,-3.34960055351257,6.77516555786133,-0.571649968624115,1.33385002613068,-1.76830399036407,-972.300048828125,14.7000007629395,-921.300048828125,2.61744236286506,-0.695070287607292,0.462282461850196,ST
13.7666666666667,-5.91623210906982,-3.58646535873413,7.00844097137451,-0.503051996231079,0.990859985351562,-2.0579400062561,-969.900024414062,15.9000005722046,-921.300048828125,2.6358709458657,-0.644960493830563,0.47670442759696,ST
13.8,-5.84146404266357,-3.6893458366394,7.15438795089722,-0.571649968624115,-0.0228659994900227,-2.65245604515076,-967.500061035156,21.3000011444092,-928.500061035156,2.64769007803392,-0.625821708617121,0.480030004614044,ST
13.8333333333333,-6.02030897140503,-3.66302752494812,7.66639852523804,-0.259148001670837,-0.640248000621796,-2.17227005958557,-965.100036621094,17.7000007629395,-930.900024414062,2.63712129788972,-0.613944957355405,0.448642452750557,ST
13.8666666666667,-5.0411491394043,-3.51887512207031,7.65204286575317,0.388722002506256,-1.07470202445984,-1.58537602424622,-972.300048828125,23.7000007629395,-930.900024414062,2.63495749262078,-0.537058385824574,0.431504014436153,ST
13.9,-5.00346612930298,-3.47939777374268,7.82550430297852,1.09756803512573,-0.87652999162674,-0.388722002506256,-969.900024414062,14.7000007629395,-918.900024414062,2.63100619704429,-0.527176353163366,0.416612128683752,ST
13.9333333333333,-5.65125465393066,-3.62055945396423,8.11201477050781,1.10518991947174,0.0914639979600906,0.670735955238342,-984.300048828125,21.9000015258789,-933.300048828125,2.6319317278961,-0.566795468387583,0.417215074243302,ST
13.9666666666667,-4.98312902450562,-3.37651705741882,7.33383083343506,0.952749967575073,0.663114011287689,0.891773998737335,-974.700012207031,18.3000011444092,-930.900024414062,2.63854902282171,-0.55481981899423,0.429086840443546,ST
14.0,-5.28997659683228,-3.47221994400024,7.99537706375122,0.518296003341675,1.35671591758728,1.79117000102997,-965.100036621094,18.9000015258789,-928.500061035156,2.62323785546574,-0.548946917605968,0.407882272320143,ST
14.0333333333333,-4.4023323059082,-3.31251573562622,7.77167177200317,0.663114011287689,0.213415995240211,1.58537602424622,-962.700012207031,17.1000003814697,-933.300048828125,2.61381453091232,-0.482502808493426,0.400567587463225,ST
14.0666666666667,-4.56383085250854,-2.61807179450989,7.18010807037354,1.07470202445984,-0.670735955238342,1.71494996547699,-962.700012207031,15.3000001907349,-935.700012207031,2.58069610082995,-0.537582825844551,0.346552240462157,ST
14.1,-4.85572481155396,-2.45118999481201,6.68963098526001,1.31098401546478,-0.0304879993200302,2.24086785316467,-960.300048828125,18.3000011444092,-935.700012207031,2.57397550671675,-0.598760245777538,0.346425050302856,ST
14.1333333333333,-4.64039325714111,-2.41051626205444,6.92410326004028,0.891773998737335,0.609759986400604,1.73019397258759,-965.100036621094,19.5,-923.700012207031,2.56151555905994,-0.566666328242571,0.33203535614781,ST
14.1666666666667,-5.25468587875366,-2.47750806808472,7.76927900314331,0.815553963184357,0.365855991840363,1.2423859834671,-962.700012207031,12.9000005722046,-921.300048828125,2.54476456630348,-0.573590377309872,0.306377404779876,ST
14.2,-5.86120319366455,-2.43444180488586,7.57847166061401,1.28811800479889,-0.342989981174469,0.846041977405548,-957.900024414062,16.5,-928.500061035156,2.5453675899313,-0.63395054668327,0.307390835698726,ST
14.2333333333333,-6.43721485137939,-2.19339036941528,7.37091588973999,1.28049600124359,-0.0228659994900227,0.990859985351562,-955.500061035156,14.1000003814697,-921.300048828125,2.53245715124098,-0.696607962572739,0.285877047411018,ST
14.2666666666667,-5.82411813735962,-2.03069543838501,7.49652576446533,0.990859985351562,0.0304879993200302,1.12043392658234,-972.300048828125,11.7000007629395,-930.900024414062,2.51589381190977,-0.644630671611026,0.261684554445841,ST
14.3,-5.37012767791748,-1.26746499538422,7.42235612869263,0.746955990791321,-1.30336201190948,0.213415995240211,-967.500061035156,14.7000007629395,-921.300048828125,2.46126037805716,-0.617701560917064,0.168422180486252,DLR
14.3333333333333,-4.75643301010132,-1.27703523635864,7.71604442596436,1.29574000835419,-2.37044191360474,-0.381099998950958,-945.900024414062,13.5000009536743,-938.100036621094,2.46197230776596,-0.543131944917701,0.161827609546074,DLR
14.3666666666667,-3.90527534484863,-0.983945190906525,7.98281621932983,2.40855193138123,-2.24848985671997,-1.58537602424622,-974.700012207031,5.10000038146973,-930.900024414062,2.45703591246989,-0.44861704646763,0.119895094788529,DLR
14.4,-2.70420432090759,-1.33625137805939,7.85780429840088,3.96343994140625,-0.800309956073761,-3.76526784896851,-974.700012207031,7.50000047683716,-933.300048828125,2.50354177313846,-0.32618543580688,0.163187740437467,DLR
14.4333333333333,-3.79641342163086,-1.53004968166351,8.93685436248779,7.08083772659302,2.33233189582825,-7.56864595413208,-972.300048828125,12.9000005722046,-928.500061035156,2.56620369587338,-0.397520741002835,0.162887876992819,DLR
14.4666666666667,-5.95451307296753,-1.77827906608582,10.0410261154175,9.65707397460938,5.48021793365479,-9.16926574707031,-969.900024414062,6.30000019073486,-928.500061035156,2.65336859449477,-0.533573249596764,0.168441328663477,DLR
14.5,-4.82761192321777,-1.70410931110382,9.50209903717041,12.1723337173462,6.68449401855469,-10.975679397583,-955.500061035156,6.30000019073486,-928.500061035156,2.76168457007187,-0.472557919139919,0.166994336815238,DLR
14.5333333333333,-5.62972164154053,-2.11862230300903,9.43869590759277,15.1982679367065,6.71498203277588,-12.294285774231,-945.900024414062,2.10000014305115,-921.300048828125,2.90620784981437,-0.533519194307334,0.207586917854504,DLR
14.5666666666667,-4.86649131774902,-1.74418485164642,7.9397497177124,17.8431015014648,5.5030837059021,-14.2683839797974,-929.100036621094,1.5,-914.100036621094,3.04293375521425,-0.543716142688886,0.20108259717573,DLR
14.6,-6.12797451019287,-1.19568777084351,6.02868318557739,17.812614440918,5.77747583389282,-15.8080272674561,-907.500061035156,-8.70000076293945,-911.700012207031,-3.0911479125754,-0.785433109817541,0.193044128647606,DLR
14.6333333333333,-7.30033493041992,-0.0992917343974113,5.83608102798462,12.667763710022,5.48021793365479,-12.9650220870972,-885.900024414062,-9.90000057220459,-880.500061035156,-2.86709739238648,-0.905174990226253,0.0238781509040083,DLR
14.6666666666667,-6.85591459274292,-1.14544379711151,7.74535322189331,5.38875389099121,1.75305998325348,-7.75157403945923,-845.100036621094,-12.3000001907349,-854.100036621094,-2.59847622234926,-0.720165752186601,0.149527285135245,DLR
14.7,-6.4037184715271,-1.37931764125824,6.99647855758667,4.85521411895752,-0.114329993724823,-6.57778596878052,-854.700012207031,-11.1000003814697,-854.100036621094,-2.51690073349297,-0.729190922041064,0.195615349075241,DLR
14.7333333333333,-6.43900918960571,-1.10776078701019,7.13106060028076,4.17685604095459,-0.990859985351562,-4.78661584854126,-842.700012207031,-7.50000047683716,-849.300048828125,-2.50512435590142,-0.725551820842709,0.154413351006163,DLR
14.7666666666667,-6.27571582794189,-0.997702479362488,7.49652576446533,3.3460578918457,-1.95123195648193,-2.77440786361694,-842.700012207031,-10.5,-849.300048828125,-2.4928264097502,-0.688929781362145,0.130239169542238,DLR
14.8,-5.89589548110962,-1.14424753189087,7.5671067237854,2.52288198471069,-1.62348592281342,-1.86738991737366,-842.700012207031,-17.1000003814697,-858.900024414062,-2.46244528368386,-0.653408083498718,0.147698666512113,DLR
14.8333333333333,-6.30861377716064,-1.00308573246002,7.82490634918213,2.08842802047729,-1.38720393180847,-1.05183601379395,-847.500061035156,-15.3000001907349,-863.700012207031,-2.46373443796994,-0.671686651606567,0.125330002117187,DLR
14.8666666666667,-6.22367763519287,-0.961813926696777,8.2382230758667,1.19665396213531,-0.815553963184357,-0.381099998950958,-842.700012207031,-9.30000019073486,-861.300048828125,-2.46374013976987,-0.642463041111318,0.114586968858693,DLR
14.9,-4.96279239654541,-0.821250319480896,7.21719312667847,0.655492007732391,-0.899396002292633,0.381099998950958,-857.100036621094,-20.7000007629395,-849.300048828125,-2.46559772292989,-0.598283743838151,0.111614469334789,DLR
14.9333333333333,-5.58785152435303,-0.227294325828552,7.87814092636108,0.0762199983000755,0.25152599811554,0.945127964019775,-859.500061035156,-14.1000003814697,-854.100036621094,-2.51800775517396,-0.617074875747921,0.0282983110030693,DLR
14.9666666666667,-4.39874362945557,-0.294884473085403,7.11311626434326,-0.236281991004944,0.617381989955902,2.0579400062561,-837.900024414062,-17.1000003814697,-856.500061035156,-2.5241500030179,-0.55521923467176,0.0395432199207517,DLR
15.0,-5.12369251251221,-0.346324771642685,7.48157215118408,-0.792688012123108,1.6615959405899,1.42531394958496,-854.700012207031,-11.1000003814697,-846.900024414062,-2.53084943833053,-0.602496370668828,0.0459622589441338,DLR
15.0333333333333,-5.36414623260498,-0.440831363201141,8.66649341583252,-1.55488801002502,2.67532205581665,1.265251994133,-842.700012207031,-14.7000007629395,-846.900024414062,-2.53975875779213,-0.55876387287339,0.0522541903008035,DLR
15.0666666666667,-5.95630788803101,-0.492869794368744,8.64914703369141,-1.03659200668335,1.98934197425842,0.647870004177094,-842.700012207031,-10.5,-849.300048828125,-2.54307460219586,-0.605272488744635,0.0580207860103594,DLR
15.1,-6.1291708946228,-0.627451956272125,8.43321800231934,-1.2500079870224,2.25611186027527,1.34909391403198,-849.900024414062,-14.1000003814697,-849.300048828125,-2.54411973496257,-0.630950925416552,0.0747394410914654,DLR
15.1333333333333,-6.65254592895508,-1.28481113910675,7.1884822845459,-1.60061991214752,1.6920839548111,1.47104597091675,-845.100036621094,-10.5,-844.500061035156,-2.49196230323392,-0.74087867795001,0.176462103235875,DLR
15.1666666666667,-7.73697948455811,-1.12391066551208,7.2566704750061,-2.55336999893188,1.6615959405899,2.44666194915771,-840.300048828125,-10.5,-842.100036621094,-2.52923490011428,-0.814262235310073,0.154396946554043,DLR
15.2,-6.35108184814453,-0.83859646320343,6.29306221008301,-2.9344699382782,0.46494197845459,4.22258806228638,-835.500061035156,-12.9000005722046,-839.700012207031,-2.57782494019617,-0.787686242511107,0.130633965752351,DLR
15.2333333333333,-6.04004764556885,-0.685471832752228,5.92879295349121,-3.20123982429504,1.13567793369293,5.83083009719849,-847.500061035156,-8.70000076293945,-846.900024414062,-2.63269998793803,-0.794405483206404,0.110841576290644,DLR
15.2666666666667,-6.29844570159912,-0.757847130298615,5.97305583953857,-3.01068997383118,1.15854394435883,6.32626008987427,-833.100036621094,-14.7000007629395,-849.300048828125,-2.66798265892172,-0.81107513947806,0.120103529563769,DLR
15.3,-6.79131507873535,-0.196789041161537,6.11601209640503,-1.89025592803955,1.07470202445984,6.26528406143188,-842.700012207031,-12.3000001907349,-846.900024414062,-2.77706937892179,-0.839394454593793,0.0241021790686223,DLR
15.3333333333333,-7.2064266204834,0.144152462482452,6.50420665740967,-0.823175966739655,0.594515979290009,6.15095376968384,-845.100036621094,-10.5,-846.900024414062,-2.84872976814914,-0.837216443807368,-0.0319659171310513,DLR
15.3666666666667,-7.35356950759888,0.0101684303954244,6.74107122421265,-0.487807989120483,0.144817993044853,5.46497392654419,-854.700012207031,-15.9000005722046,-844.500061035156,-2.85907573349593,-0.829089161360844,-0.011325120847754,DLR
15.4,-7.96846055984497,0.82663357257843,7.54377937316895,-0.0990860015153885,0.0838419944047928,3.75764584541321,-849.900024414062,-18.9000015258789,-842.100036621094,-2.95127776744165,-0.809487538390338,-0.114585351514798,DLR
15.4333333333333,-7.24171686172485,0.783567309379578,7.01920795440674,-0.0304879993200302,-0.830797970294952,3.65855979919434,-849.900024414062,-14.7000007629395,-834.900024414062,-2.97002299791141,-0.795845983987712,-0.117412392980857,DLR
15.4666666666667,-6.83438158035278,1.44032824039459,6.70518255233765,0.144817993044853,-1.70732796192169,2.11129403114319,-854.700012207031,-18.3000011444092,-844.500061035156,-3.04546874259862,-0.780204856318008,-0.21362401515293,DLR
15.5,-6.47489786148071,1.27882969379425,6.4455885887146,-0.358233988285065,-1.65397393703461,2.56861400604248,-857.100036621094,-18.3000011444092,-854.100036621094,-3.04711657394264,-0.774360386776407,-0.199138468728174,DLR
15.5333333333333,-6.28289365768433,1.05213344097137,5.85282897949219,-1.2423859834671,-1.05183601379395,1.63872992992401,-864.300048828125,-23.7000007629395,-861.300048828125,-3.04437312709442,-0.810127680132841,-0.178569495161328,DLR
15.5666666666667,-6.51437520980835,0.669920146465302,5.98382234573364,-2.88111591339111,-0.221037998795509,0.769822001457214,-861.900024414062,-11.7000007629395,-846.900024414062,-3.00996530878279,-0.82402540344833,-0.108730743724647,DLR
15.6,-7.51865720748901,0.788352429866791,7.57488250732422,-2.64483404159546,0.0914639979600906,0.144817993044853,-859.500061035156,-17.7000007629395,-849.300048828125,-3.01627081993004,-0.779581717070813,-0.0994546516919648,DLR
15.6333333333333,-7.20523023605347,0.314025074243546,7.44628190994263,-1.30336201190948,-0.182927995920181,-0.434453994035721,-852.300048828125,-14.7000007629395,-849.300048828125,-2.97849192760745,-0.768306069054732,-0.0395676845161506,DLR
15.6666666666667,-6.79729652404785,0.443822085857391,6.28050136566162,-1.01372599601746,0.297257989645004,-1.34909391403198,-866.700012207031,-13.5000009536743,-854.100036621094,-2.99619100754625,-0.823648739447584,-0.065934707704009,DLR
15.7,-6.84694242477417,-0.0951047316193581,6.72492122650146,-1.265251994133,0.967993974685669,-2.27135586738586,-859.500061035156,-15.9000005722046,-849.300048828125,-2.93017696011333,-0.796325091403465,0.0194041507020875,DLR
15.7333333333333,-6.34689521789551,-0.173461467027664,6.27152919769287,-1.12043392658234,0.434453994035721,-3.01831197738647,-864.300048828125,-20.7000007629395,-851.700012207031,-2.91080173981382,-0.791824446598766,0.0347737284070957,DLR
15.7666666666667,-6.08012342453003,-0.500645637512207,5.89888620376587,-1.02897000312805,0.152439996600151,-3.48325395584106,-840.300048828125,-14.7000007629395,-851.700012207031,-2.85916401634146,-0.798389244386921,0.0919915513370551,DLR
15.8,-6.0729455947876,-1.13706982135773,6.12019872665405,-1.21189796924591,-0.388722002506256,-3.96343994140625,-845.100036621094,-18.9000015258789,-854.100036621094,-2.77712486769943,-0.771453281410595,0.191119975096466,DLR
15.8333333333333,-6.21649980545044,-1.66223931312561,6.64776086807251,-0.967993974685669,-2.01220798492432,-4.10063600540161,-854.700012207031,-6.30000019073486,-856.500061035156,-2.72363768675963,-0.732111443587437,0.251475976151672,DLR
15.8666666666667,-6.92888832092285,-1.70530557632446,7.27341842651367,0.0838419944047928,-2.86587190628052,-3.09453201293945,-849.900024414062,-3.30000019073486,-866.100036621094,-2.72402509692143,-0.7415589607767,0.23413636010924,DLR
15.9,-6.77935266494751,-2.01693820953369,8.09706115722656,1.38720393180847,-3.12502002716064,-2.08842802047729,-842.700012207031,-12.9000005722046,-856.500061035156,-2.70615879517272,-0.676905629965936,0.243397884291635,DLR
15.9333333333333,-6.49164581298828,-1.65865051746368,7.8918981552124,2.74391984939575,-3.21648383140564,-1.88263392448425,-861.900024414062,-3.30000019073486,-870.900024414062,-2.71389847058018,-0.671671901199922,0.20448563584137,DLR
15.9666666666667,-6.22726631164551,-2.1150336265564,8.05578994750977,2.01982998847961,-2.55336999893188,-1.27287399768829,-847.500061035156,-11.7000007629395,-856.500061035156,-2.67322740227416,-0.637580258879575,0.253402555969079,DLR
16.0,-5.98202800750732,-1.03478729724884,8.78552436828613,1.54726600646973,-2.40855193138123,-0.792688012123108,-854.700012207031,-8.70000076293945,-866.100036621094,-2.74426457721273,-0.590878701358175,0.116775683110548,DLR
16.0333333333333,-4.66372060775757,-0.935495615005493,7.50549793243408,1.02134799957275,-1.40244793891907,0.807931959629059,-859.500061035156,-12.9000005722046,-861.300048828125,-2.743730799328,-0.550700740630485,0.121129983789764,DLR
16.0666666666667,-5.1093373298645,-0.671714544296265,7.36852312088013,0.160062000155449,0.266770005226135,0.579271972179413,-871.500061035156,-7.50000047683716,-866.100036621094,-2.76288252925724,-0.60424362094749,0.0903623228571447,DLR
16.1,-5.09976720809937,-0.794333875179291,7.7938027381897,-0.480185985565186,1.44817996025085,0.868907988071442,-864.300048828125,-8.70000076293945,-868.500061035156,-2.76219056323488,-0.580019971033231,0.101448579605037,DLR
16.1333333333333,-5.28698587417603,-0.730332553386688,8.11022090911865,-0.442075997591019,1.88263392448425,0.830797970294952,-866.700012207031,-8.70000076293945,-861.300048828125,-2.77346910464662,-0.579271182585889,0.0899700943205773,DLR
16.1666666666667,-5.76011657714844,-0.729136288166046,7.84105634689331,-0.121951997280121,2.13416004180908,1.65397393703461,-849.900024414062,-12.3000001907349,-863.700012207031,-2.78080054013933,-0.634810633205127,0.0910668798786991,DLR
16.2,-6.83079290390015,-1.23097825050354,7.01801156997681,0.442075997591019,2.080806016922,1.91312193870544,-847.500061035156,-8.70000076293945,-858.900024414062,-2.73597992930949,-0.767293849909528,0.169524146165166,DLR
16.2333333333333,-6.68185520172119,-0.715378999710083,7.08021831512451,0.716467976570129,2.67532205581665,2.37806391716003,-835.500061035156,-8.10000038146973,-861.300048828125,-2.79247839370147,-0.759102567558614,0.0968648800285617,DLR
16.2666666666667,-7.04193735122681,-0.526963949203491,6.47729015350342,0.381099998950958,3.03355598449707,2.78965187072754,-849.900024414062,-12.9000005722046,-861.300048828125,-2.8167404837078,-0.830274456935146,0.0759635040701124,DLR
16.3,-7.33383083343506,-0.126806303858757,6.14053583145142,0.304879993200302,3.30794787406921,2.79727387428284,-857.100036621094,-10.5,-849.300048828125,-2.87260869240882,-0.878983601374956,0.0150513688085013,DLR
16.3333333333333,-6.92410326004028,-0.10826388001442,5.56811285018921,-0.236281991004944,2.76678586006165,2.37044191360474,-845.100036621094,-14.1000003814697,-842.100036621094,-2.88323727764986,-0.898087511671477,0.0147857467159372,DLR
16.3666666666667,-7.16635084152222,-0.009570287540555,5.49513959884644,-0.640248000621796,1.79879200458527,2.27897787094116,-845.100036621094,-12.3000001907349,-849.300048828125,-2.90860296231043,-0.919502347491412,-0.002131688397495,DLR
16.4,-7.1286678314209,-0.257201462984085,5.50351333618164,-0.769822001457214,0.518296003341675,2.43903994560242,-837.900024414062,-12.9000005722046,-839.700012207031,-2.88676416841229,-0.913976711051762,0.0420397506471699,DLR
16.4333333333333,-7.68912792205811,-0.237462759017944,6.20393896102905,-0.106707997620106,-0.190549999475479,1.79879200458527,-837.900024414062,-15.9000005722046,-846.900024414062,-2.90023705620173,-0.891594137932916,0.0346283187012335,DLR
16.4666666666667,-6.98331928253174,-0.419896364212036,6.08969354629517,0.815553963184357,-0.823175966739655,1.58537602424622,-849.900024414062,-9.90000057220459,-842.100036621094,-2.88070379952283,-0.851717901090839,0.0638113667617993,DLR
16.5,-7.83806562423706,-0.940878868103027,6.37560606002808,1.2347639799118,-1.39482593536377,0.342989981174469,-847.500061035156,-9.90000057220459,-858.900024414062,-2.81701677459054,-0.880003676693357,0.142207955963995,DLR
16.5333333333333,-6.86847591400146,0.342137783765793,6.34330606460571,3.01831197738647,-2.46952795982361,0.449698001146317,-849.900024414062,-15.3000001907349,-842.100036621094,-2.95432287386845,-0.820569963970531,-0.0583439474325652,DLR
16.5666666666667,-6.58675050735474,-0.272155046463013,6.74346399307251,3.19361782073975,-2.78965187072754,0.396344006061554,-852.300048828125,-19.5,-846.900024414062,-2.87686192623314,-0.76908237006343,0.0328573902955977,DLR
16.6,-7.57667684555054,0.355895072221756,7.12926626205444,3.14788603782654,-3.59758400917053,0.503051996231079,-864.300048828125,-13.5000009536743,-849.300048828125,-2.92572172805808,-0.808595642767261,-0.0552874030890506,DLR
16.6333333333333,-6.92290687561035,0.512608528137207,7.73339033126831,2.9192259311676,-3.55947399139404,0.609759986400604,-857.100036621094,-13.5000009536743,-849.300048828125,-2.92563570677601,-0.723550673714831,-0.0717075970113284,DLR
16.6666666666667,-6.06337547302246,0.421092659235001,7.84643936157227,2.20275783538818,-2.97257995605469,-1.31098401546478,-852.300048828125,-12.9000005722046,-858.900024414062,-2.89841776855,-0.652784843607805,-0.0556157156470253,DLR
16.7,-6.21410751342773,1.09519982337952,7.70707225799561,1.53964400291443,-2.19513607025146,-1.64635193347931,-861.900024414062,-19.5,-854.100036621094,-2.93489383209447,-0.670086639015429,-0.140107643532751,DLR
16.7333333333333,-5.63749742507935,1.08682572841644,7.1226863861084,-0.0457319989800453,-0.175305992364883,-1.33385002613068,-861.900024414062,-11.7000007629395,-863.700012207031,-2.9339235008138,-0.664042125391454,-0.149404259251633,DLR
16.7666666666667,-5.76908874511719,1.18252861499786,7.03475952148438,-0.937505960464478,1.29574000835419,-0.967993974685669,-866.700012207031,-18.3000011444092,-854.100036621094,-2.94284827431893,-0.682328699561246,-0.163675723707315,DLR
16.8,-6.04483270645142,0.753660142421722,6.83318519592285,-1.87501192092896,2.5152599811554,-1.05183601379395,-852.300048828125,-19.5,-849.300048828125,-2.90981175296262,-0.725299952514098,-0.106122123921156,DLR
16.8333333333333,-5.94434499740601,0.297875195741653,6.71774387359619,-2.67532205581665,2.29422187805176,-1.55488801002502,-852.300048828125,-20.1000003814697,-858.900024414062,-2.86922608878299,-0.72800095434254,-0.0382256821855877,DLR
16.8666666666667,-6.71355676651001,0.0035888578277081,7.1107234954834,-3.50611996650696,1.55488801002502,-1.96647596359253,-852.300048828125,-16.5,-844.500061035156,-2.84380726165164,-0.759002275679261,0.0082829610207612,DLR
16.9,-6.93247699737549,-0.477318078279495,6.39953184127808,-4.72563982009888,0.449698001146317,-0.899396002292633,-852.300048828125,-12.3000001907349,-856.500061035156,-2.80963590166298,-0.824234882643175,0.0839624814158816,DLR
16.9333333333333,-7.91283321380615,-0.627451956272125,6.1088342666626,-6.37961387634277,0.571649968624115,0.777444005012512,-849.900024414062,-4.5,-851.700012207031,-2.82383577092878,-0.911054933442681,0.111630167525871,DLR
16.9666666666667,-7.10175132751465,-1.77349388599396,5.94733572006226,-9.13877773284912,0.0685980021953583,4.32167387008667,-852.300048828125,-5.10000038146973,-854.100036621094,-2.74302879022249,-0.855602969634387,0.295268133564473,DLR
17.0,-7.28777408599854,-1.83809340000153,6.1172080039978,-11.6692819595337,0.175305992364883,7.59151172637939,-842.700012207031,-5.70000028610229,-863.700012207031,-2.82950970993449,-0.855300040855668,0.29771250529894,DLR
17.0333333333333,-6.74884700775146,-2.09828543663025,6.95759916305542,-13.6967334747314,-0.0990860015153885,12.7211179733276,-847.500061035156,0.900000035762787,-861.300048828125,-2.94975766910882,-0.755746673236805,0.296502025221225,DLR
17.0666666666667,-6.87565326690674,-2.07077097892761,6.80567073822021,-15.8308935165405,-1.32622802257538,15.434549331665,-852.300048828125,-4.5,-870.900024414062,-3.0964704098725,-0.773811323820883,0.297147510389548,DLR
17.1,-6.75482845306396,-1.45109486579895,7.44628190994263,-15.9985780715942,-1.19665396213531,14.0397233963013,-861.900024414062,0.300000011920929,-866.100036621094,2.97803000584408,-0.730718695672723,0.199167789780296,DLR
17.1333333333333,-6.4515700340271,-1.97028291225433,6.98989868164062,-15.9223575592041,-1.60061991214752,14.9238758087158,-869.100036621094,-2.70000004768372,-882.900024414062,2.88532823073241,-0.730675416004705,0.278673124443406,DLR
17.1666666666667,-5.58187007904053,-1.86740231513977,6.90615892410278,-13.9330158233643,-1.59299790859222,13.3994760513306,-869.100036621094,-1.5,-878.100036621094,2.75846792288557,-0.666866455445505,0.269995654562198,DLR
17.2,-6.46293497085571,-1.65565979480743,6.29844570159912,-11.3796453475952,-2.33995389938354,9.87811183929443,-888.300048828125,3.90000009536743,-894.900024414062,2.64623833298577,-0.781188792010464,0.259592736640338,DLR
17.2333333333333,-6.50301027297974,-1.58926582336426,6.1172080039978,-10.0457954406738,-0.663114011287689,8.55188369750977,-881.100036621094,5.70000028610229,-885.300048828125,2.56108240909947,-0.802033169191515,0.256554395645801,DLR
17.2666666666667,-6.63699436187744,-1.75973665714264,6.07414197921753,-8.74243354797363,-0.205793991684914,7.91925764083862,-883.500061035156,2.10000014305115,-897.300048828125,2.50633288697254,-0.81288842215831,0.282805907542471,DLR
17.3,-7.58983612060547,-1.57491040229797,5.84445476531982,-7.81254959106445,-1.65397393703461,7.24090003967285,-881.100036621094,7.50000047683716,-902.100036621094,2.41947116457375,-0.897169369373958,0.260993343831996,DLR
17.3333333333333,-7.57787322998047,-1.37094366550446,5.85881042480469,-7.27900981903076,-1.22714197635651,7.08083772659302,-890.700012207031,6.90000009536743,-890.100036621094,2.32258114651212,-0.900373866851424,0.227033848123371,DLR
17.3666666666667,-7.35955095291138,-0.923532724380493,6.10703992843628,-6.31863784790039,-1.49391198158264,6.83693361282349,-895.500061035156,5.10000038146973,-899.700012207031,2.19804507611518,-0.872031442907678,0.147257281346549,DLR
17.4,-6.90735483169556,-0.940280735492706,5.76669645309448,-5.67839002609253,-1.81403601169586,6.24241781234741,-897.900024414062,12.3000001907349,-902.100036621094,2.15246474446776,-0.867327768021759,0.158131726280783,DLR
17.4333333333333,-6.47130870819092,-0.96360832452774,5.84445476531982,-4.66466379165649,-2.37044191360474,4.78661584854126,-895.500061035156,11.7000007629395,-897.300048828125,2.1115904389431,-0.827324039974955,0.161775102501987,DLR
