seconds,sensor_accX_m_s_,sensor_accY_m_s_,sensor_accZ_m_s_,sensor_gyroX___s_,sensor_gyroY___s_,sensor_gyroZ___s_,sensor_magX__T_,sensor_magY__T_,sensor_magZ__T_,sensor_yaw___,sensor_pitch___,sensor_roll___,label5
0.0,-3.456070185,-2.406927347,8.497219086,0.076219998,-0.137196004,0.266770005,-1032.300049,10.5,-921.3000488,0.626350796,-0.372987627,0.275235369,ST
0.033333333,-3.585268974,-2.340533495,8.591127396,0.152439997,-0.106707998,0.365855992,-1049.100098,24.30000114,-923.7000122,0.621703084,-0.382242042,0.265983996,ST
0.066666667,-3.502127171,-2.302252293,8.488246918,0.205793992,-0.129574001,0.480185986,-1037.100098,15.30000019,-928.500061,0.619509148,-0.379152635,0.264261902,ST
0.1,-3.549380302,-2.304046631,8.617445946,0.213415995,-0.137196004,0.525918007,-1056.300049,8.700000763,-916.500061,0.616487133,-0.378732831,0.260736284,ST
0.133333333,-3.481790304,-2.351300001,8.58095932,0.022865999,-0.205793992,0.243903995,-1044.300049,15.90000057,-918.9000244,0.61763275,-0.373069759,0.266894235,ST
0.166666667,-3.457864523,-2.34412241,8.664100647,0.114329994,-0.198172003,0.251525998,-1037.100098,17.10000038,-923.7000122,0.615649958,-0.367845511,0.264016983,ST
0.2,-3.418387175,-2.355487108,8.482863426,0.190549999,-0.182927996,0.190549999,-1034.700073,17.70000076,-916.500061,0.617180174,-0.370056697,0.270112086,ST
0.233333333,-3.497341871,-2.271747112,8.547463417,0.129574001,-0.053353999,0.228659987,-1044.300049,21.30000114,-923.7000122,0.61281782,-0.376186887,0.260038386,ST
0.266666667,-3.451284885,-2.342926025,8.496621132,0.022865999,-0.076219998,0.259148002,-1032.300049,14.70000076,-923.7000122,0.614813155,-0.373335992,0.268490537,ST
0.3,-3.486575365,-2.324981689,8.548659325,0.076219998,-0.030487999,0.312501997,-1034.700073,15.30000019,-928.500061,0.612635022,-0.374927347,0.26540124,ST
0.333333333,-3.497341871,-2.387188673,8.601894379,0.022865999,-0.114329994,0.243903995,-1029.900024,20.70000076,-923.7000122,0.613417814,-0.373411863,0.27017699,ST
0.366666667,-3.49255681,-2.363861084,8.586342812,0.053353999,-0.167683989,0.221037999,-1032.300049,15.30000019,-923.7000122,0.611821522,-0.373549452,0.268459198,ST
0.4,-3.506314039,-2.375225782,8.527724266,-0.015244,-0.160062,0.243903995,-1039.5,13.50000095,-923.7000122,0.611771277,-0.376788531,0.271314759,ST
0.433333333,-3.515286207,-2.387188673,8.525331497,-0.038109999,-0.137196004,0.282013983,-1044.300049,20.70000076,-926.1000366,0.611097263,-0.377807184,0.272777566,ST
0.466666667,-3.48298645,-2.415301323,8.55045414,-0.038109999,-0.129574001,0.259148002,-1037.100098,6.900000095,-928.500061,0.610800177,-0.373761861,0.275029932,ST
0.5,-3.49016428,-2.441021442,8.543275833,-0.053353999,-0.144817993,0.221037999,-1037.100098,15.30000019,-926.1000366,0.610824251,-0.37413468,0.278072279,ST
0.533333333,-3.505117893,-2.385992289,8.540883064,0.0,-0.083841994,0.266770005,-1020.300049,17.10000038,-930.9000244,0.607762434,-0.376260664,0.272578449,ST
0.566666667,-3.486575365,-2.430853128,8.504396439,-0.045731999,-0.022865999,0.205793992,-1046.700073,11.70000076,-921.3000488,0.608878885,-0.37557655,0.278096617,ST
0.6,-3.448892355,-2.503228426,8.435011864,-0.022865999,-0.053353999,0.129574001,-1049.100098,20.10000038,-928.500061,0.611875021,-0.373673346,0.287805924,ST
0.633333333,-3.562539577,-2.446404696,8.576771736,-0.076219998,-0.068598002,0.083841994,-1039.5,10.5,-911.7000122,0.607973607,-0.379569041,0.278521839,ST
0.666666667,-3.524258375,-2.487078428,8.538491249,0.068598002,-0.228659987,0.182927996,-1044.300049,16.5,-923.7000122,0.608741742,-0.377115006,0.282947461,ST
0.7,-3.488369703,-2.458367586,8.491835594,0.038109999,-0.205793992,0.137196004,-1039.5,11.70000076,-926.1000366,0.607623046,-0.375648889,0.281679197,ST
0.733333333,-3.432144403,-2.505620956,8.512172699,0.091463998,-0.068598002,0.198172003,-1051.5,15.30000019,-918.9000244,0.608416139,-0.369377279,0.285760861,ST
0.766666667,-3.532632351,-2.42188096,8.503798485,0.053353999,0.0,0.121951997,-1037.100098,17.10000038,-926.1000366,0.60508385,-0.379632327,0.277696917,ST
0.8,-3.584670782,-2.497844934,8.52832222,0.030487999,-0.099086002,0.205793992,-1039.5,11.70000076,-928.500061,0.606709309,-0.383187884,0.284398949,ST
0.833333333,-3.548782349,-2.460760117,8.570192337,0.068598002,-0.213415995,0.350611985,-1041.900024,23.70000076,-921.3000488,0.603411435,-0.378819867,0.279466705,ST
0.866666667,-3.487771749,-2.476311922,8.488246918,0.076219998,-0.289635986,0.388722003,-1032.300049,14.10000038,-923.7000122,0.603187434,-0.375624149,0.283171669,ST
0.9,-3.485977173,-2.455376863,8.507387161,0.045731999,-0.282013983,0.312501997,-1044.300049,10.5,-918.9000244,0.600870986,-0.374776708,0.280765532,ST
0.933333333,-3.415396452,-2.467339754,8.493630409,0.060975999,-0.175305992,0.236281991,-1032.300049,9.900000572,-921.3000488,0.600412319,-0.368614249,0.282346877,ST
0.966666667,-3.52066946,-2.453582525,8.518154144,0.015244,-0.137196004,0.091463998,-1027.5,15.90000057,-926.1000366,0.599238501,-0.377420887,0.280435372,ST
1.0,-3.556558132,-2.470330477,8.476284027,0.022865999,-0.198172003,0.190549999,-1025.100098,12.90000057,-914.1000366,0.599406315,-0.382384377,0.283199654,ST
1.033333333,-3.630129576,-2.564836979,8.31000042,0.083841994,-0.190549999,0.144817993,-1039.5,21.30000114,-928.500061,0.604519263,-0.394677171,0.298451459,ST
1.066666667,-3.974061966,-2.537920713,8.446974754,0.144817993,0.068598002,0.282013983,-1037.100098,13.50000095,-916.500061,0.601174124,-0.422009602,0.291812335,ST
1.1,-3.793422699,-2.788542509,8.307009697,0.259148002,-0.060975999,0.221037999,-1044.300049,11.70000076,-930.9000244,0.612673513,-0.409400212,0.321344363,ST
1.133333333,-4.032680035,-2.627043962,8.426039696,0.304879993,-0.243903995,0.045731999,-1046.700073,17.70000076,-918.9000244,0.605120971,-0.427280923,0.30257665,ST
1.166666667,-4.140944004,-2.540911436,8.403310776,0.632625997,-0.373477995,0.304879993,-1037.100098,10.5,-921.3000488,0.600637726,-0.439483251,0.292830065,ST
1.2,-4.033277988,-2.255597115,8.440993309,0.647870004,-0.853663981,0.80793196,-1032.300049,10.5,-911.7000122,0.584538765,-0.431857119,0.261007451,ST
1.233333333,-3.882545948,-2.124005795,8.241811752,0.541162014,-1.402447939,1.34147191,-1039.5,11.70000076,-916.500061,0.574888557,-0.426499079,0.250569321,ST
1.266666667,-3.792824507,-2.146136999,8.041434288,-0.274392009,-1.585376024,1.478667974,-1041.900024,18.90000153,-923.7000122,0.57071019,-0.425618383,0.259423801,ST
1.3,-3.902882814,-2.267560005,8.068350792,-1.067080021,-1.539644003,1.379581928,-1037.100098,11.10000038,-930.9000244,0.568416422,-0.433379975,0.273520486,ST
1.333333333,-4.149317741,-2.218512297,8.383571625,-1.410069942,-1.859767914,1.615863919,-1061.100098,18.30000114,-921.3000488,0.551602063,-0.443454382,0.260028688,ST
1.366666667,-4.118812561,-2.281317234,8.448171616,-1.120433927,-2.271355867,2.019829988,-1049.100098,13.50000095,-918.9000244,0.540860057,-0.437289802,0.26346657,ST
1.4,-3.562539577,-2.564836979,8.506191254,-1.074702024,-2.949713945,1.623485923,-1056.300049,18.30000114,-926.1000366,0.540892688,-0.380172604,0.291607034,ST
1.433333333,-3.394461393,-2.469134092,8.380580902,-0.609759986,-3.414655924,1.135677934,-1049.100098,17.70000076,-906.9000244,0.530406913,-0.36631573,0.286525764,ST
1.466666667,-3.398050308,-2.405132771,8.368618011,-0.106707998,-3.254593849,0.579271972,-1063.5,16.5,-923.7000122,0.521863643,-0.3668655,0.279432237,ST
1.5,-3.082230806,-2.502032042,8.34828186,-0.358233988,-3.544229984,-0.228659987,-1070.700073,17.70000076,-911.7000122,0.522001044,-0.335342128,0.290804348,ST
1.533333333,-2.892619371,-2.313018799,8.460134506,-0.564027965,-3.27745986,-1.04421401,-1065.900024,12.30000019,-928.500061,0.514839131,-0.313958707,0.269318001,ST
1.566666667,-2.646184444,-2.377020121,8.484060287,-0.327746004,-2.957335949,-1.021348,-1082.700073,19.5,-928.500061,0.516442186,-0.287988375,0.27356708,ST
1.6,-2.54150939,-2.513994932,8.722719193,-0.609759986,-2.294221878,-1.737815976,-1087.5,15.90000057,-923.7000122,0.52248406,-0.26906922,0.281835146,ST
1.633333333,-2.594744205,-2.399151564,8.997864723,0.083841994,-1.905499935,-1.23476398,-1087.5,17.10000038,-923.7000122,0.520028133,-0.268035523,0.261912343,ST
1.666666667,-2.09230423,-2.845366001,8.293850899,0.72408998,-1.592997909,-1.280496001,-1082.700073,14.10000038,-926.1000366,0.539988323,-0.232563012,0.326561545,ST
1.7,-2.312420845,-2.705400705,8.569594383,0.876529992,-1.417691946,-2.019829988,-1097.100098,20.70000076,-921.3000488,0.541810757,-0.247469629,0.306236934,ST
1.733333333,-2.52057457,-2.732317209,8.796290398,1.440557957,-1.661595941,-2.027451992,-1099.5,17.10000038,-921.3000488,0.547681352,-0.262518959,0.299669361,ST
1.766666667,-2.467937946,-2.870488167,8.713149071,1.63872993,-1.76830399,-2.012207985,-1094.700073,17.70000076,-921.3000488,0.558707776,-0.259011649,0.315024194,ST
1.8,-2.40034771,-3.011649847,8.668288231,1.303362012,-1.295740008,-2.332331896,-1104.300049,15.30000019,-926.1000366,0.571288309,-0.252790206,0.331832517,ST
1.833333333,-1.933198094,-3.263468027,8.619838715,1.059458017,-0.685979962,-2.774407864,-1087.5,15.30000019,-921.3000488,0.588816449,-0.206092172,0.359686569,ST
1.866666667,-1.982245803,-3.2945714,8.735877991,0.746955991,0.282013983,-2.919225931,-1092.300049,16.5,-926.1000366,0.600737214,-0.207762079,0.360332744,ST
1.9,-1.923029661,-3.228177547,9.424340248,0.792688012,0.91463995,-2.248489857,-1106.700073,19.5,-926.1000366,0.605195247,-0.191935495,0.331322118,ST
1.933333333,-2.144342661,-3.113932371,9.84363842,0.884151995,0.342989981,-1.539644003,-1094.700073,12.90000057,-930.9000244,0.607319125,-0.203774101,0.306972202,ST
1.966666667,-2.114435434,-2.843571663,9.980015755,0.983237982,-0.72408998,-0.015244,-1097.100098,10.5,-923.7000122,0.601480593,-0.20003051,0.277676552,ST
2.0,-1.798615932,-2.697624683,9.695897102,1.021348,-1.059458017,0.731711984,-1109.100098,16.5,-933.3000488,0.596836175,-0.176899204,0.269772433,ST
2.033333333,-2.350701809,-2.275335789,10.42144489,1.158543944,-0.670735955,1.753059983,-1106.700073,12.90000057,-926.1000366,0.579123404,-0.214708612,0.214788561,ST
2.066666667,-1.788447499,-2.13237977,9.835863113,1.753059983,-0.510674,2.423795938,-1104.300049,5.700000286,-928.500061,0.569719663,-0.178229763,0.209946437,ST
2.1,-1.620369315,-2.207147598,9.094763756,1.265251994,0.282013983,1.8292799,-1097.100098,18.30000114,-930.9000244,0.567947205,-0.172993154,0.233810008,ST
2.133333333,-1.992414236,-2.121015072,9.033155441,0.777444005,0.785066009,1.120433927,-1104.300049,12.90000057,-928.500061,0.564085666,-0.210851472,0.229231768,ST
2.166666667,-2.110248327,-2.213727236,8.57318306,0.487807989,0.967993975,0.609759986,-1109.100098,12.30000019,-928.500061,0.567772627,-0.2343492,0.250328856,ST
2.2,-2.183221817,-2.275335789,7.985208511,0.205793992,1.158543944,-0.022865999,-1104.300049,16.5,-926.1000366,0.575440701,-0.257564488,0.275729338,ST
2.233333333,-2.71796155,-2.571416616,8.302224159,0.015244,0.853663981,-0.167683989,-1097.100098,15.90000057,-923.7000122,0.583458279,-0.30158486,0.299020294,ST
2.266666667,-3.219803572,-2.65216589,8.752027512,-0.091463998,-0.030487999,-0.114329994,-1099.5,9.900000572,-930.9000244,0.582383437,-0.336407876,0.294710593,ST
2.3,-3.344815493,-2.898600817,9.482958794,-0.030487999,-0.320124,0.480185986,-1080.300049,12.90000057,-928.500061,0.580742837,-0.325726718,0.296270861,ST
2.333333333,-2.740092993,-2.847160578,9.292749405,0.548784018,-0.342989981,0.487807989,-1097.100098,15.90000057,-921.3000488,0.579146702,-0.277575222,0.296072665,ST
2.366666667,-2.488274813,-2.798112869,9.361536026,1.295740008,-0.030487999,0.40396598,-1101.900024,7.500000477,-916.500061,0.576972621,-0.251214889,0.288489167,ST
2.4,-2.880656481,-2.343524218,8.841151237,1.85214591,0.556405962,0.251525998,-1087.5,17.10000038,-923.7000122,0.570308329,-0.302836598,0.257826403,ST
2.433333333,-2.750261307,-2.108453989,8.561818123,1.501533985,0.891773999,0.548784018,-1104.300049,2.700000048,-928.500061,0.565484892,-0.304029867,0.239504707,ST
2.466666667,-2.761626005,-1.872785687,8.384768486,0.685979962,0.396344006,1.006103992,-1094.700073,6.300000191,-933.3000488,0.556794913,-0.311587163,0.219351899,ST
2.5,-2.929704189,-1.758540392,8.196352959,0.266770005,0.464941978,1.55488801,-1094.700073,9.300000191,-933.3000488,0.548928862,-0.336005724,0.210591758,ST
2.533333333,-2.88544178,-2.236456633,8.827992439,-0.266770005,0.320124,1.501533985,-1085.100098,11.70000076,-928.500061,0.554379616,-0.309713765,0.245567794,ST
2.566666667,-3.012846231,-1.989423513,8.997266769,-0.205793992,-0.304879993,1.036592007,-1094.700073,10.5,-930.9000244,0.541647594,-0.315557323,0.218899594,ST
2.6,-2.246026754,-2.262774944,8.660511971,-0.190549999,-0.045731999,0.571649969,-1092.300049,8.100000381,-926.1000366,0.548826746,-0.249078642,0.254048816,ST
2.633333333,-2.540313244,-2.295672655,9.006238937,-0.434453994,0.945127964,0.175305992,-1085.100098,11.70000076,-926.1000366,0.547726388,-0.267528226,0.250553436,ST
2.666666667,-2.125201941,-2.338738918,9.071435928,-0.503051996,0.907018006,-0.068598002,-1089.900024,12.30000019,-923.7000122,0.549024384,-0.227184993,0.25314991,ST
2.7,-2.025312185,-2.339935303,9.032556534,-0.754577994,1.935987949,0.373477995,-1092.300049,13.50000095,-930.9000244,0.549196198,-0.217667743,0.254764894,ST
2.733333333,-1.571321607,-2.295672655,9.710850716,-1.036592007,2.309465885,0.640248001,-1085.100098,14.70000076,-930.9000244,0.544453003,-0.163842852,0.235168255,ST
2.766666667,-0.861923993,-2.374029398,9.954893112,-1.211897969,2.942091942,1.089946032,-1080.300049,9.300000191,-933.3000488,0.542498717,-0.093970958,0.236090245,ST
2.8,-0.953439891,-2.156903505,9.847826004,-0.876529992,4.146368027,1.951231956,-1073.100098,9.300000191,-950.1000366,0.536470834,-0.101610743,0.218128207,ST
2.833333333,-1.623958111,-1.713679671,9.711449623,-0.411587983,5.968025684,2.987823963,-1063.5,11.10000038,-930.9000244,0.522744837,-0.171204107,0.176755165,ST
2.866666667,-1.540816307,-2.431451082,9.575671196,0.038109999,6.318637848,3.330813885,-1056.300049,16.5,-933.3000488,0.526317043,-0.167035857,0.244599428,ST
2.9,-2.15092206,-2.738896608,9.24609375,-0.221037999,6.227173805,2.378063917,-1041.900024,15.30000019,-921.3000488,0.53167384,-0.227171892,0.285491499,ST
2.933333333,-3.498538256,-2.590557098,9.282580376,-0.53354001,6.349125862,1.730193973,-1032.300049,19.5,-933.3000488,0.527885479,-0.354467042,0.273621284,ST
2.966666667,-4.156495571,-2.556463003,8.641969681,0.571649969,6.265284061,2.797273874,-1025.100098,15.30000019,-923.7000122,0.529740269,-0.438557007,0.285108463,ST
3.0,-5.005260468,-2.652764082,7.512675762,1.189031959,6.699738026,3.51374197,-1013.100037,16.5,-928.500061,0.551003396,-0.567299026,0.333419015,ST
3.033333333,-4.769592285,-2.450591803,6.275117874,0.419209987,6.036623955,3.285081863,-991.500061,9.900000572,-916.500061,0.568416113,-0.625305136,0.368784233,ST
3.066666667,-5.891708374,-1.75315702,6.505403042,-0.282013983,6.867421627,3.300325871,-986.7000122,17.10000038,-926.1000366,0.501707313,-0.725327459,0.268660626,ST
3.1,-6.281697273,-1.104770064,6.451570034,-0.030487999,5.960403919,4.436003685,-969.9000244,12.90000057,-923.7000122,0.424876146,-0.773783043,0.169907758,ST
3.133333333,-6.758417606,-1.099984884,6.604096413,-0.586893976,3.628072023,4.474113941,-965.1000366,12.30000019,-918.9000244,0.404015288,-0.796563246,0.159749044,ST
3.166666667,-7.059283257,-0.71777159,6.729108334,-0.61738199,2.416173935,4.359784126,-955.500061,11.10000038,-909.3000488,0.349197258,-0.810826399,0.102838314,ST
3.2,-6.782343388,-0.975571215,6.806867123,-0.396344006,0.846041977,3.833865881,-953.1000366,15.90000057,-923.7000122,0.360141564,-0.782517471,0.134861965,ST
3.233333333,-4.172047138,-0.305052906,5.552561283,-0.396344006,-0.564027965,1.897877932,-953.1000366,8.700000763,-909.3000488,0.302004732,-0.651366848,0.057342796,ST
3.266666667,-7.268633366,-2.147931337,7.495927811,-0.030487999,-3.887219906,-0.678357959,-962.7000122,11.70000076,-921.3000488,0.434212585,-0.738516015,0.263813695,ST
3.3,-6.182405949,-1.927814841,6.379793167,-0.586893976,-2.507637978,-2.98020196,-965.1000366,17.70000076,-926.1000366,0.461160746,-0.742011254,0.29620124,ST
3.333333333,-7.860795021,-2.190997601,8.349477768,0.198172003,-2.118916035,-3.963439941,-953.1000366,18.90000153,-926.1000366,0.449401467,-0.733832215,0.263557928,ST
3.366666667,-7.388261795,-1.495955586,6.604096413,1.8292799,-1.74543798,-2.713431835,-974.7000122,12.90000057,-914.1000366,0.43489582,-0.819348092,0.226357266,ST
3.4,-6.463532925,-1.680781722,6.648957253,1.135677934,-1.257629991,-0.838419974,-967.500061,14.10000038,-935.7000122,0.453103158,-0.757301111,0.245332286,ST
3.433333333,-6.146517277,-1.708894491,6.400727749,0.076219998,-1.951231956,-0.800309956,-974.7000122,12.90000057,-918.9000244,0.464515045,-0.744946201,0.260432318,ST
3.466666667,-6.152498722,-1.646089435,5.636899471,0.350611985,-1.516777992,0.327746004,-969.9000244,12.90000057,-933.3000488,0.477737828,-0.802949497,0.28090092,ST
3.5,-5.90965271,-2.078546762,6.325960159,0.137196004,-0.480185986,0.739333987,-979.500061,0.300000012,-930.9000244,0.498590322,-0.730168179,0.313907696,ST
3.533333333,-5.740377903,-2.253802776,7.555741787,0.221037999,-1.501533985,0.205793992,-984.3000488,13.50000095,-921.3000488,0.482153171,-0.633122387,0.29009007,ST
3.566666667,-5.428147316,-1.940973997,7.3523736,0.853663981,-3.894841909,0.114329994,-967.500061,17.10000038,-928.500061,0.461255244,-0.614633926,0.257331834,ST
3.6,-6.013131142,-2.141351938,7.903861046,0.998481989,-4.222588062,0.457319975,-998.7000122,11.10000038,-923.7000122,0.460471203,-0.625826659,0.26068587,ST
3.633333333,-5.539402008,-2.200567961,8.555836678,0.647870004,-5.045763969,0.609759986,-993.9000244,15.30000019,-935.7000122,0.44931985,-0.556262758,0.24928742,ST
3.666666667,-5.453269482,-2.122211218,9.046912193,1.028970003,-6.631139755,0.625003994,-1013.100037,13.50000095,-930.9000244,0.432934447,-0.521888955,0.227828345,ST
3.7,-5.176927567,-1.973273635,8.533705711,1.570132017,-7.995477676,0.335367978,-1032.300049,10.5,-930.9000244,0.426161297,-0.520430676,0.222699923,ST
3.733333333,-4.114625454,-1.068283319,8.248391151,2.118916035,-6.463455677,0.236281991,-1017.900024,9.900000572,-928.500061,0.381133606,-0.451170084,0.127919841,ST
3.766666667,-3.871779442,-0.688462555,8.719130516,2.919225931,-5.068629742,0.762199998,-1037.100098,17.10000038,-923.7000122,0.359779741,-0.410668318,0.076096791,ST
3.8,-3.637905598,-0.610105813,7.966666222,3.224105835,-4.207344055,0.541162014,-1051.5,9.300000191,-930.9000244,0.359661537,-0.419440457,0.070496067,ST
3.833333333,-3.981837749,-0.296678901,8.097061157,2.317087889,-2.23324585,-0.625003994,-1046.700073,7.500000477,-933.3000488,0.350695242,-0.450813741,0.035331319,ST
3.866666667,-4.310816288,-0.128600731,8.676661491,2.012207985,-1.402447939,-1.547266006,-1041.900024,5.100000381,-930.9000244,0.350824025,-0.458194363,0.013736336,ST
3.9,-4.344910622,-0.223705471,9.128857613,2.141782045,-1.478667974,-2.286599874,-1046.700073,8.700000763,-933.3000488,0.366412806,-0.442462931,0.022100322,ST
3.933333333,-3.939967871,-0.511412263,8.379982948,2.118916035,-2.522881985,-3.582340002,-1058.700073,9.300000191,-940.500061,0.398406551,-0.434524957,0.05797099,ST
3.966666667,-4.544092178,-0.696238399,8.320168495,1.592997909,-2.400929928,-4.192100048,-1058.700073,3.900000095,-935.7000122,0.426724236,-0.490068463,0.082694164,ST
4.0,-4.65056181,-0.794932008,8.457143784,0.815553963,-2.042695999,-4.062525749,-1070.700073,6.300000191,-928.500061,0.447869041,-0.496296876,0.095127155,ST
4.033333333,-4.037465096,-1.091610909,8.478676796,0.221037999,-2.164648056,-3.079288006,-1056.300049,6.300000191,-935.7000122,0.474034643,-0.439739826,0.128309057,ST
4.066666667,-3.942360401,-1.392476797,9.400414467,-0.419209987,-2.324709892,-2.408551931,-1070.700073,3.300000191,-933.3000488,0.488952884,-0.391719734,0.148036855,ST
4.1,-2.928508043,-1.127499461,9.070837975,-0.80793196,-3.025933981,-1.646351933,-1077.900024,2.700000048,-930.9000244,0.485335913,-0.309727362,0.127096317,ST
4.133333333,-2.583379507,-0.995309889,8.840553284,-1.44817996,-1.928365946,-0.80793196,-1080.300049,7.500000477,-933.3000488,0.48253641,-0.280777483,0.115591706,ST
4.166666667,-2.330963135,-1.107162595,9.014014244,-2.378063917,-0.152439997,0.449698001,-1077.900024,11.70000076,-933.3000488,0.480848653,-0.252874039,0.125511762,ST
4.2,-2.165875673,-1.393673182,9.86577034,-3.841487885,1.608241916,2.08842802,-1073.100098,12.30000019,-926.1000366,0.474611737,-0.219495506,0.145048599,ST
4.233333333,-1.827326775,-1.533638597,9.842442513,-4.115880013,2.713431835,2.728675842,-1082.700073,4.5,-940.500061,0.465342442,-0.18883184,0.160016254,ST
4.266666667,-1.446907878,-1.518684983,10.35923767,-3.948195934,3.574717999,2.675322056,-1073.100098,11.70000076,-926.1000366,0.453169063,-0.146912507,0.152366434,ST
4.3,-1.553975463,-1.443318963,10.23243141,-2.324709892,3.429899931,1.775925994,-1061.100098,11.10000038,-930.9000244,0.445548967,-0.15510677,0.144357869,ST
4.333333333,-2.126996517,-1.333260655,9.885508537,-1.890255928,3.696669817,0.785066009,-1051.5,15.30000019,-928.500061,0.441758377,-0.213305326,0.137655095,ST
4.366666667,-2.282513618,-0.770408154,9.997960091,-1.608241916,3.635694027,0.190549999,-1041.900024,9.900000572,-918.9000244,0.42911216,-0.229166156,0.083271508,ST
4.4,-2.714372873,-1.026413321,9.006238937,-0.434453994,2.294221878,0.83079797,-1037.100098,11.10000038,-938.1000366,0.433746277,-0.291090181,0.112052063,ST
4.433333333,-2.807085037,-1.4804039,7.476189137,-1.082324028,2.538125992,0.114329994,-1041.900024,8.700000763,-930.9000244,0.459236339,-0.3540767,0.193309938,ST
4.466666667,-3.996193171,-0.926523447,9.357348442,-2.111294031,4.13112402,0.114329994,-1034.700073,12.30000019,-933.3000488,0.426169048,-0.405814361,0.108231455,ST
4.5,-2.915348768,-1.303951621,7.85541153,-0.182927996,2.286599874,1.935987949,-1039.5,23.10000038,-926.1000366,0.439419649,-0.358505729,0.160486311,ST
4.533333333,-3.210831404,-1.845271111,7.274016857,-1.509155989,3.490875959,0.480185986,-1027.5,16.5,-933.3000488,0.47017649,-0.407628017,0.246285022,ST
4.566666667,-3.960304499,-2.3016541,7.444487572,-2.370441914,5.388753891,-0.922261953,-1027.5,11.10000038,-923.7000122,0.498651835,-0.474439903,0.30242448,ST
4.6,-5.119505882,-2.585173845,7.924796104,-2.332331896,5.823207855,-1.730193973,-1003.500061,14.70000076,-933.3000488,0.515518512,-0.554292368,0.321787734,ST
4.633333333,-5.531028271,-2.743681908,7.360747337,-1.394825935,5.243936062,-1.295740008,-986.7000122,26.10000038,-935.7000122,0.544084919,-0.617599563,0.360625311,ST
4.666666667,-5.702694893,-3.765310049,6.399531841,-1.288118005,5.34302187,-1.707327962,-989.1000366,16.5,-923.7000122,0.653616629,-0.659317144,0.528379707,ST
4.7,-6.760211945,-3.763515472,7.354167938,-1.410069942,5.74698782,-2.103672028,-979.500061,20.10000038,-926.1000366,0.637548261,-0.691357412,0.484280276,ST
4.733333333,-6.590937614,-3.743776798,7.103546143,-0.442075998,3.772889853,-2.202757835,-974.7000122,17.10000038,-914.1000366,0.653091515,-0.691315343,0.490860776,ST
4.766666667,-7.085003376,-3.382498503,6.796100616,0.442075998,2.347575903,-1.570132017,-974.7000122,22.5,-926.1000366,0.645904185,-0.749949669,0.466491223,ST
4.8,-6.77755785,-3.15580225,6.201546192,1.356715918,1.410069942,-0.495429993,-972.3000488,18.90000153,-914.1000366,0.655217498,-0.772579627,0.469949572,ST
4.833333333,-6.451570034,-3.066679001,5.775668621,1.303362012,0.739333987,-0.175305992,-965.1000366,13.50000095,-916.500061,0.671788729,-0.779301201,0.485871075,ST
4.866666667,-6.483870029,-2.939274549,5.396445751,0.716467977,0.53354001,-0.419209987,-967.500061,18.90000153,-916.500061,0.684323037,-0.810870704,0.497903209,ST
4.9,-7.005450249,-3.329263687,5.278013706,0.198172003,1.288118005,-0.457319975,-965.1000366,21.30000114,-918.9000244,0.734852853,-0.843140467,0.561442986,ST
4.933333333,-7.833878517,-2.898002625,6.005953789,0.221037999,2.317087889,0.289635986,-960.3000488,24.30000114,-926.1000366,0.658075418,-0.868405931,0.455711526,ST
4.966666667,-7.229156017,-3.140250683,6.101656437,0.853663981,1.143299937,1.12805593,-962.7000122,21.30000114,-926.1000366,0.671556644,-0.817060255,0.472044967,ST
5.0,-7.229156017,-2.744279861,5.971261501,0.823175967,-0.205793992,0.647870004,-953.1000366,17.10000038,-911.7000122,0.641840579,-0.832199125,0.430767265,ST
5.033333333,-6.988104343,-2.157501698,5.721237659,1.181409955,-1.432935953,0.80793196,-957.9000244,16.5,-916.500061,0.58966929,-0.849119954,0.360651713,ST
5.066666667,-6.721930504,-1.955927491,5.975448132,1.04421401,-1.661595941,0.571649969,-965.1000366,21.30000114,-921.3000488,0.556277247,-0.818349269,0.315350151,ST
5.1,-6.351680279,-1.957123756,6.748847008,1.036592007,-2.46952796,0.213415995,-955.500061,21.30000114,-921.3000488,0.532229939,-0.73520509,0.280667469,ST
5.133333333,-5.717648506,-2.060004473,7.06705904,0.967993975,-3.62045002,-0.541162014,-965.1000366,17.10000038,-921.3000488,0.533612899,-0.658955958,0.28124979,ST
5.166666667,-5.34679985,-2.196979046,7.506096363,1.333850026,-4.230209827,-1.143299937,-962.7000122,20.10000038,-918.9000244,0.537094517,-0.596064411,0.282256368,ST
5.2,-4.925109386,-1.889533639,7.916422367,1.859767914,-4.054903984,-1.432935953,-979.500061,14.10000038,-926.1000366,0.516709737,-0.539639085,0.233935122,ST
5.233333333,-4.672094822,-2.059406281,8.749635696,2.141782045,-2.408551931,-0.907018006,-979.500061,16.5,-933.3000488,0.519642486,-0.477728362,0.228006018,ST
5.266666667,-3.539810181,-2.705998898,9.068445206,2.08842802,0.304879993,-0.746955991,-993.9000244,17.70000076,-923.7000122,0.549039882,-0.364660735,0.283855837,ST
5.3,-2.927311659,-3.104960203,9.39682579,1.539644003,2.507637978,-1.173787951,-986.7000122,18.30000114,-930.9000244,0.568425538,-0.295604151,0.315500525,ST
5.333333333,-2.969181776,-2.883049011,9.24968338,1.85214591,3.445143938,-0.525918007,-977.1000366,15.90000057,-921.3000488,0.57220268,-0.302402844,0.300700623,ST
5.366666667,-3.76052475,-3.653457165,9.188672066,1.707327962,2.926847935,1.471045971,-955.500061,9.900000572,-933.3000488,0.595938959,-0.365099239,0.370605634,ST
5.4,-4.2264781,-3.641494513,8.655128479,1.028970003,2.301843882,2.743919849,-953.1000366,12.30000019,-926.1000366,0.600221585,-0.424640034,0.393639347,ST
5.433333333,-4.13256979,-3.141446829,8.856104851,0.762199998,1.493911982,4.21496582,-962.7000122,14.70000076,-918.9000244,0.567007291,-0.419631285,0.340260799,ST
5.466666667,-3.235953569,-3.131278515,7.904459476,1.272873998,-1.059458017,4.931433678,-960.3000488,14.70000076,-921.3000488,0.561623543,-0.368361308,0.369698104,ST
5.5,-3.008060932,-2.929704189,6.982122898,1.021348,-1.577754021,3.353679895,-957.9000244,17.10000038,-926.1000366,0.556215087,-0.377419513,0.391921709,ST
5.533333333,-4.319788456,-2.47571373,6.689630985,0.609759986,-1.112811923,1.699705958,-977.1000366,11.10000038,-921.3000488,0.533583912,-0.5336028,0.354064878,ST
5.566666667,-5.61297369,-2.243036032,6.504804611,0.884151995,-0.152439997,1.615863919,-965.1000366,20.70000076,-928.500061,0.516938252,-0.675687304,0.330042059,ST
5.6,-6.593928337,-2.088715315,6.642377853,1.04421401,1.55488801,2.347575903,-967.500061,11.10000038,-926.1000366,0.495993786,-0.75674643,0.301876469,ST
5.633333333,-8.121584892,-1.594649196,7.283586979,1.63872993,2.164648056,3.955817938,-969.9000244,6.300000191,-923.7000122,0.427764037,-0.828732191,0.212442167,ST
5.666666667,-9.063660622,-0.671116412,7.5210495,2.629590034,2.225623846,5.846074104,-962.7000122,11.10000038,-918.9000244,0.320924311,-0.878586952,0.079809962,ST
5.7,-7.621537685,-0.312230617,6.639387131,3.216483831,1.067080021,8.025965691,-955.500061,3.300000191,-914.1000366,0.269126777,-0.856992978,0.027659434,ST
5.733333333,-7.210015297,0.296080768,6.031075478,1.8292799,0.373477995,7.347607613,-962.7000122,3.900000095,-918.9000244,0.18757659,-0.872669022,-0.061674665,ST
5.766666667,-6.580769062,0.552684128,6.166853905,0.518296003,-0.571649969,6.85217762,-957.9000244,-2.100000143,-926.1000366,0.141679841,-0.817300299,-0.100578958,ST
5.8,-6.605292797,0.413914949,6.101656437,-0.922261953,-1.63872993,5.198204041,-962.7000122,2.700000048,-926.1000366,0.142211844,-0.820148771,-0.07713468,ST
5.833333333,-6.859503746,1.003085732,6.317585945,-1.143299937,-1.272873998,4.245453835,-965.1000366,-1.5,-923.7000122,0.068830563,-0.817272333,-0.157719494,ST
5.866666667,-6.316389561,0.370250493,6.415681362,-1.013725996,-0.823175967,3.841487885,-957.9000244,3.300000191,-916.500061,0.119637783,-0.777538099,-0.067942781,ST
5.9,-6.461140156,-0.008374002,7.811747074,-2.118916035,-1.326228023,0.251525998,-962.7000122,5.700000286,-921.3000488,0.159215003,-0.694137224,0.000302024,ST
5.933333333,-6.313398838,0.047851436,7.964871883,-1.875011921,-3.544229984,-1.821658015,-969.9000244,2.100000143,-928.500061,0.159906906,-0.665879674,-0.000184369,ST
5.966666667,-6.219490528,0.032897864,7.619743347,-1.631107926,-5.388753891,-2.797273874,-974.7000122,6.900000095,-928.500061,0.166319433,-0.674645152,0.002321376,ST
6.0,-6.145320892,-0.196789041,7.685539246,-0.929883957,-5.670767784,-2.423795938,-984.3000488,3.900000095,-926.1000366,0.187674255,-0.664962925,0.028656386,ST
6.033333333,-5.928792953,-0.365465343,8.234036446,-1.021348,-4.710395813,-1.882633924,-993.9000244,4.5,-930.9000244,0.201754107,-0.618227507,0.047072401,ST
6.066666667,-4.512988567,-0.421092659,8.37101078,-1.34147191,-3.612828016,-1.951231956,-1003.500061,5.100000381,-930.9000244,0.209085039,-0.49316156,0.053973747,ST
6.1,-4.042250156,-0.570030272,9.005640984,-1.989341974,-1.196653962,-2.004585981,-996.3000488,12.30000019,-926.1000366,0.218543021,-0.423337024,0.067370925,ST
6.133333333,-3.554763794,-0.602928102,9.440490723,-2.286599874,0.42683199,-2.111294031,-998.7000122,11.70000076,-928.500061,0.223719327,-0.363781557,0.069088673,ST
6.166666667,-3.02421093,-0.943271458,9.287963867,-2.393307924,1.471045971,-2.568614006,-993.9000244,2.100000143,-914.1000366,0.243580438,-0.317504405,0.105314381,ST
6.2,-3.131876707,-1.314120054,8.957191467,-2.49239397,1.753059983,-3.201239824,-996.3000488,3.900000095,-926.1000366,0.267392659,-0.33421832,0.149232121,ST
6.233333333,-3.746169329,-1.191500783,8.387759209,-2.484771967,2.096050024,-3.269837856,-984.3000488,11.70000076,-926.1000366,0.276502859,-0.413950647,0.148190658,ST
6.266666667,-4.536914349,-1.165182471,8.567799568,-1.676839948,2.218001842,-2.294221878,-1005.900024,9.300000191,-918.9000244,0.279736661,-0.482073466,0.140913466,ST
6.3,-4.355079174,-1.664033771,8.23882103,-0.967993975,2.06556201,-1.714949965,-979.500061,15.90000057,-930.9000244,0.312225016,-0.481121053,0.199127161,ST
6.333333333,-3.878957272,-2.444012165,7.429533958,-0.647870004,1.333850026,-2.614346027,-991.500061,21.30000114,-933.3000488,0.374259432,-0.462498021,0.314832332,ST
6.366666667,-4.401734352,-3.057108641,7.33323288,-1.410069942,1.63872993,-4.466491699,-991.500061,14.10000038,-930.9000244,0.426449731,-0.503076729,0.396542659,ST
6.4,-5.258872986,-3.124100685,8.067752838,-1.432935953,2.134160042,-5.335400105,-969.9000244,14.70000076,-914.1000366,0.43484066,-0.543579913,0.379135334,ST
6.433333333,-4.505212784,-3.907668114,6.287678719,-0.868907988,2.36281991,-5.297289848,-979.500061,20.10000038,-918.9000244,0.545913417,-0.545686765,0.555441611,ST
6.466666667,-5.406614304,-4.350293636,6.830194473,-1.890255928,3.68142581,-6.089977741,-981.9000244,15.30000019,-918.9000244,0.577575836,-0.585725906,0.577178618,ST
6.5,-5.113524437,-4.621252537,6.483870029,-1.189031959,3.719535828,-5.632658005,-962.7000122,17.70000076,-921.3000488,0.624299455,-0.571412393,0.625766056,ST
6.533333333,-6.836175919,-4.513586998,7.486357212,-1.150921941,3.018311977,-4.733262062,-962.7000122,20.10000038,-916.500061,0.600104792,-0.658243708,0.556848253,ST
6.566666667,-6.321773052,-4.960399628,6.824213028,0.693601966,1.562510014,-2.439039946,-965.1000366,24.90000153,-921.3000488,0.653365075,-0.643833087,0.626658645,ST
6.6,-6.193172455,-4.90656662,5.935970783,0.594515979,0.891773999,-1.471045971,-943.500061,22.5,-921.3000488,0.697841857,-0.67491744,0.687978974,ST
6.633333333,-6.951617718,-4.232459545,6.149507999,1.120433927,0.891773999,0.495429993,-948.3000488,15.30000019,-914.1000366,0.648023305,-0.747011033,0.606592251,ST
6.666666667,-7.45345974,-3.68515873,5.881539822,1.592997909,1.036592007,2.355197906,-957.9000244,21.90000153,-911.7000122,0.614054871,-0.820035228,0.557630471,ST
6.7,-7.058086872,-3.268253088,5.848641872,2.004585981,1.333850026,3.78813386,-960.3000488,19.5,-918.9000244,0.573977386,-0.8169203,0.504545367,ST
6.733333333,-6.578974724,-2.485882282,5.886324883,1.714949965,0.922261953,4.32167387,-955.500061,19.5,-914.1000366,0.490982664,-0.805345254,0.396838365,ST
6.766666667,-6.775763512,-2.143744469,6.452168465,1.623485923,1.310984015,4.72563982,-955.500061,16.5,-916.500061,0.425805507,-0.789458297,0.315377212,ST
6.8,-6.845746517,-2.136566639,7.41996336,1.42531395,1.585376024,4.916189671,-957.9000244,14.70000076,-918.9000244,0.388398542,-0.733954651,0.27365031,ST
6.833333333,-5.363547802,-1.969684839,7.740568161,0.510674,0.282013983,4.009171963,-955.500061,14.10000038,-916.500061,0.359848347,-0.6020063,0.245255099,ST
6.866666667,-4.909557343,-2.029499054,7.623332024,0.373477995,-0.922261953,3.559473991,-936.3000488,15.30000019,-921.3000488,0.353515658,-0.559435138,0.254888503,ST
6.9,-4.585363865,-2.348907471,7.43910408,0.015244,-0.891773999,3.140264034,-941.1000366,20.70000076,-923.7000122,0.365514817,-0.533221244,0.299602346,ST
6.933333333,-4.072755337,-2.580388784,7.55873251,-0.625003994,-0.72408998,1.913121939,-941.1000366,12.90000057,-921.3000488,0.369339313,-0.473855427,0.327120591,ST
6.966666667,-4.149317741,-2.143146276,7.43192625,-0.228659987,-1.028970003,2.004585981,-936.3000488,13.50000095,-906.9000244,0.340071745,-0.490597688,0.28203259,ST
7.0,-4.546484947,-2.625249386,7.60837841,0.373477995,-1.196653962,2.461905956,-943.500061,14.70000076,-909.3000488,0.35182733,-0.512698844,0.327064407,ST
7.033333333,-4.608691692,-2.557061195,7.259661198,0.548784018,-1.463423967,1.8292799,-953.1000366,14.70000076,-918.9000244,0.349014031,-0.536767978,0.334948547,ST
7.066666667,-5.036962032,-2.539116859,7.442094803,0.449698001,-2.355197906,1.158543944,-957.9000244,17.70000076,-918.9000244,0.338811346,-0.565013877,0.326413928,ST
7.1,-5.926400661,-2.496050596,6.817035675,0.632625997,-2.446661949,0.503051996,-960.3000488,12.30000019,-911.7000122,0.347972233,-0.675179128,0.3468833,ST
7.133333333,-6.327754498,-2.380010843,6.901971817,0.602137983,-1.051836014,0.72408998,-955.500061,15.30000019,-921.3000488,0.335590453,-0.711141269,0.330256885,ST
7.166666667,-6.628022194,-2.045050859,7.362541676,1.051836014,-0.495429993,1.676839948,-957.9000244,11.70000076,-916.500061,0.293822464,-0.714315556,0.27032332,ST
7.2,-6.593329906,-1.305148005,6.875653267,1.653973937,-0.503051996,2.538125992,-960.3000488,5.100000381,-921.3000488,0.233715358,-0.75341443,0.185545378,ST
7.233333333,-7.033563137,-0.915158749,7.019207954,1.631107926,-0.274392009,3.528985977,-962.7000122,8.700000763,-918.9000244,0.185874435,-0.780807775,0.124725237,ST
7.266666667,-7.051507473,-0.608909547,7.338615894,0.518296003,0.29725799,3.376545906,-960.3000488,12.90000057,-923.7000122,0.144968197,-0.765545559,0.078607454,ST
7.3,-6.200948238,-0.613694668,7.504301548,-0.609759986,-0.327746004,2.385685921,-962.7000122,7.500000477,-926.1000366,0.136388474,-0.693341481,0.079105224,ST
7.333333333,-5.602207184,-0.764426708,7.838065624,-0.945127964,-1.288118005,1.051836014,-967.500061,8.100000381,-916.500061,0.140890318,-0.620904812,0.096330765,ST
7.366666667,-5.422165871,-1.027609587,7.510282993,-0.884151995,-1.814036012,-0.487807989,-965.1000366,12.30000019,-921.3000488,0.162522914,-0.617843978,0.135789329,ST
7.4,-6.024496078,-1.094601631,7.680155754,-0.602137983,-1.097568035,-0.952749968,-957.9000244,14.70000076,-926.1000366,0.168082563,-0.655955745,0.143235893,ST
7.433333333,-5.603403568,-1.25430584,7.196258068,0.190549999,0.160062,-0.967993975,-962.7000122,15.30000019,-923.7000122,0.189258022,-0.654439186,0.171895236,ST
7.466666667,-5.90965271,-1.466646552,7.322466373,0.327746004,0.899396002,-0.975615978,-960.3000488,20.10000038,-909.3000488,0.209090793,-0.669674794,0.197023231,ST
7.5,-5.660226822,-1.611397147,7.023993015,0.198172003,1.371959925,-0.975615978,-955.500061,12.90000057,-916.500061,0.230925686,-0.667885933,0.225088139,ST
7.533333333,-6.035262585,-1.216622829,8.006741524,-0.442075998,1.227141976,-0.564027965,-957.9000244,20.70000076,-918.9000244,0.190672866,-0.644008875,0.156844843,ST
7.566666667,-5.885726929,-1.3201015,8.269925117,-0.411587983,0.282013983,-0.068598002,-957.9000244,11.10000038,-906.9000244,0.191344988,-0.614944585,0.159009063,ST
7.6,-5.716452599,-1.566536427,8.016311646,-0.823175967,-0.663114011,-0.304879993,-965.1000366,10.5,-911.7000122,0.209275631,-0.609747641,0.192480093,ST
7.633333333,-5.749350071,-1.709492564,7.847037792,-1.410069942,-0.487807989,-0.907018006,-955.500061,7.500000477,-921.3000488,0.222490382,-0.619634352,0.216678775,ST
7.666666667,-5.237339973,-1.677790999,7.70527792,-1.76830399,-0.060975999,-1.410069942,-967.500061,9.900000572,-916.500061,0.224339887,-0.587285742,0.21895222,ST
7.7,-4.577588081,-1.830915689,7.463627815,-1.623485923,-0.655492008,-2.134160042,-957.9000244,12.30000019,-914.1000366,0.241282539,-0.537507435,0.244265328,ST
7.733333333,-4.892809391,-1.881159663,7.063470364,-0.80793196,-1.318606019,-2.050318003,-967.500061,15.90000057,-916.500061,0.255300052,-0.584547274,0.262701885,ST
7.766666667,-5.324668884,-1.806391716,6.828998089,-0.282013983,-0.907018006,-1.867389917,-967.500061,14.10000038,-921.3000488,0.258949667,-0.639960455,0.261219907,ST
7.8,-5.809762478,-2.199371815,6.798492908,-0.030487999,0.358233988,-1.44817996,-974.7000122,15.90000057,-926.1000366,0.295508239,-0.680639295,0.312573278,ST
7.833333333,-5.666208267,-2.521770716,6.654938698,-0.312501997,0.975615978,-1.74543798,-967.500061,18.30000114,-911.7000122,0.332080675,-0.673438761,0.362320618,ST
7.866666667,-5.51906538,-2.992509365,6.711762428,-0.868907988,0.91463995,-2.484771967,-969.9000244,11.10000038,-935.7000122,0.374178353,-0.645707036,0.420716624,ST
7.9,-5.89529705,-3.451883078,7.137639999,-1.303362012,0.060975999,-3.841487885,-957.9000244,21.30000114,-916.500061,0.40396892,-0.636943859,0.455634553,ST
7.933333333,-6.017916203,-3.735402822,7.488749981,-0.983237982,-0.579271972,-4.184477806,-972.3000488,17.70000076,-916.500061,0.42091705,-0.620113963,0.468119809,ST
7.966666667,-6.117806435,-4.502820492,7.755521774,-0.388722003,-1.95885396,-4.481735706,-962.7000122,23.70000076,-921.3000488,0.464063305,-0.593234882,0.527132467,ST
8.0,-6.089693546,-3.933986425,7.190874577,0.289635986,-2.309465885,-4.108257771,-965.1000366,23.70000076,-916.500061,0.459929316,-0.629628605,0.504736116,ST
8.033333333,-4.938268185,-4.120606899,6.48805666,1.204275966,-1.074702024,-2.141782045,-974.7000122,19.5,-921.3000488,0.499084142,-0.571344664,0.561619907,ST
8.066666667,-4.962792397,-4.015932083,7.159173012,0.960371971,-0.609759986,-1.55488801,-974.7000122,17.70000076,-926.1000366,0.479305479,-0.543344931,0.513683462,ST
8.1,-5.257078648,-3.955519438,7.172332287,1.158543944,-0.541162014,-0.274392009,-972.3000488,19.5,-926.1000366,0.47596708,-0.568267361,0.502525951,ST
8.133333333,-4.921520233,-3.676784754,6.679462433,0.983237982,1.067080021,1.684461951,-967.500061,20.10000038,-916.500061,0.473764375,-0.575756065,0.50052194,ST
8.166666667,-4.983727455,-3.668410778,7.557536602,0.693601966,1.951231956,3.102154016,-965.1000366,20.10000038,-916.500061,0.442865903,-0.543015367,0.45170546,ST
8.2,-4.929894447,-3.405826092,7.924198151,0.632625997,1.692083955,4.161612034,-967.500061,16.5,-914.1000366,0.409368818,-0.525980129,0.40461554,ST
8.233333333,-4.941258907,-3.212027788,7.443889141,0.525918007,1.288118005,5.464973927,-965.1000366,15.30000019,-921.3000488,0.393408603,-0.551521322,0.401807562,ST
8.266666667,-5.287583828,-2.869291782,7.267436981,0.365855992,2.210379839,5.81558609,-960.3000488,18.30000114,-916.500061,0.362585852,-0.599185033,0.371939249,ST
8.3,-5.440110207,-2.821440458,7.71724081,0.129574001,2.57623601,5.929915905,-945.9000244,23.10000038,-911.7000122,0.332970352,-0.592987352,0.34640241,ST
8.333333333,-4.783349514,-2.530742884,7.737577438,0.015244,0.670735955,4.733262062,-953.1000366,15.90000057,-928.500061,0.299167992,-0.537459776,0.313048617,ST
8.366666667,-4.620056152,-2.272943258,7.355364323,0.198172003,-1.112811923,3.635694027,-948.3000488,16.5,-914.1000366,0.277906054,-0.540335492,0.296456902,ST
8.4,-4.91434288,-2.138959169,6.724921227,0.487807989,-1.562510014,2.027451992,-953.1000366,15.90000057,-911.7000122,0.274850641,-0.602713421,0.303730558,ST
8.433333333,-5.624936581,-2.223297358,7.195660114,0.731711984,-0.983237982,1.486289978,-955.500061,17.70000076,-921.3000488,0.266881173,-0.638316443,0.296654198,ST
8.466666667,-5.522056103,-1.843476653,7.091583252,1.166165948,-0.731711984,1.150921941,-957.9000244,21.30000114,-916.500061,0.239589156,-0.644707844,0.253387646,ST
8.5,-6.248799801,-1.893122554,7.226165295,1.814036012,-0.967993975,1.410069942,-955.500061,12.30000019,-914.1000366,0.237485592,-0.693581453,0.250823,ST
8.533333333,-6.051412582,-1.763325453,7.076629639,1.844523907,-0.625003994,1.135677934,-965.1000366,12.30000019,-926.1000366,0.231354471,-0.692133585,0.239876172,ST
8.566666667,-6.451570034,-1.294979572,7.619145393,1.676839948,-0.785066009,0.716467977,-955.500061,9.900000572,-926.1000366,0.187581197,-0.694384482,0.168798036,ST
8.6,-6.927093983,-0.86132586,7.631107807,1.882633924,-0.899396002,1.570132017,-957.9000244,12.30000019,-911.7000122,0.149316013,-0.730397208,0.11040384,ST
8.633333333,-5.986813068,-0.600535572,7.428337574,1.006103992,-0.922261953,2.17227006,-967.500061,2.700000048,-923.7000122,0.123062598,-0.677875237,0.077211263,ST
8.666666667,-5.712265491,-0.199181616,7.954703331,0.442075998,-0.899396002,2.248489857,-965.1000366,14.10000038,-926.1000366,0.084843002,-0.62462746,0.024628187,ST
8.7,-5.329453945,-0.661546111,8.327346802,0.259148002,-1.166165948,1.821658015,-962.7000122,9.300000191,-921.3000488,0.106703615,-0.569650855,0.07364261,ST
8.733333333,-5.796005249,-0.549693406,8.217885971,-0.388722003,-0.480185986,0.777444005,-960.3000488,17.10000038,-914.1000366,0.099402496,-0.609870978,0.066939339,ST
8.766666667,-5.127281666,-0.714780867,7.666398525,-0.655492008,1.806414008,0.228659987,-965.1000366,17.70000076,-921.3000488,0.112132819,-0.591602445,0.092727162,ST
8.8,-5.281004429,-1.461861372,7.929581165,-1.089946032,2.98020196,-0.967993975,-953.1000366,8.100000381,-916.500061,0.164086848,-0.585052918,0.181848145,ST
8.833333333,-5.673984051,-1.230978251,7.964871883,-1.181409955,2.835383892,-1.394825935,-953.1000366,14.70000076,-926.1000366,0.154681207,-0.615933411,0.159138072,ST
8.866666667,-5.996981621,-1.252511382,7.711259365,-0.93750596,2.583858013,-0.868907988,-953.1000366,15.90000057,-911.7000122,0.159452528,-0.656282678,0.164039465,ST
8.9,-5.645273209,-1.711885214,7.562321663,-1.105189919,2.17227006,-0.853663981,-945.9000244,12.30000019,-923.7000122,0.196334635,-0.634026839,0.222893771,ST
8.933333333,-5.597422123,-1.833906293,7.875748634,-1.189031959,1.028970003,-1.623485923,-948.3000488,16.5,-904.500061,0.205092456,-0.608233098,0.232455016,ST
8.966666667,-5.277415276,-1.748371959,7.226763248,-0.846041977,-0.518296003,-2.59910202,-931.500061,15.90000057,-918.9000244,0.216937281,-0.615026599,0.241438513,ST
9.0,-5.452073097,-1.560554981,6.312800884,-0.541162014,-0.548784018,-2.896359921,-943.500061,20.10000038,-909.3000488,0.227828829,-0.691595364,0.246844015,ST
9.033333333,-6.110628605,-1.883552194,6.474299431,-0.40396598,0.716467977,-1.996963978,-938.7000122,17.10000038,-914.1000366,0.258190775,-0.734049341,0.284852276,ST
9.066666667,-5.39166069,-1.928412914,6.078329086,-0.266770005,1.051836014,-1.509155989,-943.500061,11.10000038,-921.3000488,0.279075026,-0.704363221,0.309077838,ST
9.1,-6.333735943,-2.747270584,6.770380497,-0.411587983,1.120433927,-1.23476398,-950.7000122,12.90000057,-899.7000122,0.332139768,-0.714751469,0.384618851,ST
9.133333333,-6.002963066,-3.02660346,5.934176445,-0.564027965,1.516777992,-1.920743942,-941.1000366,15.30000019,-909.3000488,0.394812062,-0.733233967,0.470710987,ST
9.166666667,-6.575385571,-3.490762472,6.500617981,-1.173787951,2.057940006,-2.454283953,-936.3000488,17.10000038,-916.500061,0.419573087,-0.729264003,0.498159612,ST
9.2,-6.495234489,-4.077540398,6.452766418,-0.983237982,1.875011921,-3.399411917,-917.1000366,18.30000114,-909.3000488,0.473847288,-0.706204726,0.566703425,ST
9.233333333,-6.747650623,-3.968080521,6.924701214,-0.609759986,1.577754021,-3.689047813,-933.9000244,17.70000076,-899.7000122,0.460511441,-0.701316726,0.529669013,ST
9.266666667,-6.409699917,-3.874770164,6.425849915,0.42683199,0.655492008,-2.545747995,-924.3000488,24.90000153,-894.9000244,0.47905618,-0.705356602,0.544645596,ST
9.3,-7.31887722,-4.205543041,6.767389774,1.295740008,0.602137983,-0.922261953,-929.1000366,18.90000153,-906.9000244,0.493096678,-0.741176133,0.55496424,ST
9.333333333,-6.395344734,-4.000380039,5.880941868,1.166165948,0.670735955,-0.29725799,-938.7000122,15.30000019,-904.500061,0.524809728,-0.733459815,0.594265081,ST
9.366666667,-6.480879307,-3.606802225,6.316389561,0.579271972,0.342989981,0.876529992,-919.500061,24.90000153,-902.1000366,0.475737656,-0.72941876,0.521093283,ST
9.4,-6.418672085,-3.289786339,6.698005199,0.693601966,-0.121951997,2.134160042,-926.7000122,24.30000114,-914.1000366,0.428953149,-0.712943083,0.456453468,ST
9.433333333,-6.094478607,-2.965592861,5.971261501,0.693601966,0.106707998,3.589962006,-921.9000244,21.90000153,-914.1000366,0.419957292,-0.741815634,0.454786742,ST
9.466666667,-6.073543549,-3.139652491,6.206331253,0.342989981,0.838419974,3.727157831,-936.3000488,24.30000114,-914.1000366,0.417251867,-0.723241434,0.462693028,ST
9.5,-5.880941868,-3.33943224,7.0814147,-0.099086002,0.91463995,3.094532013,-929.1000366,15.90000057,-906.9000244,0.394466198,-0.652529637,0.439009576,ST
9.533333333,-5.703293324,-2.868095636,7.064068317,0.221037999,-1.120433927,2.500015974,-926.7000122,17.70000076,-902.1000366,0.353205451,-0.64270912,0.384802976,ST
9.566666667,-5.885726929,-2.769402027,6.983319283,0.899396002,-2.423795938,3.117398024,-914.7000122,5.700000286,-904.500061,0.334298565,-0.661750779,0.371455697,ST
9.6,-6.136348724,-2.589959145,6.847540855,1.44817996,-3.346057892,3.940573931,-929.1000366,14.10000038,-916.500061,0.311328569,-0.692538624,0.353241095,ST
9.633333333,-5.73738718,-2.712578297,6.940252781,1.570132017,-3.498497963,3.993927956,-917.1000366,18.30000114,-909.3000488,0.305357761,-0.655332906,0.362555659,ST
9.666666667,-4.930492401,-2.182025671,6.775165558,1.349093914,-4.748506069,2.987823963,-933.9000244,14.70000076,-914.1000366,0.261779389,-0.602923295,0.307425288,ST
9.7,-5.61297369,-2.16049242,6.993487835,1.410069942,-5.007653713,2.202757835,-943.500061,11.10000038,-909.3000488,0.245289088,-0.644279998,0.293414703,ST
9.733333333,-5.678171158,-1.742390513,6.804474354,1.295740008,-3.871975899,1.661595941,-957.9000244,8.700000763,-923.7000122,0.212308106,-0.672238006,0.247859499,ST
9.766666667,-5.87615633,-1.449300408,7.214202404,1.387203932,-2.515259981,2.035073996,-953.1000366,11.10000038,-909.3000488,0.175381028,-0.670425041,0.195740597,ST
9.8,-6.122591496,-1.135275364,7.690324306,1.570132017,-2.240867853,2.461905956,-962.7000122,8.100000381,-921.3000488,0.138039696,-0.664330673,0.143402939,ST
9.833333333,-6.19855547,-0.294884473,7.556340218,1.783547997,-2.271355867,3.224105835,-969.9000244,8.100000381,-928.500061,0.066187707,-0.681951157,0.038100384,ST
9.866666667,-5.867782593,0.062805012,6.994085789,1.028970003,-1.547266006,3.269837856,-960.3000488,8.100000381,-916.500061,0.025418252,-0.694716951,-0.013123261,ST
9.9,-6.53770256,-0.159106031,8.847132683,-0.259148002,-1.577754021,3.117398024,-955.500061,7.500000477,-921.3000488,0.030348275,-0.636624341,0.013063781,ST
9.933333333,-5.708078384,-0.32000649,8.472097397,-0.434453994,-2.317087889,1.806414008,-965.1000366,6.900000095,-926.1000366,0.03576186,-0.591530755,0.03491449,ST
9.966666667,-5.102757454,0.015551717,8.486452103,-0.655492008,-1.890255928,0.327746004,-967.500061,9.300000191,-935.7000122,0.014967626,-0.541314832,0.001066271,ST
10.0,-4.368237972,-0.036486723,8.019901276,-0.236281991,-1.34147191,-0.167683989,-981.9000244,9.900000572,-921.3000488,0.017008042,-0.498368681,0.004941617,ST
10.03333333,-4.877257824,-0.28232348,7.573686123,-0.769822001,0.236281991,-1.089946032,-974.7000122,9.900000572,-916.500061,0.035784143,-0.567674696,0.037606658,ST
10.06666667,-5.187694073,-0.35529694,7.812345505,-1.135677934,1.501533985,-0.967993975,-957.9000244,8.100000381,-930.9000244,0.042407049,-0.586996328,0.047955264,ST
10.1,-4.556653023,-1.098190546,7.458244801,-1.265251994,2.027451992,-1.349093914,-962.7000122,11.70000076,-918.9000244,0.097204942,-0.549153616,0.144705952,ST
10.13333333,-4.814452648,-1.067685246,7.718436718,-1.814036012,1.714949965,-2.896359921,-965.1000366,8.100000381,-916.500061,0.103889809,-0.555348862,0.144023019,ST
10.16666667,-5.542990685,-1.231576324,7.531218052,-1.181409955,1.166165948,-2.385685921,-955.500061,8.700000763,-918.9000244,0.12180864,-0.625009583,0.16585626,ST
10.2,-5.990401745,-1.764521718,6.918121815,-1.219519973,1.966475964,-1.806414008,-955.500061,17.10000038,-914.1000366,0.178255021,-0.6973739,0.250933891,ST
10.23333333,-5.584262848,-1.561153173,6.461738586,-1.905499935,2.637212038,-1.570132017,-955.500061,13.50000095,-926.1000366,0.175516333,-0.702186631,0.244001267,ST
10.26666667,-6.151302338,-2.095892906,7.186089516,-2.035073996,3.315569878,-0.266770005,-962.7000122,27.90000153,-918.9000244,0.20123559,-0.693747677,0.286861406,ST
10.3,-5.45506382,-2.543303967,6.828400135,-2.103672028,3.201239824,0.304879993,-933.9000244,13.50000095,-916.500061,0.242052271,-0.650882111,0.356939078,ST
10.33333333,-5.803183079,-2.912358046,6.541889668,-2.393307924,2.881115913,0.099086002,-943.500061,17.70000076,-909.3000488,0.278509078,-0.6836456,0.420345646,ST
10.36666667,-5.850436211,-3.16298008,5.75174284,-2.446661949,3.155508041,-0.449698001,-953.1000366,18.30000114,-909.3000488,0.332215535,-0.729550638,0.504360246,ST
10.4,-6.26255703,-3.656447887,5.880343437,-2.324709892,3.650938034,-1.272873998,-943.500061,12.30000019,-909.3000488,0.373018257,-0.738918044,0.561417829,ST
10.43333333,-7.278203487,-3.665420055,6.661518097,-1.486289978,2.690565825,-1.387203932,-924.3000488,21.90000153,-902.1000366,0.343362483,-0.764839467,0.51303487,ST
10.46666667,-8.160464287,-3.609194756,6.806268692,-0.129574001,1.364337921,-0.594515979,-931.500061,19.5,-906.9000244,0.330985953,-0.812684996,0.491415052,ST
10.5,-8.219082832,-3.827516794,6.540693283,1.074702024,0.457319975,0.647870004,-931.500061,20.70000076,-902.1000366,0.357588191,-0.826339424,0.524761508,ST
10.53333333,-7.598808289,-3.866396189,6.305025101,0.685979962,0.121951997,0.61738199,-933.9000244,23.10000038,-897.3000488,0.374238335,-0.801284008,0.546686392,ST
10.56666667,-6.258369923,-3.373526335,5.86479187,0.190549999,-0.602137983,0.289635986,-914.7000122,24.30000114,-914.1000366,0.356082924,-0.749154659,0.522254353,ST
10.6,-6.524543762,-3.031388521,6.771576405,-0.304879993,-1.737815976,0.571649969,-914.7000122,20.70000076,-909.3000488,0.284966274,-0.720414552,0.42391684,ST
10.63333333,-5.667404652,-2.623455048,6.384578228,-0.007622,-2.57623601,1.8292799,-926.7000122,19.5,-897.3000488,0.253570159,-0.686696933,0.388271443,ST
10.66666667,-5.679965496,-2.686259985,6.303828716,0.388722003,-2.248489857,2.850627899,-924.3000488,15.30000019,-902.1000366,0.248155326,-0.690268472,0.396711599,ST
10.7,-5.531626225,-2.802299738,6.980926514,0.167683989,-1.608241916,3.094532013,-945.9000244,18.90000153,-906.9000244,0.225604525,-0.636548707,0.377964276,ST
10.73333333,-5.134459496,-2.564239025,7.31887722,-0.007622,-2.08842802,2.705809832,-933.9000244,19.5,-897.3000488,0.189182693,-0.585310847,0.335118915,ST
10.76666667,-5.785238743,-2.38180542,7.214800358,0.40396598,-1.943609953,2.652456045,-933.9000244,13.50000095,-906.9000244,0.168528823,-0.645134647,0.315410024,ST
10.8,-5.258275032,-2.195184708,6.71415472,0.632625997,-0.868907988,2.667700052,-938.7000122,22.5,-909.3000488,0.15864761,-0.640206544,0.311492097,ST
10.83333333,-6.126778603,-2.600725651,7.755521774,1.089946032,-0.716467977,2.560992002,-948.3000488,20.10000038,-916.500061,0.156458484,-0.642901119,0.31777368,ST
10.86666667,-5.684152603,-2.027106524,6.898382664,1.577754021,-0.960371971,2.012207985,-950.7000122,16.5,-918.9000244,0.131748834,-0.666809714,0.282359873,ST
10.9,-6.110030651,-1.786653042,6.838568687,2.019829988,-0.487807989,2.080806017,-941.1000366,11.70000076,-914.1000366,0.110039039,-0.710653059,0.250516021,ST
10.93333333,-6.154891014,-1.611995339,7.000067234,1.890255928,-0.457319975,1.85214591,-938.7000122,13.50000095,-916.500061,0.090314932,-0.708508834,0.221668176,ST
10.96666667,-6.519758224,-1.260287285,7.073638916,1.699705958,-0.769822001,1.585376024,-933.9000244,14.10000038,-909.3000488,0.058130797,-0.734414277,0.173836874,ST
11.0,-6.8601017,-0.804502308,7.293157101,1.364337921,-0.205793992,1.836901903,-950.7000122,12.90000057,-918.9000244,0.012017183,-0.750897766,0.108314483,ST
11.03333333,-6.369026184,-0.492869794,7.544377327,1.23476398,-0.243903995,2.012207985,-919.500061,9.900000572,-906.9000244,-0.021061668,-0.702986117,0.062882984,ST
11.06666667,-7.01801157,-0.07058087,7.960086823,1.059458017,-0.060975999,1.890255928,-933.9000244,18.90000153,-916.500061,-0.060052533,-0.721353288,0.007738512,ST
11.1,-6.034664631,0.080151156,7.349382877,0.762199998,0.0,1.600619912,-936.3000488,15.30000019,-918.9000244,-0.076605494,-0.689478228,-0.01322804,ST
11.13333333,-6.284687996,-0.141759887,8.159268379,-0.022865999,0.221037999,0.762199998,-950.7000122,17.10000038,-914.1000366,-0.061666673,-0.658663199,0.0146368,ST
11.16666667,-5.760116577,-0.547898948,7.86019659,-0.091463998,0.388722003,-0.762199998,-948.3000488,9.300000191,-911.7000122,-0.027563993,-0.633517089,0.067431796,ST
11.2,-5.89529705,-0.570628405,7.479179859,-0.060975999,1.013725996,-1.600619912,-936.3000488,11.70000076,-914.1000366,-0.016070074,-0.665587781,0.077847612,ST
11.23333333,-5.506504059,-0.924729049,7.017413139,0.0,1.867389917,-2.278977871,-931.500061,16.5,-914.1000366,0.02457744,-0.664035477,0.131014738,ST
11.26666667,-5.680563927,-1.376326919,7.296147823,0.121951997,2.118916035,-3.163130045,-929.1000366,15.90000057,-909.3000488,0.070479998,-0.656266355,0.187333621,ST
11.3,-5.243919373,-1.22619307,6.376204014,0.365855992,1.143299937,-3.605206013,-929.1000366,8.100000381,-904.500061,0.087491775,-0.678675295,0.194171391,ST
11.33333333,-5.969466686,-1.078451753,6.110628605,0.29725799,0.93750596,-3.033555984,-926.7000122,23.10000038,-909.3000488,0.088654313,-0.761337466,0.180342281,ST
11.36666667,-6.364241123,-1.458272576,6.178218842,-0.228659987,0.838419974,-2.164648056,-926.7000122,23.10000038,-909.3000488,0.131183786,-0.785709591,0.232724712,ST
11.4,-6.440205574,-2.370440483,6.321773052,-1.051836014,1.097568035,-2.057940006,-924.3000488,19.5,-906.9000244,0.221559565,-0.764009301,0.356614542,ST
11.43333333,-6.705780983,-2.074958086,6.708173275,-1.501533985,0.876529992,-1.974097967,-926.7000122,20.10000038,-914.1000366,0.190865866,-0.762917351,0.309231607,ST
11.46666667,-6.623237133,-2.293280125,6.480280876,-0.579271972,0.40396598,-1.265251994,-933.9000244,16.5,-914.1000366,0.215303886,-0.766526666,0.341295699,ST
11.5,-6.717145443,-2.951835632,6.025094032,-0.152439997,0.289635986,-1.310984015,-914.7000122,17.70000076,-897.3000488,0.295328732,-0.784490383,0.450848956,ST
11.53333333,-6.546674728,-2.859123468,5.76370573,0.282013983,0.083841994,-1.250007987,-919.500061,12.30000019,-899.7000122,0.306878232,-0.792718969,0.461358192,ST
11.56666667,-6.65792942,-3.298160315,5.706284046,0.144817993,-0.548784018,-1.432935953,-914.7000122,12.90000057,-899.7000122,0.353670337,-0.788648294,0.522381168,ST
11.6,-6.654340744,-3.194083452,6.09806776,-0.144817993,-1.219519973,-1.707327962,-926.7000122,14.70000076,-906.9000244,0.330781032,-0.76660515,0.486588937,ST
11.63333333,-7.159771442,-3.182120562,7.188482285,-0.175305992,-2.446661949,-0.838419974,-926.7000122,18.90000153,-906.9000244,0.284158367,-0.736055596,0.420377166,ST
11.66666667,-6.54488039,-3.177335501,6.595722675,0.746955991,-3.506119967,0.602137983,-938.7000122,18.90000153,-906.9000244,0.295167859,-0.7251147,0.442981882,ST
11.7,-6.943243504,-3.24073863,6.770978451,0.625003994,-2.301843882,1.166165948,-948.3000488,21.30000114,-906.9000244,0.289902166,-0.742766247,0.442079076,ST
11.73333333,-6.940252781,-3.26885128,7.004254341,0.251525998,-0.876529992,1.532021999,-948.3000488,17.10000038,-916.500061,0.279872068,-0.732079117,0.433968208,ST
11.76666667,-6.209920406,-3.061295748,6.933673382,0.091463998,0.076219998,1.890255928,-941.1000366,16.5,-926.1000366,0.261241492,-0.689598968,0.413946713,ST
11.8,-5.817538738,-2.641399384,7.400224686,-0.076219998,-0.922261953,2.332331896,-936.3000488,17.10000038,-904.500061,0.209837118,-0.640428198,0.343997802,ST
11.83333333,-5.458652973,-2.250812054,7.190276623,-0.160062,-2.103672028,2.553369999,-941.1000366,21.90000153,-914.1000366,0.174805784,-0.625793161,0.302422664,ST
11.86666667,-4.896996498,-2.237054825,6.251790524,-0.007622,-2.179892063,2.591480017,-948.3000488,16.5,-916.500061,0.185063209,-0.632912575,0.337314329,ST
11.9,-3.993202448,-2.039667606,5.566318512,-0.701223969,-1.42531395,1.676839948,-931.500061,19.5,-911.7000122,0.183514588,-0.593950098,0.349258824,DLL
11.93333333,-5.21042347,-2.525359631,7.273418427,-0.335367978,-1.379581928,0.861285985,-953.1000366,13.50000095,-914.1000366,0.169902313,-0.593208258,0.334147842,DLL
11.96666667,-5.801388741,-2.83818841,7.960684776,0.152439997,-2.423795938,0.167683989,-957.9000244,15.90000057,-918.9000244,0.170477439,-0.597477204,0.340751718,DLL
12.0,-7.492937088,-3.139652491,8.542079926,1.036592007,-2.157026052,1.04421401,-955.500061,9.300000191,-918.9000244,0.17135687,-0.682377749,0.347663991,DLL
12.03333333,-5.860604763,-2.818449736,7.460637093,0.952749968,-0.868907988,2.240867853,-953.1000366,14.10000038,-923.7000122,0.170935192,-0.636329469,0.355972202,DLL
12.06666667,-6.405513287,-2.372833252,7.605387688,0.731711984,-0.693601966,3.506119967,-962.7000122,18.90000153,-916.500061,0.127284629,-0.675386251,0.299930912,DLL
12.1,-5.498130322,-2.193988323,7.729203701,0.716467977,-1.364337921,4.649419785,-948.3000488,13.50000095,-921.3000488,0.096019708,-0.604578171,0.2711878,DLL
12.13333333,-5.340220451,-1.046750188,7.50250721,0.815553963,-4.176856041,4.268320084,-950.7000122,11.10000038,-916.500061,0.006459282,-0.607998333,0.139843859,DLL
12.16666667,-5.626132965,-0.550889671,6.354072571,1.097568035,-3.498497963,5.02289772,-957.9000244,17.70000076,-930.9000244,-0.043788352,-0.710874987,0.080837197,DLL
12.2,-5.469419479,-0.144152462,7.343401432,-0.083841994,-0.625003994,5.152472019,-962.7000122,17.70000076,-914.1000366,-0.102029243,-0.642721192,0.016109884,DLL
12.23333333,-5.465232372,-0.104675017,8.234634399,-0.129574001,0.182927996,4.382649899,-974.7000122,17.10000038,-916.500061,-0.121367337,-0.589703242,0.008265512,DLL
12.26666667,-5.756527901,-0.008972145,8.126968384,-0.868907988,0.236281991,3.117398024,-962.7000122,15.90000057,-914.1000366,-0.138718146,-0.61506681,-0.000618841,DLL
12.3,-6.298445702,-0.090917729,8.604885101,-2.050318003,0.114329994,2.278977871,-960.3000488,12.30000019,-911.7000122,-0.144498364,-0.631034787,0.010524532,DLL
12.33333333,-5.347996235,0.184228033,8.261550903,-2.439039946,-1.204275966,1.8292799,-960.3000488,15.90000057,-911.7000122,-0.173812492,-0.574825626,-0.018822099,DLL
12.36666667,-4.388575077,-0.121423021,7.209417343,-2.835383892,-2.538125992,1.280496001,-967.500061,17.70000076,-926.1000366,-0.164695444,-0.544326054,0.018040248,DLL
12.4,-5.350389004,-0.260790348,6.327754498,-4.21496582,-1.783547997,1.112811923,-965.1000366,14.10000038,-921.3000488,-0.162926378,-0.688980297,0.045066603,DLL
12.43333333,-6.24102354,-0.224303618,6.378596783,-5.807963848,-1.089946032,2.515259981,-965.1000366,22.5,-918.9000244,-0.188704785,-0.767382282,0.041423263,DLL
12.46666667,-7.616154671,-0.917551339,6.757221222,-7.378095627,-1.250007987,6.059489727,-969.9000244,24.90000153,-926.1000366,-0.163718709,-0.835329014,0.129942149,DLL
12.5,-7.403813839,-1.398458242,6.697406769,-11.1204977,-1.539644003,9.291217804,-972.3000488,26.10000038,-921.3000488,-0.168655042,-0.825983666,0.202737804,DLL
12.53333333,-7.915225983,-1.625154495,7.491740704,-12.69062996,-2.294221878,12.17995548,-972.3000488,27.30000114,-923.7000122,-0.241455557,-0.802895422,0.212854274,DLL
12.56666667,-6.542487621,-2.613286734,6.377400398,-14.49704361,-3.38416791,13.81106377,-965.1000366,31.50000191,-914.1000366,-0.205034403,-0.765192552,0.379955496,DLL
12.6,-5.27143383,-3.114530563,6.044234753,-15.4193058,-3.429899931,12.98788738,-967.500061,32.10000229,-902.1000366,-0.221185611,-0.670512986,0.478149088,DLL
12.63333333,-4.594934464,-3.344815493,6.167452335,-14.71045971,-3.422277927,11.05952168,-969.9000244,39.90000153,-894.9000244,-0.275791283,-0.589158896,0.507169699,DLL
12.66666667,-3.68515873,-3.310721397,5.452671528,-11.7836113,-2.721053839,7.919257641,-969.9000244,39.90000153,-894.9000244,-0.307919281,-0.52979136,0.555542392,DLL
12.7,-5.263658047,-3.264066219,6.372615337,-9.27597332,-1.699705958,6.501565933,-972.3000488,43.5,-894.9000244,-0.388352047,-0.630346213,0.486380552,DLL
12.73333333,-6.5263381,-3.390274286,6.875653267,-6.288149834,-0.777444005,5.670767784,-957.9000244,48.30000305,-897.3000488,-0.435661412,-0.703753156,0.462858656,DLL
12.76666667,-7.076031208,-3.545791626,6.411494732,-5.891805649,-1.592997909,5.625035763,-950.7000122,42.90000153,-866.1000366,-0.443178057,-0.766980848,0.503763693,DLL
12.8,-7.527629375,-3.630727768,6.531721115,-7.210412025,-2.667700052,4.53508997,-967.500061,46.5,-868.500061,-0.477210981,-0.787876223,0.510421232,DLL
12.83333333,-6.952814102,-3.986024857,6.788922787,-6.989373684,-2.934469938,4.946677685,-965.1000366,55.50000381,-863.7000122,-0.500093471,-0.726544731,0.532939167,DLL
12.86666667,-6.392951965,-4.32756424,6.727911949,-5.198204041,-3.437521935,4.230209827,-962.7000122,55.50000381,-873.3000488,-0.507446907,-0.675765938,0.571107851,DLL
12.9,-6.325361729,-4.056007385,7.146014214,-4.093013763,-3.346057892,3.856731892,-957.9000244,50.10000229,-870.9000244,-0.56815521,-0.655342824,0.518996525,DLL
12.93333333,-4.582971573,-3.718056679,6.126778603,-2.926847935,-3.643316031,3.40703392,-955.500061,56.70000076,-866.1000366,-0.576572381,-0.571929385,0.543554548,DLL
12.96666667,-5.904269218,-3.554165602,7.250091076,-2.027451992,-2.774407864,3.871975899,-962.7000122,61.50000381,-868.500061,-0.648068949,-0.62785906,0.457149547,DLL
13.0,-6.195564747,-4.506409168,5.712265491,-1.570132017,-0.861285985,1.95885396,-962.7000122,53.10000229,-861.3000488,-0.536613179,-0.702379664,0.655319163,DLL
13.03333333,-4.795312405,-4.321582794,6.962384224,0.213415995,-0.342989981,-0.144817993,-960.3000488,54.90000153,-854.1000366,-0.59166896,-0.539318192,0.560528593,DLL
13.06666667,-5.86479187,-3.962697268,7.065264702,2.103672028,0.068598002,-1.402447939,-967.500061,69.30000305,-854.1000366,-0.60908985,-0.620835914,0.511986853,DLL
13.1,-6.416279793,-3.59603548,6.898981094,2.690565825,0.114329994,-0.785066009,-960.3000488,53.70000076,-868.500061,-0.619742682,-0.685818655,0.478650557,DLL
13.13333333,-6.456355095,-2.979948282,6.596320629,1.95885396,-0.350611985,0.373477995,-979.500061,47.70000076,-870.9000244,-0.651766593,-0.725803289,0.423442665,DLL
13.16666667,-5.227171421,-2.926115513,6.287678719,1.272873998,-0.922261953,0.80793196,-955.500061,48.30000305,-863.7000122,-0.64695786,-0.649392904,0.431451342,DLL
13.2,-6.291865826,-2.543303967,7.07423687,0.868907988,-1.516777992,0.899396002,-960.3000488,54.90000153,-873.3000488,-0.702271783,-0.692777329,0.346217791,DLL
13.23333333,-5.29775238,-2.52057457,7.011431694,0.213415995,-2.012207985,0.198172003,-962.7000122,57.90000153,-870.9000244,-0.706164204,-0.618703899,0.343782376,DLL
13.26666667,-5.016624928,-2.568425894,7.377495289,-0.068598002,-2.728675842,0.045731999,-965.1000366,54.30000305,-866.1000366,-0.714873562,-0.568947511,0.3345451,DLL
13.3,-4.892809391,-2.383001566,7.415178299,-0.282013983,-2.667700052,0.373477995,-969.9000244,52.50000381,-861.3000488,-0.73242562,-0.557209961,0.311222775,DLL
13.33333333,-4.595532417,-2.577996254,8.210110664,-0.785066009,-1.989341974,0.83079797,-979.500061,48.90000153,-875.7000122,-0.742565524,-0.49102537,0.304635847,DLL
13.36666667,-4.244422436,-2.88544178,8.176614761,-1.082324028,-1.288118005,0.434453994,-972.3000488,48.30000305,-870.9000244,-0.732274182,-0.455199917,0.338689512,DLL
13.4,-4.390369415,-3.258084774,8.362038612,-1.288118005,0.045731999,-0.663114011,-974.7000122,53.70000076,-873.3000488,-0.71720881,-0.454665421,0.372918446,DLL
13.43333333,-4.410706043,-3.521865845,8.008536339,-0.541162014,0.861285985,-0.655492008,-977.1000366,53.70000076,-870.9000244,-0.696402681,-0.467252232,0.413953695,DLL
13.46666667,-5.167356968,-3.13008213,7.786026955,0.480185986,2.393307924,-0.602137983,-977.1000366,50.70000076,-868.500061,-0.704393411,-0.550049849,0.384918215,DLL
13.5,-4.908361435,-3.203653812,7.013824463,0.792688012,3.117398024,-0.518296003,-965.1000366,51.30000305,-854.1000366,-0.674824963,-0.570182825,0.426335524,DLL
13.53333333,-5.351585388,-2.867497444,6.844550133,0.731711984,3.338435888,-0.266770005,-969.9000244,57.90000153,-868.500061,-0.683200132,-0.626334625,0.399206638,DLL
13.56666667,-5.692526817,-2.745476246,6.77755785,0.678357959,3.262215853,0.137196004,-960.3000488,50.10000229,-866.1000366,-0.685864082,-0.664374805,0.386063719,DLL
13.6,-5.577085018,-2.895610094,6.491047382,0.571649969,2.843005896,0.228659987,-953.1000366,53.70000076,-863.7000122,-0.661882606,-0.669695018,0.417851696,DLL
13.63333333,-6.564619064,-2.757439137,7.031170845,0.282013983,2.393307924,0.205793992,-950.7000122,54.90000153,-866.1000366,-0.684978344,-0.716541875,0.377038689,DLL
13.66666667,-6.367830276,-2.892619371,6.840363026,-0.060975999,1.8292799,0.022865999,-965.1000366,52.50000381,-861.3000488,-0.668192007,-0.712036967,0.399758513,DLL
13.7,-6.293660164,-2.79332757,6.731501102,-0.083841994,1.547266006,-0.42683199,-957.9000244,60.90000153,-861.3000488,-0.668326918,-0.714368377,0.3952695,DLL
13.73333333,-5.979037285,-3.053519964,6.054403305,0.373477995,1.402447939,-0.396344006,-960.3000488,53.70000076,-858.9000244,-0.619477058,-0.723989133,0.463535767,DLL
13.76666667,-6.043636799,-3.387283564,6.058589935,0.083841994,1.821658015,-1.623485923,-943.500061,50.70000076,-868.500061,-0.580699902,-0.718117219,0.510745937,DLL
13.8,-6.252986431,-3.749758244,5.656039715,0.076219998,1.280496001,-1.821658015,-955.500061,52.50000381,-854.1000366,-0.523454722,-0.743543568,0.585342172,DLL
13.83333333,-7.0251894,-3.535024881,5.995785236,0.030487999,0.884151995,-1.23476398,-943.500061,56.10000229,-866.1000366,-0.551595776,-0.787990461,0.537890539,DLL
13.86666667,-7.311699867,-3.587063313,6.151302338,0.060975999,0.350611985,-0.121951997,-953.1000366,56.70000076,-858.9000244,-0.557016455,-0.798377305,0.52891385,DLL
13.9,-6.941449165,-3.853835106,6.095674992,-0.571649969,0.038109999,0.381099999,-945.9000244,53.70000076,-854.1000366,-0.536013313,-0.768644435,0.562184466,DLL
13.93333333,-6.986907959,-4.292273998,6.407307625,-1.402447939,-0.579271972,0.099086002,-950.7000122,53.70000076,-858.9000244,-0.521820518,-0.737376982,0.590277964,DLL
13.96666667,-5.301341057,-4.425659657,5.736191273,-1.166165948,-1.23476398,-0.29725799,-953.1000366,57.90000153,-854.1000366,-0.48527284,-0.636231834,0.654690853,DLL
14.0,-6.1991539,-4.335938454,6.363044739,1.143299937,-1.310984015,0.678357959,-960.3000488,60.30000305,-846.9000244,-0.521624038,-0.67467416,0.597392908,DLL
14.03333333,-5.983223915,-3.604409456,5.856417656,1.714949965,-1.028970003,-0.038109999,-962.7000122,55.50000381,-861.3000488,-0.548408467,-0.712077341,0.551039529,DLL
14.06666667,-6.321773052,-3.509304762,5.830697536,2.286599874,-0.861285985,1.173787951,-960.3000488,53.10000229,-851.7000122,-0.556305949,-0.746141033,0.536423277,DLL
14.1,-6.157283783,-3.265262365,6.034664631,1.105189919,-0.61738199,1.04421401,-957.9000244,62.10000229,-856.500061,-0.585188053,-0.732113389,0.494525235,DLL
14.13333333,-6.713556767,-3.310123205,6.445588589,1.021348,-0.91463995,1.699705958,-950.7000122,53.10000229,-856.500061,-0.603948686,-0.746306579,0.471066194,DLL
14.16666667,-6.56342268,-3.229972124,6.918719769,0.602137983,-1.432935953,1.272873998,-965.1000366,54.30000305,-863.7000122,-0.63151419,-0.710998551,0.435304499,DLL
14.2,-5.5944314,-3.050529242,6.647760868,0.42683199,-1.821658015,0.541162014,-965.1000366,56.70000076,-854.1000366,-0.638839702,-0.654104831,0.428231793,DLL
14.23333333,-5.536411285,-2.91594696,6.897186756,1.028970003,-2.431417942,0.503051996,-953.1000366,52.50000381,-858.9000244,-0.658971577,-0.634364198,0.39827704,DLL
14.26666667,-5.199058533,-2.820842266,6.757819176,1.272873998,-2.294221878,0.129574001,-957.9000244,59.10000229,-858.9000244,-0.662758236,-0.614896514,0.392315395,DLL
14.3,-5.100365162,-2.760429859,6.772174835,0.853663981,-2.027451992,-0.243903995,-969.9000244,52.50000381,-863.7000122,-0.666604562,-0.606013717,0.385271498,DLL
14.33333333,-4.702600002,-2.974565029,6.957599163,0.282013983,-2.141782045,-0.327746004,-960.3000488,54.30000305,-863.7000122,-0.65861669,-0.555644693,0.401901767,DLL
14.36666667,-5.107542992,-3.247318268,7.547966003,-0.053353999,-2.057940006,-0.320124,-967.500061,51.30000305,-866.1000366,-0.65855817,-0.552807528,0.405583875,DLL
14.4,-4.96339035,-3.44530344,7.326653481,0.045731999,-1.189031959,-0.365855992,-969.9000244,63.90000153,-873.3000488,-0.642437506,-0.548122671,0.437255102,DLL
14.43333333,-4.734899998,-3.716860533,7.473198414,0.221037999,-0.708845973,-0.541162014,-979.500061,51.90000153,-870.9000244,-0.629871689,-0.51653932,0.459888463,DLL
14.46666667,-4.266553879,-3.612783432,7.107732773,0.503051996,-0.42683199,-0.899396002,-967.500061,49.50000381,-870.9000244,-0.622156411,-0.491577228,0.46935303,DLL
14.5,-5.172142506,-3.248514414,7.385271072,0.556405962,0.083841994,-0.564027965,-986.7000122,57.30000305,-875.7000122,-0.64521737,-0.565069508,0.417542593,DLL
14.53333333,-5.228367805,-3.690542221,7.469609261,0.868907988,0.381099999,0.274392009,-986.7000122,57.30000305,-873.3000488,-0.623356649,-0.561438216,0.455349716,DLL
14.56666667,-5.388669968,-3.474612474,7.745951653,1.181409955,0.907018006,-0.861285985,-993.9000244,51.90000153,-873.3000488,-0.634063175,-0.566133206,0.422768548,DLL
14.6,-4.898192883,-3.416592598,7.0814147,2.439039946,1.265251994,-0.396344006,-974.7000122,58.50000381,-868.500061,-0.613028821,-0.559176348,0.445237186,DLL
14.63333333,-5.906063557,-3.070866108,7.001861572,2.591480017,2.454283953,-1.181409955,-979.500061,53.10000229,-878.1000366,-0.617540275,-0.655801883,0.413283961,DLL
14.66666667,-6.329548836,-2.959013224,6.94264555,2.49239397,2.759163857,-0.731711984,-962.7000122,53.10000229,-873.3000488,-0.612224845,-0.699560378,0.401708365,DLL
14.7,-6.569404125,-2.834001303,6.912140369,1.890255928,2.507637978,0.182927996,-969.9000244,51.90000153,-882.9000244,-0.613834233,-0.723900119,0.387904311,DLL
14.73333333,-6.730902672,-2.549883604,6.690228939,1.097568035,2.134160042,0.541162014,-950.7000122,48.30000305,-875.7000122,-0.625969791,-0.756667924,0.363913903,DLL
14.76666667,-6.287080765,-2.791533232,6.327156544,0.213415995,1.882633924,1.051836014,-957.9000244,54.90000153,-866.1000366,-0.593499667,-0.742526811,0.411771949,DLL
14.8,-5.854623318,-2.876469612,5.874361992,-0.693601966,1.310984015,0.464941978,-965.1000366,51.90000153,-870.9000244,-0.566127612,-0.732967397,0.454840971,DLL
14.83333333,-6.055599213,-2.958415031,5.689536095,-1.006103992,0.838419974,0.365855992,-953.1000366,47.70000076,-873.3000488,-0.551808311,-0.757112427,0.480032553,DLL
14.86666667,-6.542487621,-3.185111284,6.119002819,-0.594515979,0.640248001,0.647870004,-953.1000366,51.30000305,-885.3000488,-0.554183221,-0.760295769,0.480488633,DLL
14.9,-7.026983738,-3.530838013,6.623237133,-0.602137983,-0.160062,0.411587983,-943.500061,56.70000076,-861.3000488,-0.55108883,-0.752907042,0.489686859,DLL
14.93333333,-7.05569458,-3.947743654,7.043731689,-0.480185986,-0.411587983,-0.053353999,-953.1000366,50.10000229,-873.3000488,-0.53901712,-0.719223651,0.510407044,DLL
14.96666667,-5.864193916,-4.335340023,6.604694843,0.121951997,-0.716467977,-0.800309956,-953.1000366,51.30000305,-868.500061,-0.495180086,-0.640811101,0.577784648,DLL
15.0,-6.302632332,-3.813759565,6.718341827,1.12805593,-0.434453994,-1.288118005,-955.500061,47.10000229,-863.7000122,-0.525343523,-0.680056448,0.519489399,DLL
15.03333333,-5.334239006,-4.016530037,5.82710886,2.964957952,-0.335367978,-0.457319975,-962.7000122,52.50000381,-870.9000244,-0.471477071,-0.647197315,0.593924931,DLL
15.06666667,-5.880941868,-3.159391165,5.77507019,2.835383892,0.175305992,-1.478667974,-948.3000488,53.70000076,-868.500061,-0.516905427,-0.723326209,0.503940635,DLL
15.1,-5.749350071,-3.121708155,5.850436211,3.528985977,-0.114329994,0.198172003,-965.1000366,49.50000381,-866.1000366,-0.520797968,-0.714827572,0.484874678,DLL
15.13333333,-6.040646076,-2.79332757,5.95870018,2.751541853,0.022865999,0.335367978,-969.9000244,49.50000381,-878.1000366,-0.546604439,-0.741389831,0.435967927,DLL
15.16666667,-6.812848568,-2.709587574,6.206331253,1.966475964,-0.685979962,1.524399996,-955.500061,51.90000153,-878.1000366,-0.566000592,-0.786061261,0.406853163,DLL
15.2,-6.733893394,-2.944657803,6.700995922,0.632625997,-1.181409955,2.652456045,-962.7000122,48.30000305,-880.500061,-0.572214968,-0.745779013,0.408179583,DLL
15.23333333,-6.458747864,-3.021818399,7.244109631,0.007622,-1.394825935,2.621968031,-957.9000244,50.10000229,-887.7000122,-0.591966033,-0.691524486,0.391889957,DLL
15.26666667,-6.45515871,-3.123502493,7.442094803,0.632625997,-1.410069942,2.736297846,-962.7000122,54.30000305,-890.1000366,-0.599913294,-0.675224896,0.391975858,DLL
15.3,-4.986718178,-3.168961525,7.20582819,1.592997909,-0.663114011,0.663114011,-967.500061,43.5,-892.500061,-0.588776388,-0.570788292,0.409561828,DLL
15.33333333,-3.900490284,-3.175540924,6.989898682,3.605206013,-0.327746004,-1.692083955,-962.7000122,46.5,-875.7000122,-0.570998583,-0.474527466,0.420818979,DLL
15.36666667,-2.924320936,-3.154007912,7.076031208,5.365887642,0.53354001,-6.341504097,-969.9000244,47.10000229,-885.3000488,-0.542600417,-0.364379942,0.414553564,DLL
15.4,-4.948436737,-1.98404026,7.640678406,9.481767654,1.859767914,-8.719568253,-953.1000366,40.5,-882.9000244,-0.561605094,-0.548383325,0.256622803,DLL
15.43333333,-5.504111767,-2.397955179,8.370412827,11.12811947,1.295740008,-8.04883194,-965.1000366,44.10000229,-902.1000366,-0.499470673,-0.561626036,0.267903338,DLL
15.46666667,-5.964681625,-2.184418201,8.631801605,11.89031982,3.018311977,-10.54884815,-969.9000244,36.90000153,-902.1000366,-0.448730447,-0.589300741,0.241331042,DLL
15.5,-4.032081604,-2.709587574,7.223772526,12.16471195,1.608241916,-11.2881813,-960.3000488,37.5,-904.500061,-0.332861887,-0.484817282,0.342273667,DLL
15.53333333,-6.162068844,-1.923029661,8.379384995,11.57781792,2.682943821,-12.65252018,-972.3000488,32.70000076,-916.500061,-0.323292543,-0.612920953,0.228664554,DLL
15.56666667,-5.099767208,-1.141256809,6.594526291,10.06866169,2.926847935,-12.24855328,-974.7000122,32.10000229,-909.3000488,-0.285346838,-0.650656892,0.172971035,DLL
15.6,-5.801986694,-0.656162858,6.992291451,8.003099442,4.077769756,-9.878111839,-957.9000244,23.10000038,-916.500061,-0.278663148,-0.693033935,0.099186609,DLL
15.63333333,-5.919820786,-1.292586923,7.06705904,6.105221748,3.978683949,-7.225656033,-960.3000488,29.70000076,-914.1000366,-0.18639001,-0.69396387,0.177570415,DLL
15.66666667,-6.628620625,-1.238155961,7.43910408,4.710395813,3.925329924,-6.364369869,-965.1000366,21.30000114,-914.1000366,-0.157111874,-0.724387509,0.167848091,DLL
15.7,-6.639985085,-1.455880046,7.525236607,3.643316031,3.064043999,-5.160093784,-948.3000488,29.70000076,-911.7000122,-0.112696247,-0.717783032,0.192122191,DLL
15.73333333,-6.096272945,-1.811176896,6.872662544,3.125020027,2.507637978,-5.015275955,-967.500061,20.70000076,-916.500061,-0.045699461,-0.711527779,0.256371914,DLL
15.76666667,-5.894100666,-2.103668928,6.925299168,2.477149963,2.591480017,-5.015275955,-950.7000122,19.5,-916.500061,0.00514098,-0.686543669,0.296538115,DLL
15.8,-5.211619854,-2.184418201,6.459345818,2.263733864,2.073184013,-5.144849777,-953.1000366,15.30000019,-911.7000122,0.050137691,-0.654633074,0.328197239,DLL
15.83333333,-5.49274683,-2.174847841,6.196163177,2.278977871,2.126538038,-4.824726105,-950.7000122,20.10000038,-914.1000366,0.079977718,-0.694683013,0.340360176,DLL
15.86666667,-5.668002605,-2.455376863,6.346296787,2.774407864,2.339953899,-4.077769756,-945.9000244,20.10000038,-909.3000488,0.119988172,-0.695725639,0.369226158,DLL
15.9,-6.100460052,-2.688652754,6.482673645,2.804895878,2.477149963,-3.772889853,-950.7000122,22.5,-909.3000488,0.156541919,-0.715765474,0.393368111,DLL
15.93333333,-7.238128185,-2.917741299,7.501909256,3.010689974,2.911603928,-3.27745986,-945.9000244,18.90000153,-914.1000366,0.163812242,-0.733851168,0.37342729,DLL
15.96666667,-6.978534222,-3.0170331,7.437907696,2.957335949,1.8292799,-2.675322056,-943.500061,17.10000038,-921.3000488,0.188516948,-0.717916165,0.384343429,DLL
16.0,-6.538300991,-2.899199009,6.959991455,2.713431835,1.12805593,-2.59910202,-924.3000488,15.30000019,-904.500061,0.210425755,-0.714681594,0.393653307,DLL
16.03333333,-6.617853642,-2.826225519,7.145415783,1.905499935,0.350611985,-2.17227006,-936.3000488,20.70000076,-909.3000488,0.211489352,-0.71042859,0.377583116,DLL
16.06666667,-5.771481514,-2.972172499,6.259566307,1.692083955,-0.030487999,-1.707327962,-931.500061,21.30000114,-904.500061,0.260133842,-0.694301308,0.438692122,DLL
16.1,-5.833688259,-2.390179396,6.321175098,1.471045971,0.182927996,-0.53354001,-933.9000244,14.70000076,-914.1000366,0.217806435,-0.711082469,0.364621348,DLL
16.13333333,-6.001766682,-2.309430122,6.547871113,1.608241916,0.632625997,0.442075998,-943.500061,19.5,-914.1000366,0.203833624,-0.713922061,0.337697479,DLL
16.16666667,-6.147115231,-2.411114216,6.883429527,1.44817996,0.876529992,1.067080021,-936.3000488,18.30000114,-914.1000366,0.202755017,-0.703069436,0.333598762,DLL
16.2,-6.259566307,-2.391973734,7.164556503,1.028970003,0.312501997,1.021348,-917.1000366,11.70000076,-911.7000122,0.193904889,-0.69357947,0.319870413,DLL
16.23333333,-6.363044739,-2.357879639,7.19446373,1.051836014,-0.243903995,0.602137983,-941.1000366,17.10000038,-909.3000488,0.191037249,-0.698526571,0.314279461,DLL
16.26666667,-6.21051836,-2.372833252,7.169341564,0.83079797,-0.312501997,0.182927996,-948.3000488,8.700000763,-906.9000244,0.194543133,-0.688351108,0.317612698,DLL
16.3,-5.95870018,-2.201166153,7.270427704,0.739333987,-1.04421401,0.221037999,-945.9000244,19.5,-911.7000122,0.179495484,-0.664754636,0.293221084,DLL
16.33333333,-5.835482597,-2.052826643,6.798492908,1.067080021,-1.577754021,0.556405962,-926.7000122,15.90000057,-914.1000366,0.177192302,-0.684221194,0.290174984,ST
16.36666667,-5.529233456,-2.12041688,6.180611134,1.051836014,-0.731711984,0.602137983,-926.7000122,11.10000038,-914.1000366,0.199768671,-0.700388143,0.325170435,ST
16.4,-5.829501629,-1.677790999,6.446784973,0.853663981,0.266770005,1.12805593,-943.500061,17.10000038,-911.7000122,0.153283848,-0.718942933,0.255213281,ST
16.43333333,-6.393550396,-1.770503163,6.809259415,0.990859985,-0.022865999,1.859767914,-933.9000244,12.30000019,-909.3000488,0.147140256,-0.737209377,0.250123718,ST
16.46666667,-7.110125542,-1.652669072,7.195660114,0.53354001,-0.198172003,2.210379839,-938.7000122,12.90000057,-902.1000366,0.122594258,-0.76592069,0.222316916,ST
16.5,-6.392951965,-0.973776758,7.899674416,0.663114011,-1.097568035,2.46952796,-936.3000488,7.500000477,-911.7000122,0.049790093,-0.67985276,0.122541537,ST
16.53333333,-5.41020298,-0.699229121,7.790812016,1.112811923,-2.073184013,2.141782045,-945.9000244,11.70000076,-916.500061,0.022899565,-0.605647978,0.086500588,ST
16.56666667,-5.550168514,-0.832615018,7.738175392,0.998481989,-1.890255928,0.907018006,-948.3000488,13.50000095,-916.500061,0.031093367,-0.615720916,0.103005497,ST
16.6,-5.552561283,-0.24822934,7.865580082,0.670735955,-0.868907988,0.40396598,-945.9000244,11.70000076,-909.3000488,-0.008488865,-0.613205213,0.034272489,ST
16.63333333,-5.673984051,-0.296080768,8.012722969,0.487807989,-0.29725799,0.80793196,-950.7000122,23.10000038,-914.1000366,-0.009615071,-0.615235072,0.035025104,ST
16.66666667,-5.232554913,-0.203966752,7.553349495,0.251525998,0.373477995,0.80793196,-941.1000366,9.900000572,-904.500061,-0.017030986,-0.606750649,0.026003329,ST
16.7,-5.59383297,-0.770408154,7.434319019,-0.358233988,1.089946032,-0.053353999,-945.9000244,15.30000019,-914.1000366,0.025635701,-0.642389722,0.099715677,ST
16.73333333,-6.943243504,-1.078451753,7.809354782,-0.922261953,2.393307924,-0.922261953,-936.3000488,13.50000095,-923.7000122,0.051606196,-0.721873575,0.138586155,ST
16.76666667,-6.50719738,-1.185519338,7.664005756,-0.625003994,2.317087889,-0.815553963,-924.3000488,4.5,-904.500061,0.064611578,-0.702878916,0.155424606,ST
16.8,-6.369026184,-1.397261977,7.009637356,-0.693601966,1.318606019,-1.493911982,-936.3000488,15.30000019,-911.7000122,0.096321196,-0.728321218,0.198373355,ST
16.83333333,-6.555646896,-1.425374746,6.723126888,-0.632625997,1.059458017,-1.440557957,-929.1000366,15.30000019,-899.7000122,0.108508258,-0.760974115,0.211829259,ST
16.86666667,-5.780453682,-1.304549813,5.863595486,-1.143299937,1.646351933,-1.478667974,-926.7000122,18.30000114,-909.3000488,0.118426333,-0.767971063,0.223209312,ST
16.9,-5.340220451,-1.595247269,5.545981407,-1.349093914,1.974097967,-1.608241916,-909.9000244,21.90000153,-902.1000366,0.161280897,-0.750385517,0.282101287,ST
16.93333333,-6.261360645,-1.844672918,6.10943222,-1.570132017,2.324709892,-1.753059983,-921.9000244,21.90000153,-904.500061,0.175470375,-0.777301155,0.299010505,ST
16.96666667,-6.934869766,-2.684465647,6.266744137,-1.204275966,2.736297846,-1.501533985,-921.9000244,22.5,-906.9000244,0.254937414,-0.796540469,0.406150176,ST
17.0,-6.238032818,-3.612783432,6.295454979,-1.295740008,2.721053839,-2.59910202,-912.3000488,16.5,-909.3000488,0.342187349,-0.716623432,0.522534786,ST
17.03333333,-7.025787354,-3.875966549,7.098760605,-0.670735955,1.196653962,-3.216483831,-912.3000488,19.5,-897.3000488,0.340986589,-0.714456313,0.506888745,ST
17.06666667,-7.524040222,-4.386182308,6.772772789,0.967993975,0.525918007,-2.522881985,-914.7000122,12.90000057,-904.500061,0.39462482,-0.746845597,0.572481684,ST
17.1,-6.763202667,-4.10684967,6.071151257,1.402447939,0.701223969,-1.684461951,-909.9000244,20.10000038,-899.7000122,0.418960014,-0.744711695,0.59406618,ST
17.13333333,-6.57060051,-3.6761868,6.269136429,1.242385983,-0.053353999,-0.175305992,-907.500061,15.30000019,-909.3000488,0.381031093,-0.735490811,0.532318959,ST
17.16666667,-6.749445438,-3.479397774,6.057991982,0.632625997,-0.61738199,1.013725996,-909.9000244,21.30000114,-904.500061,0.369980851,-0.766679765,0.518882884,ST
17.2,-6.510786057,-3.38668561,5.996981621,0.076219998,-0.525918007,2.416173935,-905.1000366,16.5,-890.1000366,0.357552989,-0.759068076,0.510568142,ST
17.23333333,-6.743463993,-3.119913816,6.516767502,-0.182927996,-0.472563982,2.667700052,-912.3000488,21.30000114,-892.500061,0.305547059,-0.752695815,0.446637981,ST
17.26666667,-6.464130878,-2.980546474,6.674677372,0.099086002,-0.907018006,3.185995817,-897.9000244,14.10000038,-894.9000244,0.275765411,-0.726581031,0.416591042,ST
17.3,-6.044832706,-2.590557098,6.584956169,0.525918007,-1.143299937,3.086910009,-902.7000122,14.10000038,-902.1000366,0.23766879,-0.708280783,0.371796702,ST
17.33333333,-6.272127151,-2.112640858,6.769184113,1.12805593,-1.295740008,3.10977602,-905.1000366,20.10000038,-899.7000122,0.183367545,-0.722797463,0.300070138,ST
17.36666667,-6.727313995,-1.780073524,6.71415472,1.920743942,-1.112811923,3.468009949,-917.1000366,19.5,-906.9000244,0.14454452,-0.767242732,0.251757538,ST
17.4,-6.203938961,-1.437337518,6.146517277,1.783547997,-0.899396002,3.40703392,-900.3000488,14.70000076,-890.1000366,0.118414203,-0.776091635,0.22211201,ST
17.43333333,-7.143621445,-1.189706326,6.374409676,1.356715918,-0.007622,3.490875959,-919.500061,9.300000191,-899.7000122,0.080801432,-0.831943627,0.17799437,ST
17.46666667,-7.383476734,-1.165182471,6.647760868,0.769822001,0.678357959,3.68142581,-912.3000488,8.100000381,-899.7000122,0.064026703,-0.832478726,0.165990678,ST
17.5,-5.639291763,-0.803904176,6.906158924,0.282013983,-1.028970003,3.285081863,-902.7000122,9.900000572,-904.500061,0.017337989,-0.687754637,0.112841228,ST
17.53333333,-5.79660368,-0.692649543,7.239922523,0.907018006,-3.254593849,2.515259981,-914.7000122,14.10000038,-914.1000366,-0.00279827,-0.668888389,0.091278612,ST
17.56666667,-6.133955956,-0.502440095,6.809857845,1.55488801,-3.498497963,1.653973937,-919.500061,14.70000076,-911.7000122,-0.018619192,-0.722522385,0.069473887,ST
17.6,-6.407905579,0.317015767,7.315288544,1.272873998,-1.783547997,1.135677934,-933.9000244,11.10000038,-911.7000122,-0.091401007,-0.716254232,-0.040811692,ST
17.63333333,-5.689536095,0.14594689,8.263344765,1.074702024,-1.318606019,0.350611985,-917.1000366,9.900000572,-902.1000366,-0.077318467,-0.605653052,-0.020750762,ST
17.66666667,-7.00365591,-0.165087461,8.980518341,0.785066009,-1.669217944,-0.442075998,-941.1000366,8.100000381,-904.500061,-0.052856938,-0.65609917,0.015130318,ST
17.7,-6.94264555,-0.296080768,8.523537636,-0.022865999,-1.158543944,-1.486289978,-919.500061,9.300000191,-914.1000366,-0.035742672,-0.679618255,0.035455578,ST
17.73333333,-6.244014263,-0.354698777,7.41996336,-0.762199998,-0.121951997,-2.19513607,-926.7000122,2.700000048,-911.7000122,-0.020868585,-0.697435695,0.051256367,ST
17.76666667,-5.6506567,-0.79313755,6.574189186,-1.570132017,1.074702024,-2.919225931,-914.7000122,6.900000095,-911.7000122,0.032093722,-0.707321235,0.124294522,ST
17.8,-6.16147089,-1.006076455,6.977935791,-1.440557957,1.112811923,-2.934469938,-931.500061,11.70000076,-906.9000244,0.053625036,-0.718688996,0.148785213,ST
17.83333333,-5.641684532,-1.004281998,6.327754498,-0.655492008,0.678357959,-2.606724024,-919.500061,12.90000057,-902.1000366,0.068596804,-0.722189073,0.161819179,ST
17.86666667,-5.8719697,-0.913364291,5.78942585,-0.022865999,1.074702024,-2.08842802,-917.1000366,18.90000153,-911.7000122,0.074325254,-0.784013437,0.160465063,ST
17.9,-6.001168251,-1.671211481,5.653048992,-0.060975999,2.225623846,-2.179892063,-924.3000488,11.70000076,-916.500061,0.169605119,-0.796474621,0.284280791,ST
17.93333333,-6.634003639,-1.952936769,5.867782593,-0.693601966,2.713431835,-2.690565825,-926.7000122,12.90000057,-909.3000488,0.207238673,-0.821856617,0.326115803,ST
17.96666667,-7.744156837,-2.667119503,6.420466423,-1.051836014,3.185995817,-2.690565825,-921.9000244,21.90000153,-911.7000122,0.267137578,-0.841369227,0.398029221,ST
18.0,-6.139937401,-3.415396452,5.831893921,-1.501533985,2.332331896,-3.628072023,-914.7000122,16.5,-906.9000244,0.370564512,-0.744364198,0.531580955,ST
18.03333333,-6.931280613,-3.552969217,6.73987484,-1.272873998,0.800309956,-3.559473991,-900.3000488,14.70000076,-916.500061,0.353010771,-0.736956596,0.495258334,ST
18.06666667,-6.148311615,-3.795217037,6.196761131,-0.556405962,-0.975615978,-3.185995817,-905.1000366,13.50000095,-909.3000488,0.394663659,-0.700296862,0.550313775,ST
18.1,-7.097564697,-3.784450531,6.698005199,-0.152439997,-1.547266006,-2.400929928,-905.1000366,14.70000076,-897.3000488,0.377369646,-0.738287766,0.518778821,ST
18.13333333,-6.552656174,-3.928602934,6.302034378,0.442075998,-1.577754021,-0.945127964,-919.500061,17.10000038,-911.7000122,0.402259987,-0.720920136,0.554359176,ST
18.16666667,-6.693219662,-3.726430655,6.75901556,0.548784018,-1.387203932,0.198172003,-909.9000244,10.5,-899.7000122,0.368031093,-0.712889537,0.5041897,ST
18.2,-6.835577965,-3.710280895,6.759613514,0.53354001,-1.722571969,1.897877932,-919.500061,20.10000038,-894.9000244,0.356955916,-0.723740507,0.497526277,ST
18.23333333,-6.568806171,-3.543398857,6.612470627,0.40396598,-1.577754021,2.789651871,-914.7000122,15.30000019,-897.3000488,0.340762012,-0.719258099,0.486869849,ST
18.26666667,-5.894100666,-3.018827677,6.333735943,-0.266770005,-1.463423967,3.460387945,-929.1000366,14.70000076,-914.1000366,0.298027472,-0.699893237,0.441745082,ST
18.3,-6.139339447,-2.528350353,6.616657734,-0.015244,-1.112811923,4.359784126,-931.500061,6.300000191,-902.1000366,0.233403802,-0.714243071,0.363380023,ST
18.33333333,-6.248799801,-2.384796143,6.876849651,0.335367978,-1.013725996,5.091495991,-926.7000122,17.70000076,-899.7000122,0.192997675,-0.710779391,0.326979783,ST
18.36666667,-5.646469593,-2.013947487,6.778156281,0.541162014,-0.93750596,5.099117756,-926.7000122,11.70000076,-904.500061,0.149204244,-0.676573305,0.28282579,ST
18.4,-5.487961769,-1.428365469,6.820624352,0.708845973,-1.272873998,4.443625927,-931.500061,14.70000076,-899.7000122,0.086514737,-0.667156088,0.203389284,ST
18.43333333,-6.671088696,-1.272848248,7.229753971,1.318606019,-1.371959925,4.077769756,-929.1000366,19.5,-906.9000244,0.054019291,-0.732278296,0.167759242,ST
18.46666667,-6.709369659,-1.355990171,6.67647171,1.34147191,0.198172003,3.818621874,-921.9000244,13.50000095,-911.7000122,0.06212561,-0.776796386,0.190313492,ST
18.5,-5.462839603,-1.149630785,6.480280876,0.388722003,0.708845973,2.400929928,-931.500061,6.900000095,-894.9000244,0.044051439,-0.698733865,0.172449528,ST
18.53333333,-5.981429577,-1.185519338,7.343999386,1.013725996,-1.333850026,1.85214591,-929.1000366,5.100000381,-906.9000244,0.030079911,-0.676833222,0.156426458,ST
18.56666667,-5.84565115,-0.900803328,6.948626995,0.907018006,-2.431417942,1.059458017,-926.7000122,8.700000763,-909.3000488,0.009316724,-0.690627282,0.126910017,ST
18.6,-6.214107513,-0.340343356,7.276409149,1.006103992,-2.530503988,1.105189919,-945.9000244,4.5,-909.3000488,-0.042498705,-0.701368415,0.048303349,ST
18.63333333,-5.816940308,-0.10946016,7.843448639,1.158543944,-1.631107926,1.493911982,-929.1000366,5.100000381,-916.500061,-0.066987358,-0.639273442,0.012172623,ST
18.66666667,-5.193077087,-0.180639178,7.50968504,0.945127964,-1.349093914,0.663114011,-941.1000366,5.700000286,-902.1000366,-0.061886434,-0.604769083,0.021010815,ST
18.7,-7.075433254,-0.426475942,8.451760292,-0.160062,0.266770005,-0.701223969,-938.7000122,5.700000286,-911.7000122,-0.042031547,-0.693119872,0.050419869,ST
18.73333333,-6.679462433,-0.168676317,8.659316063,-0.213415995,0.716467977,-0.602137983,-941.1000366,17.70000076,-918.9000244,-0.058129982,-0.660292757,0.022437141,ST
18.76666667,-6.455757141,-0.509019673,8.018106461,0.144817993,0.060975999,-0.716467977,-933.9000244,7.500000477,-914.1000366,-0.031247581,-0.675937608,0.061586914,ST
18.8,-6.428242683,-0.394774348,7.215398788,-0.175305992,0.320124,-1.028970003,-931.500061,8.100000381,-911.7000122,-0.031523535,-0.724345473,0.056891772,ST
18.83333333,-5.038158417,-0.515001118,5.968868732,-0.434453994,0.899396002,-1.204275966,-929.1000366,5.700000286,-911.7000122,-0.00919293,-0.702051031,0.086824027,ST
18.86666667,-4.847350597,-0.522776961,5.51188755,-0.884151995,0.701223969,-1.684461951,-929.1000366,14.10000038,-904.500061,0.001100387,-0.718960873,0.098033116,ST
18.9,-5.402427197,-0.680686712,5.428745747,-1.135677934,1.006103992,-1.600619912,-921.9000244,9.900000572,-909.3000488,0.023092997,-0.776724584,0.127631026,ST
18.93333333,-7.053301811,-1.269259334,6.723725319,-1.570132017,1.814036012,-1.501533985,-938.7000122,12.90000057,-911.7000122,0.06792572,-0.802179617,0.189959067,ST
18.96666667,-6.327754498,-2.661138058,6.590339184,-2.042695999,2.850627899,-2.370441914,-919.500061,6.900000095,-904.500061,0.206236521,-0.73449335,0.383169525,ST
19.0,-5.942550182,-2.659343719,6.931280613,-2.721053839,2.423795938,-4.359784126,-921.9000244,18.30000114,-902.1000366,0.211336594,-0.679697703,0.378361603,ST
19.03333333,-6.873858929,-3.399246454,7.034161568,-1.227141976,1.867389917,-4.222588062,-924.3000488,15.90000057,-892.500061,0.271125817,-0.718862163,0.454231168,ST
19.06666667,-6.864886761,-3.582876444,7.294951916,-0.282013983,1.722571969,-3.422277927,-917.1000366,18.90000153,-902.1000366,0.287313382,-0.702486562,0.462193269,ST
19.1,-6.219490528,-3.720449209,6.846942425,0.670735955,0.625003994,-2.797273874,-905.1000366,21.30000114,-906.9000244,0.321415206,-0.673743849,0.498597041,ST
19.13333333,-6.152498722,-3.226383209,5.897689819,1.135677934,0.342989981,-1.692083955,-909.9000244,14.10000038,-904.500061,0.331027906,-0.736208817,0.501005324,ST
19.16666667,-6.441999912,-3.140848637,5.407212257,1.04421401,0.853663981,-0.137196004,-907.500061,16.5,-906.9000244,0.351367554,-0.797473282,0.523781523,ST
19.2,-6.962384224,-3.663625717,5.793014526,-0.213415995,1.562510014,1.349093914,-914.7000122,15.90000057,-897.3000488,0.377072488,-0.796825511,0.562169302,ST
19.23333333,-6.761408329,-3.412405729,6.48805666,-1.364337921,0.449698001,1.913121939,-897.9000244,20.70000076,-897.3000488,0.31762345,-0.750372771,0.488621999,ST
19.26666667,-7.140032768,-3.359170914,6.738678932,-1.150921941,-0.891773999,2.934469938,-909.9000244,13.50000095,-904.500061,0.286808573,-0.759196023,0.461228622,ST
19.3,-7.015020847,-2.95123744,6.418672085,-0.350611985,-1.097568035,3.978683949,-909.9000244,18.30000114,-897.3000488,0.250115265,-0.781600912,0.426808175,ST
19.33333333,-6.242219925,-2.932694912,6.268538475,0.060975999,-0.548784018,3.544229984,-905.1000366,17.10000038,-897.3000488,0.242954784,-0.737875059,0.431761464,ST
19.36666667,-5.136851788,-2.342926025,6.029281139,0.480185986,-1.105189919,2.545747995,-912.3000488,11.10000038,-894.9000244,0.194369541,-0.674277687,0.368946425,ST
19.4,-6.38697052,-2.257391691,6.258967876,0.838419974,-0.945127964,2.339953899,-893.1000366,14.70000076,-897.3000488,0.171072264,-0.760320271,0.342016613,DLR
19.43333333,-8.196950912,-2.330364943,7.259063244,1.295740008,0.586893976,3.041177988,-907.500061,19.5,-892.500061,0.14149186,-0.820319513,0.305784789,DLR
19.46666667,-6.943841934,-1.978058815,6.785333633,1.440557957,0.685979962,3.315569878,-914.7000122,14.70000076,-906.9000244,0.117043719,-0.781793087,0.27769807,DLR
19.5,-6.297847271,-1.162789941,6.510188103,1.707327962,-0.731711984,3.643316031,-909.9000244,9.900000572,-885.3000488,0.036929123,-0.76187342,0.172311068,DLR
19.53333333,-5.197862625,-0.787156165,5.653647423,1.684461951,-1.806414008,3.018311977,-914.7000122,4.5,-904.500061,0.004317678,-0.737499095,0.132276056,DLR
19.56666667,-5.65005827,-0.533543527,5.752939224,1.272873998,-2.294221878,2.126538038,-902.7000122,0.300000012,-909.3000488,-0.029346126,-0.769146004,0.088407641,DLR
19.6,-6.752436161,-0.506627083,6.703388214,0.899396002,-2.431417942,1.631107926,-917.1000366,15.90000057,-909.3000488,-0.043943375,-0.782889737,0.071601007,DLR
19.63333333,-7.917020321,-0.593357801,7.92359972,0.564027965,-3.193617821,1.570132017,-907.500061,6.300000191,-909.3000488,-0.048441171,-0.778427736,0.070696708,DLR
19.66666667,-6.807465076,-0.572422802,7.799784184,-0.739333987,-3.300325871,1.524399996,-921.9000244,13.50000095,-904.500061,-0.055596063,-0.713647176,0.071814186,DLR
19.7,-6.037655354,-0.269762486,7.933768272,-1.364337921,-3.10977602,0.61738199,-929.1000366,5.700000286,-899.7000122,-0.0834263,-0.648607179,0.037263945,DLR
19.73333333,-5.792416573,-0.584385693,7.650846958,-1.631107926,-2.858249903,-0.121951997,-931.500061,5.100000381,-906.9000244,-0.06399061,-0.642074419,0.076438822,DLR
19.76666667,-6.095674992,-0.330174923,7.316484928,-2.042695999,-2.08842802,-0.678357959,-933.9000244,7.500000477,-911.7000122,-0.082919669,-0.687504685,0.051218959,DLR
19.8,-5.684152603,-0.467747808,6.83438158,-1.455801964,-1.288118005,-0.182927996,-943.500061,15.30000019,-904.500061,-0.074519517,-0.690189742,0.069809343,DLR
19.83333333,-5.307920933,-1.080844402,6.98032856,-1.394825935,-1.12805593,-0.647870004,-948.3000488,11.10000038,-918.9000244,-0.025419565,-0.645003551,0.152096292,DLR
19.86666667,-5.553757668,-1.268063068,7.60837841,-0.213415995,-1.181409955,-2.309465885,-941.1000366,10.5,-916.500061,-0.010182591,-0.622773935,0.167184291,DLR
19.9,-5.481980324,-1.763923645,7.840457916,1.326228023,-1.143299937,-3.628072023,-945.9000244,14.70000076,-916.500061,0.033924002,-0.597047381,0.219589138,DLR
19.93333333,-6.294258595,-2.387786627,8.239418983,3.589962006,0.304879993,-5.503083706,-955.500061,12.30000019,-911.7000122,0.094006001,-0.628939929,0.278652959,DLR
19.96666667,-4.86888361,-3.265262365,7.759110451,5.403997898,1.600619912,-9.397925377,-945.9000244,11.70000076,-916.500061,0.199684091,-0.527641845,0.39182725,DLR
20.0,-5.2672472,-3.459060907,8.32614994,8.071698189,2.118916035,-12.58392143,-950.7000122,13.50000095,-916.500061,0.261373946,-0.523959939,0.392196368,DLR
20.03333333,-3.929799318,-3.74198246,6.94264555,12.3552618,2.76678586,-15.86138153,-933.9000244,9.900000572,-926.1000366,0.389228125,-0.457173043,0.482198619,DLR
20.06666667,-4.541699409,-3.517678738,6.733295441,14.72570324,4.199721813,-17.74401474,-926.7000122,7.500000477,-902.1000366,0.484533866,-0.527920274,0.473758639,DLR
20.1,-5.349790573,-3.183915138,6.708173275,16.35681152,6.295772076,-18.38426399,-924.3000488,2.700000048,-904.500061,0.573383462,-0.615896493,0.439764015,DLR
20.13333333,-6.1991539,-3.173148394,7.210015297,16.50162888,6.638761997,-17.08852386,-905.1000366,1.5,-897.3000488,0.655820423,-0.662262955,0.412238032,DLR
20.16666667,-6.774567127,-1.988825321,7.862589359,15.97571182,5.724122047,-15.75467396,-885.9000244,2.700000048,-892.500061,0.649617234,-0.696200167,0.254472907,DLR
20.2,-7.068255424,-2.18621254,7.313494205,15.09155941,4.557955742,-12.40861607,-881.1000366,-6.300000191,-887.7000122,0.748497572,-0.745482051,0.283134844,DLR
20.23333333,-6.328950882,-1.714875937,7.135845661,12.88117981,4.176856041,-10.93756962,-876.3000488,-5.700000286,-868.500061,0.785402928,-0.716076523,0.234240988,DLR
20.26666667,-6.250594139,-1.146041989,6.912738323,10.80037403,3.727157831,-8.81865406,-873.9000244,-8.700000763,-868.500061,0.796348905,-0.73121336,0.164531777,DLR
20.3,-5.683554649,-1.382906556,6.435420036,8.788166046,3.102154016,-7.591511726,-852.3000488,-8.700000763,-870.9000244,0.871494268,-0.715950305,0.206015992,DLR
20.33333333,-6.190181732,-1.574312329,6.744660378,6.905531883,1.935987949,-5.663146019,-857.1000366,-12.30000019,-856.500061,0.924126476,-0.729830256,0.225610478,DLR
20.36666667,-5.65005827,-1.545003295,6.726117611,8.338467598,2.858249903,-6.394857883,-837.9000244,-11.70000076,-861.3000488,0.964341527,-0.690956261,0.221545097,DLR
20.4,-6.612470627,-1.963105202,6.968365669,8.269869804,3.528985977,-5.968025684,-828.3000488,-8.100000381,-849.3000488,1.036628672,-0.740266656,0.267540666,DLR
20.43333333,-7.171734333,-0.47073853,6.978534222,8.399443626,3.589962006,-3.429899931,-828.3000488,-11.10000038,-834.9000244,0.936413043,-0.801446048,0.067879704,DLR
20.46666667,-6.986907959,-0.72016412,6.568207741,6.966507912,2.987823963,-0.480185986,-821.1000366,-13.50000095,-825.3000488,0.979595563,-0.817447304,0.096609129,DLR
20.5,-6.558039665,0.28232348,5.98501873,6.173820019,2.949713945,2.583858013,-811.500061,-17.10000038,-820.500061,0.880553734,-0.834607032,-0.0533375,DLR
20.53333333,-6.377998352,0.003588858,5.906063557,4.550333977,3.40703392,5.990891933,-821.1000366,-20.70000076,-808.500061,0.900823535,-0.829880824,-0.021609061,DLR
20.56666667,-7.040142536,0.008374002,6.355268955,3.018311977,2.797273874,7.309497833,-801.9000244,-19.5,-818.1000366,0.889517728,-0.840693162,-0.02088321,DLR
20.6,-6.87206459,0.870896161,6.849933147,2.46952796,0.670735955,8.353712082,-818.7000122,-19.5,-813.3000488,0.786768624,-0.785613837,-0.139053093,DLR
20.63333333,-7.677165031,1.705305576,7.65323925,1.95885396,-0.236281991,7.126569748,-821.1000366,-19.5,-808.500061,0.707657557,-0.772470349,-0.229808213,DLR
20.66666667,-6.657331467,2.754448414,5.782846451,1.440557957,-2.23324585,5.853695869,-830.7000122,-23.10000038,-818.1000366,0.549262583,-0.796074781,-0.44076877,DLR
20.7,-8.237027168,3.328067541,6.558039665,-1.890255928,-1.532021999,3.948195934,-835.500061,-33.30000305,-808.500061,0.514734454,-0.834029519,-0.469761768,DLR
20.73333333,-6.74047327,3.073856831,6.284090042,-4.474113941,-2.751541853,3.582340002,-849.9000244,-27.90000153,-815.7000122,0.509168418,-0.764239349,-0.451687041,DLR
20.76666667,-6.342708111,2.514593124,5.827706814,-5.929915905,-2.301843882,1.471045971,-837.9000244,-29.10000038,-818.1000366,0.525958113,-0.779575621,-0.400415969,DLR
20.8,-6.605292797,1.764521718,6.634003639,-6.280528069,-1.089946032,-0.068598002,-849.9000244,-23.10000038,-825.3000488,0.609323762,-0.765466571,-0.257506928,DLR
20.83333333,-6.178218842,1.1227144,6.776959896,-5.038141727,-0.960371971,-0.632625997,-857.1000366,-23.70000076,-832.500061,0.664337889,-0.732762169,-0.159096067,DLR
20.86666667,-6.863092422,-0.020935005,6.754828453,-3.536607981,-1.814036012,-2.111294031,-845.1000366,-20.70000076,-827.7000122,0.770632696,-0.790156289,0.012982458,DLR
20.9,-7.351177216,-0.184228033,7.223772526,-3.589962006,-1.882633924,-2.23324585,-847.500061,-18.90000153,-844.500061,0.781645827,-0.79055648,0.034243279,DLR
20.93333333,-6.647162914,-0.890634894,8.22027874,-3.81099987,-2.431417942,-2.370441914,-845.1000366,-14.10000038,-856.500061,0.831485681,-0.677672715,0.114141464,DLR
20.96666667,-6.083114147,-0.693247676,7.360149384,-3.071666002,-2.942091942,-1.814036012,-861.9000244,-15.90000057,-849.3000488,0.820861237,-0.682780292,0.102221093,DLR
21.0,-4.801891804,-1.21901536,6.974347115,-3.140264034,-1.798792005,-2.187514067,-864.3000488,-9.900000572,-849.3000488,0.86387549,-0.597756219,0.176205701,DLR
21.03333333,-5.038158417,-1.196285963,7.675968647,-1.836901903,-1.714949965,-1.730193973,-854.7000122,-13.50000095,-856.500061,0.855846579,-0.573319876,0.160333686,DLR
21.06666667,-4.704992771,-1.524666429,7.866178036,-0.800309956,-1.737815976,-1.318606019,-847.500061,-11.10000038,-870.9000244,0.874397787,-0.52979446,0.1922353,DLR
21.1,-4.925109386,-1.489375949,7.974442005,0.152439997,-0.846041977,0.198172003,-849.9000244,-7.500000477,-863.7000122,0.869544487,-0.543370648,0.184509489,DLR
21.13333333,-5.340220451,-1.364364147,8.261550903,-0.716467977,0.480185986,1.227141976,-857.1000366,-11.10000038,-856.500061,0.847426486,-0.568886816,0.163663303,DLR
21.16666667,-6.038851261,-1.628145218,8.81363678,-0.693601966,0.045731999,1.486289978,-849.9000244,-5.100000381,-858.9000244,0.85052244,-0.591960341,0.181043465,DLR
21.2,-5.686545372,-1.392476797,8.341103554,-0.381099999,-0.053353999,1.570132017,-861.9000244,-4.5,-856.500061,0.835651143,-0.592334918,0.16526919,DLR
21.23333333,-5.691928387,-1.40743041,8.244802475,-0.579271972,0.335367978,1.364337921,-859.500061,-11.10000038,-856.500061,0.831768601,-0.598134514,0.168356339,DLR
21.26666667,-6.043038368,-1.192098975,8.110220909,-1.105189919,0.647870004,1.410069942,-859.500061,-14.10000038,-858.9000244,0.812091578,-0.635044478,0.147213511,DLR
21.3,-5.851632595,-0.535936117,6.840363026,-1.600619912,-0.754577994,2.149404049,-859.500061,-9.900000572,-863.7000122,0.759604402,-0.701772827,0.081377826,DLR
21.33333333,-6.059188366,-0.782969177,6.137545109,-3.521363974,-2.538125992,2.812517881,-864.3000488,-15.90000057,-854.1000366,0.770077678,-0.766928552,0.124880094,DLR
21.36666667,-5.358164787,-0.282921612,6.54488039,-6.173820019,-2.210379839,4.100636005,-866.7000122,-14.10000038,-866.1000366,0.692224746,-0.687374149,0.052082038,DLR
21.4,-4.587756634,-1.524666429,6.994085789,-6.44821167,-1.387203932,5.335400105,-876.3000488,-6.300000191,-863.7000122,0.752729852,-0.576772707,0.209984649,DLR
21.43333333,-5.613571644,-1.876972675,8.215494156,-5.602169991,-0.785066009,4.649419785,-878.7000122,-6.900000095,-878.1000366,0.733430039,-0.587492075,0.227901426,DLR
21.46666667,-6.286482811,-2.09230423,8.542677879,-3.163130045,-0.815553963,3.262215853,-873.9000244,-4.5,-875.7000122,0.722305399,-0.618528898,0.240733023,DLR
21.5,-6.026888371,-1.783064246,8.222671509,-0.038109999,0.396344006,2.812517881,-881.1000366,-11.10000038,-873.3000488,0.696858375,-0.623034576,0.21211848,DLR
21.53333333,-6.558039665,-1.018637538,7.866776466,1.859767914,1.143299937,2.881115913,-869.1000366,-3.900000095,-880.500061,0.639592069,-0.690747607,0.12537713,DLR
21.56666667,-6.626825809,-0.847568572,7.841056347,2.949713945,1.783547997,3.704291821,-878.7000122,-8.100000381,-868.500061,0.619591199,-0.701859661,0.099084984,DLR
21.6,-5.664413929,-0.279930919,7.914029598,3.734779835,2.240867853,2.591480017,-881.1000366,-12.90000057,-866.1000366,0.578086542,-0.6296778,0.02985749,DLR
21.63333333,-5.559739113,0.563450694,6.765594959,5.02289772,1.463423967,1.966475964,-871.500061,-10.5,-861.3000488,0.512734246,-0.685024796,-0.086964527,DLR
21.66666667,-6.113021374,0.549095273,6.734491825,4.283564091,2.500015974,1.76830399,-864.3000488,-14.10000038,-858.9000244,0.515594821,-0.737344951,-0.091780437,DLR
21.7,-6.41328907,0.906186581,7.11191988,4.451247692,1.882633924,0.091463998,-866.7000122,-9.900000572,-868.500061,0.499441248,-0.733299233,-0.132404106,DLR
21.73333333,-6.861896038,0.080151156,7.106536865,4.336917877,0.099086002,-0.53354001,-864.3000488,-15.30000019,-854.1000366,0.586011988,-0.766220962,-0.025184588,DLR
21.76666667,-7.565312386,0.704014301,6.933074951,4.42838192,-1.242385983,-2.271355867,-866.7000122,-15.30000019,-851.7000122,0.553593139,-0.822357326,-0.101191207,DLR
21.8,-6.873260975,0.545506418,6.382185459,1.844523907,-2.545747995,-3.147886038,-871.500061,-18.90000153,-844.500061,0.582344869,-0.816935922,-0.083169363,DLR
21.83333333,-6.92828989,0.553282261,7.518657207,-0.449698001,-2.827761889,-3.246971846,-866.7000122,-16.5,-854.1000366,0.601746066,-0.743408201,-0.068031971,DLR
21.86666667,-5.170946121,-0.250621915,6.94264555,-1.798792005,-2.446661949,-2.423795938,-871.500061,-21.30000114,-863.7000122,0.671529369,-0.64211792,0.036112974,DLR
21.9,-5.540598392,-0.25899592,7.35656023,-2.08842802,-2.027451992,-3.086910009,-866.7000122,-17.70000076,-856.500061,0.67992892,-0.64150701,0.042362132,DLR
21.93333333,-4.941857338,-0.927719772,6.602900028,-2.263733864,-1.173787951,-2.57623601,-861.9000244,-11.10000038,-861.3000488,0.741631093,-0.635597069,0.141510693,DLR
21.96666667,-6.038253307,-1.662837505,7.469011307,-2.682943821,-0.42683199,-3.307947874,-869.1000366,-3.300000191,-854.1000366,0.795473268,-0.664810591,0.224118904,DLR
22.0,-5.941354275,-1.358980775,7.9570961,-1.265251994,-1.242385983,-1.669217944,-878.7000122,-15.90000057,-861.3000488,0.767928306,-0.633881977,0.176206973,DLR
22.03333333,-5.353379726,-1.945759058,7.885318756,-0.114329994,-2.050318003,-0.846041977,-873.9000244,-10.5,-868.500061,0.804638551,-0.582332886,0.238625753,DLR
22.06666667,-6.151302338,-1.60960269,8.615651131,0.609759986,-1.783547997,-1.333850026,-866.7000122,-11.10000038,-866.1000366,0.780855055,-0.606902106,0.188130798,DLR
22.1,-6.184200287,-1.375130653,9.137231827,1.143299937,-1.653973937,-0.72408998,-885.9000244,-6.900000095,-870.9000244,0.763654725,-0.587996801,0.150333817,DLR
22.13333333,-4.627233982,-0.047851436,6.839765072,1.387203932,-2.141782045,0.731711984,-869.1000366,-16.5,-868.500061,0.687140872,-0.591153904,0.012584057,DLR
22.16666667,-4.57938242,-0.227892473,6.148909569,-1.669217944,-1.166165948,0.853663981,-873.9000244,-11.70000076,-854.1000366,0.69448835,-0.634988667,0.037181207,DLR
22.2,-6.544282436,-0.021533147,6.577179909,-6.615895748,-0.525918007,3.201239824,-866.7000122,-9.300000191,-870.9000244,0.647741849,-0.775535833,0.01099648,DLR
22.23333333,-7.777054787,-0.507225215,7.153191566,-11.01379013,-1.371959925,7.057971954,-881.1000366,-7.500000477,-880.500061,0.640038948,-0.821385641,0.072652536,DLR
22.26666667,-8.198147774,-1.357186437,7.290166378,-15.29735374,-1.646351933,12.72873974,-885.9000244,-6.300000191,-875.7000122,0.632171298,-0.835846748,0.181049456,DLR
22.3,-6.772772789,-3.674990416,8.299832344,-18.63578987,-4.222588062,17.20285416,-893.1000366,-3.300000191,-887.7000122,0.686816596,-0.657575172,0.411848956,DLR
22.33333333,-4.296461105,-3.656447887,7.200445175,-17.888834,-5.289668083,17.69066238,-912.3000488,-0.900000036,-887.7000122,0.6229116,-0.504503612,0.478639787,DLR
22.36666667,-3.094791651,-4.371827126,7.526432991,-15.98333359,-4.184477806,16.14339638,-919.500061,4.5,-904.500061,0.562911681,-0.358971678,0.539145041,DLR
22.4,-4.118812561,-3.442312717,7.870963573,-10.41927338,-3.750023842,12.34764004,-917.1000366,10.5,-899.7000122,0.455109814,-0.445105598,0.42762165,DLR
22.43333333,-4.375415802,-3.261075497,7.50310564,-6.234796047,-2.317087889,10.89183807,-917.1000366,9.300000191,-909.3000488,0.397423094,-0.492035603,0.411871663,DLR
22.46666667,-6.024496078,-2.643193722,7.868570805,-3.025933981,-1.204275966,9.954331398,-921.9000244,6.900000095,-914.1000366,0.311046173,-0.623151893,0.32362298,DLR
22.5,-5.027391911,-1.574312329,6.693219662,-1.097568035,-1.615863919,9.557988167,-938.7000122,6.900000095,-911.7000122,0.217278416,-0.632121341,0.225640997,DLR
22.53333333,-5.935372829,-1.353597522,7.244109631,-1.196653962,-2.004585981,9.779026031,-926.7000122,9.900000572,-906.9000244,0.147586135,-0.67586577,0.175063356,DLR
22.56666667,-6.845148087,-0.896018147,8.139529228,-2.179892063,-2.614346027,10.47262764,-941.1000366,8.700000763,-909.3000488,0.062839624,-0.692735568,0.102722029,DLR
22.6,-4.514184952,-0.601731837,8.666493416,-2.835383892,-1.577754021,10.17537022,-943.500061,6.900000095,-916.500061,0.001086811,-0.49066506,0.066236451,DLR
22.63333333,-5.112328053,-0.236864612,9.120484352,-2.705809832,-0.365855992,9.298839569,-953.1000366,2.100000143,-916.500061,-0.059663693,-0.509613893,0.023859494,DLR
22.66666667,-4.10684967,-0.31761393,9.1599617,-2.347575903,1.204275966,6.981751919,-945.9000244,4.5,-916.500061,-0.086789336,-0.427938006,0.032674355,DLR
22.7,-4.476501942,0.516197383,8.628211975,-1.074702024,1.996963978,2.858249903,-943.500061,6.300000191,-916.500061,-0.138714124,-0.478576683,-0.055830348,DLR
22.73333333,-5.124290943,0.552085936,8.329140663,-0.030487999,2.378063917,0.769822001,-929.1000366,7.500000477,-902.1000366,-0.147443342,-0.550867578,-0.066532858,DLR
22.76666667,-5.839669704,0.278734624,7.444487572,1.097568035,1.775925994,-1.676839948,-926.7000122,9.900000572,-902.1000366,-0.1233992,-0.662261189,-0.038772603,DLR
22.8,-7.0814147,-0.104076877,6.955804825,0.952749968,1.806414008,-1.722571969,-936.3000488,2.100000143,-904.500061,-0.081710437,-0.789171167,0.012519685,DLR
22.83333333,-5.581272125,-0.089721449,6.24820137,0.007622,1.966475964,-2.301843882,-921.9000244,6.900000095,-909.3000488,-0.071232389,-0.735820595,0.017727258,DLR
22.86666667,-6.315193653,-0.21054633,6.241621971,0.0,0.907018006,-2.637212038,-921.9000244,5.100000381,-902.1000366,-0.048925688,-0.790153174,0.0375408,DLR
22.9,-5.94015789,-0.651975811,4.664916992,-1.265251994,1.143299937,-2.743919849,-917.1000366,0.900000036,-914.1000366,0.03172701,-0.895678841,0.140535393,DLR
22.93333333,-6.631012917,-1.497750044,4.710974216,-3.650938034,4.085391998,-3.246971846,-909.9000244,9.300000191,-902.1000366,0.168976689,-0.933799945,0.315901545,DLR
22.96666667,-7.347588062,-2.969181776,6.592731953,-4.115880013,6.074733734,-4.306429863,-919.500061,9.300000191,-899.7000122,0.26502897,-0.808210905,0.435402326,DLR
23.0,-6.058589935,-4.043446541,6.955206394,-3.185995817,5.686011791,-6.867421627,-909.9000244,15.30000019,-897.3000488,0.352653225,-0.657802097,0.538329201,DLR
23.03333333,-6.920514107,-3.805983782,6.438410759,-0.40396598,4.885701656,-8.551883698,-890.7000122,11.70000076,-897.3000488,0.389778402,-0.741309516,0.549516264,DLR
23.06666667,-7.925394535,-3.978847027,6.108235836,2.004585981,2.896359921,-4.931433678,-885.9000244,11.10000038,-892.500061,0.434743191,-0.821467987,0.582148435,DLR
23.1,-7.255474091,-3.835292816,5.180516243,1.349093914,1.166165948,-1.74543798,-890.7000122,13.50000095,-882.9000244,0.485477618,-0.8432987,0.636451493,DLR
23.13333333,-7.409795284,-3.895107031,5.157188892,-0.251525998,-0.190549999,1.120433927,-893.1000366,18.30000114,-882.9000244,0.488050154,-0.853971264,0.64489592,ST
23.16666667,-7.089190483,-3.688149452,5.815145969,-1.006103992,-0.967993975,1.996963978,-871.500061,11.70000076,-892.500061,0.422036307,-0.803718043,0.567612141,ST
23.2,-6.614862919,-3.514090061,6.190779686,-1.074702024,-2.812517881,2.408551931,-888.3000488,16.5,-892.500061,0.372387358,-0.750046229,0.515601718,ST
23.23333333,-7.006048679,-3.297562122,6.041841984,-0.411587983,-3.650938034,3.506119967,-905.1000366,12.30000019,-878.1000366,0.341849489,-0.78904372,0.493359895,ST
23.26666667,-7.694511414,-3.559548855,6.708173275,-0.495429993,-3.391789913,3.986305952,-912.3000488,12.90000057,-894.9000244,0.316824229,-0.789902829,0.480540738,ST
23.3,-6.541291714,-2.902189732,7.1310606,-0.40396598,-4.466491699,4.093013763,-909.9000244,15.30000019,-892.500061,0.233792566,-0.70534481,0.384640748,ST
23.33333333,-6.522748947,-2.298663378,5.83428669,0.121951997,-5.952781677,5.121984005,-924.3000488,16.5,-894.9000244,0.198057589,-0.794478766,0.363868096,ST
23.36666667,-6.290071487,-1.918244481,6.340913773,-0.114329994,-3.856731892,5.678390026,-917.1000366,9.900000572,-911.7000122,0.123504143,-0.757855661,0.286911946,ST
23.4,-6.10943222,-1.309334993,6.184798241,0.434453994,-3.170752048,5.548815727,-921.9000244,6.900000095,-904.500061,0.048990963,-0.764588874,0.20311459,ST
23.43333333,-5.78942585,-1.071274042,5.489158154,0.129574001,-2.06556201,4.946677685,-924.3000488,13.50000095,-914.1000366,0.020699771,-0.798771882,0.184249596,ST
23.46666667,-6.470710754,-1.039572477,5.919222832,-0.685979962,-0.510674,4.047281742,-931.500061,12.90000057,-904.500061,-0.004016563,-0.821186939,0.168471196,ST
23.5,-6.816437244,-1.021628141,6.296650887,-0.945127964,-0.503051996,3.696669817,-931.500061,18.90000153,-911.7000122,-0.025950609,-0.818839582,0.156317586,ST
23.53333333,-7.27700758,-0.900205195,7.064666748,-1.181409955,-1.196653962,3.605206013,-931.500061,9.900000572,-911.7000122,-0.063082391,-0.796366475,0.124154139,ST
23.56666667,-5.793014526,-0.535936117,7.527030945,-0.556405962,-3.254593849,3.041177988,-938.7000122,9.300000191,-902.1000366,-0.110505677,-0.658322005,0.070580968,ST
23.6,-5.509494781,-0.43544808,8.186782837,0.373477995,-4.512223721,1.760681987,-941.1000366,4.5,-909.3000488,-0.127565479,-0.588490208,0.051317487,ST
23.63333333,-5.016026974,-0.434849948,8.140726089,0.93750596,-5.388753891,-0.221037999,-957.9000244,2.100000143,-923.7000122,-0.12556937,-0.544971965,0.05164713,ST
23.66666667,-4.090699673,-0.124413736,9.083398819,0.868907988,-4.923811913,-2.17227006,-960.3000488,5.700000286,-926.1000366,-0.133276925,-0.422324396,0.016042271,ST
23.7,-4.08770895,-0.14833945,9.405797958,1.097568035,-4.115880013,-3.048799992,-967.500061,9.900000572,-926.1000366,-0.120463052,-0.403846227,0.016090772,ST
23.73333333,-4.317994118,-0.429466665,8.993678093,0.777444005,-1.882633924,-3.932951927,-965.1000366,9.300000191,-928.500061,-0.091048702,-0.441638275,0.047826377,ST
23.76666667,-5.41020298,-1.102975607,10.26293755,0.967993975,1.471045971,-3.056421995,-960.3000488,11.10000038,-904.500061,-0.052632952,-0.482225821,0.104510152,ST
23.8,-4.495044231,-0.835007608,8.726307869,1.85214591,2.507637978,-3.117398024,-957.9000244,10.5,-928.500061,-0.041247274,-0.477921023,0.095754288,ST
23.83333333,-5.122496605,-0.814670742,8.338710785,2.568614006,4.809482098,-2.36281991,-948.3000488,9.300000191,-914.1000366,-0.026211785,-0.551916621,0.095850674,ST
23.86666667,-5.130870342,-1.312325716,7.279998302,2.934469938,6.189064026,-2.644834042,-941.1000366,7.500000477,-909.3000488,0.034228289,-0.612508758,0.172495347,ST
23.9,-5.719443321,-0.942673326,6.449775696,2.820139885,5.731743813,-3.490875959,-924.3000488,4.5,-916.500061,0.040057195,-0.722056642,0.148360002,ST
23.93333333,-6.907953262,-0.727940023,4.733703613,2.019829988,5.411619663,-2.59910202,-929.1000366,6.300000191,-899.7000122,0.061301318,-0.957534138,0.156511182,ST
23.96666667,-7.34459734,-1.888935447,4.886229992,-2.743919849,4.527467728,-2.134160042,-914.7000122,9.900000572,-914.1000366,0.237643763,-0.957673472,0.373732761,ST
24.0,-7.991189957,-2.227484465,5.756527901,-4.954299927,2.896359921,-2.019829988,-905.1000366,11.70000076,-904.500061,0.236850092,-0.919011346,0.383855832,LD
24.03333333,-6.600507736,-3.280215979,6.242818356,-4.672286034,-0.167683989,-0.952749968,-909.9000244,6.300000191,-892.500061,0.30305486,-0.757928042,0.489456728,LD
24.06666667,-6.730902672,-3.897499561,5.975448132,-3.925329924,-3.216483831,-0.785066009,-909.9000244,12.30000019,-906.9000244,0.349493801,-0.751369265,0.577347526,LD
24.1,-7.470207691,-4.018922806,7.042535305,-2.141782045,-3.940573931,-0.815553963,-914.7000122,12.90000057,-926.1000366,0.303286881,-0.738666943,0.523722675,LD
24.13333333,-6.546674728,-4.070363045,7.227361679,0.091463998,-6.913153648,-0.815553963,-926.7000122,15.90000057,-909.3000488,0.286275178,-0.661866265,0.50990227,LD
24.16666667,-6.471308708,-3.713271618,6.729706764,1.143299937,-10.71653175,-1.303362012,-933.9000244,16.5,-904.500061,0.26868776,-0.681052385,0.497329445,LD
24.2,-5.960494518,-3.047538519,6.117208004,1.996963978,-12.64489746,-0.838419974,-960.3000488,19.5,-916.500061,0.231035475,-0.695845033,0.454394832,LD
24.23333333,-6.063375473,-3.222794294,7.143023491,2.621968031,-11.66928196,0.045731999,-965.1000366,15.90000057,-923.7000122,0.196493342,-0.642408987,0.414666454,LD
24.26666667,-4.473511219,-2.366253614,5.92101717,1.730193973,-11.15098572,1.135677934,-991.500061,11.10000038,-911.7000122,0.15814518,-0.596778331,0.373055958,LD
24.3,-4.483081341,-2.470928669,8.153286934,0.800309956,-8.323224068,3.231727839,-1003.500061,5.700000286,-923.7000122,0.098475684,-0.479757104,0.292544564,LD
24.33333333,-3.065482616,-2.491265535,8.773561478,1.105189919,-9.557988167,4.176856041,-1015.500061,10.5,-928.500061,0.06718296,-0.320393596,0.271931597,LD
24.36666667,-3.188102007,-1.856037617,8.816627502,0.609759986,-9.22262001,4.001549721,-1034.700073,16.5,-923.7000122,0.024425859,-0.325564797,0.207181568,LD
24.4,-2.745476246,-1.556367993,8.779542923,1.34147191,-7.843037605,4.298808098,-1051.5,12.30000019,-928.500061,-0.006323093,-0.288910653,0.172375437,LD
24.43333333,-3.140250683,-1.360775232,8.772364616,0.945127964,-5.983269691,4.077769756,-1063.5,8.700000763,-926.1000366,-0.030775401,-0.328233008,0.150758884,LD
24.46666667,-3.125895262,-1.287801862,8.871058464,1.143299937,-5.975647926,3.437521935,-1075.5,9.300000191,-933.3000488,-0.04891677,-0.326185225,0.14032211,LD
24.5,-3.211429596,-1.375130653,9.247290611,1.791170001,-7.820171833,2.820139885,-1085.100098,11.10000038,-930.9000244,-0.060967145,-0.318558786,0.142110153,LD
24.53333333,-2.46614337,-0.782969177,9.412976265,2.301843882,-11.93605137,1.265251994,-1087.5,9.300000191,-933.3000488,-0.084853724,-0.2399192,0.081779467,LD
24.56666667,-1.003683925,0.266771764,7.368523121,2.820139885,-14.36746979,0.144817993,-1116.300049,7.500000477,-911.7000122,-0.104696628,-0.11813073,-0.033715422,LD
24.6,0.130993307,-0.340941489,9.826890945,1.699705958,-15.8004055,-1.204275966,-1137.900024,5.100000381,-914.1000366,-0.097328954,0.031277003,0.027747476,LD
24.63333333,0.976169348,0.349913627,8.3405056,1.76830399,-21.01385307,-4.32167387,-1185.900024,3.300000191,-909.3000488,-0.070652069,0.147999002,-0.043310708,LD
24.66666667,3.198868513,0.226098046,9.115100861,1.158543944,-18.56719208,-3.993927956,-1200.300049,5.700000286,-897.3000488,-0.057172257,0.356029794,-0.030430302,LD
24.7,3.527249098,0.431261092,9.752720833,1.532021999,-14.43606758,-3.582340002,-1217.100098,8.700000763,-892.500061,-0.03719419,0.37065945,-0.048538983,LD
24.73333333,5.4359231,-0.519188106,10.17142105,-1.394825935,-6.364369869,-2.103672028,-1226.700073,-0.900000036,-878.1000366,-0.066708269,0.49360144,0.045327193,LD
