seconds,sensor_accX_m_s_,sensor_accY_m_s_,sensor_accZ_m_s_,sensor_gyroX___s_,sensor_gyroY___s_,sensor_gyroZ___s_,sensor_magX__T_,sensor_magY__T_,sensor_magZ__T_,sensor_yaw___,sensor_pitch___,sensor_roll___,label1
0.0,-2.85134744644165,-2.47691011428833,8.57318305969238,0.0609759986400604,-0.0990860015153885,0.259148001670837,-1063.5,11.1000003814697,-923.700012207031,3.09449201749654,-0.309987515928263,0.279713246459651,ST
0.0333333333333333,-3.02480912208557,-2.5175838470459,8.85191822052002,-0.0304879993200302,-0.121951997280121,0.0609759986400604,-1065.90002441406,12.3000001907349,-928.500061035156,3.09351503782336,-0.316381242050964,0.2774498578637,ST
0.0666666666666667,-2.91654515266418,-2.5295467376709,8.77774810791016,-0.0,-0.243903994560242,-0.0152439996600151,-1063.5,20.7000007629395,-926.100036621094,3.09419603233994,-0.30967403325933,0.280128780041195,ST
0.1,-2.87886214256287,-2.51220059394836,8.66350269317627,0.205793991684914,-0.243903994560242,0.213415995240211,-1061.10009765625,17.1000003814697,-928.500061035156,3.0935090950539,-0.308630361899298,0.28171811426161,ST
0.133333333333333,-2.94705033302307,-2.41410493850708,8.67726039886475,0.190549999475479,-0.182927995920181,0.403965979814529,-1070.70007324219,15.3000001907349,-933.300048828125,3.08957051719053,-0.315099433892916,0.272249752490195,ST
0.166666666666667,-2.94645237922668,-2.43683457374573,8.71913051605225,0.182927995920181,-0.175305992364883,0.594515979290009,-1051.5,17.1000003814697,-933.300048828125,3.08783593725024,-0.31468447445985,0.271901892454353,ST
0.2,-2.94764852523804,-2.42546963691711,8.80107593536377,0.121951997280121,-0.358233988285065,0.586893975734711,-1056.30004882812,14.7000007629395,-930.900024414062,3.08493334334802,-0.312253183186837,0.268681278642768,ST
0.233333333333333,-2.84177732467651,-2.44281578063965,8.64735317230225,0.198172003030777,-0.320124000310898,0.609759986400604,-1053.90002441406,14.7000007629395,-928.500061035156,3.0848200698461,-0.306887540045064,0.273801568668565,ST
0.266666666666667,-2.94884490966797,-2.38120722770691,8.74245738983154,0.121951997280121,-0.160062000155449,0.525918006896973,-1061.10009765625,14.1000003814697,-935.700012207031,3.08120268307953,-0.31356798286425,0.266536983070969,ST
0.3,-2.92372274398804,-2.40274024009705,8.74724292755127,0.190549999475479,-0.182927995920181,0.548784017562866,-1058.70007324219,9.90000057220459,-935.700012207031,3.07994207854677,-0.311951257197506,0.267313815206005,ST
0.333333333333333,-2.96080780029297,-2.36625361442566,8.71434497833252,0.137196004390717,-0.243903994560242,0.46494197845459,-1046.70007324219,20.7000007629395,-933.300048828125,3.07793805178425,-0.31601179060469,0.264976733734652,ST
0.366666666666667,-2.92551732063293,-2.39257192611694,8.68443775177002,0.0838419944047928,-0.198172003030777,0.342989981174469,-1070.70007324219,13.5000009536743,-938.100036621094,3.0778202731277,-0.314062816060146,0.268121860456955,ST
0.4,-2.93927454948425,-2.38419795036316,8.69520473480225,0.0762199983000755,-0.144817993044853,0.320124000310898,-1075.5,10.5,-923.700012207031,3.07671503829301,-0.314908934487394,0.267401643845763,ST
0.433333333333333,-2.91355443000793,-2.43803071975708,8.70238208770752,0.0457319989800453,-0.228659987449646,0.259148001670837,-1068.30004882812,13.5000009536743,-928.500061035156,3.0773626882826,-0.312017921903836,0.272210963231756,ST
0.466666666666667,-2.93149876594543,-2.47272300720215,8.78911304473877,0.0533539988100529,-0.297257989645004,0.25152599811554,-1058.70007324219,9.30000019073486,-940.500061035156,3.07699365322049,-0.310527434499942,0.273737993903988,ST
0.5,-2.91534876823425,-2.41709566116333,8.73288726806641,0.0914639979600906,-0.3125019967556,0.320124000310898,-1058.70007324219,15.3000001907349,-923.700012207031,3.07491548335119,-0.310853344249908,0.270194835516028,ST
0.533333333333333,-2.87587141990662,-2.43025493621826,8.57617378234863,0.0762199983000755,-0.198172003030777,0.327746003866196,-1063.5,15.3000001907349,-935.700012207031,3.07545424930934,-0.311766168831748,0.275036901629724,ST
0.566666666666667,-2.93927454948425,-2.43743252754211,8.81124401092529,-0.0304879993200302,-0.114329993724823,0.350611984729767,-1063.5,17.7000007629395,-938.100036621094,3.07291567189769,-0.311126353027734,0.270341173787256,ST
0.6,-2.9141526222229,-2.44281578063965,8.78612232208252,-0.0609759986400604,-0.137196004390717,0.266770005226135,-1058.70007324219,12.9000005722046,-928.500061035156,3.07226338570632,-0.309454580608884,0.271018643747192,ST
0.633333333333333,-2.92133021354675,-2.46195650100708,8.78014087677002,0.0457319989800453,-0.0990860015153885,0.396344006061554,-1058.70007324219,18.3000011444092,-926.100036621094,3.07172472547514,-0.309972169126623,0.272794799920842,ST
0.666666666666667,-2.91893768310547,-2.47870445251465,8.72929859161377,0.121951997280121,-0.152439996600151,0.388722002506256,-1056.30004882812,14.1000003814697,-928.500061035156,3.07159890885077,-0.310985260604702,0.275760928814741,ST
0.7,-2.9542281627655,-2.3937680721283,8.64735317230225,0.198172003030777,-0.121951997280121,0.449698001146317,-1077.90002441406,20.1000003814697,-933.300048828125,3.06881260826459,-0.317121120678753,0.270301137625266,ST
0.733333333333333,-2.98892045021057,-2.37702012062073,8.64316558837891,0.0838419944047928,-0.167683988809586,0.495429992675781,-1063.5,12.3000001907349,-942.900024414062,3.06536943568905,-0.321766234741194,0.267943094105641,ST
0.766666666666667,-2.98293900489807,-2.42068457603455,8.680251121521,0.152439996600151,-0.266770005226135,0.533540010452271,-1058.70007324219,19.5,-923.700012207031,3.06483959781619,-0.319774700300206,0.270897328381832,ST
0.8,-2.99071478843689,-2.47332119941711,8.71075630187988,0.0914639979600906,-0.259148001670837,0.365855991840363,-1063.5,18.9000015258789,-933.300048828125,3.06520629714729,-0.31886838397253,0.275583382513339,ST
0.833333333333333,-2.97755575180054,-2.40214228630066,8.73587799072266,0.121951997280121,-0.221037998795509,0.365855991840363,-1068.30004882812,12.3000001907349,-928.500061035156,3.06210876972739,-0.317532858977683,0.268931045224325,ST
0.866666666666667,-2.91116189956665,-2.47451758384705,8.70716762542725,0.106707997620106,-0.358233988285065,0.320124000310898,-1065.90002441406,20.1000003814697,-918.900024414062,3.06308719841386,-0.311442312691507,0.275669250712898,ST
0.9,-2.93329310417175,-2.45657324790955,8.70537281036377,0.106707997620106,-0.342989981174469,0.304879993200302,-1056.30004882812,15.3000001907349,-921.300048828125,3.06175067295345,-0.312971776819723,0.274745584271492,ST
0.933333333333333,-2.94465780258179,-2.48707842826843,8.66350269317627,0.106707997620106,-0.320124000310898,0.274392008781433,-1063.5,19.5,-923.700012207031,3.06206532016024,-0.315037883245103,0.27857340995666,ST
0.966666666666667,-2.8842453956604,-2.56005191802979,8.63479232788086,0.0381099991500378,-0.419209986925125,0.114329993724823,-1053.90002441406,20.7000007629395,-928.500061035156,3.06401920825914,-0.309901336714702,0.287016966071739,ST
1.0,-3.03736996650696,-2.46135830879211,8.79748725891113,0.0533539988100529,-0.396344006061554,0.190549999475479,-1058.70007324219,20.1000003814697,-923.700012207031,3.05800289083593,-0.32037669568451,0.272592175800609,ST
1.03333333333333,-2.9201340675354,-2.57679986953735,8.73468208312988,0.190549999475479,-0.594515979290009,0.403965979814529,-1053.90002441406,17.1000003814697,-928.500061035156,3.06032428669564,-0.310968423321224,0.284390423531356,ST
1.06666666666667,-2.93867635726929,-2.59893131256104,8.728102684021,0.167683988809586,-0.449698001146317,0.213415995240211,-1065.90002441406,18.3000011444092,-928.500061035156,3.06076381139101,-0.31142329297699,0.28831377239385,ST
1.1,-3.12529706954956,-2.49126553535461,8.72271919250488,0.228659987449646,-0.0609759986400604,0.121951997280121,-1056.30004882812,18.3000011444092,-933.300048828125,3.05761422105371,-0.329560448844485,0.278867838674838,ST
1.13333333333333,-3.15699863433838,-2.57500553131104,8.62163257598877,0.434453994035721,-0.0990860015153885,0.114329993724823,-1058.70007324219,19.5,-930.900024414062,3.06065842007729,-0.336358819950441,0.28807031719538,ST
1.16666666666667,-3.28978633880615,-2.52236890792847,8.52054691314697,0.434453994035721,-0.0457319989800453,-0.0762199983000755,-1046.70007324219,20.7000007629395,-933.300048828125,3.06095898038562,-0.352014480826088,0.287226186177294,ST
1.2,-3.29636597633362,-2.50502276420593,8.62761402130127,0.533540010452271,-0.327746003866196,-0.0990860015153885,-1044.30004882812,13.5000009536743,-935.700012207031,3.05983551077128,-0.351196980503133,0.282403505819965,ST
1.23333333333333,-3.36634874343872,-2.40991806983948,8.52353763580322,0.647870004177094,-0.769822001457214,-0.182927995920181,-1058.70007324219,16.5,-935.700012207031,3.05797652372856,-0.360378109283386,0.275476917557356,ST
1.26666666666667,-3.62295198440552,-2.2173159122467,8.49243354797363,0.609759986400604,-0.823175966739655,-0.0838419944047928,-1051.5,21.3000011444092,-938.100036621094,3.0515675740594,-0.386047659409847,0.257138495907922,ST
1.3,-3.6313259601593,-2.21851229667664,8.58873462677002,0.564027965068817,-0.6250039935112,0.0304879993200302,-1065.90002441406,6.90000009536743,-940.500061035156,3.04989580707378,-0.387313528681816,0.252402519570329,ST
1.33333333333333,-3.65166282653809,-2.17544603347778,8.80945014953613,0.571649968624115,-0.457319974899292,-0.0457319989800453,-1061.10009765625,10.5,-935.700012207031,3.04657097905068,-0.382396889721468,0.242273476962714,ST
1.36666666666667,-3.57031536102295,-1.99241423606873,8.70776557922363,0.769822001457214,-0.960371971130371,-0.411587983369827,-1056.30004882812,12.3000001907349,-926.100036621094,3.04183848476529,-0.378869747075665,0.225712768765592,ST
1.4,-3.42855548858643,-1.96250712871552,8.08988380432129,0.762199997901917,-0.342989981174469,-0.365855991840363,-1068.30004882812,13.5000009536743,-926.100036621094,3.04700769165386,-0.388467549703625,0.235342479291948,ST
1.43333333333333,-3.24552369117737,-1.82553231716156,7.69092226028442,0.0457319989800453,1.04421401023865,-0.396344006061554,-1070.70007324219,18.3000011444092,-923.700012207031,3.04828140518131,-0.390939208055719,0.233610605758409,ST
1.46666666666667,-3.23894429206848,-1.9068797826767,7.83507490158081,-0.46494197845459,2.69818782806396,0.137196004390717,-1075.5,18.3000011444092,-935.700012207031,3.05126601624243,-0.387081467567571,0.239177594027517,ST
1.5,-2.73231720924377,-2.43204927444458,8.49123764038086,-1.01372599601746,3.19361782073975,0.480185985565186,-1061.10009765625,15.9000005722046,-933.300048828125,3.06398760992722,-0.315112536112445,0.276256366988852,ST
1.53333333333333,-3.2006630897522,-2.21372723579407,8.23283958435059,-1.2576299905777,2.97257995605469,0.548784017562866,-1046.70007324219,16.5,-930.900024414062,3.06031167475054,-0.357757808437058,0.266589523692126,ST
1.56666666666667,-3.21980357170105,-2.38001084327698,8.69580268859863,-1.85214591026306,5.38875389099121,2.59910202026367,-1039.5,13.5000009536743,-928.500061035156,3.05620693450392,-0.353808499270629,0.269325442012092,ST
1.6,-3.21980357170105,-2.63302540779114,9.25985145568848,-2.04269599914551,5.30491209030151,3.3460578918457,-1032.30004882812,16.5,-933.300048828125,3.05236397912925,-0.336037418889805,0.278136974627886,ST
1.63333333333333,-4.238440990448,-2.5917534828186,8.75202751159668,-0.602137982845306,3.73477983474731,3.22410583496094,-1037.10009765625,18.9000015258789,-926.100036621094,3.04353410158938,-0.442080107981075,0.287255852329666,ST
1.66666666666667,-4.38977146148682,-2.43623638153076,8.11560344696045,-0.190549999475479,3.63569402694702,2.5076379776001,-1003.50006103516,11.7000007629395,-935.700012207031,3.04090422322641,-0.480308864168575,0.290347381021676,ST
1.7,-4.91793155670166,-2.59115529060364,7.56650876998901,-0.289635986089706,2.5000159740448,2.11891603469849,-1001.10003662109,21.9000015258789,-930.900024414062,3.05384170430414,-0.547077711574016,0.324151570733303,ST
1.73333333333333,-4.99449396133423,-2.18621253967285,7.75492382049561,-0.0685980021953583,1.89787793159485,2.0655620098114,-1005.90002441406,17.1000003814697,-933.300048828125,3.02722568038317,-0.557567430049396,0.280216910598686,ST
1.76666666666667,-5.10156154632568,-2.54390215873718,7.54557371139526,-0.152439996600151,1.82165801525116,1.70732796192169,-1008.30004882812,20.7000007629395,-933.300048828125,3.04470917741552,-0.571605079106016,0.318272490309336,ST
1.8,-5.3982400894165,-2.57321095466614,7.52224588394165,-0.213415995240211,1.37195992469788,1.36433792114258,-1010.70001220703,23.7000007629395,-935.700012207031,3.04737142688077,-0.596290891795773,0.327719114156256,ST
1.83333333333333,-5.63570308685303,-2.55347228050232,7.3224663734436,0.182927995920181,1.29574000835419,1.62348592281342,-996.300048828125,21.3000011444092,-928.500061035156,3.04806563444173,-0.6267483865146,0.33298506493716,ST
1.86666666666667,-6.08670282363892,-2.65216588973999,7.24291324615479,0.274392008781433,1.53964400291443,1.60824191570282,-996.300048828125,14.1000003814697,-926.100036621094,3.05464246682568,-0.665511989638982,0.346943263659239,ST
1.9,-6.35467100143433,-2.19458651542664,7.26145553588867,0.746955990791321,1.2576299905777,1.65397393703461,-984.300048828125,15.9000005722046,-911.700012207031,3.01639312812431,-0.700133095925857,0.290597586034786,ST
1.93333333333333,-6.05918836593628,-2.46614336967468,7.22556686401367,0.807931959629059,1.06708002090454,1.49391198158264,-981.900024414062,24.9000015258789,-926.100036621094,3.03494052319162,-0.677087807511408,0.321322233157995,ST
1.96666666666667,-5.65005826950073,-2.15032386779785,6.98092651367188,0.358233988285065,0.884151995182037,0.266770005226135,-986.700012207031,23.7000007629395,-916.500061035156,3.0227505671027,-0.661688845954271,0.300456617407328,ST
2.0,-5.72362995147705,-2.08632278442383,6.67946243286133,-0.160062000155449,0.907018005847931,-0.228659987449646,-977.100036621094,14.1000003814697,-923.700012207031,3.02540387701412,-0.684036523060498,0.303336980233849,ST
2.03333333333333,-5.93298006057739,-2.23466205596924,6.81404495239258,-0.350611984729767,1.06708002090454,-0.198172003030777,-977.100036621094,20.7000007629395,-930.900024414062,3.0340965550919,-0.691672000439808,0.316233606648174,ST
2.06666666666667,-5.79540729522705,-2.42606782913208,6.60648918151855,-0.487807989120483,1.29574000835419,-0.228659987449646,-979.500061035156,18.9000015258789,-923.700012207031,3.05531492149496,-0.691027520671913,0.348680356831202,ST
2.1,-6.28050136566162,-2.39317011833191,7.12149000167847,-0.495429992675781,0.952749967575073,-0.381099998950958,-986.700012207031,18.9000015258789,-926.100036621094,3.04337639283568,-0.696775714791491,0.329103074320429,ST
2.13333333333333,-6.36364316940308,-2.65754914283752,7.04432964324951,-0.228659987449646,0.609759986400604,-0.297257989645004,-977.100036621094,20.7000007629395,-928.500061035156,3.06226261074289,-0.701788796204692,0.357432095892949,ST
2.16666666666667,-6.41029834747314,-2.70719504356384,7.02100229263306,0.0228659994900227,0.632625997066498,-0.236281991004944,-981.900024414062,26.1000003814697,-921.300048828125,3.06955637582294,-0.705842128733953,0.367124975035103,ST
2.2,-5.67458248138428,-2.92372274398804,6.4635329246521,0.0762199983000755,0.792688012123108,-0.579271972179413,-969.900024414062,20.1000003814697,-918.900024414062,3.10413997120193,-0.679763518424376,0.41813219792807,ST
2.23333333333333,-6.02868318557739,-2.72334504127502,7.26923131942749,0.983237981796265,0.487807989120483,-0.274392008781433,-974.700012207031,21.3000011444092,-928.500061035156,3.072020914312,-0.661046191155863,0.357592679195302,ST
2.26666666666667,-6.02808475494385,-2.35309433937073,7.1466121673584,1.2500079870224,0.0914639979600906,0.442075997591019,-974.700012207031,24.3000011444092,-921.300048828125,3.05079359056626,-0.673906263801936,0.321112894291053,ST
2.3,-5.26904153823853,-2.51698565483093,7.14481782913208,0.861285984516144,0.304879993200302,0.518296003341675,-972.300048828125,17.1000003814697,-928.500061035156,3.05955752429849,-0.617390736196025,0.334744004315682,ST
2.33333333333333,-5.15838479995728,-2.6396050453186,7.12627553939819,0.350611984729767,0.403965979814529,0.190549999475479,-979.500061035156,13.5000009536743,-916.500061035156,3.06961347650852,-0.599874794505342,0.351506250755013,ST
2.36666666666667,-4.68166494369507,-3.30354356765747,7.37390661239624,-0.0990860015153885,1.15854394435883,-0.327746003866196,-957.900024414062,14.1000003814697,-928.500061035156,3.10439000458471,-0.536836281210193,0.41306375496806,ST
2.4,-5.18051624298096,-3.32567501068115,7.72800731658936,0.266770005226135,1.41006994247437,-0.442075997591019,-965.100036621094,16.5,-918.900024414062,3.10443640427461,-0.551578872379439,0.407782912650745,ST
2.43333333333333,-5.14103889465332,-3.36156344413757,7.63589334487915,1.12805593013763,1.88263392448425,-0.0990860015153885,-955.500061035156,11.7000007629395,-926.100036621094,3.11087209511028,-0.554705631775869,0.412854262429753,ST
2.46666666666667,-5.00585842132568,-2.89441394805908,7.66400575637817,2.22562384605408,1.91312193870544,0.342989981174469,-965.100036621094,24.9000015258789,-928.500061035156,3.0901063457934,-0.552280976797544,0.365051861006147,ST
2.5,-5.89410066604614,-2.47272300720215,7.44747829437256,2.61434602737427,3.13264203071594,4.17685604095459,-943.500061035156,9.90000057220459,-921.300048828125,3.05156691555663,-0.651666948510494,0.312042337378724,ST
2.53333333333333,-6.45216846466064,-2.03966760635376,7.48217058181763,1.31098401546478,2.02745199203491,4.35216188430786,-943.500061035156,11.1000003814697,-923.700012207031,3.01046944434567,-0.697882206890687,0.260251504850799,ST
2.56666666666667,-6.51557159423828,-1.94575905799866,7.46063709259033,0.586893975734711,1.92074394226074,3.7957558631897,-936.300048828125,18.3000011444092,-899.700012207031,2.99847443331319,-0.705359039394192,0.250842035519544,ST
2.6,-6.83318519592285,-1.79682147502899,7.04971313476562,0.403965979814529,2.02745199203491,3.26983785629272,-933.900024414062,17.7000007629395,-918.900024414062,2.98950876532333,-0.75269916196187,0.245296602960068,ST
2.63333333333333,-6.6633129119873,-1.19748222827911,6.15848016738892,0.365855991840363,1.87501192092896,2.67532205581665,-945.900024414062,6.90000009536743,-914.100036621094,2.95068246720042,-0.81070849342045,0.195608723793626,ST
2.66666666666667,-6.54906749725342,-0.894821882247925,5.46283960342407,0.426831990480423,1.42531394958496,2.88111591339111,-931.500061035156,2.70000004768372,-909.300048828125,2.92156852244191,-0.864069871674538,0.161939938600887,ST
2.7,-6.6902289390564,-0.896018147468567,4.96219396591187,0.0990860015153885,1.30336201190948,2.9116039276123,-919.500061035156,8.10000038146973,-911.700012207031,2.92398564894438,-0.919407102429057,0.170916465960382,ST
2.73333333333333,-6.7141547203064,-0.629844546318054,4.91314649581909,-1.22714197635651,1.46342396736145,2.68294382095337,-912.300048828125,8.70000076293945,-914.100036621094,2.88271954653037,-0.936364938772837,0.128972407177241,ST
2.76666666666667,-8.09586524963379,-0.284716039896011,6.80746507644653,-1.45580196380615,1.2347639799118,3.39178991317749,-917.100036621094,11.7000007629395,-909.300048828125,2.80934795951319,-0.881785841381931,0.0478298123808812,ST
2.8,-6.91154193878174,-0.583189368247986,6.16685390472412,-0.472563982009888,-0.3125019967556,3.7957558631897,-919.500061035156,14.1000003814697,-916.500061035156,2.82749507434531,-0.845751268555925,0.0824456087451637,ST
2.83333333333333,-6.47071075439453,-0.844577848911285,5.16257190704346,-1.17378795146942,-0.190549999475479,2.12653803825378,-924.300048828125,11.7000007629395,-921.300048828125,2.87187503814959,-0.885624667262724,0.14951955083819,ST
2.86666666666667,-7.94692754745483,-0.69564026594162,6.43422412872314,-1.31098401546478,0.571649968624115,1.31860601902008,-919.500061035156,19.5,-911.700012207031,2.83702673675551,-0.88834786542716,0.111850382051554,ST
2.9,-7.05210542678833,-1.02820777893066,5.94913005828857,-0.807931959629059,0.152439996600151,1.08994603157043,-931.500061035156,10.5,-906.900024414062,2.87325647300723,-0.866110639926151,0.164276831054889,ST
2.93333333333333,-7.61196756362915,-0.568833947181702,6.30921220779419,-0.167683988809586,-0.685979962348938,0.975615978240967,-919.500061035156,11.1000003814697,-909.300048828125,2.81931821006208,-0.874759113103408,0.0969847528718573,ST
2.96666666666667,-8.02528381347656,-0.156713455915451,6.5735912322998,0.396344006061554,-0.99848198890686,1.2576299905777,-909.900024414062,12.3000001907349,-916.500061035156,2.76563433904944,-0.881944485485635,0.0293825081405873,ST
3.0,-7.00604867935181,-0.261986613273621,5.61955308914185,0.297257989645004,-1.02897000312805,0.891773998737335,-924.300048828125,4.5,-926.100036621094,2.77463952422419,-0.891390572426266,0.04244400604133,ST
3.03333333333333,-7.32964420318604,-0.196190893650055,6.1088342666626,-0.685979962348938,-0.975615978240967,-0.106707997620106,-924.300048828125,9.30000019073486,-921.300048828125,2.76720903127021,-0.876380129605497,0.0346404924558544,ST
3.06666666666667,-6.48626232147217,-0.773398876190186,6.54488039016724,-1.10518991947174,-1.75305998325348,-1.42531394958496,-931.500061035156,14.1000003814697,-916.500061035156,2.83146331639011,-0.774098461313317,0.121616231409981,ST
3.1,-7.45764636993408,-1.34701800346375,7.04492807388306,-0.922261953353882,-1.16616594791412,-2.01220798492432,-931.500061035156,18.3000011444092,-914.100036621094,2.88533293013888,-0.80198166140937,0.193027006420865,ST
3.13333333333333,-7.31827926635742,-1.55756425857544,6.92529916763306,-0.266770005226135,-1.02134799957275,-1.85976791381836,-938.700012207031,11.1000003814697,-911.700012207031,2.90758221315981,-0.798754292665992,0.220303492626657,ST
3.16666666666667,-7.4151782989502,-1.4941611289978,6.61785364151001,0.182927995920181,-0.739333987236023,-1.76830399036407,-948.300048828125,11.7000007629395,-921.300048828125,2.91378763596109,-0.823918873132428,0.224064469220611,ST
3.2,-7.2303524017334,-1.3900842666626,6.6214427947998,-0.0914639979600906,-0.3125019967556,-1.77592599391937,-941.100036621094,23.7000007629395,-918.900024414062,2.90808847193838,-0.818281770190003,0.212070631207996,ST
3.23333333333333,-7.11550855636597,-1.39128053188324,6.70518255233765,-0.167683988809586,-0.442075997591019,-1.65397393703461,-936.300048828125,15.3000001907349,-926.100036621094,2.90799049645938,-0.805240133388223,0.208249444316015,ST
3.26666666666667,-6.62383508682251,-1.23516523838043,6.48865509033203,0.205793991684914,-0.381099998950958,-1.27287399768829,-931.500061035156,17.1000003814697,-914.100036621094,2.89924554045111,-0.787834604465841,0.191763717132359,ST
3.3,-6.31160449981689,-0.994113624095917,6.1530966758728,-0.137196004390717,-0.0990860015153885,-1.10518991947174,-941.100036621094,18.3000011444092,-906.900024414062,2.88221557873971,-0.791177350986821,0.162451088283142,ST
3.33333333333333,-6.37799835205078,-1.24234294891357,6.1112265586853,-0.815553963184357,0.182927995920181,-1.6615959405899,-945.900024414062,22.5,-906.900024414062,2.91009113144453,-0.7957347685692,0.199178329294023,ST
3.36666666666667,-6.55385255813599,-1.4881796836853,5.95989656448364,-0.945127964019775,0.663114011287689,-1.71494996547699,-931.500061035156,20.1000003814697,-916.500061035156,2.94319499953868,-0.815213486445166,0.242753989174911,ST
3.4,-6.68305158615112,-1.80639171600342,5.99279451370239,-0.945127964019775,0.685979962348938,-1.47104597091675,-945.900024414062,22.5,-911.700012207031,2.97964606745598,-0.818251652488067,0.291044067847177,ST
3.43333333333333,-7.11969566345215,-1.88175773620605,6.85232591629028,-0.739333987236023,0.92988395690918,-1.37195992469788,-929.100036621094,15.3000001907349,-918.900024414062,2.9693810609419,-0.791472910439897,0.274555373900286,ST
3.46666666666667,-6.5975170135498,-2.03607869148254,6.34569883346558,-0.823175966739655,0.160062000155449,-1.50153398513794,-926.700012207031,21.3000011444092,-930.900024414062,2.99520611612865,-0.781454683656937,0.309143920448459,ST
3.5,-6.64776086807251,-2.56005191802979,6.15249872207642,-0.457319974899292,-0.0076219998300075,-1.73781597614288,-945.900024414062,18.3000011444092,-911.700012207031,3.05173208861604,-0.78309250280388,0.385880678520102,ST
3.53333333333333,-6.60888147354126,-2.80947756767273,5.8223237991333,-0.266770005226135,0.0457319989800453,-2.05031800270081,-931.500061035156,21.9000015258789,-909.300048828125,3.09636960948745,-0.793515851935403,0.444137136576474,ST
3.56666666666667,-7.13524770736694,-3.16955971717834,6.20274257659912,-0.259148001670837,0.952749967575073,-2.01982998847961,-924.300048828125,23.1000003814697,-914.100036621094,3.12052976372125,-0.79683339709,0.472408081474846,ST
3.6,-6.19975185394287,-2.66472697257996,7.00186157226562,1.34147191047668,-1.65397393703461,-0.388722002506256,-945.900024414062,24.3000011444092,-904.500061035156,3.05159460829443,-0.688370656311476,0.360983990025567,ST
3.63333333333333,-5.80856657028198,-2.0671820640564,6.6513500213623,1.34147191047668,-2.22562384605408,-0.106707997620106,-938.700012207031,21.9000015258789,-914.100036621094,3.01776080775804,-0.691079230188181,0.306060246814493,ST
3.66666666666667,-5.19188117980957,-2.07675242424011,5.87854909896851,0.92988395690918,-1.47866797447205,0.640248000621796,-943.500061035156,16.5,-916.500061035156,3.03398418989852,-0.692200546504396,0.332579338155279,ST
3.7,-5.57349634170532,-2.155109167099,5.87914705276489,0.0990860015153885,-0.297257989645004,0.899396002292633,-950.700012207031,20.1000003814697,-921.300048828125,3.04170148615554,-0.722620917903774,0.347356631548748,ST
3.73333333333333,-6.67647171020508,-2.03847122192383,7.13106060028076,-0.0304879993200302,1.02134799957275,1.29574000835419,-926.700012207031,26.1000003814697,-923.700012207031,2.99921536541272,-0.73374465267695,0.286570777834009,ST
3.76666666666667,-6.36483955383301,-2.77179455757141,6.72193050384521,-0.0076219998300075,0.907018005847931,1.17378795146942,-929.100036621094,20.1000003814697,-926.100036621094,3.05887113049444,-0.722913014039828,0.378986290782169,ST
3.8,-7.24111890792847,-2.36146855354309,7.09218120574951,-0.144817993044853,1.06708002090454,0.685979962348938,-943.500061035156,17.1000003814697,-916.500061035156,3.02432360116886,-0.765204203691975,0.329313750715377,ST
3.83333333333333,-7.07363891601562,-1.92123520374298,6.95759916305542,0.541162014007568,0.6250039935112,1.53964400291443,-924.300048828125,20.7000007629395,-918.900024414062,2.98480154881489,-0.775612672642121,0.274827424501532,ST
3.86666666666667,-6.51437520980835,-1.71188521385193,5.87137126922607,0.586893975734711,0.0838419944047928,2.22562384605408,-933.900024414062,12.9000005722046,-914.100036621094,2.98146458721217,-0.81799001959786,0.278726465754259,ST
3.9,-6.35227823257446,-1.84826183319092,5.90546560287476,0.480185985565186,0.0533539988100529,1.94360995292664,-945.900024414062,23.7000007629395,-916.500061035156,2.99178569346425,-0.801577001825667,0.297010433955369,ST
3.93333333333333,-6.45635509490967,-2.4595639705658,5.80019235610962,0.632625997066498,0.396344006061554,1.6768399477005,-917.100036621094,19.5,-921.300048828125,3.05329529832936,-0.799994583307195,0.384900879012005,ST
3.96666666666667,-6.83737230300903,-2.78076672554016,5.95810222625732,0.495429992675781,1.07470202445984,0.381099998950958,-933.900024414062,18.9000015258789,-914.100036621094,3.08625950051616,-0.806091992825648,0.429054468377639,ST
4.0,-6.4994215965271,-3.12230634689331,5.74037790298462,0.480185985565186,0.952749967575073,-0.640248000621796,-919.500061035156,21.3000011444092,-914.100036621094,3.13273829377905,-0.786860884517163,0.489855775469905,ST
4.03333333333333,-7.13106060028076,-3.04275321960449,6.47370147705078,0.144817993044853,0.800309956073761,-1.50915598869324,-929.100036621094,23.1000003814697,-914.100036621094,3.10728409667846,-0.784431123873254,0.448526524348292,ST
4.06666666666667,-7.72800731658936,-2.912358045578,7.02758169174194,1.40244793891907,-0.510673999786377,-0.670735955238342,-919.500061035156,12.9000005722046,-911.700012207031,3.0755543528895,-0.791140226160539,0.398402226538832,ST
4.1,-7.51447010040283,-2.46853613853455,6.65852737426758,1.72257196903229,-1.35671591758728,-0.144817993044853,-929.100036621094,14.7000007629395,-921.300048828125,3.04929712497638,-0.808679236868416,0.357856705994761,ST
4.13333333333333,-6.72133255004883,-2.30225229263306,6.1530966758728,1.41006994247437,-1.82165801525116,0.419209986925125,-924.300048828125,14.1000003814697,-916.500061035156,3.04759529472979,-0.796052673240653,0.354295543450944,ST
4.16666666666667,-6.67467737197876,-2.00557327270508,6.23444414138794,0.46494197845459,-1.64635193347931,0.259148001670837,-941.100036621094,18.3000011444092,-899.700012207031,3.01841979436066,-0.7927969299035,0.31431967725507,ST
4.2,-7.19745445251465,-1.39307498931885,6.84155941009521,0.83841997385025,-1.2576299905777,1.07470202445984,-926.700012207031,18.3000011444092,-911.700012207031,2.94334279313212,-0.79855066780524,0.210743354653983,ST
4.23333333333333,-6.67766809463501,-1.69513714313507,6.30681943893433,1.34909391403198,-1.265251994133,1.74543797969818,-933.900024414062,12.9000005722046,-923.700012207031,2.97052726523348,-0.79569471134601,0.250454074755306,ST
4.26666666666667,-6.70757532119751,-1.60003244876862,6.32177305221558,0.487807989120483,-1.33385002613068,1.08994603157043,-931.500061035156,17.1000003814697,-914.100036621094,2.96491846215354,-0.79746714591919,0.245251391675894,ST
4.3,-7.2243709564209,-1.3218959569931,6.76260423660278,0.121951997280121,-1.52439999580383,1.08994603157043,-943.500061035156,9.90000057220459,-923.700012207031,2.92829849372278,-0.805654040399531,0.197826235783947,ST
4.33333333333333,-6.59632062911987,-1.13647162914276,6.16745233535767,0.0609759986400604,-2.080806016922,1.74543797969818,-931.500061035156,17.7000007629395,-923.700012207031,2.91204198960986,-0.807380092571272,0.180941303098991,ST
4.36666666666667,-6.66032218933105,-1.15022897720337,6.17223739624023,-0.335367977619171,-1.89025592803955,2.21800184249878,-945.900024414062,17.7000007629395,-911.700012207031,2.90585817478773,-0.811680529068822,0.18028499895327,ST
4.4,-6.82301664352417,-1.08802211284637,6.37919473648071,-0.891773998737335,-1.34909391403198,2.31708788871765,-953.100036621094,23.1000003814697,-902.100036621094,2.88876885020273,-0.810357913394856,0.167307042347904,ST
4.43333333333333,-6.50001955032349,-1.30754053592682,6.20334053039551,-1.28049600124359,-0.868907988071442,2.0579400062561,-945.900024414062,10.5,-921.300048828125,2.90593186242676,-0.798938954176924,0.200864087627896,ST
4.46666666666667,-6.80866146087646,-1.2058562040329,6.8720645904541,-2.00458598136902,-0.800309956073761,1.00610399246216,-948.300048828125,17.1000003814697,-918.900024414062,2.88340519273054,-0.775513837818156,0.178359804460654,ST
4.5,-6.52693605422974,-1.23337078094482,6.55863761901855,-1.6844619512558,0.365855991840363,1.50153398513794,-957.900024414062,18.3000011444092,-914.100036621094,2.87567650448658,-0.775399470265576,0.186393331249706,ST
4.53333333333333,-6.63998508453369,-1.56892895698547,7.02040386199951,-2.0655620098114,1.05945801734924,1.20427596569061,-941.100036621094,19.5,-911.700012207031,2.89097536059891,-0.750656823358678,0.218184799751027,ST
4.56666666666667,-6.29724931716919,-1.82732677459717,7.33502721786499,-2.31708788871765,1.28811800479889,0.754577994346619,-943.500061035156,17.7000007629395,-923.700012207031,2.90257894366939,-0.704327553202937,0.243717591922658,ST
4.6,-6.60589075088501,-2.03308796882629,7.84524297714233,-1.81403601169586,1.44055795669556,0.663114011287689,-936.300048828125,14.1000003814697,-921.300048828125,2.9056037945199,-0.688998578634359,0.254638562638558,ST
4.63333333333333,-5.54657983779907,-2.33873891830444,6.95401000976562,-1.40244793891907,1.64635193347931,0.449698001146317,-948.300048828125,19.5,-926.100036621094,2.94232674729308,-0.655691675607259,0.317490826555687,ST
4.66666666666667,-5.55315923690796,-2.46195650100708,6.9378604888916,-1.44817996025085,1.6844619512558,-0.182927995920181,-938.700012207031,25.5000019073486,-906.900024414062,2.95564035080452,-0.649862327631575,0.340867261858843,ST
4.7,-5.571702003479,-2.40991806983948,7.21539878845215,-0.724089980125427,1.47866797447205,-0.274392008781433,-933.900024414062,21.3000011444092,-916.500061035156,2.94762480137374,-0.636539271023497,0.326729364479104,ST
4.73333333333333,-5.73738718032837,-2.87108635902405,7.2327446937561,0.198172003030777,0.449698001146317,-0.655492007732391,-933.900024414062,15.9000005722046,-911.700012207031,2.97638218547778,-0.635852561534526,0.371539279939292,ST
4.76666666666667,-6.94085121154785,-2.27174711227417,6.59691905975342,1.50153398513794,-0.335367977619171,-0.350611984729767,-929.100036621094,25.5000019073486,-916.500061035156,2.95564214110186,-0.781622244203293,0.329554490512915,ST
4.8,-7.48396492004395,-2.16767001152039,6.12498378753662,1.73781597614288,0.0609759986400604,0.228659987449646,-936.300048828125,24.3000011444092,-914.100036621094,2.96331310449552,-0.846033396503762,0.33563305505443,ST
4.83333333333333,-7.57966756820679,-1.75136256217957,5.86120319366455,1.41006994247437,1.2347639799118,1.01372599601746,-936.300048828125,16.5,-911.700012207031,2.93255507513241,-0.888796563491477,0.292551823929523,ST
4.86666666666667,-7.22018384933472,-1.48758161067963,5.57947778701782,1.265251994133,1.44817996025085,1.46342396736145,-936.300048828125,15.9000005722046,-926.100036621094,2.90901060021464,-0.897923849497742,0.261043540758801,ST
4.9,-7.22915601730347,-1.26267981529236,5.41139936447144,1.12043392658234,1.42531394958496,1.50153398513794,-931.500061035156,18.9000015258789,-914.100036621094,2.88489099999997,-0.915741645349478,0.229705587776184,ST
4.93333333333333,-7.30990505218506,-1.06708705425262,5.56631851196289,1.37958192825317,1.2347639799118,1.82165801525116,-924.300048828125,23.7000007629395,-911.700012207031,2.85298203987909,-0.914243692388461,0.188824363258256,ST
4.96666666666667,-6.58435773849487,-1.16936945915222,4.82521915435791,1.37195992469788,0.586893975734711,1.15854394435883,-926.700012207031,13.5000009536743,-911.700012207031,2.88618768294153,-0.925051514628235,0.228607125576739,ST
5.0,-7.63110780715942,-1.15621042251587,5.30253744125366,0.87652999162674,0.78506600856781,0.381099998950958,-919.500061035156,13.5000009536743,-909.300048828125,2.87680710384759,-0.95016958384085,0.214872940178453,ST
5.03333333333333,-7.90445947647095,-1.35060679912567,5.55674839019775,0.907018005847931,0.92988395690918,-0.0381099991500378,-900.300048828125,19.5,-906.900024414062,2.89523709007272,-0.946639658205595,0.234439290619752,ST
5.06666666666667,-7.8296914100647,-1.4361412525177,5.85761404037476,0.960371971130371,-0.0457319989800453,-0.922261953353882,-912.300048828125,18.3000011444092,-914.100036621094,2.90342026687947,-0.918392268955907,0.239980972109132,ST
5.1,-7.77047538757324,-1.5563679933548,5.8283052444458,0.891773998737335,-2.53812599182129,-1.95885396003723,-931.500061035156,21.3000011444092,-916.500061035156,2.92934329509998,-0.905545563296095,0.262047239740401,ST
5.13333333333333,-7.25188541412354,-1.55337727069855,6.30921220779419,0.564027965068817,-4.03203773498535,-2.37044191360474,-921.900024414062,15.3000001907349,-923.700012207031,2.920236596073,-0.842261812791972,0.245455042849178,ST
5.16666666666667,-6.37261533737183,-1.67480027675629,5.85761404037476,0.365855991840363,-5.22106981277466,-2.57623600959778,-933.900024414062,15.9000005722046,-916.500061035156,2.94512060858931,-0.803929751034874,0.275329888312323,ST
5.2,-6.41986846923828,-1.90987050533295,6.53830099105835,0.381099998950958,-4.61893177032471,-2.23324584960938,-943.500061035156,22.5,-923.700012207031,2.95355794722201,-0.754674763076107,0.283726585270615,ST
5.23333333333333,-5.59144067764282,-2.26696181297302,7.16694927215576,-0.0609759986400604,-4.80948209762573,-2.24848985671997,-950.700012207031,16.5,-918.900024414062,2.96909918993726,-0.642757850989624,0.305309603752254,ST
5.26666666666667,-6.08849716186523,-2.96559286117554,7.07483530044556,-1.49391198158264,-4.34454011917114,0.0533539988100529,-957.900024414062,9.90000057220459,-918.900024414062,3.01213148418803,-0.661795003469994,0.387169258643432,ST
5.3,-5.11232805252075,-2.34531855583191,7.73339033126831,-0.304879993200302,-3.09453201293945,-0.0762199983000755,-960.300048828125,19.5,-921.300048828125,2.96224701011122,-0.573061251905691,0.305826222176102,ST
5.33333333333333,-5.06806516647339,-2.54031324386597,8.34768295288086,-0.487807989120483,-2.41617393493652,0.724089980125427,-965.100036621094,17.1000003814697,-930.900024414062,2.95304515141413,-0.529365762038836,0.296256824532686,ST
5.36666666666667,-4.90776300430298,-2.44341397285461,8.39015102386475,-0.175305992364883,-0.907018005847931,1.44055795669556,-989.100036621094,21.9000015258789,-926.100036621094,2.93733736569454,-0.510979548441431,0.282151754126112,ST
5.4,-5.53880405426025,-2.38479614257812,9.04511833190918,-0.144817993044853,0.106707997620106,2.11891603469849,-969.900024414062,17.1000003814697,-926.100036621094,2.91999070961278,-0.533105610201601,0.258828821771178,ST
5.43333333333333,-4.28210544586182,-2.35070180892944,7.96427345275879,-0.205793991684914,0.640248000621796,2.26373386383057,-960.300048828125,23.1000003814697,-942.900024414062,2.92579171702597,-0.484181324096239,0.282726882398338,ST
5.46666666666667,-5.07464504241943,-2.2771303653717,8.12995910644531,-0.83841997385025,1.57013201713562,2.20275783538818,-957.900024414062,15.3000001907349,-928.500061035156,2.91598679525483,-0.537285133778376,0.274137127060776,ST
5.5,-6.1172080039978,-2.40931987762451,8.52114486694336,-0.67835795879364,1.94360995292664,2.46190595626831,-962.700012207031,19.5,-914.100036621094,2.91066594772942,-0.599277716438351,0.274557204839379,ST
5.53333333333333,-5.29775238037109,-2.26995253562927,7.67836141586304,-0.396344006061554,2.19513607025146,2.29422187805176,-969.900024414062,15.3000001907349,-918.900024414062,2.91190449179518,-0.59066809758235,0.284708572839454,ST
5.56666666666667,-6.16924667358398,-1.9828439950943,7.09935903549194,-0.274392008781433,2.45428395271301,2.0655620098114,-953.100036621094,21.9000015258789,-926.100036621094,2.90138230753835,-0.686940183402611,0.273040435566535,ST
5.6,-6.18360185623169,-1.77229762077332,6.48506593704224,-0.259148001670837,2.83538389205933,1.84452390670776,-955.500061035156,22.5,-930.900024414062,2.89447951350072,-0.740850482425704,0.266672791816655,ST
5.63333333333333,-6.27691221237183,-1.64190244674683,6.72193050384521,-0.457319974899292,2.59910202026367,1.45580196380615,-948.300048828125,19.5,-923.700012207031,2.87587488125645,-0.741662676315082,0.242818156703762,ST
5.66666666666667,-6.38098907470703,-1.44032824039459,6.48805665969849,0.190549999475479,0.922261953353882,1.10518991947174,-938.700012207031,14.1000003814697,-923.700012207031,2.85900873138155,-0.763648375659232,0.220267180133988,ST
5.7,-6.38936328887939,-1.46245956420898,5.88991403579712,0.525918006896973,0.297257989645004,0.777444005012512,-938.700012207031,14.7000007629395,-911.700012207031,2.87180172514998,-0.806777282733277,0.238851327515197,ST
5.73333333333333,-6.48446798324585,-1.48578715324402,5.74875211715698,0.495429992675781,0.350611984729767,0.510673999786377,-945.900024414062,17.1000003814697,-928.500061035156,2.87984400427279,-0.827046204767305,0.249559804632493,ST
5.76666666666667,-6.77636194229126,-1.65087461471558,6.1770224571228,0.327746003866196,0.137196004390717,0.266770005226135,-950.700012207031,18.3000011444092,-916.500061035156,2.88699158067151,-0.81621364746453,0.258958280632739,ST
5.8,-6.89718675613403,-1.84945809841156,6.39534473419189,0.0609759986400604,-0.670735955238342,-0.67835795879364,-950.700012207031,16.5,-918.900024414062,2.90305769895318,-0.803345270149349,0.2795827641968,ST
5.83333333333333,-6.74346399307251,-1.9188426733017,6.31758594512939,-0.0762199983000755,-1.80641400814056,-1.21951997280121,-936.300048828125,19.5,-923.700012207031,2.91505832859948,-0.793423302379738,0.294522225125304,ST
5.86666666666667,-6.74585628509521,-2.33455204963684,6.73688411712646,-0.304879993200302,-3.24697184562683,-1.87501192092896,-953.100036621094,20.1000003814697,-928.500061035156,2.94115054850723,-0.756639690229356,0.330376203707938,ST
5.9,-6.33553028106689,-2.39855337142944,6.58974123001099,-0.243903994560242,-3.82624387741089,-2.4923939704895,-943.500061035156,20.7000007629395,-916.500061035156,2.95532726752231,-0.730686144078796,0.348593453040046,ST
5.93333333333333,-6.28767871856689,-2.2591860294342,6.84754085540771,-0.46494197845459,-3.84148788452148,-2.87349390983582,-957.900024414062,22.5,-935.700012207031,2.94222699958326,-0.712103631532014,0.325349068064155,ST
5.96666666666667,-5.60998296737671,-2.31600952148438,7.07662963867188,0.198172003030777,-3.42227792739868,-2.12653803825378,-960.300048828125,26.1000003814697,-923.700012207031,2.94022461546157,-0.648751764238843,0.318292916221066,ST
6.0,-5.21102142333984,-2.43922710418701,7.21659517288208,0.480185985565186,-3.7728898525238,-1.47104597091675,-972.300048828125,23.7000007629395,-928.500061035156,2.94685133463019,-0.59308203481631,0.325307750518605,ST
6.03333333333333,-5.23016214370728,-2.73171901702881,7.53540515899658,-0.0381099991500378,-3.26983785629272,-1.63872992992401,-979.500061035156,22.5,-933.300048828125,2.95891570324111,-0.57470297910708,0.345267153777942,ST
6.06666666666667,-5.21580648422241,-2.64977335929871,7.84643936157227,-0.274392008781433,-2.31708788871765,-1.41006994247437,-974.700012207031,23.1000003814697,-930.900024414062,2.95127617402405,-0.5597591067251,0.329276733982678,ST
6.1,-4.88323926925659,-3.03258490562439,8.17900657653809,-0.0990860015153885,-0.914639949798584,-0.632625997066498,-986.700012207031,17.7000007629395,-928.500061035156,2.96378408851921,-0.514441397741554,0.35256431911366,ST
6.13333333333333,-5.04294347763062,-2.98293900489807,8.09765911102295,0.114329993724823,0.121951997280121,-0.0076219998300075,-1001.10003662109,22.5,-938.100036621094,2.96418996232739,-0.527353446253228,0.35276953044172,ST
6.16666666666667,-5.45267152786255,-3.21382212638855,8.49422836303711,0.327746003866196,2.0655620098114,1.18140995502472,-993.900024414062,15.9000005722046,-930.900024414062,2.96722551491114,-0.542451740792732,0.359656362642717,ST
6.2,-4.51717567443848,-2.924320936203,7.75851249694824,0.37347799539566,2.34757590293884,1.15854394435883,-979.500061035156,18.3000011444092,-942.900024414062,2.9670672264288,-0.508288469176652,0.359571487814313,ST
6.23333333333333,-4.18759870529175,-2.73411154747009,7.44209480285645,0.396344006061554,2.88873791694641,1.2576299905777,-979.500061035156,26.1000003814697,-930.900024414062,2.96370013823849,-0.493700718951756,0.352333952779321,ST
6.26666666666667,-4.95023107528687,-2.4715268611908,7.39843034744263,0.708845973014832,4.1311240196228,2.72105383872986,-974.700012207031,21.9000015258789,-911.700012207031,2.94293524774831,-0.57359878502872,0.319839715398076,ST
6.3,-5.65544176101685,-1.92003893852234,6.24221992492676,0.564027965068817,5.87656164169312,3.98630595207214,-929.100036621094,14.1000003814697,-918.900024414062,2.91713592733201,-0.725522566318548,0.294196913165673,ST
6.33333333333333,-6.5436840057373,-1.60661196708679,6.6094799041748,0.602137982845306,5.03814172744751,4.18447780609131,-919.500061035156,23.1000003814697,-909.300048828125,2.87596728702063,-0.770112541027999,0.240622993439951,ST
6.36666666666667,-6.95759916305542,-1.60601389408112,6.1327600479126,0.655492007732391,4.12350177764893,4.25307607650757,-936.300048828125,20.7000007629395,-918.900024414062,2.87602125225406,-0.833079863707479,0.248125473313594,ST
6.4,-7.49592781066895,-1.07187223434448,5.77387428283691,0.182927995920181,3.21648383140564,4.01679372787476,-905.100036621094,12.9000005722046,-906.900024414062,2.82326618989511,-0.902455636411151,0.186473606852732,ST
6.43333333333333,-7.56052732467651,-0.940878868103027,5.90965270996094,0.137196004390717,2.38568592071533,4.02441596984863,-905.100036621094,18.3000011444092,-914.100036621094,2.79219422656847,-0.905978031291785,0.154626053256182,ST
6.46666666666667,-7.71185731887817,-0.945664048194885,5.80617380142212,0.160062000155449,1.04421401023865,3.3460578918457,-909.900024414062,14.7000007629395,-906.900024414062,2.78626602567268,-0.920015037999089,0.154065158717049,ST
6.5,-7.21719312667847,-0.833811283111572,5.48018598556519,-0.0381099991500378,-0.289635986089706,1.90549993515015,-907.500061035156,15.3000001907349,-902.100036621094,2.77772405132493,-0.916395483518977,0.147666279613707,ST
6.53333333333333,-7.5551438331604,-0.86790543794632,5.84864187240601,0.37347799539566,-2.13416004180908,0.137196004390717,-914.700012207031,15.9000005722046,-918.900024414062,2.77626837067582,-0.903163390982267,0.145682485755209,ST
6.56666666666667,-7.94034814834595,-0.979160070419312,6.27990293502808,0.754577994346619,-2.97257995605469,-0.190549999475479,-919.500061035156,19.5,-904.500061035156,2.78232232298747,-0.892306956877112,0.151836220879287,ST
6.6,-8.18857765197754,-1.00607645511627,6.54846906661987,0.388722002506256,-3.57471799850464,-0.663114011287689,-912.300048828125,14.7000007629395,-904.500061035156,2.78354786755748,-0.885210420225672,0.151986365721054,ST
6.63333333333333,-7.34758806228638,-0.96061760187149,6.44140148162842,0.175305992364883,-3.97868394851685,-1.03659200668335,-926.700012207031,17.1000003814697,-918.900024414062,2.78249105010239,-0.844747697352898,0.149037885524054,ST
6.66666666666667,-6.6513500213623,-1.14305126667023,6.32895088195801,-0.297257989645004,-4.64179801940918,-1.95885396003723,-950.700012207031,15.9000005722046,-918.900024414062,2.80468617492342,-0.800576982157879,0.177057746428161,ST
6.7,-6.10165643692017,-1.01624488830566,6.46233654022217,-0.388722002506256,-4.984787940979,-2.43141794204712,-926.700012207031,14.1000003814697,-921.300048828125,2.79629647306899,-0.749346882091555,0.161577539164336,ST
6.73333333333333,-5.71106910705566,-1.0796480178833,6.37740039825439,-0.0152439996600151,-5.54881572723389,-2.4847719669342,-950.700012207031,9.90000057220459,-921.300048828125,2.80448863672563,-0.717949125620184,0.168953934700696,ST
6.76666666666667,-5.59084224700928,-1.16278994083405,6.66271448135376,0.129574000835419,-5.09911775588989,-2.40855193138123,-950.700012207031,20.1000003814697,-921.300048828125,2.81125976359765,-0.686231805501397,0.173956629916313,ST
6.8,-5.35517406463623,-1.52347016334534,7.07244253158569,0.137196004390717,-4.23783206939697,-2.35519790649414,-955.500061035156,18.3000011444092,-923.700012207031,2.83618543150845,-0.636902205283985,0.208619575341862,ST
6.83333333333333,-5.15001106262207,-2.02770471572876,7.97444200515747,0.282013982534409,-3.20123982429504,-2.0655620098114,-967.500061035156,16.5,-940.500061035156,2.86648190093259,-0.553148743847176,0.249727073596202,ST
6.86666666666667,-4.98851251602173,-2.08452820777893,8.19276428222656,-0.144817993044853,-1.96647596359253,-2.12653803825378,-974.700012207031,17.7000007629395,-928.500061035156,2.87073001498995,-0.532137534659194,0.250860125136549,ST
6.9,-4.88024854660034,-2.39317011833191,8.60189437866211,-0.175305992364883,-1.31098401546478,-1.94360995292664,-977.100036621094,24.9000015258789,-940.500061035156,2.88387899076406,-0.501863844953149,0.270182552031982,ST
6.93333333333333,-4.65714120864868,-2.14075374603271,8.49841499328613,-0.243903994560242,-1.33385002613068,-1.85214591026306,-981.900024414062,18.9000015258789,-928.500061035156,2.87832365751356,-0.487623789828862,0.251455748754877,ST
6.96666666666667,-4.91195011138916,-2.05581736564636,8.33871078491211,0.0762199983000755,-0.137196004390717,-0.891773998737335,-977.100036621094,17.1000003814697,-933.300048828125,2.87677141713422,-0.514691488913991,0.243643986872373,ST
7.0,-4.5931396484375,-2.06239700317383,8.03904151916504,-0.137196004390717,0.67835795879364,-0.426831990480423,-974.700012207031,22.5,-926.100036621094,2.88154637224332,-0.507554060677788,0.250822493016581,ST
7.03333333333333,-4.68764638900757,-1.95772194862366,8.17063331604004,-0.350611984729767,1.50153398513794,0.0076219998300075,-989.100036621094,18.3000011444092,-933.300048828125,2.87574792232923,-0.510938438845077,0.238107496667978,ST
7.06666666666667,-4.36225652694702,-2.02232146263123,7.63649129867554,-0.449698001146317,2.24848985671997,0.3125019967556,-969.900024414062,23.1000003814697,-930.900024414062,2.8849605471849,-0.508814536865557,0.256988377823964,ST
7.1,-4.84256553649902,-2.06598591804504,7.31289577484131,-0.792688012123108,3.85673189163208,0.434453994035721,-974.700012207031,20.7000007629395,-923.700012207031,2.89425849886333,-0.565245345895202,0.274572763601168,ST
7.13333333333333,-4.78753614425659,-2.30404663085938,7.33024215698242,-0.846041977405548,5.12198400497437,0.769822001457214,-953.100036621094,23.1000003814697,-923.700012207031,2.90989869598169,-0.566060170532158,0.30285484288935,ST
7.16666666666667,-5.51607465744019,-2.51459312438965,6.93905639648438,-0.716467976570129,5.45735168457031,0.602137982845306,-943.500061035156,17.7000007629395,-926.100036621094,2.93540486045587,-0.641316141960795,0.344744629478572,ST
7.2,-5.79720163345337,-2.29447650909424,6.45994424819946,-0.739333987236023,5.18296003341675,0.350611984729767,-948.300048828125,20.7000007629395,-923.700012207031,2.93721885847455,-0.701318601638561,0.344684651159444,ST
7.23333333333333,-6.48267364501953,-2.47930264472961,6.46293497085571,-0.564027965068817,4.72563982009888,0.487807989120483,-933.900024414062,17.7000007629395,-918.900024414062,2.95275332644355,-0.752637780825752,0.365835297732144,ST
7.26666666666667,-6.71176242828369,-2.83340334892273,6.05380487442017,-1.00610399246216,3.87197589874268,-0.266770005226135,-936.300048828125,20.7000007629395,-918.900024414062,3.00051617160956,-0.788088740339552,0.43203697093327,ST
7.3,-7.07662963867188,-3.05950140953064,6.20274257659912,-1.50915598869324,3.06404399871826,-1.02897000312805,-931.500061035156,14.1000003814697,-916.500061035156,3.02277906280172,-0.799402311135072,0.461093964223281,DLL
7.33333333333333,-7.4869556427002,-3.11931562423706,6.24580907821655,-1.71494996547699,1.05945801734924,-1.70732796192169,-938.700012207031,24.3000011444092,-911.700012207031,3.02890081857978,-0.818357236499555,0.468959825830595,DLL
7.36666666666667,-7.38646745681763,-2.96080780029297,6.37560606002808,-1.07470202445984,-0.144817993044853,-1.44817996025085,-929.100036621094,21.9000015258789,-923.700012207031,3.00978809726445,-0.809980274750361,0.442379503510776,DLL
7.4,-6.99827289581299,-2.90876936912537,6.33612871170044,-0.541162014007568,-1.75305998325348,-0.891773998737335,-929.100036621094,21.3000011444092,-906.900024414062,3.00200810575278,-0.787387709291207,0.432893963563074,DLL
7.43333333333333,-6.31040811538696,-2.7502613067627,6.0250940322876,0.0152439996600151,-3.54422998428345,-0.571649968624115,-921.900024414062,27.3000011444092,-911.700012207031,2.99586387705506,-0.758379714119881,0.427223072668026,DLL
7.46666666666667,-6.89957904815674,-2.65037155151367,6.12737655639648,0.129574000835419,-3.12502002716064,1.79117000102997,-943.500061035156,18.9000015258789,-909.300048828125,2.96755250480194,-0.797902478033048,0.402979233685072,DLL
7.5,-6.84694242477417,-2.8100757598877,6.52454376220703,-0.487807989120483,-3.28508186340332,2.69818782806396,-945.900024414062,26.1000003814697,-923.700012207031,2.95773147542473,-0.768185287390575,0.401376977308717,DLL
7.53333333333333,-6.5855541229248,-2.80050539970398,6.50360870361328,-1.35671591758728,-4.25307607650757,3.7728898525238,-941.100036621094,29.1000003814697,-921.300048828125,2.94219975848414,-0.747214296685989,0.400688718353462,DLL
7.56666666666667,-5.82710886001587,-2.7981128692627,6.35108184814453,-2.30946588516235,-4.39789390563965,4.2149658203125,-960.300048828125,21.3000011444092,-928.500061035156,2.93140211643014,-0.701459469760539,0.409311871361468,DLL
7.6,-6.22906112670898,-3.20843887329102,7.05569458007812,-3.57471799850464,-4.23783206939697,4.72563982009888,-960.300048828125,23.1000003814697,-926.100036621094,2.91978264782121,-0.677338175661577,0.422428357883217,DLL
7.63333333333333,-5.06447649002075,-3.13187670707703,6.95640277862549,-3.83386588096619,-4.00917196273804,4.76375007629395,-945.900024414062,20.7000007629395,-928.500061035156,2.89930718332556,-0.595812751479414,0.422363976733806,DLL
7.66666666666667,-5.33124828338623,-2.99191117286682,7.02160024642944,-4.10825777053833,-4.09301376342773,5.45735168457031,-960.300048828125,24.3000011444092,-933.300048828125,2.8668881413443,-0.605457799215956,0.4047718479278,DLL
7.7,-5.99339246749878,-2.68925070762634,7.21360445022583,-4.66466379165649,-3.08691000938416,7.06559371948242,-977.100036621094,31.5000019073486,-918.900024414062,2.81248684216918,-0.655057648893389,0.360462327179484,DLL
7.73333333333333,-5.95630788803101,-2.43204927444458,6.7919135093689,-8.20889377593994,-3.66618180274963,12.0427598953247,-969.900024414062,24.9000015258789,-923.700012207031,2.71086373664341,-0.690982689765176,0.340114142837287,DLL
7.76666666666667,-6.46772003173828,-2.58816456794739,6.31339883804321,-10.3887853622437,-3.95581793785095,13.6662454605103,-977.100036621094,29.1000003814697,-918.900024414062,2.6855767314589,-0.751437316231759,0.378384827136513,DLL
7.8,-6.31339883804321,-2.96738719940186,6.36783027648926,-13.4833173751831,-5.23631381988525,14.6799716949463,-977.100036621094,39.3000030517578,-914.100036621094,2.6565538479244,-0.736134641827241,0.428429337256144,DLL
7.83333333333333,-7.22257614135742,-3.75753402709961,5.72303199768066,-15.3507080078125,-5.16771602630615,16.7760219573975,-986.700012207031,38.1000022888184,-911.700012207031,2.67838904528526,-0.809315207909176,0.557683912227195,DLL
7.86666666666667,-4.77916240692139,-3.28799200057983,6.2129111289978,-13.6433801651001,-5.68601179122925,14.7561912536621,-972.300048828125,41.7000007629395,-902.100036621094,2.57831173885415,-0.629338552996207,0.496491340212369,DLL
7.9,-4.75164794921875,-3.11811923980713,6.81165218353271,-11.5244636535645,-5.25918006896973,12.1799554824829,-969.900024414062,43.5,-909.300048828125,2.49001640468254,-0.572588359479409,0.439875896071329,DLL
7.93333333333333,-5.09019660949707,-3.08342695236206,7.46661853790283,-9.6342077255249,-4.65704202651978,9.84762382507324,-962.700012207031,47.1000022888184,-899.700012207031,2.4253873756926,-0.562994119317444,0.40135744769994,DLL
7.96666666666667,-4.94724035263062,-3.09957695007324,8.06296730041504,-7.09608173370361,-4.28356409072876,5.17533779144287,-962.700012207031,50.7000007629395,-878.100036621094,2.38621216194156,-0.522853736823402,0.376515655356644,DLL
8.0,-4.71994638442993,-3.08940839767456,7.60778045654297,-4.86283588409424,-3.68142580986023,1.15092194080353,-965.100036621094,56.1000022888184,-880.500061035156,2.37970476490252,-0.517361567636753,0.389725120053264,DLL
8.03333333333333,-4.98013830184937,-3.14204502105713,7.33801794052124,-2.85062789916992,-2.97257995605469,-3.14788603782654,-981.900024414062,55.5000038146973,-878.100036621094,2.39074775091179,-0.550705858002618,0.411289593530421,DLL
8.06666666666667,-4.62543964385986,-3.25449585914612,6.73389339447021,-2.47714996337891,-3.10215401649475,-3.65855979919434,-991.500061035156,50.1000022888184,-878.100036621094,2.41243839121031,-0.5468896301092,0.450479593074932,DLL
8.1,-4.13496255874634,-3.35259127616882,6.76858568191528,-2.33233189582825,-2.78965187072754,-3.07928800582886,-989.100036621094,59.7000007629395,-870.900024414062,2.41962976470212,-0.499795663635155,0.463853188607265,DLL
8.13333333333333,-4.36764001846313,-3.6313259601593,7.12029409408569,-2.11891603469849,-2.88873791694641,-2.97257995605469,-1005.90002441406,52.5000038146973,-873.300048828125,2.42543801072927,-0.494080573668769,0.474978157613654,DLL
8.16666666666667,-5.41558647155762,-3.98542666435242,7.90445947647095,-1.87501192092896,-1.56251001358032,-2.4847719669342,-1005.90002441406,56.7000007629395,-880.500061035156,2.42521206812366,-0.538766962137576,0.472245335603705,DLL
8.2,-3.82332992553711,-4.73250722885132,7.33562517166138,-1.11281192302704,-0.518296003341675,-2.42379593849182,-996.300048828125,58.5000038146973,-868.500061035156,2.47160975953298,-0.425202496550166,0.564986130325647,DLL
8.23333333333333,-4.48726844787598,-5.02619552612305,7.21719312667847,0.0990860015153885,0.457319974899292,-2.66770005226135,-1022.70001220703,60.3000030517578,-866.100036621094,2.49496267008761,-0.463846699039109,0.604007794656264,DLL
8.26666666666667,-5.46343803405762,-5.53880405426025,7.76150321960449,1.38720393180847,1.97409796714783,-2.82776188850403,-1022.70001220703,61.5000038146973,-875.700012207031,2.51235130296492,-0.512659678510145,0.618382294417062,DLL
8.3,-4.50341844558716,-5.76550006866455,6.88103675842285,1.70732796192169,1.64635193347931,-2.58385801315308,-1008.30004882812,51.9000015258789,-870.900024414062,2.55474690188574,-0.471167003229627,0.686803368194825,DLL
8.33333333333333,-5.02619552612305,-5.35158538818359,6.59632062911987,1.57013201713562,1.34909391403198,0.175305992364883,-1017.90002441406,57.9000015258789,-868.500061035156,2.55948946592593,-0.536117190420373,0.679615495690316,DLL
8.36666666666667,-4.96458673477173,-4.98432540893555,6.70637893676758,1.94360995292664,1.57775402069092,1.85214591026306,-1010.70001220703,63.3000030517578,-873.300048828125,2.54144467233932,-0.539740392900317,0.641192600185832,DLL
8.4,-4.4561653137207,-5.01782131195068,7.26444625854492,2.17989206314087,1.16616594791412,2.75916385650635,-1005.90002441406,64.5,-875.700012207031,2.52272518160699,-0.481048374771262,0.60472444532755,DLL
8.43333333333333,-5.17154407501221,-4.07215738296509,6.89359760284424,2.58385801315308,0.846041977405548,1.97409796714783,-1015.50006103516,62.1000022888184,-882.900024414062,2.49036604886998,-0.563855966805779,0.538622934356781,DLL
8.46666666666667,-5.46104526519775,-3.76291751861572,7.13405132293701,2.86587190628052,1.98171997070312,2.69818782806396,-989.100036621094,50.7000007629395,-875.700012207031,2.46262782484729,-0.596290134136298,0.485737849384626,DLL
8.5,-5.64228248596191,-3.79103016853333,7.5790696144104,2.89635992050171,1.6920839548111,2.00458598136902,-986.700012207031,60.3000030517578,-880.500061035156,2.45121156482231,-0.592260049711962,0.461332810624645,DLL
8.53333333333333,-4.65056180953979,-3.72882318496704,6.55624532699585,2.73629784584045,0.777444005012512,1.28811800479889,-989.100036621094,60.3000030517578,-882.900024414062,2.47768804770027,-0.559616114539107,0.505415802431348,DLL
8.56666666666667,-4.90895938873291,-2.95841503143311,6.5556468963623,2.66770005226135,0.304879993200302,0.213415995240211,-989.100036621094,61.5000038146973,-892.500061035156,2.44117538950883,-0.594361524543857,0.431068728117403,DLL
8.6,-4.90178155899048,-2.39257192611694,5.63929176330566,3.37654590606689,0.396344006061554,0.87652999162674,-979.500061035156,54.3000030517578,-899.700012207031,2.4268641387815,-0.665080732853037,0.399610606995827,DLL
8.63333333333333,-5.31509828567505,-2.47930264472961,5.99040174484253,2.82013988494873,2.04269599914551,2.15702605247498,-974.700012207031,49.5000038146973,-897.300048828125,2.42174085620817,-0.687887939037123,0.387636456328872,DLL
8.66666666666667,-5.58964586257935,-2.95602250099182,6.65314435958862,1.94360995292664,2.4923939704895,1.86738991737366,-986.700012207031,48.9000015258789,-902.100036621094,2.43774098183326,-0.663870829727981,0.410328308797762,DLL
8.7,-6.81284856796265,-2.74846696853638,7.17711734771729,1.16616594791412,1.36433792114258,0.663114011287689,-969.900024414062,49.5000038146973,-892.500061035156,2.41326254662703,-0.721109409314709,0.368759570348006,DLL
8.73333333333333,-6.33493232727051,-2.96798539161682,7.25128746032715,0.815553963184357,0.701223969459534,1.03659200668335,-979.500061035156,50.1000022888184,-882.900024414062,2.42307794411863,-0.686678984073465,0.383992422358777,DLL
8.76666666666667,-5.61417007446289,-2.900395154953,6.84335374832153,0.6250039935112,-0.327746003866196,0.609759986400604,-967.500061035156,42.3000030517578,-899.700012207031,2.4308513286469,-0.651090481104852,0.397324748160139,DLL
8.8,-5.93178367614746,-2.65934371948242,6.96058988571167,0.609759986400604,-0.6250039935112,0.327746003866196,-981.900024414062,47.7000007629395,-894.900024414062,2.41261688644733,-0.668810417851347,0.367827613379528,DLL
8.83333333333333,-5.24930286407471,-2.92910623550415,6.82002592086792,0.381099998950958,-1.21189796924591,-0.388722002506256,-979.500061035156,56.1000022888184,-887.700012207031,2.43240237613101,-0.620895998615587,0.40004684609316,DLL
8.86666666666667,-5.21879720687866,-2.68625998497009,6.63579797744751,-0.121951997280121,-1.31860601902008,-1.84452390670776,-977.100036621094,47.1000022888184,-887.700012207031,2.42810694462083,-0.625811122606803,0.388243357786475,DLL
8.9,-6.05619764328003,-2.75863528251648,7.23513746261597,-0.160062000155449,-0.990859985351562,-1.60824191570282,-984.300048828125,47.7000007629395,-899.700012207031,2.41900919154516,-0.656372554858446,0.369154778548753,DLL
8.93333333333333,-5.10993528366089,-3.13965249061584,6.73449182510376,-0.0304879993200302,-0.884151995182037,-1.99696397781372,-986.700012207031,49.5000038146973,-897.300048828125,2.45781390642978,-0.607442261207507,0.42910243303632,DLL
8.96666666666667,-5.05849504470825,-4.07514810562134,6.80447435379028,0.708845973014832,0.0609759986400604,-2.21037983894348,-986.700012207031,54.9000015258789,-897.300048828125,2.53176721622104,-0.565966755261045,0.540243590173482,DLL
9.0,-6.10943222045898,-4.10505533218384,7.33502721786499,0.449698001146317,-0.442075997591019,-2.66770005226135,-991.500061035156,50.7000007629395,-892.500061035156,2.5295134926388,-0.625526741873678,0.51211078874176,DLL
9.03333333333333,-4.78634023666382,-4.58356952667236,7.10055541992188,0.708845973014832,-0.952749967575073,-2.18751406669617,-1001.10003662109,44.7000007629395,-894.900024414062,2.56310812725975,-0.527436812439392,0.56570663901192,DLL
9.06666666666667,-5.06208419799805,-4.31679773330688,7.39005661010742,1.2500079870224,-0.914639949798584,-1.97409796714783,-1001.10003662109,46.5,-902.100036621094,2.55137464536048,-0.530542272007417,0.532893383643964,DLL
9.1,-4.81744337081909,-4.44180965423584,7.36254167556763,2.03507399559021,-0.503051996231079,-0.228659987449646,-1008.30004882812,51.3000030517578,-890.100036621094,2.55687618698001,-0.512544146755036,0.538395622339462,DLL
9.13333333333333,-4.99808263778687,-4.34969568252563,7.56650876998901,1.89787793159485,0.114329993724823,0.335367977619171,-1001.10003662109,47.7000007629395,-894.900024414062,2.55033791083643,-0.5195525086672,0.520722340282704,DLL
9.16666666666667,-4.73489999771118,-3.96927666664124,7.3105034828186,1.96647596359253,0.411587983369827,0.792688012123108,-1015.50006103516,51.9000015258789,-897.300048828125,2.540228052691,-0.51887681854841,0.497162278138071,DLL
9.2,-4.12778472900391,-3.78385233879089,6.72970676422119,2.4847719669342,0.685979962348938,2.10367202758789,-991.500061035156,50.7000007629395,-906.900024414062,2.54383865114316,-0.49696054950831,0.505315012297777,DLL
9.23333333333333,-4.9574089050293,-3.3747227191925,7.16575288772583,2.63721203804016,1.16616594791412,2.4847719669342,-989.100036621094,50.1000022888184,-906.900024414062,2.51249961746321,-0.554202396201189,0.443668912465367,DLL
9.26666666666667,-4.91015577316284,-3.2568883895874,7.02818012237549,2.62959003448486,1.15092194080353,2.16464805603027,-989.100036621094,43.5,-911.700012207031,2.505597961978,-0.566462402862365,0.429877594724413,DLL
9.3,-5.15898323059082,-2.96439647674561,7.14122915267944,2.22562384605408,0.83841997385025,1.40244793891907,-1001.10003662109,45.9000015258789,-906.900024414062,2.48709645660652,-0.587690466300028,0.393700473118978,DLL
9.33333333333333,-5.17214250564575,-2.91176009178162,7.03655385971069,2.23324584960938,0.274392008781433,1.17378795146942,-996.300048828125,45.3000030517578,-911.700012207031,2.48525865621446,-0.596665014217749,0.388034468162385,DLL
9.36666666666667,-5.80677175521851,-2.53014469146729,7.07363891601562,1.95123195648193,0.754577994346619,0.945127964019775,-984.300048828125,41.7000007629395,-911.700012207031,2.46190549170977,-0.653102888184514,0.344701853616932,DLL
9.4,-5.67757320404053,-2.65754914283752,7.04612398147583,1.99696397781372,1.21189796924591,1.44055795669556,-986.700012207031,46.5,-906.900024414062,2.46936145996096,-0.649372566523639,0.354661754421381,DLL
9.43333333333333,-5.42156791687012,-2.39436626434326,7.06945180892944,2.28659987449646,0.701223969459534,0.990859985351562,-986.700012207031,44.1000022888184,-902.100036621094,2.45458200342948,-0.632568902615414,0.326070251445217,DLL
9.46666666666667,-5.34620189666748,-2.22210121154785,6.87984037399292,2.27135586738586,0.175305992364883,0.693601965904236,-991.500061035156,41.7000007629395,-909.300048828125,2.44762267118166,-0.636743605585456,0.31015306231397,DLL
9.5,-5.11950588226318,-1.99719941616058,6.71594905853271,2.10367202758789,0.129574000835419,0.0533539988100529,-984.300048828125,47.7000007629395,-909.300048828125,2.43846916605198,-0.63200603939476,0.288701264759876,DLL
9.53333333333333,-5.60400152206421,-1.59883618354797,7.70467948913574,0.907018005847931,-0.213415995240211,0.87652999162674,-986.700012207031,40.5,-926.100036621094,2.38583367061644,-0.618795982995247,0.201907317321936,DLL
9.56666666666667,-5.12369251251221,-1.65506160259247,7.53959226608276,-0.282013982534409,-0.716467976570129,1.28049600124359,-979.500061035156,44.1000022888184,-918.900024414062,2.38581275772047,-0.585449277004035,0.214875437207413,DLL
9.6,-4.33892917633057,-2.18441820144653,7.69092226028442,-1.2347639799118,-0.960371971130371,-0.442075997591019,-979.500061035156,40.5,-926.100036621094,2.41349780434821,-0.507700444089734,0.270768382232739,DLL
9.63333333333333,-4.61467313766479,-2.36924433708191,7.40800046920776,-1.12805593013763,-1.2347639799118,-1.08232402801514,-984.300048828125,43.5,-921.300048828125,2.43131947680128,-0.529518425634855,0.306509912290414,DLL
9.66666666666667,-5.19367551803589,-2.28131723403931,7.62452840805054,-0.6250039935112,-0.274392008781433,-1.49391198158264,-984.300048828125,41.7000007629395,-916.500061035156,2.42775713171721,-0.57227467482467,0.294682837109289,DLL
9.7,-5.139244556427,-2.16587567329407,8.46133041381836,0.0914639979600906,-0.304879993200302,-1.28049600124359,-993.900024414062,36.9000015258789,-916.500061035156,2.41073498596516,-0.535264780330448,0.256159532111098,DLL
9.73333333333333,-5.39883852005005,-2.41889023780823,8.1431188583374,0.221037998795509,0.25152599811554,-1.05945801734924,-986.700012207031,42.3000030517578,-909.300048828125,2.42876278409346,-0.56193237634878,0.284947737918407,DLL
9.76666666666667,-4.54887723922729,-2.68625998497009,7.41039323806763,0.480185985565186,1.2347639799118,-2.21800184249878,-1005.90002441406,42.9000015258789,-914.100036621094,2.47637821318304,-0.524233905691951,0.349280688969598,DLL
9.8,-5.08122444152832,-2.38479614257812,6.84694242477417,0.510673999786377,2.09605002403259,-2.38568592071533,-996.300048828125,38.7000007629395,-916.500061035156,2.47904000197856,-0.60129731476713,0.33936293085937,DLL
9.83333333333333,-5.85462331771851,-2.23226952552795,7.06227397918701,0.609759986400604,2.79727387428284,-1.44055795669556,-998.700012207031,40.5,-904.500061035156,2.46940885827321,-0.663832191749086,0.312181259912825,DLL
9.86666666666667,-6.07533836364746,-2.90338587760925,7.26025915145874,0.868907988071442,2.94971394538879,-0.907018005847931,-962.700012207031,38.1000022888184,-906.900024414062,2.51273745621179,-0.664827989146162,0.37284197331319,DLL
9.9,-6.31818437576294,-2.89202117919922,7.16575288772583,0.602137982845306,2.66007804870605,-1.95123195648193,-981.900024414062,35.1000022888184,-909.300048828125,2.52748649222301,-0.685255633820026,0.384642279549304,DLL
9.93333333333333,-6.70936965942383,-2.96678924560547,7.04971313476562,0.685979962348938,2.0579400062561,-1.53202199935913,-989.100036621094,38.7000007629395,-911.700012207031,2.54269797894857,-0.717717695415114,0.398435711401848,DLL
9.96666666666667,-5.82950162887573,-3.19408345222473,6.35347461700439,0.289635986089706,1.28049600124359,-1.76830399036407,-962.700012207031,41.7000007629395,-909.300048828125,2.58789042694554,-0.691312800298674,0.459884419250962,DLL
10.0,-5.92879295349121,-3.04095888137817,6.4874587059021,-0.0685980021953583,0.708845973014832,-1.92836594581604,-977.100036621094,42.3000030517578,-911.700012207031,2.58211264380109,-0.6910083178817,0.443900396439797,DLL
10.0333333333333,-5.43293237686157,-3.08103442192078,6.19975185394287,0.335367977619171,0.0533539988100529,-1.28049600124359,-977.100036621094,45.9000015258789,-902.100036621094,2.59535159913277,-0.668068714136747,0.459824775733047,DLL
10.0666666666667,-5.64407730102539,-3.06428647041321,6.77097845077515,0.815553963184357,-0.0609759986400604,-0.67835795879364,-998.700012207031,47.1000022888184,-906.900024414062,2.57928528953581,-0.651529176347805,0.429080374233198,DLL
10.1,-5.40541791915894,-3.25210332870483,6.63699436187744,0.983237981796265,-0.129574000835419,-0.945127964019775,-969.900024414062,36.9000015258789,-899.700012207031,2.59674102387398,-0.633007630463066,0.451969282997733,DLL
10.1333333333333,-5.28758382797241,-3.61278343200684,6.49643087387085,0.807931959629059,0.190549999475479,-1.69970595836639,-962.700012207031,45.3000030517578,-902.100036621094,2.63032826724403,-0.619431255493031,0.500587822835595,DLL
10.1666666666667,-6.75901556015015,-3.22638320922852,7.59761190414429,1.12805593013763,0.0685980021953583,-1.40244793891907,-981.900024414062,36.3000030517578,-926.100036621094,2.58378056332052,-0.676678643137958,0.415455608980976,DLL
10.2,-5.3121075630188,-3.65285921096802,6.67527532577515,2.00458598136902,-0.533540010452271,-0.396344006061554,-969.900024414062,43.5,-906.900024414062,2.63054679767819,-0.617847506702067,0.48683302503103,DLL
10.2333333333333,-5.44250297546387,-3.48717355728149,6.6692943572998,1.88263392448425,-0.190549999475479,-0.708845973014832,-986.700012207031,29.7000007629395,-909.300048828125,2.63119739271592,-0.624311365425367,0.480127350382995,DLL
10.2666666666667,-6.93247699737549,-3.42676115036011,7.5910325050354,1.73781597614288,-0.266770005226135,-0.388722002506256,-979.500061035156,41.7000007629395,-909.300048828125,2.60401442669711,-0.684230714827231,0.429660905979637,DLL
10.3,-5.62374019622803,-3.60261511802673,6.8182315826416,1.28049600124359,-0.899396002292633,-0.137196004390717,-986.700012207031,41.7000007629395,-916.500061035156,2.63471281737514,-0.635693480802264,0.477028652403895,DLL
10.3333333333333,-5.5417947769165,-3.23236465454102,7.13405132293701,0.716467976570129,-1.61586391925812,0.282013982534409,-984.300048828125,35.1000022888184,-909.300048828125,2.60625636458055,-0.616526484828966,0.430205204888059,DLL
10.3666666666667,-5.13804817199707,-3.06428647041321,6.93128061294556,0.739333987236023,-1.73781597614288,0.975615978240967,-984.300048828125,43.5,-918.900024414062,2.59504128063426,-0.596576725894158,0.415189960208859,DLL
10.4,-5.7266206741333,-2.70779323577881,7.36553239822388,1.21951997280121,-0.342989981174469,2.30946588516235,-979.500061035156,39.3000030517578,-911.700012207031,2.54895641753522,-0.63114666612949,0.347420882168706,DLL
10.4333333333333,-6.1207971572876,-2.50920987129211,7.62572479248047,1.76068198680878,0.221037998795509,3.04879999160767,-981.900024414062,36.9000015258789,-918.900024414062,2.52580261051481,-0.65108701823949,0.315020623000094,DLL
10.4666666666667,-5.42754936218262,-2.60012745857239,7.36074733734131,1.53202199935913,-0.0609759986400604,2.56099200248718,-986.700012207031,33.3000030517578,-902.100036621094,2.53241226818383,-0.6134449945923,0.331926706555295,DLL
10.5,-5.77686500549316,-2.27832651138306,7.40201950073242,0.701223969459534,-0.411587983369827,1.42531394958496,-979.500061035156,39.3000030517578,-923.700012207031,2.51115589336705,-0.637785867693099,0.299768337749296,DLL
10.5333333333333,-5.46343803405762,-2.1491277217865,7.41577672958374,0.564027965068817,-1.05183601379395,1.48628997802734,-989.100036621094,40.5,-916.500061035156,2.49727829183849,-0.617673885791542,0.281518446533877,DLL
10.5666666666667,-5.55196285247803,-1.94815170764923,7.3404107093811,0.891773998737335,-0.914639949798584,1.86738991737366,-979.500061035156,35.7000007629395,-916.500061035156,2.48003927679715,-0.6291936940483,0.258116967177778,DLL
10.6,-5.08720588684082,-2.00318074226379,7.52045154571533,0.922261953353882,-0.419209986925125,1.34909391403198,-969.900024414062,38.7000007629395,-926.100036621094,2.47750539336009,-0.584245189326953,0.25718722922503,DLL
10.6333333333333,-5.8103609085083,-1.87278568744659,8.08031368255615,1.18140995502472,-0.564027965068817,0.952749967575073,-991.500061035156,36.3000030517578,-916.500061035156,2.46062043690224,-0.607471781139837,0.228272161851371,DLL
10.6666666666667,-5.03935432434082,-1.54679775238037,8.29265403747559,2.14940404891968,-0.160062000155449,0.0990860015153885,-977.100036621094,38.7000007629395,-911.700012207031,2.44082020094127,-0.538570263398154,0.180733276311091,DLL
10.7,-5.23016214370728,-1.11852741241455,7.80875635147095,2.33995389938354,-0.236281991004944,0.0685980021953583,-984.300048828125,33.9000015258789,-928.500061035156,2.42463758043112,-0.578835636989335,0.143956273589272,DLL
10.7333333333333,-4.77497529983521,-1.04854464530945,7.55334949493408,1.88263392448425,0.78506600856781,0.3125019967556,-981.900024414062,38.7000007629395,-914.100036621094,2.42262294110464,-0.563293425108622,0.135711991615145,DLL
10.7666666666667,-5.25229358673096,-1.1938933134079,8.24779319763184,1.6844619512558,1.11281192302704,-0.46494197845459,-974.700012207031,29.7000007629395,-926.100036621094,2.42953698963186,-0.564065057474777,0.140772682949371,DLL
10.8,-4.79052686691284,-1.02940404415131,7.63409852981567,1.50915598869324,0.655492007732391,-1.86738991737366,-979.500061035156,29.1000003814697,-918.900024414062,2.43359024409539,-0.557865262733252,0.134357891861154,DLL
10.8333333333333,-5.09976720809937,-1.0216281414032,7.4211597442627,0.92988395690918,0.548784017562866,-3.02593398094177,-979.500061035156,35.1000022888184,-926.100036621094,2.44540591356678,-0.593621885055207,0.13826308289593,DLL
10.8666666666667,-4.85692071914673,-1.29258692264557,6.91453266143799,0.731711983680725,0.282013982534409,-3.91770792007446,-979.500061035156,28.5000019073486,-928.500061035156,2.48136028043706,-0.602502549698437,0.182354918014641,DLL
10.9,-5.25049877166748,-1.52227389812469,6.20154619216919,0.289635986089706,0.861285984516144,-4.79423809051514,-981.900024414062,30.9000015258789,-916.500061035156,2.52690833517491,-0.677130843144285,0.238271220826964,DLL
10.9333333333333,-6.91034555435181,-2.22030663490295,7.45345973968506,-0.198172003030777,1.95885396003723,-5.00765371322632,-979.500061035156,29.7000007629395,-918.900024414062,2.57212692361915,-0.721099975784744,0.29021774119759,DLL
10.9666666666667,-5.54657983779907,-3.20185923576355,7.45166492462158,-0.228659987449646,-0.518296003341675,-6.08997774124146,-986.700012207031,35.7000007629395,-909.300048828125,2.67147030324722,-0.595299257427904,0.41221389258763,DLL
11.0,-5.76669645309448,-3.64388704299927,8.29444885253906,-0.160062000155449,-1.79879200458527,-6.59302997589111,-984.300048828125,36.3000030517578,-918.900024414062,2.6881757200678,-0.563826282475735,0.419166436513426,DLL
11.0333333333333,-5.49155044555664,-3.37651705741882,8.33033752441406,1.50153398513794,-1.75305998325348,-5.4192419052124,-998.700012207031,35.1000022888184,-911.700012207031,2.68657572260584,-0.544717595897245,0.391091247399594,DLL
11.0666666666667,-4.58057880401611,-3.77308583259583,8.10244464874268,2.79727387428284,0.266770005226135,-4.1311240196228,-1005.90002441406,34.5,-928.500061035156,2.72058766002928,-0.479061528880557,0.430104307724748,DLL
11.1,-4.26775026321411,-3.90826606750488,8.37160873413086,3.71953582763672,2.46952795982361,-4.77899408340454,-986.700012207031,29.7000007629395,-926.100036621094,2.74098999921484,-0.439349634137627,0.434215583820811,DLL
11.1333333333333,-4.33474206924438,-3.70011234283447,8.1843900680542,4.76375007629395,3.21648383140564,-4.89332389831543,-979.500061035156,27.9000015258789,-926.100036621094,2.75763949358147,-0.449730078704325,0.422759759122374,DLL
11.1666666666667,-5.29535961151123,-3.12469887733459,7.58026599884033,5.05338573455811,4.48173570632935,-3.24697184562683,-998.700012207031,35.7000007629395,-928.500061035156,2.76262727439072,-0.563521781120785,0.391481469264846,DLL
11.2,-4.28868532180786,-2.74966335296631,6.87027025222778,4.26832008361816,4.50460195541382,-2.46952795982361,-998.700012207031,31.5000019073486,-928.500061035156,2.77244102594204,-0.535329749157416,0.379317560477713,DLL
11.2333333333333,-5.46104526519775,-2.35249638557434,7.11012554168701,3.17075204849243,4.03203773498535,-1.40244793891907,-986.700012207031,23.7000007629395,-921.300048828125,2.75473684311184,-0.625174552367214,0.324249009945057,DLL
11.2666666666667,-5.39764213562012,-2.31720590591431,6.81344652175903,2.47714996337891,3.75764584541321,-0.685979962348938,-984.300048828125,27.3000011444092,-921.300048828125,2.76411278945063,-0.64607932697936,0.325677514166163,DLL
11.3,-5.93178367614746,-2.11563158035278,6.99229145050049,2.00458598136902,4.45124769210815,0.0609759986400604,-960.300048828125,27.3000011444092,-916.500061035156,2.75273554116436,-0.683623544604075,0.296702188475562,DLL
11.3333333333333,-6.55385255813599,-1.89372062683105,7.00425434112549,1.86738991737366,4.32167387008667,0.952749967575073,-969.900024414062,26.1000003814697,-926.100036621094,2.73679554200223,-0.735006148203726,0.265752065826487,DLL
11.3666666666667,-6.32476377487183,-2.1210150718689,6.38876485824585,1.39482593536377,3.74240183830261,1.31098401546478,-953.100036621094,27.3000011444092,-921.300048828125,2.76971736877398,-0.757742200131567,0.310760023538741,DLL
11.4,-6.6274242401123,-1.93917953968048,6.31818437576294,0.800309956073761,3.42227792739868,1.05183601379395,-948.300048828125,26.7000007629395,-906.900024414062,2.76262426560648,-0.788943442611039,0.298105751419302,DLL
11.4333333333333,-6.73508977890015,-1.70231485366821,6.03167390823364,1.12805593013763,3.07166600227356,1.63872992992401,-933.900024414062,20.7000007629395,-911.700012207031,2.74669842992663,-0.823196891378012,0.274637864854281,DLL
11.4666666666667,-6.18479824066162,-2.20834374427795,5.59203863143921,1.36433792114258,2.60672402381897,1.59299790859222,-926.700012207031,30.3000011444092,-897.300048828125,2.81160787367162,-0.807245154664259,0.361590767996534,DLL
11.5,-6.22906112670898,-2.28191542625427,5.42934370040894,1.05183601379395,1.89787793159485,0.160062000155449,-931.500061035156,24.9000015258789,-918.900024414062,2.83786091504254,-0.815550811867203,0.392959263918865,DLL
11.5333333333333,-7.28179264068604,-2.12460374832153,5.99399089813232,1.18903195858002,0.3125019967556,-0.975615978240967,-929.100036621094,25.5000019073486,-916.500061035156,2.80856087168387,-0.848590678761228,0.346885807180355,DLL
11.5666666666667,-7.2542781829834,-2.24662494659424,5.62493658065796,1.56251001358032,-0.670735955238342,-0.922261953353882,-936.300048828125,26.7000007629395,-916.500061035156,2.83488238085858,-0.870794364737515,0.375005488928383,DLL
11.6,-6.45456075668335,-2.44461035728455,5.57469272613525,0.693601965904236,-1.31860601902008,-2.01220798492432,-926.700012207031,26.7000007629395,-916.500061035156,2.86551631547882,-0.818162155462163,0.410246912181719,DLL
11.6333333333333,-7.39543962478638,-2.57859444618225,6.97973012924194,0.358233988285065,-2.98020195960999,-2.23324584960938,-933.900024414062,20.1000003814697,-914.100036621094,2.83298937805513,-0.780685944782374,0.360796010938372,DLL
11.6666666666667,-6.67348098754883,-2.77957034111023,6.90077543258667,0.487807989120483,-4.42838191986084,-2.29422187805176,-948.300048828125,23.1000003814697,-921.300048828125,2.84821169592254,-0.7303932558968,0.38000774785895,DLL
11.7,-6.38816690444946,-2.45418071746826,6.80746507644653,0.381099998950958,-5.21344804763794,-2.60672402381897,-945.900024414062,22.5,-909.300048828125,2.8309140590298,-0.715480425891095,0.350863268896907,DLL
11.7333333333333,-5.48138236999512,-2.35010361671448,7.23752975463867,1.27287399768829,-4.80948209762573,-1.78354799747467,-955.500061035156,23.7000007629395,-909.300048828125,2.81233198568023,-0.628867298993691,0.316980539652638,DLL
11.7666666666667,-5.74935007095337,-2.22868061065674,7.44089841842651,1.84452390670776,-4.78661584854126,-1.20427596569061,-969.900024414062,26.1000003814697,-923.700012207031,2.79981807241865,-0.628638057671151,0.291493101724462,DLL
11.8,-5.58246850967407,-2.44341397285461,7.75073671340942,1.73019397258759,-4.12350177764893,-0.983237981796265,-967.500061035156,27.9000015258789,-916.500061035156,2.80732232013792,-0.59913398097509,0.300643399901238,DLL
11.8333333333333,-5.11472034454346,-2.87587141990662,8.65333461761475,0.967993974685669,-3.86435389518738,-1.37195992469788,-972.300048828125,30.9000015258789,-930.900024414062,2.81769775668237,-0.516904567787707,0.316932957961867,DLL
11.8666666666667,-4.52375507354736,-2.75923347473145,8.59292221069336,0.739333987236023,-3.26983785629272,-0.830797970294952,-972.300048828125,27.9000015258789,-928.500061035156,2.81498774706246,-0.466618937580872,0.310261494517509,DLL
11.9,-3.77727293968201,-2.57919239997864,8.78851509094238,0.846041977405548,0.182927995920181,1.6844619512558,-977.100036621094,29.1000003814697,-930.900024414062,2.79703471486363,-0.392496406070069,0.282923169297015,DLL
11.9333333333333,-4.09488677978516,-2.47092866897583,8.33033752441406,1.13567793369293,2.08842802047729,1.92074394226074,-986.700012207031,21.3000011444092,-928.500061035156,2.79588893171936,-0.437773781535122,0.2850288503549,DLL
11.9666666666667,-3.70669198036194,-2.42786240577698,7.52762937545776,1.17378795146942,4.10825777053833,1.15854394435883,-974.700012207031,23.1000003814697,-930.900024414062,2.80682641967194,-0.444647574230385,0.306678503067475,DLL
12.0,-4.64936542510986,-2.37582397460938,7.65981912612915,1.31098401546478,4.81710386276245,1.2500079870224,-965.100036621094,24.3000011444092,-928.500061035156,2.80600261259273,-0.52198635199992,0.299814935447836,DLL
12.0333333333333,-4.64816904067993,-2.37881469726562,7.06825542449951,1.42531394958496,4.64179801940918,1.44055795669556,-957.900024414062,17.7000007629395,-926.100036621094,2.81857535601615,-0.560761568016169,0.319588069567572,DLL
12.0666666666667,-5.64527320861816,-2.2412416934967,6.81105422973633,0.945127964019775,4.85521411895752,1.33385002613068,-950.700012207031,23.1000003814697,-928.500061035156,2.81922618263779,-0.660194714516188,0.317019515286071,DLL
12.1,-7.15977144241333,-2.2831118106842,7.4570484161377,0.708845973014832,4.78661584854126,2.30946588516235,-948.300048828125,21.3000011444092,-928.500061035156,2.80648750940152,-0.739516761180357,0.297853849786301,DLL
12.1333333333333,-7.41278600692749,-2.19099760055542,7.1466121673584,0.716467976570129,4.09301376342773,2.59910202026367,-936.300048828125,17.1000003814697,-916.500061035156,2.80292939998565,-0.782648792084892,0.294541372395785,DLL
12.1666666666667,-6.97673940658569,-1.9469553232193,6.70996809005737,0.769822001457214,3.74240183830261,2.61434602737427,-941.100036621094,16.5,-921.300048828125,2.79172216529271,-0.790941422167364,0.280656650054624,DLL
12.2,-6.7560248374939,-1.17535090446472,5.95092439651489,1.27287399768829,1.89787793159485,2.56099200248718,-931.500061035156,17.1000003814697,-918.900024414062,2.72197587239194,-0.843055297963917,0.189023060835803,DLL
12.2333333333333,-6.21949052810669,-0.814670741558075,5.18649768829346,1.41769194602966,1.37195992469788,2.45428395271301,-921.900024414062,14.1000003814697,-923.700012207031,2.69473918792072,-0.868787081364685,0.154349767701012,DLL
12.2666666666667,-7.15797710418701,-0.823044717311859,5.84385681152344,1.52439999580383,1.13567793369293,2.09605002403259,-921.900024414062,15.3000001907349,-909.300048828125,2.68056210029676,-0.881766033662252,0.136085521080181,DLL
12.3,-7.57607889175415,-1.13228464126587,5.96946668624878,1.40244793891907,0.800309956073761,1.49391198158264,-917.100036621094,26.1000003814697,-911.700012207031,2.71207047458181,-0.894755564032795,0.175792966962147,DLL
12.3333333333333,-7.45046901702881,-1.09041464328766,6.44379425048828,0.952749967575073,0.0152439996600151,0.586893975734711,-914.700012207031,14.7000007629395,-911.700012207031,2.70578043764702,-0.856850072602091,0.166244520682044,DLL
12.3666666666667,-6.97793579101562,-1.18671560287476,6.89957904815674,0.731711983680725,-2.14178204536438,-0.556405961513519,-924.300048828125,18.9000015258789,-906.900024414062,2.70972980190034,-0.790305651845329,0.16902057871342,DLL
12.4,-6.92529916763306,-1.45468366146088,7.01621723175049,0.617381989955902,-3.20123982429504,-1.47866797447205,-917.100036621094,18.3000011444092,-918.900024414062,2.73449039409434,-0.766195373101098,0.200014104334778,DLL
12.4333333333333,-6.7978949546814,-1.05871307849884,6.76738977432251,0.198172003030777,-3.01831197738647,-1.98171997070312,-933.900024414062,11.7000007629395,-918.900024414062,2.7114884091551,-0.774931264439793,0.16165403412691,DLL
12.4666666666667,-6.11302137374878,-1.12331247329712,7.16156578063965,0.602137982845306,-2.03507399559021,-1.05945801734924,-921.900024414062,17.1000003814697,-911.700012207031,2.7106639024093,-0.707340796512431,0.156420845259816,DLL
12.5,-5.60340356826782,-1.38589727878571,6.69979953765869,0.556405961513519,-1.6844619512558,-1.04421401023865,-938.700012207031,15.9000005722046,-928.500061035156,2.74114382283292,-0.685476597757202,0.199360808381836,DLL
12.5333333333333,-5.86957693099976,-1.53782558441162,7.17233228683472,0.0762199983000755,-1.16616594791412,-1.02134799957275,-936.300048828125,12.9000005722046,-926.100036621094,2.74994383663502,-0.674248034054051,0.210427044843866,DLL
12.5666666666667,-5.46882104873657,-1.36316788196564,7.0927791595459,-0.0990860015153885,-1.28811800479889,-0.78506600856781,-938.700012207031,13.5000009536743,-933.300048828125,2.74035865354249,-0.649210154969998,0.19316324282106,DLL
12.6,-5.90127849578857,-1.61378967761993,7.09636831283569,-0.190549999475479,0.213415995240211,-0.0076219998300075,-941.100036621094,24.9000015258789,-928.500061035156,2.75651699739663,-0.677346250195505,0.219750718919981,DLL
12.6333333333333,-6.4037184715271,-1.86022460460663,7.54377937316895,-0.381099998950958,1.88263392448425,0.350611984729767,-931.500061035156,21.3000011444092,-899.700012207031,2.76873743651913,-0.690889776214784,0.23991056927181,DLL
12.6666666666667,-6.8278021812439,-1.95772194862366,8.02827453613281,-0.365855991840363,2.78202986717224,0.442075997591019,-941.100036621094,15.3000001907349,-921.300048828125,2.76871177978331,-0.694877074903012,0.240127359881461,DLL
12.7,-6.4814772605896,-2.02710652351379,7.41338396072388,-0.297257989645004,2.9116039276123,0.304879993200302,-926.700012207031,14.7000007629395,-914.100036621094,2.78469950422456,-0.704226255104836,0.264320832160213,DLL
12.7333333333333,-6.49164581298828,-1.88833737373352,7.03057241439819,-0.320124000310898,3.12502002716064,0.282013982534409,-909.900024414062,20.1000003814697,-906.900024414062,2.78497453173488,-0.729657690116503,0.263871509131241,DLL
12.7666666666667,-6.00595378875732,-1.56593835353851,6.30083799362183,-0.0685980021953583,3.21648383140564,0.495429992675781,-905.100036621094,20.1000003814697,-909.300048828125,2.77410344386949,-0.749121754937164,0.246900638331215,DLL
12.8,-5.85881042480469,-1.46186137199402,5.79959440231323,0.213415995240211,3.53660798072815,0.922261953353882,-902.700012207031,15.9000005722046,-902.100036621094,2.77422104409502,-0.777091508334281,0.24654973872397,DLL
12.8333333333333,-6.63101291656494,-2.21851229667664,5.56871128082275,0.87652999162674,4.03203773498535,0.495429992675781,-895.500061035156,15.3000001907349,-902.100036621094,2.87759120812573,-0.842378159427332,0.37893194642485,DLL
12.8666666666667,-6.78054857254028,-2.21791410446167,4.68824481964111,-0.236281991004944,2.11891603469849,-2.74391984939575,-895.500061035156,19.5,-906.900024414062,2.94564240068249,-0.919054257390502,0.449994647896062,DLL
12.9,-7.07722759246826,-2.40812349319458,4.6409912109375,-0.121951997280121,0.685979962348938,-2.62196803092957,-888.300048828125,17.1000003814697,-906.900024414062,2.97411925485454,-0.93155689427979,0.480239274158252,DLL
12.9333333333333,-7.78722333908081,-2.57500553131104,4.76181602478027,0.403965979814529,-0.144817993044853,-1.95123195648193,-888.300048828125,16.5,-902.100036621094,2.99152192538043,-0.958012827050655,0.496827588865846,DLL
12.9666666666667,-8.24958801269531,-3.05471611022949,5.35457611083984,0.190549999475479,-1.05945801734924,-1.78354799747467,-893.100036621094,24.9000015258789,-904.500061035156,3.01041331957513,-0.930259607142987,0.517443418219425,DLL
13.0,-8.62342739105225,-3.05531430244446,6.38338184356689,-0.144817993044853,-2.35519790649414,-1.46342396736145,-893.100036621094,23.1000003814697,-882.900024414062,2.96079299506708,-0.884422563004785,0.45438808507635,DLL
13.0333333333333,-8.22207355499268,-3.14264321327209,6.57000255584717,-0.457319974899292,-4.79423809051514,-0.701223969459534,-897.900024414062,11.1000003814697,-906.900024414062,2.95027100761213,-0.844114568888661,0.445450888144649,DLL
13.0666666666667,-7.82430839538574,-2.99250936508179,6.65075159072876,-0.556405961513519,-5.60979175567627,-0.137196004390717,-905.100036621094,14.7000007629395,-914.100036621094,2.92825562454511,-0.815934678441144,0.423087426393458,DLL
13.1,-6.74226760864258,-2.8680956363678,6.21231269836426,-0.266770005226135,-5.7850980758667,0.350611984729767,-912.300048828125,23.7000007629395,-916.500061035156,2.9254634328788,-0.775421357297932,0.427608803908929,DLL
13.1333333333333,-6.02090692520142,-2.3877866268158,6.29665088653564,-0.243903994560242,-5.05338573455811,1.11281192302704,-931.500061035156,16.5,-916.500061035156,2.877577931132,-0.729390421290839,0.367347173986213,DLL
13.1666666666667,-6.19735956192017,-2.26875638961792,6.73030471801758,0.221037998795509,-3.91008591651917,2.33233189582825,-933.900024414062,20.7000007629395,-921.300048828125,2.84298908649731,-0.714695424615283,0.325860923027006,DLL
13.2,-5.3001446723938,-2.23167133331299,6.5855541229248,0.525918006896973,-3.01831197738647,3.16313004493713,-917.100036621094,12.3000001907349,-926.100036621094,2.83210938574016,-0.657045441097809,0.321132370104064,DLL
13.2333333333333,-5.69850826263428,-2.27354145050049,6.80507278442383,0.236281991004944,-2.10367202758789,3.20886182785034,-931.500061035156,16.5,-914.100036621094,2.82187565038469,-0.667807644181252,0.317500254856545,DLL
13.2666666666667,-5.95630788803101,-2.25200819969177,7.40979528427124,0.396344006061554,-0.609759986400604,3.26221585273743,-945.900024414062,20.1000003814697,-923.700012207031,2.80039005901751,-0.65784623799137,0.29359586732431,DLL
13.3,-5.96827077865601,-2.29208397865295,7.62572479248047,0.548784017562866,-0.274392008781433,2.98782396316528,-924.300048828125,16.5,-921.300048828125,2.7912244612221,-0.646065481453949,0.288009275280107,DLL
13.3333333333333,-5.99458885192871,-2.22748446464539,7.47559070587158,0.655492007732391,-0.205793991684914,1.98934197425842,-941.100036621094,12.3000001907349,-926.100036621094,2.78659970532959,-0.654646104665983,0.286093395103817,DLL
13.3666666666667,-5.85641765594482,-1.93200182914734,7.07304048538208,0.754577994346619,-0.221037998795509,1.55488801002502,-931.500061035156,21.9000015258789,-916.500061035156,2.77162534423942,-0.672215542218619,0.265665065257376,DLL
13.4,-5.58785152435303,-1.69992232322693,6.52992677688599,0.922261953353882,0.198172003030777,1.30336201190948,-926.700012207031,22.5,-914.100036621094,2.76244956652441,-0.69038609502042,0.252883127449605,DLL
13.4333333333333,-6.52155303955078,-1.32608294487,6.51796388626099,0.899396002292633,1.36433792114258,1.50915598869324,-933.900024414062,21.3000011444092,-921.300048828125,2.72360561718332,-0.77799659883663,0.197349985907606,DLL
13.4666666666667,-7.71484804153442,-0.760837852954865,6.70757532119751,0.640248000621796,1.21951997280121,2.95733594894409,-924.300048828125,11.7000007629395,-916.500061035156,2.64875133961964,-0.854429959465772,0.106509500884019,DLL
13.5,-6.55863761901855,-0.736313998699188,6.32954883575439,0.426831990480423,0.602137982845306,3.04879999160767,-926.700012207031,12.9000005722046,-916.500061035156,2.64591714738366,-0.808600917779246,0.109240074581759,DLL
13.5333333333333,-7.2088189125061,-0.65735912322998,6.74226760864258,0.160062000155449,-0.175305992364883,2.17227005958557,-919.500061035156,17.1000003814697,-923.700012207031,2.6316717757819,-0.815467538970007,0.0951002825762054,DLL
13.5666666666667,-6.90855121612549,-0.699229121208191,6.61366701126099,0.25152599811554,-0.945127964019775,1.31860601902008,-919.500061035156,10.5,-918.900024414062,2.6339461892401,-0.804701588857949,0.101369761409753,DLL
13.6,-6.89838266372681,-0.633433401584625,6.75781917572021,-0.160062000155449,-2.38568592071533,-0.167683988809586,-924.300048828125,13.5000009536743,-921.300048828125,2.62868682816346,-0.791408775715281,0.0946673006252415,DLL
13.6333333333333,-6.5377025604248,-0.651975810527802,6.8242130279541,-0.106707997620106,-3.33081388473511,-0.861285984516144,-924.300048828125,14.1000003814697,-918.900024414062,2.63059805161856,-0.760572892949184,0.0961146107407406,DLL
13.6666666666667,-6.31638956069946,-0.742893576622009,6.91094398498535,-0.0609759986400604,-4.25307607650757,-1.50153398513794,-936.300048828125,12.3000001907349,-918.900024414062,2.64022201607087,-0.734100084895382,0.107157838599227,DLL
13.7,-5.99817752838135,-0.825437307357788,7.40800046920776,-1.15854394435883,-3.04117798805237,-2.01982998847961,-953.100036621094,11.7000007629395,-926.100036621094,2.64907323645823,-0.671992983021448,0.115302240092726,DLL
13.7333333333333,-5.67996549606323,-1.287801861763,7.50908708572388,-0.701223969459534,-2.5076379776001,-1.92074394226074,-948.300048828125,14.1000003814697,-918.900024414062,2.68231945421753,-0.640414471847913,0.165943225081576,DLL
13.7666666666667,-6.04064607620239,-1.66523003578186,7.87634658813477,-0.388722002506256,-1.42531394958496,-2.11129403114319,-957.900024414062,23.1000003814697,-940.500061035156,2.70928887235586,-0.640599585810837,0.205201561177231,DLL
13.8,-5.6883397102356,-1.69453907012939,8.17900657653809,0.106707997620106,-1.02134799957275,-1.99696397781372,-962.700012207031,19.5,-928.500061035156,2.71407422940041,-0.601519088491387,0.206093131008122,DLL
13.8333333333333,-5.7242283821106,-1.84766364097595,8.0414342880249,0.419209986925125,-0.823175966739655,-1.73781597614288,-948.300048828125,21.9000015258789,-928.500061035156,2.72858321171489,-0.604079292145215,0.224111992369624,DLL
13.8666666666667,-5.23614358901978,-1.97626435756683,7.47858142852783,0.129574000835419,-0.266770005226135,-2.10367202758789,-957.900024414062,18.3000011444092,-930.900024414062,2.75125387255586,-0.595148329728982,0.255577280732979,DLL
13.9,-5.61775875091553,-1.76571810245514,7.70647382736206,-0.221037998795509,1.2423859834671,-1.99696397781372,-965.100036621094,24.3000011444092,-923.700012207031,2.7428112169428,-0.615869451731059,0.232088475560294,DLL
13.9333333333333,-5.3180890083313,-1.89730954170227,7.53062009811401,-0.160062000155449,1.98934197425842,-1.35671591758728,-960.300048828125,11.1000003814697,-933.300048828125,2.75530140807478,-0.604958295585845,0.246967786825858,DLL
13.9666666666667,-5.16616106033325,-2.00676965713501,7.28358697891235,-0.518296003341675,2.75916385650635,-1.35671591758728,-955.500061035156,11.7000007629395,-928.500061035156,2.77164585734196,-0.603976465145833,0.268804327664132,DLL
14.0,-6.09567499160767,-2.10187435150146,7.57129383087158,0.205793991684914,3.40703392028809,-0.480185985565186,-938.700012207031,20.7000007629395,-911.700012207031,2.78117299787625,-0.665140622594074,0.272301694019964,DLL
14.0333333333333,-5.4102029800415,-2.24423241615295,6.92709398269653,0.777444005012512,3.23172783851624,-0.388722002506256,-941.100036621094,23.7000007629395,-923.700012207031,2.80743742737447,-0.647083596873831,0.308250113381034,DLL
14.0666666666667,-5.54897212982178,-2.22568988800049,6.90556049346924,0.990859985351562,2.97257995605469,-1.28049600124359,-929.100036621094,17.7000007629395,-916.500061035156,2.81693780361362,-0.655994661432884,0.312368495645136,DLL
14.1,-6.50241231918335,-2.22389554977417,6.70338821411133,1.2576299905777,2.28659987449646,-1.98171997070312,-931.500061035156,21.9000015258789,-914.100036621094,2.8309752643858,-0.736273265932932,0.320935564777482,DLL
14.1333333333333,-6.02748680114746,-2.33395385742188,5.58426284790039,0.868907988071442,1.96647596359253,-2.44666194915771,-921.900024414062,20.7000007629395,-906.900024414062,2.88693597841136,-0.779462876744249,0.389975108496424,DLL
14.1666666666667,-6.91871976852417,-2.77777600288391,5.81514596939087,0.175305992364883,1.87501192092896,-2.58385801315308,-921.900024414062,24.9000015258789,-930.900024414062,2.93311552969891,-0.817448245278215,0.444288148225374,DLL
14.2,-6.69979953765869,-3.44410729408264,5.58904790878296,-0.152439996600151,1.12805593013763,-2.68294382095337,-912.300048828125,25.5000019073486,-914.100036621094,3.00974838956835,-0.798350395993022,0.542694031588791,DLL
14.2333333333333,-7.16694927215576,-3.40223717689514,5.69731187820435,-0.647870004177094,-0.0381099991500378,-3.01068997383118,-921.900024414062,14.1000003814697,-916.500061035156,3.01444841014092,-0.818018033053837,0.544034842502596,DLL
14.2666666666667,-6.80148363113403,-3.49913644790649,6.35885810852051,0.663114011287689,-1.81403601169586,-0.739333987236023,-924.300048828125,27.3000011444092,-918.900024414062,2.98615751885654,-0.749854026914273,0.50171438633889,DLL
14.3,-6.91333627700806,-3.56852102279663,6.94743061065674,1.02897000312805,-2.72867584228516,0.190549999475479,-931.500061035156,20.7000007629395,-914.100036621094,2.96686808946504,-0.72446431061935,0.474641073213851,DLL
14.3333333333333,-6.69202375411987,-3.31969356536865,6.76858568191528,0.853663980960846,-2.74391984939575,0.495429992675781,-933.900024414062,20.1000003814697,-906.900024414062,2.95189451910381,-0.722387479760308,0.455007284100847,DLL
14.3666666666667,-6.43841075897217,-3.07385683059692,6.79610061645508,0.579271972179413,-2.14940404891968,1.38720393180847,-953.100036621094,26.1000003814697,-911.700012207031,2.92865098757745,-0.711439332312884,0.425122139729268,DLL
14.4,-5.76370573043823,-3.04514575004578,7.11969566345215,0.442075997591019,-1.6844619512558,2.27135586738586,-948.300048828125,20.7000007629395,-914.100036621094,2.90843471565025,-0.646543757825353,0.402327342596986,DLL
14.4333333333333,-5.56153345108032,-2.81246829032898,7.11790132522583,0.304879993200302,-2.24086785316467,2.59148001670837,-926.700012207031,23.1000003814697,-923.700012207031,2.8844827688865,-0.628623517559219,0.374891752060483,DLL
14.4666666666667,-5.38209056854248,-2.60012745857239,6.55744123458862,0.37347799539566,-1.6692179441452,2.94971394538879,-948.300048828125,24.9000015258789,-911.700012207031,2.87609610679147,-0.647909843269815,0.372768379526192,DLL
14.5,-5.82531452178955,-2.63302540779114,6.94204711914062,0.175305992364883,0.335367977619171,2.86587190628052,-945.900024414062,23.1000003814697,-928.500061035156,2.86317472705573,-0.664948150550455,0.36064935753442,DLL
14.5333333333333,-5.63510513305664,-2.73171901702881,7.15319156646729,0.213415995240211,0.907018005847931,2.9116039276123,-936.300048828125,21.3000011444092,-928.500061035156,2.85838239400597,-0.641395672085249,0.361203230867523,DLL
14.5666666666667,-5.66082525253296,-2.64857697486877,7.36493444442749,0.503051996231079,0.670735955238342,2.45428395271301,-936.300048828125,19.5,-921.300048828125,2.84439943350324,-0.630450738969929,0.344295627688729,DLL
14.6,-5.71645259857178,-2.41051626205444,7.1645565032959,1.18903195858002,0.594515979290009,2.35519790649414,-953.100036621094,21.9000015258789,-916.500061035156,2.82890171893152,-0.647369139066576,0.322895290317024,DLL
14.6333333333333,-5.86838054656982,-1.84347665309906,6.95161771774292,1.90549993515015,0.868907988071442,2.08842802047729,-938.700012207031,15.3000001907349,-926.100036621094,2.79006462067636,-0.682713344111276,0.261030769767328,DLL
14.6666666666667,-6.48327159881592,-1.70530557632446,7.28538131713867,2.40855193138123,1.04421401023865,1.70732796192169,-914.700012207031,15.9000005722046,-906.900024414062,2.77068400243135,-0.711923396514307,0.228748522785404,DLL
14.7,-6.1387414932251,-1.83450448513031,7.21001529693604,3.16313004493713,1.40244793891907,0.548784017562866,-926.700012207031,18.3000011444092,-923.700012207031,2.78432576004679,-0.69513483756758,0.241445161128638,DLL
14.7333333333333,-5.55794429779053,-2.11144471168518,7.00604867935181,4.87807989120483,1.92836594581604,-1.6920839548111,-929.100036621094,9.30000019073486,-918.900024414062,2.82281414172538,-0.657987523479558,0.281275734221508,DLL
14.7666666666667,-4.82820987701416,-1.94635725021362,6.74944543838501,7.63724374771118,2.55336999893188,-5.19058179855347,-917.100036621094,19.5,-914.100036621094,2.84706849322547,-0.610255776408766,0.275387552644632,DLL
14.8,-5.82172536849976,-2.11862230300903,6.76320266723633,11.9970273971558,2.70580983161926,-7.96498966217041,-929.100036621094,12.3000001907349,-921.300048828125,2.90082830886742,-0.679890942199244,0.291787538986491,DLL
14.8333333333333,-6.65852737426758,-1.68377244472504,6.55624532699585,13.8644180297852,2.95733594894409,-10.9299478530884,-926.700012207031,8.10000038146973,-911.700012207031,2.92793328441838,-0.765899318418207,0.251095545557437,DLL
14.8666666666667,-6.50241231918335,-1.28600740432739,6.61725568771362,15.3583297729492,1.96647596359253,-11.9665393829346,-907.500061035156,10.5,-909.300048828125,2.94435477570186,-0.766361617654721,0.194366336776166,DLL
14.9,-6.98750638961792,-0.721360445022583,6.8158392906189,16.0595531463623,1.98934197425842,-13.3232555389404,-897.900024414062,-2.70000004768372,-909.300048828125,2.99934473211674,-0.795787773529272,0.101764719953656,DLL
14.9333333333333,-8.39553451538086,-1.08503139019012,5.79540729522705,13.8949060440063,0.6250039935112,-12.027515411377,-893.100036621094,-7.50000047683716,-906.900024414062,3.10720877913767,-0.934813553371171,0.17326458781063,DLL
14.9666666666667,-7.74834394454956,-0.0167480036616325,6.55086183547974,14.6418619155884,1.60824191570282,-12.2637977600098,-878.700012207031,-2.10000014305115,-894.900024414062,3.0454031206103,-0.880012144318378,0.0249773523743357,DLL
15.0,-7.67477226257324,0.383409649133682,5.64108657836914,10.2211017608643,-0.259148001670837,-8.95584964752197,-881.100036621094,-7.50000047683716,-892.500061035156,3.02376984094275,-0.928615043952965,-0.0522607390868609,DLL
15.0333333333333,-7.13046216964722,0.237462759017944,5.78703308105469,7.89639186859131,0.358233988285065,-7.37047386169434,-888.300048828125,-3.90000009536743,-878.100036621094,3.0661621429164,-0.8942779399612,-0.040081743578374,DLL
15.0666666666667,-6.82600736618042,0.363072782754898,6.58914279937744,5.95278167724609,-0.0914639979600906,-6.28052806854248,-871.500061035156,-13.5000009536743,-885.300048828125,3.08212972251017,-0.815054335178046,-0.0517364144956511,DLL
15.1,-6.82840013504028,-0.001794428913854,7.34280300140381,4.51984596252441,-1.08994603157043,-4.51984596252441,-876.300048828125,-12.3000001907349,-873.300048828125,3.13252996856228,-0.756586247038441,-0.0065151630210545,DLL
15.1333333333333,-6.50899171829224,-0.135778456926346,8.09167766571045,3.7728898525238,-1.36433792114258,-3.45276594161987,-878.700012207031,-8.10000038146973,-882.900024414062,-3.12346739248755,-0.685977953501045,0.0125718104934861,DLL
15.1666666666667,-6.18360185623169,-0.434849947690964,7.29913854598999,3.16313004493713,-2.0579400062561,-2.10367202758789,-878.700012207031,-8.10000038146973,-878.100036621094,-3.07407411256337,-0.698146339674054,0.0567265102438625,DLL
15.2,-6.76679134368896,0.099889874458313,8.07074356079102,2.54574799537659,-1.85214591026306,-1.39482593536377,-883.500061035156,-9.30000019073486,-880.500061035156,-3.10607263772147,-0.695090802807392,-0.0051244140168615,DLL
15.2333333333333,-4.50461483001709,0.78177285194397,8.12218379974365,2.37806391716003,-1.34147191047668,-0.190549999475479,-878.700012207031,-11.1000003814697,-878.100036621094,3.13350740890043,-0.526653835441785,-0.0891202423438562,DLL
15.2666666666667,-5.91802644729614,0.477318078279495,7.75372743606567,2.0731840133667,-0.823175966739655,-1.09756803512573,-883.500061035156,-11.7000007629395,-866.100036621094,-3.13169413308175,-0.633100442654585,-0.0675280675076251,DLL
15.3,-5.52325201034546,0.166283741593361,7.74236249923706,1.53964400291443,-2.12653803825378,-0.0762199983000755,-888.300048828125,-14.1000003814697,-882.900024414062,-3.10660292577405,-0.61824887671414,-0.0298050992178834,DLL
15.3333333333333,-5.83667898178101,0.240453481674194,7.75731611251831,1.41769194602966,-0.716467976570129,-1.76830399036407,-881.100036621094,-12.9000005722046,-863.700012207031,-3.10052818049798,-0.640472874260893,-0.030990791031838,DLL
15.3666666666667,-4.52614784240723,0.439635097980499,6.89120531082153,0.3125019967556,-0.0838419944047928,-2.080806016922,-876.300048828125,-7.50000047683716,-882.900024414062,-3.11054957999073,-0.588424368057926,-0.0577876743113327,DLL
15.4,-5.08301877975464,0.0550291538238525,7.06825542449951,-1.38720393180847,1.33385002613068,-1.93598794937134,-888.300048828125,-9.90000057220459,-873.300048828125,-3.08036841062606,-0.6218713175842,-0.0089987987458665,DLL
15.4333333333333,-5.46283960342407,-0.186022460460663,7.21898746490479,-3.97106194496155,3.37654590606689,-2.9116039276123,-881.100036621094,-3.90000009536743,-870.900024414062,-3.0561556607342,-0.650044593996933,0.0316775704672792,DLL
15.4666666666667,-5.67936754226685,-0.881662726402283,7.74894237518311,-5.09911775588989,3.41465592384338,-1.71494996547699,-869.100036621094,-12.9000005722046,-870.900024414062,-3.0119584038812,-0.63725633273041,0.112412940423247,DLL
15.5,-5.82172536849976,-1.79203629493713,8.11979103088379,-2.35519790649414,1.87501192092896,-0.922261953353882,-866.700012207031,-4.5,-866.100036621094,-2.94945845142731,-0.613786631375273,0.222441139081045,DLL
15.5333333333333,-6.14532089233398,-2.06837844848633,7.37390661239624,-0.213415995240211,0.99848198890686,-0.632625997066498,-864.300048828125,0.300000011920929,-870.900024414062,-2.91970446484107,-0.67081627362818,0.269143039938632,DLL
15.5666666666667,-7.0927791595459,-1.88056147098541,7.18070650100708,0.632625997066498,1.03659200668335,-0.0990860015153885,-857.100036621094,-4.5,-868.500061035156,-2.92539616196139,-0.7543131161756,0.257211217377627,DLL
15.6,-6.54428243637085,-2.02949905395508,6.5233473777771,0.952749967575073,0.0609759986400604,1.11281192302704,-852.300048828125,0.900000035762787,-873.300048828125,-2.90133397947677,-0.763252314465924,0.292624769458307,DLL
15.6333333333333,-7.2423152923584,-1.68795943260193,7.55334949493408,0.960371971130371,-0.198172003030777,0.899396002292633,-852.300048828125,-1.5,-866.100036621094,-2.94659933134985,-0.753900877063127,0.226835778746117,ST
15.6666666666667,-6.51018810272217,-1.64130425453186,6.31818437576294,1.47104597091675,-2.27135586738586,2.18751406669617,-869.100036621094,-5.70000028610229,-861.300048828125,-2.93694637962477,-0.778441405302345,0.244909025379975,ST
15.7,-5.97544813156128,-1.63113594055176,6.65673303604126,0.907018005847931,-1.90549993515015,1.10518991947174,-854.700012207031,-3.90000009536743,-882.900024414062,-2.94347212230823,-0.722942734755786,0.237489277615097,ST
15.7333333333333,-6.5795726776123,-1.15321969985962,7.21898746490479,0.861285984516144,-1.55488801002502,0.907018005847931,-861.900024414062,-5.10000038146973,-873.300048828125,-2.9916625000832,-0.729627148685667,0.166318141466946,ST
15.7666666666667,-5.85522174835205,-0.771604418754578,7.38826179504395,0.167683988809586,-1.16616594791412,1.17378795146942,-873.900024414062,-3.90000009536743,-875.700012207031,-3.03827291972998,-0.665889305938514,0.102168930685194,ST
15.8,-5.23434925079346,-0.682481110095978,7.20104312896729,0.266770005226135,-1.15854394435883,1.76830399036407,-871.500061035156,-5.10000038146973,-861.300048828125,-3.04763702535766,-0.630263164878922,0.0930150252379501,ST
15.8333333333333,-5.38209056854248,-0.531150937080383,7.26444625854492,-0.0152439996600151,0.274392008781433,1.13567793369293,-869.100036621094,-3.30000019073486,-866.100036621094,-3.06120039845068,-0.636101275989854,0.0744890140220828,ST
15.8666666666667,-5.7062840461731,-0.881662726402283,7.50250720977783,-0.0457319989800453,1.41006994247437,1.08994603157043,-859.500061035156,-9.90000057220459,-885.300048828125,-3.04207924478978,-0.647822756734908,0.110212319263565,ST
15.9,-6.1530966758728,-0.759043455123901,7.77705478668213,0.0685980021953583,1.76830399036407,0.739333987236023,-857.100036621094,-6.30000019073486,-875.700012207031,-3.05050270152902,-0.667217575461172,0.0982967714871066,ST
15.9333333333333,-6.67228507995605,-0.608311414718628,8.14371681213379,0.327746003866196,1.95885396003723,0.762199997901917,-854.700012207031,-3.90000009536743,-868.500061035156,-3.06536190561114,-0.686283240101722,0.0758606647911921,ST
15.9666666666667,-6.03466463088989,-0.516795516014099,7.3463921546936,0.670735955238342,1.46342396736145,1.28049600124359,-852.300048828125,-5.10000038146973,-875.700012207031,-3.07140249215684,-0.688786337036292,0.0685210690119013,ST
16.0,-6.98212289810181,-0.837400138378143,7.18369722366333,-0.701223969459534,1.37958192825317,1.14329993724823,-857.100036621094,-16.5,-866.100036621094,-3.04734568368998,-0.762344497015924,0.110662533532537,ST
16.0333333333333,-6.28409004211426,-0.44322395324707,6.67168664932251,-1.91312193870544,1.05183601379395,1.46342396736145,-845.100036621094,-12.9000005722046,-873.300048828125,-3.08076019390166,-0.757179283857124,0.0723686285881196,ST
16.0666666666667,-6.35586738586426,-1.08144247531891,6.79071712493896,-2.78202986717224,1.60824191570282,1.92836594581604,-859.500061035156,-3.30000019073486,-878.100036621094,-3.03788203049682,-0.750600307973965,0.148314685997754,ST
16.1,-6.48985147476196,-0.977365612983704,6.6782660484314,-2.62196803092957,1.74543797969818,1.76068198680878,-854.700012207031,-0.900000035762787,-878.100036621094,-3.04671276402014,-0.766741671610277,0.147549550437841,ST
16.1333333333333,-6.54488039016724,-1.09340536594391,6.22846269607544,-1.33385002613068,-0.419209986925125,2.0655620098114,-857.100036621094,0.900000035762787,-868.500061035156,-3.03874022939896,-0.798327367849579,0.169398290310147,ST
16.1666666666667,-6.86309242248535,-0.729734420776367,6.52633810043335,-1.05945801734924,-0.701223969459534,2.71343183517456,-852.300048828125,-7.50000047683716,-868.500061035156,-3.08646908694059,-0.805998892065535,0.114793892369288,ST
16.2,-6.76559495925903,-0.343932211399078,5.96946668624878,-0.335367977619171,-1.76830399036407,3.70429182052612,-859.500061035156,-8.10000038146973,-870.900024414062,-3.13506631211478,-0.839308661148872,0.0597657552330804,ST
16.2333333333333,-6.79550218582153,-0.208153754472733,6.45396280288696,-0.579271972179413,-1.56251001358032,3.46038794517517,-864.300048828125,-5.70000028610229,-875.700012207031,3.11892550180848,-0.812602225151969,0.0310758965544865,ST
16.2666666666667,-6.9438419342041,-0.315221339464188,7.3164849281311,-0.510673999786377,-2.63721203804016,3.17837381362915,-859.500061035156,-15.3000001907349,-868.500061035156,3.11501145720782,-0.760198100137482,0.0377456956554,ST
16.3,-6.06995487213135,-0.294884473085403,7.73697948455811,0.403965979814529,-4.07776975631714,0.907018005847931,-869.100036621094,-11.1000003814697,-875.700012207031,3.11241543007608,-0.671672122778906,0.0361433448377614,ST
16.3333333333333,-5.93537282943726,-0.653770267963409,8.15328693389893,0.0838419944047928,-3.70429182052612,1.64635193347931,-876.300048828125,-5.70000028610229,-878.100036621094,3.13001171840586,-0.62831416046727,0.0720135040619743,ST
16.3666666666667,-4.98492336273193,-0.680088579654694,7.50848865509033,-0.0533539988100529,-3.46800994873047,0.0914639979600906,-871.500061035156,-6.30000019073486,-882.900024414062,3.13805185500513,-0.584017785179117,0.0879400685743126,ST
16.4,-4.69781494140625,-1.11673295497894,7.37689733505249,0.0381099991500378,-1.44817996025085,-1.20427596569061,-883.500061035156,-9.30000019073486,-887.700012207031,-3.10569113760876,-0.55919095297403,0.151089804818842,ST
16.4333333333333,-5.59084224700928,-0.584385693073273,7.81892490386963,-0.3125019967556,-0.419209986925125,-0.983237981796265,-890.700012207031,-10.5,-875.700012207031,-3.13989193449659,-0.6112873512488,0.0860500323117627,ST
16.4666666666667,-5.26724720001221,-1.08323693275452,7.3404107093811,-0.365855991840363,0.868907988071442,0.297257989645004,-888.300048828125,-11.1000003814697,-885.300048828125,-3.11059776766401,-0.617986217189718,0.138681118780357,ST
16.5,-6.44857931137085,-1.04914271831512,7.9277868270874,-0.632625997066498,2.39330792427063,-0.160062000155449,-893.100036621094,-10.5,-880.500061035156,-3.1133510910803,-0.673981994307434,0.134113634385861,ST
16.5333333333333,-6.54846906661987,-0.934299349784851,8.36682415008545,-0.510673999786377,2.81251788139343,0.297257989645004,-883.500061035156,-9.30000019073486,-875.700012207031,-3.12597936449525,-0.667110321668762,0.115070948482315,ST
16.5666666666667,-6.11840438842773,-0.712388277053833,7.92958116531372,-0.0685980021953583,2.26373386383057,0.259148001670837,-876.300048828125,-3.90000009536743,-878.100036621094,-3.13971832966229,-0.6602993753316,0.0930562848536678,ST
16.6,-5.78284645080566,-0.313426911830902,7.14780855178833,-0.137196004390717,1.73781597614288,0.503051996231079,-871.500061035156,-2.70000004768372,-880.500061035156,3.11577983527161,-0.679877945641889,0.0502745064603816,ST
16.6333333333333,-6.08670282363892,-0.829026162624359,6.69262170791626,-1.36433792114258,1.69970595836639,0.92988395690918,-864.300048828125,-8.70000076293945,-868.500061035156,-3.12896494529256,-0.731773003304672,0.116808283616045,ST
16.6666666666667,-5.48855972290039,-1.22021162509918,6.34091377258301,-2.69818782806396,1.77592599391937,1.39482593536377,-864.300048828125,-5.10000038146973,-870.900024414062,-3.0938196934334,-0.708088699121883,0.192977854618566,ST
16.7,-6.44977569580078,-1.66822075843811,7.21659517288208,-2.17227005958557,-0.480185985565186,1.76068198680878,-866.700012207031,-2.10000014305115,-878.100036621094,-3.0925486733033,-0.716309820553745,0.228192597214526,ST
16.7333333333333,-5.53820562362671,-1.89790761470795,6.99229145050049,-1.2576299905777,-1.6615959405899,0.807931959629059,-854.700012207031,-7.50000047683716,-880.500061035156,-3.07683554993931,-0.659172447285433,0.260754840867004,ST
16.7666666666667,-6.48207521438599,-1.87816894054413,7.23334312438965,-1.14329993724823,-1.6692179441452,1.33385002613068,-873.900024414062,-6.30000019073486,-870.900024414062,-3.0866594653198,-0.705097044111185,0.254581799004896,ST
16.8,-6.59632062911987,-2.12161302566528,7.59342479705811,-0.792688012123108,-1.98934197425842,1.98934197425842,-876.300048828125,-2.10000014305115,-873.300048828125,-3.08474854952659,-0.695725869844933,0.268155677141783,ST
16.8333333333333,-6.12378787994385,-2.10366892814636,7.65443563461304,-0.388722002506256,-3.01831197738647,2.0655620098114,-857.100036621094,-7.50000047683716,-878.100036621094,-3.09384394811795,-0.657905564341347,0.265433849431988,ST
16.8666666666667,-6.52394533157349,-1.95712375640869,7.5132737159729,-0.304879993200302,-2.90398192405701,2.17989206314087,-873.900024414062,-1.5,-892.500061035156,-3.10900388443567,-0.690596020635258,0.252987844787625,ST
16.9,-5.96647596359253,-1.69573533535004,7.42355251312256,0.144817993044853,-2.62196803092957,2.80489587783813,-888.300048828125,-3.90000009536743,-875.700012207031,-3.13432604005416,-0.665265262555277,0.22414320470237,ST
16.9333333333333,-5.88931560516357,-1.01923561096191,7.76868104934692,-0.0990860015153885,-0.78506600856781,2.40855193138123,-890.700012207031,-3.90000009536743,-880.500061035156,3.07843566707307,-0.643854059309657,0.127789290475296,ST
16.9666666666667,-4.73370361328125,-1.05811488628387,6.92769193649292,-0.739333987236023,-0.0914639979600906,2.75154185295105,-876.300048828125,-6.90000009536743,-894.900024414062,3.08168963034743,-0.600786984741259,0.146899923376839,ST
17.0,-5.36474418640137,-0.562254369258881,6.93965482711792,-1.28049600124359,0.350611984729767,2.78965187072754,-883.500061035156,-1.5,-880.500061035156,3.0372340112073,-0.651632175637648,0.0870390714461227,ST
17.0333333333333,-5.69372272491455,-1.2118376493454,6.69202375411987,-2.34757590293884,1.19665396213531,3.33081388473511,-890.700012207031,-7.50000047683716,-892.500061035156,3.0751921889999,-0.693683196999362,0.166021212751643,ST
17.0666666666667,-6.63220930099487,-0.965402781963348,7.07244253158569,-3.70429182052612,2.09605002403259,3.24697184562683,-885.900024414062,-5.70000028610229,-897.300048828125,3.04576482189193,-0.745146828634509,0.14161876548556,ST
17.1,-7.56411600112915,-0.436046212911606,7.2124080657959,-4.41313791275024,1.52439999580383,4.71039581298828,-881.100036621094,-5.10000038146973,-892.500061035156,2.97856787910406,-0.802924501138585,0.071720239443585,ST
17.1333333333333,-7.73219442367554,-0.190807610750198,7.08440542221069,-7.01223993301392,-0.0304879993200302,7.24090003967285,-881.100036621094,-11.7000007629395,-894.900024414062,2.92064674625355,-0.825873741531036,0.0320046749729445,ST
17.1666666666667,-6.2129111289978,-0.466551512479782,6.32356739044189,-9.07780170440674,-1.19665396213531,8.68908023834229,-885.900024414062,0.300000011920929,-887.700012207031,2.91071055773275,-0.781054227053918,0.0685708626409346,ST
17.2,-4.83060264587402,-2.14254808425903,6.98810434341431,-8.97109413146973,-0.92988395690918,7.25614404678345,-900.300048828125,8.10000038146973,-906.900024414062,2.96012722501709,-0.586208108481445,0.304775834764719,ST
17.2333333333333,-6.11541366577148,-1.76811063289642,7.51267576217651,-5.8689398765564,0.503051996231079,4.07776975631714,-895.500061035156,-0.300000011920929,-911.700012207031,2.90707880604387,-0.661307738420075,0.246311227066964,ST
17.2666666666667,-6.44857931137085,-1.42597281932831,7.34878444671631,-3.19361782073975,0.358233988285065,3.00306797027588,-900.300048828125,7.50000047683716,-904.500061035156,2.86594335359307,-0.705976155399612,0.200557848729948,ST
17.3,-5.89469909667969,-1.7184647321701,6.59033918380737,-0.914639949798584,0.449698001146317,1.74543797969818,-893.100036621094,5.10000038146973,-899.700012207031,2.89119004260738,-0.713881652986023,0.247514429321826,NLR
17.3333333333333,-7.28597974777222,-1.30574607849121,6.86668109893799,1.03659200668335,1.2347639799118,-0.922261953353882,-885.900024414062,5.70000028610229,-904.500061035156,2.86000962331966,-0.797928563193617,0.195055849015135,NLR
17.3666666666667,-7.5790696144104,-1.11134958267212,6.26494932174683,2.88111591339111,1.38720393180847,-1.73019397258759,-895.500061035156,5.70000028610229,-906.900024414062,2.85687086845876,-0.863949826873945,0.177368081086221,NLR
17.4,-6.88462543487549,-1.05871307849884,6.15967655181885,4.11588001251221,1.08232402801514,-2.16464805603027,-895.500061035156,2.70000004768372,-899.700012207031,2.86413123393189,-0.838533887748677,0.168804464313772,NLR
17.4333333333333,-6.85711097717285,-1.03239476680756,6.37082099914551,4.38264989852905,0.0381099991500378,-3.20886182785034,-902.700012207031,0.300000011920929,-902.100036621094,2.87452151187985,-0.817381542760313,0.160014510419387,NLR
17.4666666666667,-6.61366701126099,-1.04316139221191,6.44439220428467,4.35978412628174,-1.55488801002502,-3.85673189163208,-897.900024414062,9.90000057220459,-897.300048828125,2.89018991093228,-0.792091426444544,0.159365106538587,NLR
