seconds,sensor_accX_m_s_,sensor_accY_m_s_,sensor_accZ_m_s_,sensor_gyroX___s_,sensor_gyroY___s_,sensor_gyroZ___s_,sensor_magX__T_,sensor_magY__T_,sensor_magZ__T_,sensor_yaw___,sensor_pitch___,sensor_roll___,label4
0.0,-4.54050350189209,-2.55945372581482,7.96307754516602,-0.442075997591019,-0.327746003866196,0.358233988285065,-998.700012207031,18.3000011444092,-904.500061035156,0.0225015255418819,-0.498898151796166,0.30922085770163,ST
0.0333333333333333,-4.55844736099243,-2.5696222782135,7.97623634338379,-0.3125019967556,-0.198172003030777,0.403965979814529,-1010.70001220703,24.3000011444092,-911.700012207031,0.0222349563835179,-0.498252590833647,0.311267076332054,ST
0.0666666666666667,-4.47351121902466,-2.5576593875885,7.97085332870483,-0.152439996600151,-0.198172003030777,0.37347799539566,-1001.10003662109,20.7000007629395,-909.300048828125,0.0208848733615407,-0.49218512184062,0.310552634265134,ST
0.1,-4.55605506896973,-2.52655601501465,7.97204971313477,0.0228659994900227,-0.0762199983000755,0.304879993200302,-1001.10003662109,26.7000007629395,-916.500061035156,0.0187674919449044,-0.497527023207717,0.307379818398347,ST
0.133333333333333,-4.47171688079834,-2.54868721961975,7.97145128250122,0.0304879993200302,-0.0076219998300075,0.160062000155449,-1005.90002441406,18.3000011444092,-909.300048828125,0.0192013470480519,-0.492074325242929,0.308901916811166,ST
0.166666666666667,-4.58117723464966,-2.51818180084229,8.05698585510254,0.0457319989800453,-0.0762199983000755,0.0152439996600151,-998.700012207031,13.5000009536743,-909.300048828125,0.016870552938302,-0.496094740992211,0.304041992761741,ST
0.2,-4.60869169235229,-2.53792071342468,7.96726417541504,0.0914639979600906,-0.0457319989800453,0.0609759986400604,-996.300048828125,19.5,-914.100036621094,0.0183955859568239,-0.502162399234786,0.307321062886036,ST
0.233333333333333,-4.61586952209473,-2.50801348686218,7.9493203163147,0.0609759986400604,-0.0457319989800453,0.129574000835419,-998.700012207031,18.9000015258789,-890.100036621094,0.017420167730429,-0.505039965336082,0.305746571086011,ST
0.266666666666667,-4.56981229782104,-2.53732252120972,7.89967441558838,0.0609759986400604,-0.114329993724823,0.152439996600151,-1008.30004882812,21.9000015258789,-914.100036621094,0.0189617467339526,-0.503670391581033,0.309547077802158,ST
0.3,-4.52255916595459,-2.54031324386597,7.88830947875977,0.0381099991500378,-0.0381099991500378,0.205793991684914,-998.700012207031,15.3000001907349,-923.700012207031,0.0192522139212137,-0.500421263346708,0.31093403646322,ST
0.333333333333333,-4.60988807678223,-2.5295467376709,7.95829200744629,0.0762199983000755,-0.114329993724823,0.259148001670837,-996.300048828125,15.3000001907349,-909.300048828125,0.017390868714555,-0.503563328008339,0.308072117553982,ST
0.366666666666667,-4.59792518615723,-2.48887300491333,7.94393682479858,0.175305992364883,-0.198172003030777,0.342989981174469,-1003.50006103516,19.5,-914.100036621094,0.0148267688527114,-0.50429183033736,0.303974167945852,ST
0.4,-4.63441181182861,-2.503826379776,7.97922706604004,0.213415995240211,-0.342989981174469,0.3125019967556,-1003.50006103516,15.3000001907349,-906.900024414062,0.0139972623529254,-0.505359107722607,0.303438286776896,ST
0.433333333333333,-4.52913856506348,-2.5977349281311,7.9517126083374,0.0990860015153885,-0.556405961513519,0.0914639979600906,-998.700012207031,7.50000047683716,-914.100036621094,0.0183162213276663,-0.497039605509092,0.313352082167163,ST
0.466666666666667,-4.58356952667236,-2.54689288139343,8.03485488891602,0.0762199983000755,-0.419209986925125,0.0152439996600151,-996.300048828125,15.3000001907349,-909.300048828125,0.0155755823789848,-0.497311202385329,0.308036309313935,ST
0.5,-4.54947566986084,-2.5797905921936,7.93317031860352,0.152439996600151,-0.388722002506256,0.0457319989800453,-998.700012207031,18.3000011444092,-916.500061035156,0.0176815996253429,-0.498386098699203,0.312783317779037,ST
0.533333333333333,-4.59074735641479,-2.54749083518982,7.95111465454102,0.236281991004944,-0.243903994560242,0.266770005226135,-989.100036621094,25.5000019073486,-914.100036621094,0.0158955612546656,-0.501730452659171,0.309950599917313,ST
0.566666666666667,-4.52196073532104,-2.57859444618225,7.8835244178772,0.297257989645004,-0.358233988285065,0.335367977619171,-998.700012207031,12.3000001907349,-914.100036621094,0.0173650187093306,-0.499325285036863,0.314135309754103,ST
0.6,-4.78095674514771,-2.51220059394836,8.13534259796143,0.259148001670837,-0.754577994346619,0.342989981174469,-993.900024414062,20.7000007629395,-914.100036621094,0.0104078133520546,-0.508436960211274,0.301501869883036,ST
0.633333333333333,-4.50222206115723,-2.56603336334229,8.20293235778809,0.221037998795509,-1.84452390670776,0.167683988809586,-998.700012207031,15.9000005722046,-909.300048828125,0.0094593432013431,-0.485354341525348,0.302007375595094,ST
0.666666666666667,-4.47889471054077,-2.50502276420593,7.81713056564331,0.190549999475479,-2.46190595626831,-0.144817993044853,-1010.70001220703,16.5,-916.500061035156,0.0111428783821492,-0.493303057433962,0.30774861347655,ST
0.7,-4.27971315383911,-2.54988360404968,7.9433388710022,0.0914639979600906,-1.72257196903229,0.0304879993200302,-1017.90002441406,17.7000007629395,-914.100036621094,0.0109396489813476,-0.475604965874368,0.309516155270786,ST
0.733333333333333,-4.23066520690918,-2.56244444847107,8.03844356536865,-0.0381099991500378,-1.16616594791412,0.0076219998300075,-1008.30004882812,21.9000015258789,-906.900024414062,0.0097299206671197,-0.465431753814584,0.308574435257003,ST
0.766666666666667,-4.11641979217529,-2.63003468513489,8.17182922363281,0.137196004390717,-0.381099998950958,0.259148001670837,-1017.90002441406,20.1000003814697,-921.300048828125,0.0099170159537009,-0.450413709094507,0.310375506822625,ST
0.8,-4.13795328140259,-2.66233444213867,8.17123126983643,0.152439996600151,-0.0381099991500378,0.335367977619171,-1017.90002441406,17.7000007629395,-916.500061035156,0.0107945692515484,-0.449146902865911,0.313658901025527,ST
0.833333333333333,-4.30304050445557,-2.6276421546936,8.17541790008545,0.0533539988100529,0.0076219998300075,0.335367977619171,-1017.90002441406,14.1000003814697,-923.700012207031,0.0091260982340394,-0.46157506585818,0.311230324331747,ST
0.866666666666667,-4.47530555725098,-2.57201480865479,8.15807151794434,0.327746003866196,-0.0228659994900227,0.579271972179413,-1013.10003662109,23.7000007629395,-904.500061035156,0.0058334857024421,-0.47811588090289,0.305734591943807,ST
0.9,-4.40293025970459,-2.51040601730347,7.98520851135254,0.342989981174469,0.0762199983000755,0.655492007732391,-1003.50006103516,15.9000005722046,-921.300048828125,0.0041250137878329,-0.483375812107936,0.303910317063255,ST
0.933333333333333,-4.27552604675293,-2.62524938583374,8.05997657775879,-0.0533539988100529,-0.160062000155449,0.198172003030777,-1017.90002441406,20.1000003814697,-916.500061035156,0.0076821895168026,-0.469739429187685,0.312952242064449,ST
0.966666666666667,-4.35986423492432,-2.53014469146729,8.03425598144531,-0.0762199983000755,-0.426831990480423,0.114329993724823,-1010.70001220703,9.30000019073486,-916.500061035156,0.0042267430267014,-0.475521728134714,0.306613958090221,ST
1.0,-4.11641979217529,-2.66891384124756,7.88531875610352,0.0533539988100529,-0.365855991840363,0.266770005226135,-1010.70001220703,14.1000003814697,-916.500061035156,0.0105962853529323,-0.461953510601153,0.322304123493218,ST
1.03333333333333,-4.25399303436279,-2.70480251312256,8.07493019104004,-0.0838419944047928,-0.320124000310898,0.0381099991500378,-1013.10003662109,18.3000011444092,-911.700012207031,0.0105605935631366,-0.46260335554259,0.323053681286474,ST
1.06666666666667,-4.46453905105591,-2.71736359596252,8.11739826202393,0.144817993044853,-0.388722002506256,0.152439996600151,-1008.30004882812,23.1000003814697,-918.900024414062,0.0099765575203236,-0.476634331172914,0.322643061710392,ST
1.1,-4.54229784011841,-2.69523215293884,8.36682415008545,0.25152599811554,-0.571649968624115,0.327746003866196,-1013.10003662109,23.1000003814697,-918.900024414062,0.0047996344607688,-0.476271092611769,0.313012900906684,ST
1.13333333333333,-4.37003231048584,-2.58457589149475,8.12876319885254,0.3125019967556,-0.99848198890686,0.586893975734711,-998.700012207031,12.9000005722046,-921.300048828125,0.0006873341011182,-0.472767375554062,0.307549798336154,ST
1.16666666666667,-4.59433603286743,-2.47511553764343,7.64426708221436,0.137196004390717,-0.731711983680725,1.06708002090454,-1015.50006103516,14.1000003814697,-928.500061035156,-0.0002136919550306,-0.510538275901195,0.310938237315713,ST
1.2,-4.68046855926514,-2.62524938583374,7.88173007965088,-0.274392008781433,-0.282013982534409,0.990859985351562,-1029.90002441406,15.3000001907349,-918.900024414062,0.0013232599121495,-0.512657739907608,0.31908090808359,ST
1.23333333333333,-4.9215202331543,-2.43862891197205,8.08689308166504,-0.350611984729767,-0.495429992675781,0.899396002292633,-1027.5,11.1000003814697,-914.100036621094,-0.0115987103007742,-0.524307483279549,0.297881478470825,ST
1.26666666666667,-4.59254169464111,-2.57500553131104,8.12158489227295,-0.449698001146317,-0.868907988071442,0.739333987236023,-1015.50006103516,16.5,-923.700012207031,-0.0105060160543881,-0.499559772158576,0.305094900082674,ST
1.3,-4.39874362945557,-2.503826379776,8.14012813568115,-0.92988395690918,-1.73781597614288,-0.0990860015153885,-1025.10009765625,17.1000003814697,-914.100036621094,-0.0144277935136271,-0.478994675878048,0.300726237388061,ST
1.33333333333333,-4.33474206924438,-2.2250919342041,8.2741117477417,-0.205793991684914,-2.40855193138123,0.426831990480423,-1020.30004882812,16.5,-923.700012207031,-0.0309477137507036,-0.467487893491022,0.269864939933102,ST
1.36666666666667,-4.17743062973022,-2.37522578239441,8.44817161560059,0.327746003866196,-2.39330792427063,0.99848198890686,-1025.10009765625,18.3000011444092,-914.100036621094,-0.0332772120771487,-0.445497209105532,0.271751234560475,ST
1.4,-3.88254594802856,-2.19638109207153,8.17063331604004,0.525918006896973,-2.03507399559021,0.899396002292633,-1020.30004882812,15.9000005722046,-916.500061035156,-0.0398691980310652,-0.430272839407277,0.262426459403976,ST
1.43333333333333,-4.0536150932312,-1.86979496479034,7.87634658813477,0.495429992675781,-1.52439999580383,1.01372599601746,-1037.10009765625,23.1000003814697,-916.500061035156,-0.0531344825241937,-0.456064755678676,0.237104949554497,ST
1.46666666666667,-4.62364530563354,-1.70710003376007,7.5048999786377,0.25152599811554,-0.114329993724823,1.2500079870224,-1029.90002441406,17.1000003814697,-918.900024414062,-0.0609863266322217,-0.5240182889021,0.225165417708123,ST
1.5,-4.71635723114014,-2.10067820549011,7.74535322189331,0.0838419944047928,1.36433792114258,1.15854394435883,-1027.5,24.3000011444092,-914.100036621094,-0.0469158933100507,-0.532145391920059,0.256062747149144,ST
1.53333333333333,-4.47052049636841,-2.22808265686035,7.32485866546631,0.0685980021953583,1.59299790859222,0.121951997280121,-1046.70007324219,17.7000007629395,-916.500061035156,-0.0297421952622942,-0.531443833279366,0.288476496428051,ST
1.56666666666667,-4.82761192321777,-2.46793794631958,6.98810434341431,0.213415995240211,2.86587190628052,-0.960371971130371,-1022.70001220703,6.30000019073486,-918.900024414062,-0.0041014438211862,-0.571525992375702,0.330249030188566,ST
1.6,-4.63022470474243,-2.75265383720398,6.99767446517944,0.335367977619171,4.23783206939697,-1.6692179441452,-1003.50006103516,12.9000005722046,-928.500061035156,0.0224903796511253,-0.560653512635433,0.368120972735943,ST
1.63333333333333,-4.95322179794312,-2.77837419509888,7.3523736000061,0.693601965904236,4.58844375610352,-1.99696397781372,-1017.90002441406,18.9000015258789,-914.100036621094,0.0288157833459405,-0.567151571763616,0.364706718595737,ST
1.66666666666667,-4.61945819854736,-3.15460610389709,8.12218379974365,1.09756803512573,2.77440786361694,-2.00458598136902,-1001.10003662109,20.1000003814697,-923.700012207031,0.0393337984808882,-0.503521340658223,0.370317698385671,ST
1.7,-5.103355884552,-2.98353719711304,8.86986255645752,0.823175966739655,-0.396344006061554,-1.95885396003723,-1010.70001220703,17.1000003814697,-914.100036621094,0.02603444685974,-0.498671650111839,0.333312752474938,ST
1.73333333333333,-5.1093373298645,-2.49186372756958,8.98829460144043,1.40244793891907,-1.92836594581604,-0.967993974685669,-1008.30004882812,20.7000007629395,-923.700012207031,0.0026295138274703,-0.49774340759164,0.279259355962301,ST
1.76666666666667,-4.34969568252563,-2.53253722190857,8.67367076873779,1.89025592803955,-2.17989206314087,0.274392008781433,-1010.70001220703,12.3000001907349,-918.900024414062,0.0031872174785842,-0.453929459759501,0.279927862932658,ST
1.8,-3.81675028800964,-2.6037163734436,8.75501823425293,1.16616594791412,-3.66618180274963,-0.899396002292633,-1013.10003662109,19.5,-918.900024414062,0.006315495147115,-0.402243174815161,0.285543425290143,ST
1.83333333333333,-6.30801582336426,-2.20176434516907,10.2533664703369,1.6692179441452,-7.33998584747314,-1.73781597614288,-1022.70001220703,15.3000001907349,-923.700012207031,-0.0199252732476361,-0.507162756656711,0.222420556668842,ST
1.86666666666667,-6.10584354400635,-2.68446564674377,9.15218544006348,2.62196803092957,-12.2714195251465,-2.30184388160706,-1041.90002441406,12.9000005722046,-921.300048828125,0.0042146049975396,-0.539659730494246,0.267638268737729,ST
1.9,-4.33234977722168,-2.33036494255066,7.19386529922485,0.967993974685669,-15.6784534454346,-2.96495795249939,-1061.10009765625,22.5,-926.100036621094,0.019019187666891,-0.502135649556035,0.301371281540011,ST
1.93333333333333,-3.77667474746704,-2.94525599479675,6.58974123001099,0.289635986089706,-13.0869741439819,-3.52898597717285,-1094.70007324219,8.10000038146973,-911.700012207031,0.0605599457831748,-0.467828062850912,0.394788321007739,ST
1.96666666666667,-2.67788600921631,-2.67728805541992,7.64247274398804,-0.617381989955902,-6.82931184768677,-1.98934197425842,-1097.10009765625,14.7000007629395,-923.700012207031,0.0405798841544405,-0.339339116302698,0.348621148617263,ST
2.0,-1.53902184963226,-3.38010597229004,9.0493049621582,0.541162014007568,-1.10518991947174,-0.67835795879364,-1097.10009765625,12.3000001907349,-923.700012207031,0.0434405252449832,-0.184683392399919,0.35542024664206,ST
2.03333333333333,-1.71607220172882,-3.23894429206848,8.0946683883667,0.815553963184357,-0.525918006896973,-0.746955990791321,-1097.10009765625,14.1000003814697,-918.900024414062,0.0485166517628579,-0.191346612214513,0.374527375875644,ST
2.06666666666667,-2.30943012237549,-3.06368827819824,7.66280937194824,0.396344006061554,2.01982998847961,-0.87652999162674,-1099.5,17.1000003814697,-921.300048828125,0.0537786195587975,-0.262262045701165,0.379402269339268,ST
2.1,-3.19827055931091,-3.02660346031189,8.96257400512695,0.175305992364883,1.74543797969818,-0.403965979814529,-1089.90002441406,13.5000009536743,-914.100036621094,0.043591064803297,-0.317561709145257,0.335023852583943,ST
2.13333333333333,-3.68994402885437,-2.62405323982239,8.78073883056641,0.67835795879364,-0.472563982009888,0.548784017562866,-1099.5,14.1000003814697,-918.900024414062,0.0296420618722148,-0.371444676618656,0.296695210576121,ST
2.16666666666667,-3.37113380432129,-2.30105590820312,8.37220764160156,1.02897000312805,-0.83841997385025,1.46342396736145,-1101.90002441406,14.1000003814697,-914.100036621094,0.0178963307708969,-0.370020720926958,0.271633819831445,ST
2.2,-3.65285921096802,-2.11144471168518,9.11211013793945,0.83841997385025,-1.14329993724823,1.43293595314026,-1109.10009765625,16.5,-916.500061035156,0.001545527287619,-0.370838388152922,0.234483867036931,ST
2.23333333333333,-3.72044920921326,-1.61857485771179,8.560622215271,1.15854394435883,-1.53202199935913,1.21189796924591,-1113.90002441406,11.1000003814697,-926.100036621094,-0.0157806759593961,-0.395297960343421,0.194100372012646,ST
2.26666666666667,-3.96269726753235,-1.60721015930176,8.90455436706543,1.10518991947174,-1.6692179441452,1.05183601379395,-1106.70007324219,9.90000057220459,-911.700012207031,-0.0233846198780233,-0.407242308212416,0.179380380607944,ST
2.3,-3.73001956939697,-2.16467952728271,9.7240104675293,0.541162014007568,-5.46497392654419,-0.556405961513519,-1111.5,12.3000001907349,-923.700012207031,-0.0124900795328295,-0.360550856549715,0.210103491224183,ST
2.33333333333333,-3.97765064239502,-1.89312255382538,9.03195858001709,0.754577994346619,-9.97719764709473,-2.45428395271301,-1118.70007324219,15.9000005722046,-914.100036621094,-0.0124543400165654,-0.383293245347522,0.206465697953574,ST
2.36666666666667,-3.52306199073792,-1.83570075035095,7.96606826782227,0.853663980960846,-12.8964233398438,-3.41465592384338,-1123.5,11.7000007629395,-906.900024414062,-0.0045403309277197,-0.383593312181904,0.221933976651836,ST
2.4,-1.5563679933548,-2.23286771774292,8.4356107711792,-0.0457319989800453,-15.5107698440552,-4.40551567077637,-1159.5,10.5,-921.300048828125,0.0056589055119806,-0.192976234970624,0.252294000690421,ST
2.43333333333333,-0.388194799423218,-1.85783207416534,7.31409215927124,0.106707997620106,-17.0809020996094,-5.81558609008789,-1171.5,16.5,-892.500061035156,0.0085587942317238,-0.054844070954936,0.249486022447542,ST
2.46666666666667,1.50432956218719,-2.54868721961975,7.48815202713013,-0.884151995182037,-11.2576932907104,-4.68753004074097,-1195.5,11.7000007629395,-894.900024414062,0.0086128482350566,0.155379449636087,0.312865777650904,ST
2.5,3.21800923347473,-2.27234506607056,9.84244251251221,0.891773998737335,-9.47414588928223,-3.56709599494934,-1212.30004882812,9.90000057220459,-882.900024414062,0.0254794669691566,0.291582042012333,0.243168087204979,ST
2.53333333333333,6.59452629089355,-2.02531218528748,8.32854270935059,0.945127964019775,-5.24393606185913,-1.78354799747467,-1238.70007324219,6.90000009536743,-878.100036621094,0.0275341357587323,0.587587882172834,0.237953359536207,ST
2.56666666666667,7.18728590011597,-2.43803071975708,9.04392147064209,-0.0838419944047928,-4.58844375610352,-2.37806391716003,-1229.10009765625,11.1000003814697,-885.300048828125,0.0188564907660843,0.647976166038607,0.256936131275437,ST
2.6,5.83966970443726,-2.82383298873901,8.79449653625488,-0.198172003030777,-2.44666194915771,-2.29422187805176,-1238.70007324219,9.30000019073486,-866.100036621094,-0.0025166976327065,0.585004430545521,0.299257983786736,ST
2.63333333333333,4.91494083404541,-3.26705694198608,8.83756256103516,-0.0228659994900227,2.080806016922,-1.2347639799118,-1233.90002441406,5.10000038146973,-875.700012207031,-0.0210968178254167,0.499686038824128,0.342151143208813,ST
2.66666666666667,2.81964588165283,-3.10555839538574,8.96855545043945,0.213415995240211,4.1311240196228,-0.564027965068817,-1241.10009765625,5.10000038146973,-875.700012207031,-0.013875804059924,0.323420434239861,0.333599283210819,ST
2.7,0.358885794878006,-3.45008873939514,9.65043830871582,0.602137982845306,6.01375770568848,1.52439999580383,-1231.5,8.70000076293945,-866.100036621094,-0.0144799688952289,0.0812956639183321,0.340589662113055,ST
2.73333333333333,0.234472051262856,-3.93398642539978,9.98300647735596,-0.0228659994900227,4.97716569900513,1.51677799224854,-1229.10009765625,18.9000015258789,-882.900024414062,-0.0152719678715725,0.0266147622192317,0.368386856687744,ST
2.76666666666667,0.593357801437378,-4.62364530563354,9.87713527679443,0.899396002292633,1.63872992992401,1.2576299905777,-1217.10009765625,5.10000038146973,-892.500061035156,-0.0186814037499284,0.0465277741371719,0.424101832562695,ST
2.8,0.964206457138062,-4.53751277923584,9.00504207611084,0.495429992675781,1.33385002613068,1.09756803512573,-1197.90002441406,7.50000047683716,-890.100036621094,-0.0218989947737612,0.0831450861710959,0.457458616471505,ST
2.83333333333333,0.873288750648499,-3.95013618469238,9.84483528137207,0.914639949798584,1.12805593013763,1.95885396003723,-1212.30004882812,4.5,-892.500061035156,-0.0200663506994609,0.0798432081332359,0.3957074949659,ST
2.86666666666667,1.41460812091827,-3.00806093215942,8.22805500030518,2.76678586006165,0.685979962348938,3.14788603782654,-1214.70007324219,8.10000038146973,-885.300048828125,-0.0225346983411517,0.141467251649872,0.356289424438175,ST
2.9,1.6383136510849,-2.27294325828552,7.8356728553772,2.76678586006165,2.11129403114319,3.70429182052612,-1193.10009765625,2.70000004768372,-899.700012207031,-0.019981981376296,0.182434740177638,0.294187095691717,ST
2.93333333333333,1.82074725627899,-1.84586918354034,8.61624908447266,2.56099200248718,1.60824191570282,2.76678586006165,-1205.10009765625,9.30000019073486,-894.900024414062,-0.0131515644728999,0.196456416834325,0.22489904698049,ST
2.96666666666667,1.81177508831024,-1.18312680721283,10.0320539474487,3.25459384918213,0.236281991004944,2.77440786361694,-1193.10009765625,11.1000003814697,-892.500061035156,-0.0038116276284865,0.180506582415914,0.135149509868199,ST
3.0,2.37103867530823,-1.23038005828857,10.6062707901001,3.23172783851624,-0.289635986089706,2.43903994560242,-1202.70007324219,6.90000009536743,-882.900024414062,-0.0073319180280474,0.21172206473862,0.115111836649521,ST
3.03333333333333,1.93798327445984,0.361876487731934,10.194748878479,3.20123982429504,0.685979962348938,3.353679895401,-1205.10009765625,2.70000004768372,-902.100036621094,0.0087415578291118,0.1909707045819,-0.013951479764326,ST
3.06666666666667,2.61627745628357,0.310436189174652,9.76348781585693,3.3460578918457,1.50915598869324,4.58844375610352,-1200.30004882812,9.30000019073486,-887.700012207031,0.000441966622757,0.245478072027267,-0.0312910791254156,ST
3.1,1.90568351745605,0.102880589663982,8.68503570556641,1.60824191570282,1.51677799224854,3.73477983474731,-1193.10009765625,2.70000004768372,-880.500061035156,-0.0122176724187198,0.21992482295636,-0.0167716064799776,ST
3.13333333333333,1.40623414516449,-0.189611315727234,8.03904151916504,0.320124000310898,2.69818782806396,4.44362592697144,-1188.30004882812,6.90000009536743,-890.100036621094,-0.0304911941488511,0.176479944388736,0.0180278597510973,ST
3.16666666666667,4.13556051254272,-2.70480251312256,7.73578310012817,-1.21189796924591,-0.0533539988100529,1.44817996025085,-1205.10009765625,5.10000038146973,-894.900024414062,-0.108619475572303,0.41555930016734,0.27450303315764,ST
3.2,0.600535571575165,-3.91723823547363,9.42434024810791,-3.33081388473511,1.31098401546478,0.0076219998300075,-1193.10009765625,5.70000028610229,-894.900024414062,-0.133682417457031,0.117959193465612,0.379421639894386,ST
3.23333333333333,2.39675879478455,-4.08112955093384,9.63727951049805,-0.365855991840363,2.58385801315308,1.50915598869324,-1193.10009765625,1.5,-894.900024414062,-0.137349660373187,0.200525706912993,0.397099920454328,ST
3.26666666666667,2.10187435150146,-4.31919050216675,9.4727897644043,-0.190549999475479,1.22714197635651,0.342989981174469,-1173.90002441406,2.70000004768372,-902.100036621094,-0.141758636834061,0.197734554867216,0.42181724785869,ST
3.3,1.64369690418243,-3.21382212638855,9.04511833190918,1.58537602424622,2.46952795982361,0.937505960464478,-1181.10009765625,9.90000057220459,-885.300048828125,-0.130052713476518,0.171650026625437,0.355286876020967,ST
3.33333333333333,0.434849947690964,-1.18013608455658,9.46501445770264,3.7881338596344,2.9420919418335,3.41465592384338,-1161.90002441406,10.5,-899.700012207031,-0.114318438019498,0.0663954031019642,0.165367134247609,ST
3.36666666666667,0.979758203029633,-0.0322997197508812,9.97822093963623,4.16161203384399,1.48628997802734,4.78661584854126,-1185.90002441406,9.90000057220459,-909.300048828125,-0.115202587262663,0.0891712673905176,0.0307981484126105,ST
3.4,0.03828115016222,1.40503787994385,10.4459686279297,0.320124000310898,5.39637565612793,5.434485912323,-1164.30004882812,0.900000035762787,-911.700012207031,-0.151996447371062,-0.0044296792591943,-0.134307361363998,ST
3.43333333333333,0.450999796390533,0.733323276042938,9.86397552490234,-0.480185985565186,9.16164398193359,5.17533779144287,-1161.90002441406,8.10000038146973,-906.900024414062,-0.16662751868874,0.0234926349745088,-0.0855362113231193,ST
3.46666666666667,-0.151330173015594,-0.333763778209686,10.0003519058228,-1.2347639799118,11.2195835113525,3.72715783119202,-1133.10009765625,9.90000057220459,-916.500061035156,-0.17621666247551,-0.0228879268029442,0.0110297495127586,ST
3.5,-0.860727727413177,-1.3721399307251,8.83337497711182,-1.74543797969818,12.5458116531372,1.64635193347931,-1113.90002441406,11.1000003814697,-923.700012207031,-0.17087838908468,-0.101093024362247,0.130833607418996,ST
3.53333333333333,-1.79323267936707,-2.39915156364441,8.48764896392822,-3.01068997383118,12.6144094467163,0.335367977619171,-1111.5,8.10000038146973,-914.100036621094,-0.149375907686518,-0.197845366518615,0.250602578982033,ST
3.56666666666667,-2.6216607093811,-1.97207736968994,8.33751487731934,-2.47714996337891,12.3171520233154,0.0457319989800453,-1097.10009765625,11.1000003814697,-916.500061035156,-0.146582895403651,-0.293581315449202,0.24062240917962,ST
3.6,-3.2867956161499,-4.29646110534668,7.36732721328735,-2.4847719669342,11.3720235824585,-0.0152439996600151,-1061.10009765625,11.7000007629395,-914.100036621094,-0.0638572003682349,-0.369016332403702,0.473691640747025,ST
3.63333333333333,-3.5451934337616,-5.7505464553833,5.88931560516357,-2.75916385650635,8.88725185394287,-3.26221585273743,-1044.30004882812,7.50000047683716,-928.500061035156,0.0432197489989461,-0.408313306106079,0.719446823573632,ST
3.66666666666667,-5.17274045944214,-4.38797664642334,7.03176879882812,-1.80641400814056,8.85676383972168,-2.40092992782593,-1037.10009765625,14.7000007629395,-923.700012207031,0.0021316892914299,-0.53665850799328,0.600731943008978,ST
3.7,-6.66749954223633,-3.58227825164795,8.66888618469238,-0.297257989645004,7.74395179748535,0.800309956073761,-1015.50006103516,9.90000057220459,-911.700012207031,-0.0818559025561793,-0.614376785579072,0.436176469986729,ST
3.73333333333333,-6.74166965484619,-1.85843026638031,8.08569622039795,1.76830399036407,6.02137994766235,3.59758400917053,-1010.70001220703,11.7000007629395,-918.900024414062,-0.184770904769844,-0.67980120092098,0.265677541929585,ST
3.76666666666667,-5.44429731369019,-0.738706588745117,7.63050985336304,2.63721203804016,4.48173570632935,6.24241781234741,-1005.90002441406,8.70000076293945,-918.900024414062,-0.285705371859436,-0.635910571364099,0.111973236059118,ST
3.8,-4.98073673248291,-0.321800917387009,6.76679134368896,2.09605002403259,3.11739802360535,5.13722801208496,-989.100036621094,8.70000076293945,-909.300048828125,-0.327252671191902,-0.639305801396488,0.0524687754334658,ST
3.83333333333333,-6.0490198135376,-0.0460570082068443,7.4690113067627,1.46342396736145,3.07166600227356,4.91618967056274,-989.100036621094,8.10000038146973,-911.700012207031,-0.360934799641263,-0.676826414163901,0.0083479437485603,ST
3.86666666666667,-5.84864187240601,0.370848655700684,8.28427982330322,1.31098401546478,0.891773998737335,5.13722801208496,-993.900024414062,7.50000047683716,-926.100036621094,-0.398888924953954,-0.627957103168022,-0.0415769314908983,ST
3.9,-5.94015789031982,0.732127010822296,8.87404918670654,1.04421401023865,-1.09756803512573,4.81710386276245,-991.500061035156,3.90000009536743,-911.700012207031,-0.42866114886241,-0.594339701482575,-0.0802447470177346,ST
3.93333333333333,-5.16616106033325,0.607115089893341,7.79440116882324,-0.304879993200302,-2.80489587783813,4.00154972076416,-989.100036621094,8.70000076293945,-923.700012207031,-0.436841872269714,-0.581682342130119,-0.0812856454142074,ST
3.96666666666667,-5.8462495803833,0.125011876225471,9.36033916473389,-1.41769194602966,-2.24086785316467,3.81099987030029,-984.300048828125,7.50000047683716,-921.300048828125,-0.417052547443277,-0.559803958457392,-0.0281957617193011,ST
4.0,-5.15180540084839,0.235070183873177,9.35136699676514,-1.47866797447205,-2.30946588516235,3.51374197006226,-984.300048828125,8.70000076293945,-928.500061035156,-0.424745253518155,-0.511401357872566,-0.0264408448779526,ST
4.03333333333333,-4.70499277114868,0.162096738815308,8.95240592956543,-1.29574000835419,-1.33385002613068,3.23934984207153,-989.100036621094,10.5,-921.300048828125,-0.42975487498227,-0.48741412370663,-0.0203630842787282,ST
4.06666666666667,-4.78753614425659,-0.0328978635370731,8.3877592086792,-2.24086785316467,0.106707997620106,1.92074394226074,-996.300048828125,2.10000014305115,-916.500061035156,-0.426153368320067,-0.513219398052568,0.001208393458831,ST
4.1,-4.77198457717896,-0.338548928499222,8.32854270935059,-2.47714996337891,0.289635986089706,1.32622802257538,-993.900024414062,10.5,-921.300048828125,-0.414905814664744,-0.519089376057289,0.0350658174711653,ST
4.13333333333333,-4.29586267471313,-0.736912131309509,7.46183347702026,-2.30184388160706,0.472563982009888,0.533540010452271,-1003.50006103516,8.10000038146973,-923.700012207031,-0.39200714785485,-0.520869962480342,0.0884726203456853,ST
4.16666666666667,-4.97834396362305,-1.11673295497894,7.45345973968506,-2.52288198471069,1.05183601379395,-0.419209986925125,-1005.90002441406,10.5,-918.900024414062,-0.366060520932433,-0.574675474681544,0.142445905978575,ST
4.2,-5.34022045135498,-1.46485209465027,7.25906324386597,-2.45428395271301,1.79117000102997,-0.46494197845459,-981.900024414062,17.1000003814697,-921.300048828125,-0.340239302941844,-0.617065442655411,0.191560097791427,ST
4.23333333333333,-5.90008211135864,-1.39367318153381,7.34519577026367,-2.76678586006165,3.01068997383118,0.0228659994900227,-996.300048828125,13.5000009536743,-926.100036621094,-0.342254544135715,-0.66190800051,0.192830406944272,ST
4.26666666666667,-5.65603971481323,-1.23815596103668,8.27949523925781,-2.40855193138123,2.95733594894409,1.35671591758728,-984.300048828125,14.1000003814697,-909.300048828125,-0.367356494498844,-0.611517722093415,0.159017791998813,ST
4.3,-5.03696203231812,-1.21542656421661,7.33263444900513,-1.37195992469788,1.2347639799118,1.43293595314026,-977.100036621094,12.3000001907349,-918.900024414062,-0.368643834044128,-0.600817946454181,0.163960518415233,ST
4.33333333333333,-5.26066732406616,-1.20465993881226,7.17532300949097,-1.97409796714783,1.88263392448425,1.2347639799118,-974.700012207031,19.5,-906.900024414062,-0.370806928888552,-0.623805889667748,0.167713646117363,ST
4.36666666666667,-5.73977994918823,-0.855942606925964,8.36742210388184,-1.61586391925812,1.44055795669556,1.21951997280121,-981.900024414062,9.90000057220459,-916.500061035156,-0.404566414719008,-0.606231318005558,0.11622952824696,ST
4.4,-6.30861377716064,-0.566441416740417,7.54258298873901,-0.685979962348938,0.205793991684914,2.35519790649414,-977.100036621094,15.9000005722046,-909.300048828125,-0.430124735631446,-0.677775213101555,0.0822455952985622,ST
4.43333333333333,-5.85522174835205,-0.727940022945404,7.07064819335938,-0.975615978240967,0.846041977405548,1.88263392448425,-979.500061035156,10.5,-918.900024414062,-0.424957511097781,-0.688215686198872,0.0977751537977899,ST
4.46666666666667,-6.1411337852478,-0.575413525104523,8.0827054977417,-1.44055795669556,0.457319974899292,0.327746003866196,-974.700012207031,18.3000011444092,-914.100036621094,-0.439881096907865,-0.657207319141142,0.0779934534624323,ST
4.5,-6.18360185623169,-0.375633776187897,7.4953293800354,-0.769822001457214,-0.358233988285065,-0.823175966739655,-962.700012207031,9.90000057220459,-918.900024414062,-0.452067406930622,-0.682192248944053,0.0578101915780504,ST
4.53333333333333,-5.3061261177063,-0.399559497833252,7.31169986724854,-1.13567793369293,0.472563982009888,-1.71494996547699,-962.700012207031,9.30000019073486,-916.500061035156,-0.449897455556906,-0.637406686991295,0.0586467323677571,ST
4.56666666666667,-4.66671133041382,-0.271556913852692,7.90087032318115,-1.65397393703461,0.594515979290009,-1.89787793159485,-957.900024414062,15.3000001907349,-916.500061035156,-0.457181869032963,-0.554901173706085,0.0430006500291513,ST
4.6,-4.91912794113159,-1.35299944877625,8.19695091247559,-0.914639949798584,0.221037998795509,-3.66618180274963,-965.100036621094,20.1000003814697,-918.900024414062,-0.39852849987967,-0.538871096250682,0.14388392540963,ST
4.63333333333333,-4.76600313186646,-1.41819703578949,8.10423946380615,-0.190549999475479,-0.564027965068817,-4.71039581298828,-962.700012207031,17.7000007629395,-911.700012207031,-0.374366090069414,-0.525447606756275,0.172485164969656,ST
4.66666666666667,-5.23913431167603,-2.10008001327515,7.82789707183838,0.754577994346619,-0.365855991840363,-5.60979175567627,-977.100036621094,21.9000015258789,-911.700012207031,-0.324201291165666,-0.56207092507838,0.247126431072097,ST
4.7,-5.16436624526978,-2.2310733795166,8.09167766571045,1.21189796924591,-0.221037998795509,-6.41010189056396,-960.300048828125,23.1000003814697,-911.700012207031,-0.298414863578574,-0.550756936543596,0.268840265769248,ST
4.73333333333333,-4.39814519882202,-2.29028940200806,7.23513746261597,1.6692179441452,-0.419209986925125,-6.94364166259766,-981.900024414062,15.9000005722046,-914.100036621094,-0.265719848256655,-0.526704199466763,0.302570744529622,ST
4.76666666666667,-4.42326736450195,-2.66173624992371,7.97025489807129,1.87501192092896,-0.129574000835419,-7.22565603256226,-984.300048828125,26.1000003814697,-911.700012207031,-0.239067250644517,-0.488151143414327,0.321720198663879,ST
4.8,-4.77198457717896,-2.26456928253174,8.31897258758545,2.35519790649414,0.800309956073761,-8.02596569061279,-977.100036621094,18.9000015258789,-916.500061035156,-0.240320037635358,-0.499995651443333,0.279849588002175,ST
4.83333333333333,-4.50999784469604,-2.90996551513672,7.48276853561401,4.10063600540161,3.06404399871826,-7.72870779037476,-974.700012207031,21.9000015258789,-906.900024414062,-0.183575274921125,-0.51020488930488,0.353138269134393,ST
4.86666666666667,-4.31141471862793,-3.53083801269531,7.33263444900513,3.98630595207214,4.07776975631714,-9.85524559020996,-967.500061035156,20.7000007629395,-906.900024414062,-0.119667472230793,-0.491824451913262,0.432145635704229,ST
4.9,-5.23375082015991,-3.63491487503052,6.27451992034912,4.80185985565186,5.89942789077759,-12.8964233398438,-972.300048828125,15.9000005722046,-902.100036621094,-0.0435466155780746,-0.598556391403472,0.512161394200713,ST
4.93333333333333,-6.12139511108398,-4.19358015060425,6.74166965484619,5.27442407608032,5.83845186233521,-14.7409477233887,-965.100036621094,15.3000001907349,-909.300048828125,0.0181734815355789,-0.641383768073251,0.555801264148875,ST
4.96666666666667,-7.2387261390686,-3.2048499584198,7.96427345275879,5.69363403320312,3.00306797027588,-13.0641078948975,-955.500061035156,16.5,-909.300048828125,-0.0305826890949571,-0.685572895031221,0.425594322559187,ST
5.0,-7.04074096679688,-2.37462759017944,8.55583667755127,7.22565603256226,-0.571649968624115,-8.14791774749756,-953.100036621094,18.3000011444092,-906.900024414062,-0.0857352976784646,-0.669894374064568,0.299922927087432,ST
5.03333333333333,-5.14881467819214,-1.90388906002045,7.59821033477783,8.31560134887695,-4.11588001251221,-2.98020195960999,-972.300048828125,8.70000076293945,-906.900024414062,-0.102834344554745,-0.592649865687436,0.246218876397363,ST
5.06666666666667,-4.56203651428223,-1.57610678672791,7.51985359191895,7.34760761260986,-2.01982998847961,-2.58385801315308,-965.100036621094,17.1000003814697,-906.900024414062,-0.111270148159581,-0.54301360287225,0.205385270108788,ST
5.1,-4.79531240463257,-1.11374223232269,8.1724271774292,6.85979986190796,0.320124000310898,-2.16464805603027,-969.900024414062,14.7000007629395,-906.900024414062,-0.131442196390511,-0.530012334732195,0.141662045954634,ST
5.13333333333333,-4.96159601211548,-1.3338588476181,8.36622619628906,6.34912586212158,1.12805593013763,-2.33233189582825,-967.500061035156,9.30000019073486,-914.100036621094,-0.115940510595974,-0.530952384233601,0.147968013084103,ST
5.16666666666667,-5.09617805480957,-1.09101283550262,7.99896574020386,5.16771602630615,1.01372599601746,-1.6920839548111,-965.100036621094,5.70000028610229,-928.500061035156,-0.114243007863606,-0.557682939886931,0.132431987227023,ST
5.2,-4.81265830993652,-1.00727272033691,7.96307754516602,3.97106194496155,0.731711983680725,-1.33385002613068,-965.100036621094,9.90000057220459,-906.900024414062,-0.111388561946204,-0.544055539831489,0.122544051142035,ST
5.23333333333333,-4.36524724960327,-0.974374890327454,7.69391298294067,2.65245604515076,-0.0076219998300075,-1.27287399768829,-962.700012207031,4.5,-914.100036621094,-0.105737125233644,-0.518758456064765,0.122624776184435,ST
5.26666666666667,-3.91604208946228,-1.17654716968536,8.33153343200684,1.11281192302704,-0.792688012123108,-1.37958192825317,-953.100036621094,5.10000038146973,-906.900024414062,-0.0948409714137503,-0.447229482346551,0.136912465163873,ST
5.3,-3.62474632263184,-1.62754702568054,8.79210376739502,0.533540010452271,-1.6615959405899,-1.265251994133,-957.900024414062,2.10000014305115,-921.300048828125,-0.0763322951292866,-0.392909184121599,0.175313922616384,ST
5.33333333333333,-3.01464056968689,-2.29686903953552,8.22805500030518,-0.3125019967556,-1.6920839548111,-2.27135586738586,-960.300048828125,2.70000004768372,-916.500061035156,-0.0425443785376709,-0.345304481285085,0.257624238839336,ST
5.36666666666667,-3.6773829460144,-2.51877999305725,8.42843246459961,-0.78506600856781,0.221037998795509,-3.30794787406921,-960.300048828125,5.10000038146973,-914.100036621094,-0.0258846066579518,-0.384772454683284,0.286544233734082,ST
5.4,-4.52435350418091,-2.63541793823242,8.92010593414307,-0.815553963184357,1.28049600124359,-3.23172783851624,-974.700012207031,0.300000011920929,-918.900024414062,-0.0177525210586928,-0.439412382251537,0.290465151319985,ST
5.43333333333333,-5.03038215637207,-2.5738091468811,9.01042556762695,-0.693601965904236,0.945127964019775,-1.71494996547699,-955.500061035156,9.30000019073486,-911.700012207031,-0.0177424909651226,-0.483140392027503,0.282988750307393,ST
5.46666666666667,-5.17154407501221,-2.02531218528748,8.26035404205322,-0.137196004390717,-0.205793991684914,0.640248000621796,-953.100036621094,8.10000038146973,-914.100036621094,-0.0358068224830601,-0.533568709131622,0.248944465530551,ST
5.5,-4.56323289871216,-1.59943425655365,7.61196756362915,-0.236281991004944,0.602137982845306,3.13264203071594,-955.500061035156,5.70000028610229,-904.500061035156,-0.0599156484744409,-0.533003746216031,0.213439924078688,ST
5.53333333333333,-5.0112419128418,-1.47621691226959,7.28179264068604,-0.685979962348938,1.76830399036407,3.81862187385559,-967.500061035156,5.70000028610229,-916.500061035156,-0.0747198000887774,-0.586153677084052,0.200337487581049,ST
5.56666666666667,-5.0531120300293,-1.49775004386902,6.5676097869873,-1.41769194602966,3.07928800582886,3.66618180274963,-950.700012207031,9.30000019073486,-904.500061035156,-0.0718966895024637,-0.63801327904244,0.218545552596388,ST
5.6,-5.41439008712769,-1.91345942020416,7.15977144241333,-1.89025592803955,3.52898597717285,3.13264203071594,-941.100036621094,8.70000076293945,-911.700012207031,-0.0580786395763754,-0.638274355175678,0.253000589409582,ST
5.63333333333333,-5.58426284790039,-2.49066734313965,7.46960926055908,-2.10367202758789,2.44666194915771,2.43141794204712,-941.100036621094,6.90000009536743,-894.900024414062,-0.0303602226425056,-0.625418281461308,0.310287344224368,ST
5.66666666666667,-6.54188966751099,-3.44590163230896,7.96247911453247,-2.30184388160706,0.907018005847931,1.2500079870224,-943.500061035156,8.10000038146973,-899.700012207031,0.0125561698962267,-0.644036426317861,0.390692619641305,ST
5.7,-5.3360333442688,-2.37821650505066,6.40611124038696,-1.02897000312805,-0.868907988071442,0.274392008781433,-945.900024414062,15.3000001907349,-904.500061035156,-0.0073618699182446,-0.658809830613348,0.362322240173719,ST
5.73333333333333,-5.97425222396851,-3.47640705108643,6.97793579101562,-0.602137982845306,-0.647870004177094,0.922261953353882,-948.300048828125,6.30000019073486,-911.700012207031,0.0382543024492714,-0.654958465412381,0.441723653375031,ST
5.76666666666667,-6.37799835205078,-3.8879292011261,8.29444885253906,-0.823175966739655,-0.525918006896973,0.647870004177094,-945.900024414062,10.5,-906.900024414062,0.0342074439413126,-0.617327325908525,0.439320685566349,ST
5.8,-5.95511150360107,-3.16118550300598,8.3159818649292,-0.411587983369827,-2.03507399559021,0.396344006061554,-955.500061035156,14.1000003814697,-906.900024414062,-0.0041658684128855,-0.592816910644042,0.376930849826795,ST
5.83333333333333,-5.78942584991455,-3.09359550476074,6.92410326004028,0.480185985565186,-2.11129403114319,2.0655620098114,-957.900024414062,13.5000009536743,-911.700012207031,0.0091304485264152,-0.638529371329951,0.407662778017364,ST
5.86666666666667,-5.06926155090332,-2.94525599479675,5.65544176101685,0.259148001670837,-1.12043392658234,3.39178991317749,-948.300048828125,5.10000038146973,-902.100036621094,0.0353494657831747,-0.665845458561861,0.460970231776651,ST
5.9,-6.51198244094849,-2.64199757575989,7.04014253616333,-0.221037998795509,-0.556405961513519,5.19820404052734,-960.300048828125,9.90000057220459,-897.300048828125,-0.0285715134685046,-0.706511244467228,0.374635803102538,ST
5.93333333333333,-8.02707862854004,-1.94575905799866,8.29624271392822,0.945127964019775,-1.86738991737366,8.70432376861572,-955.500061035156,6.30000019073486,-906.900024414062,-0.131713932569837,-0.748686353219839,0.242263972228455,ST
5.96666666666667,-6.80925941467285,-1.43434679508209,6.22427558898926,1.33385002613068,-2.56861400604248,10.3811635971069,-953.100036621094,9.30000019073486,-914.100036621094,-0.16774058564283,-0.803139260740374,0.212774304056344,ST
6.0,-6.95759916305542,-0.760837852954865,6.11780643463135,0.548784017562866,-0.937505960464478,10.1525039672852,-967.500061035156,1.5,-911.700012207031,-0.246215402981189,-0.838139580820264,0.125999505716823,ST
6.03333333333333,-6.34629678726196,-0.274547636508942,6.35467100143433,0.236281991004944,0.358233988285065,8.59761619567871,-948.300048828125,4.5,-916.500061035156,-0.317395884582852,-0.796575885257938,0.0464263234630198,ST
6.06666666666667,-6.43242931365967,0.0089721446856856,6.27212715148926,-0.487807989120483,0.442075997591019,6.28052806854248,-969.900024414062,5.70000028610229,-909.300048828125,-0.361545519020068,-0.798507790227617,-6.19550556299708e-05,ST
6.1,-6.29425859451294,0.0370848625898361,6.20812606811523,-1.37195992469788,0.381099998950958,3.93295192718506,-965.100036621094,-3.30000019073486,-914.100036621094,-0.376149640627248,-0.79403138735287,-0.0084643925279457,ST
6.13333333333333,-6.35706329345703,-0.107067592442036,6.76918411254883,-2.31708788871765,0.0990860015153885,1.47104597091675,-950.700012207031,3.90000009536743,-921.300048828125,-0.367719103263484,-0.762181827829623,0.0123236639425254,ST
6.16666666666667,-5.68475103378296,-0.321202784776688,6.82002592086792,-2.31708788871765,-1.09756803512573,0.304879993200302,-965.100036621094,-2.10000014305115,-914.100036621094,-0.351162461356335,-0.706465040438484,0.043205307728369,ST
6.2,-4.77856397628784,-0.525767683982849,7.44628190994263,-2.76678586006165,-2.20275783538818,-0.503051996231079,-967.500061035156,-2.10000014305115,-906.900024414062,-0.338300281086665,-0.593789496579103,0.0696395436644683,ST
6.23333333333333,-3.20006489753723,-1.67958545684814,8.51157474517822,-3.00306797027588,-2.90398192405701,-2.0655620098114,-974.700012207031,2.10000014305115,-923.700012207031,-0.285950022747152,-0.394834514321729,0.178599983991966,ST
6.26666666666667,-2.1030707359314,-2.90338587760925,9.21738338470459,-3.07166600227356,-2.36281991004944,-2.83538389205933,-967.500061035156,12.3000001907349,-911.700012207031,-0.249323558424795,-0.246883213061547,0.285780325296038,ST
6.3,-1.70829629898071,-4.01593208312988,10.4818572998047,-2.64483404159546,-1.265251994133,-4.1311240196228,-965.100036621094,10.5,-914.100036621094,-0.228117296544915,-0.165707323983199,0.355525257359784,ST
6.33333333333333,-1.96011447906494,-4.61586952209473,10.8389492034912,-1.03659200668335,-1.11281192302704,-3.30032587051392,-972.300048828125,5.10000038146973,-916.500061035156,-0.215478197922065,-0.161783076252878,0.39628328615935,ST
6.36666666666667,-2.5295467376709,-4.65235614776611,9.99018383026123,-0.0533539988100529,-1.79879200458527,-1.88263392448425,-977.100036621094,14.7000007629395,-921.300048828125,-0.207346857065485,-0.209381404757456,0.428095731473341,ST
6.4,-4.35268640518188,-3.98961353302002,8.51516342163086,1.08232402801514,-0.434453994035721,1.49391198158264,-967.500061035156,10.5,-914.100036621094,-0.208205871218586,-0.388022377472194,0.433707590521113,ST
6.43333333333333,-4.4501838684082,-3.03079032897949,7.62931346893311,1.37958192825317,1.36433792114258,3.46800994873047,-969.900024414062,6.90000009536743,-918.900024414062,-0.232343835057703,-0.478445732250295,0.386089944248887,ST
6.46666666666667,-5.68475103378296,-2.16408133506775,8.59710884094238,2.56861400604248,1.72257196903229,5.07625198364258,-979.500061035156,11.1000003814697,-916.500061035156,-0.300292467801034,-0.560725701338216,0.261941828240559,ST
6.5,-5.55914068222046,-1.77648460865021,7.72202587127686,3.53660798072815,0.67835795879364,5.0838737487793,-962.700012207031,2.70000004768372,-926.100036621094,-0.326713373738307,-0.605292975679502,0.222945384334506,ST
6.53333333333333,-6.33971738815308,-1.22559499740601,6.52095460891724,2.73629784584045,1.47866797447205,3.71953582763672,-977.100036621094,9.30000019073486,-906.900024414062,-0.352424852588805,-0.737288187755193,0.1851092020366,ST
6.56666666666667,-6.97374868392944,-0.575413525104523,6.86488676071167,2.21037983894348,2.84300589561462,3.61282801628113,-962.700012207031,2.10000014305115,-904.500061035156,-0.414671518997102,-0.785431164325934,0.0974143797032619,ST
6.6,-6.82959651947021,-0.102282449603081,6.4037184715271,2.31708788871765,3.19361782073975,4.29118585586548,-962.700012207031,8.10000038146973,-909.300048828125,-0.470431569033613,-0.815929940245653,0.0234903951363709,ST
6.63333333333333,-6.94204711914062,-0.091515876352787,6.14591884613037,0.670735955238342,3.26983785629272,3.84910988807678,-955.500061035156,4.5,-904.500061035156,-0.48526466030442,-0.844629309779172,0.0098284535709196,ST
6.66666666666667,-7.02399301528931,0.297875195741653,6.17283535003662,-0.655492007732391,2.40092992782593,3.39941191673279,-955.500061035156,2.10000014305115,-904.500061035156,-0.530557985317869,-0.851717751822824,-0.0418303620628157,ST
6.7,-7.12627553939819,0.0119628589600325,6.0932822227478,-1.81403601169586,1.70732796192169,3.32319188117981,-943.500061035156,-1.5,-911.700012207031,-0.516792019266192,-0.863874420708791,-0.0117530266697584,ST
6.73333333333333,-6.67647171020508,-0.966000914573669,6.22188329696655,-2.59910202026367,1.53964400291443,2.57623600959778,-957.900024414062,0.900000035762787,-909.300048828125,-0.424680340952024,-0.828131132778729,0.122129211387256,ST
6.76666666666667,-6.68484592437744,-1.35120499134064,6.31339883804321,-3.14026403427124,1.31098401546478,1.04421401023865,-953.100036621094,5.10000038146973,-906.900024414062,-0.376836841387425,-0.810229849782811,0.196584543860451,ST
6.8,-6.48506593704224,-2.15750169754028,6.99468374252319,-2.74391984939575,1.28049600124359,-0.137196004390717,-941.100036621094,8.10000038146973,-906.900024414062,-0.317482134856564,-0.742225486152399,0.286699020361979,ST
6.83333333333333,-6.77337121963501,-2.55945372581482,7.18788385391235,-1.95885396003723,-0.25152599811554,-0.945127964019775,-941.100036621094,6.30000019073486,-909.300048828125,-0.286020757856245,-0.728211190763086,0.336156478914224,ST
6.86666666666667,-7.34399938583374,-2.15211844444275,6.81883001327515,-0.830797970294952,-1.98171997070312,-0.602137982845306,-938.700012207031,3.30000019073486,-906.900024414062,-0.303025320421348,-0.781631544136511,0.313365667356056,ST
6.9,-7.32007360458374,-2.44819927215576,6.8361759185791,0.243903994560242,-2.19513607025146,0.663114011287689,-948.300048828125,9.30000019073486,-916.500061035156,-0.289194067792278,-0.785304226366147,0.335475752355604,ST
6.93333333333333,-6.7081732749939,-2.16348314285278,6.63400363922119,0.320124000310898,-2.33233189582825,0.937505960464478,-950.700012207031,3.90000009536743,-902.100036621094,-0.305082178998495,-0.766446762867084,0.316088636034134,ST
6.96666666666667,-6.7201361656189,-1.92901110649109,6.53291749954224,0.221037998795509,-2.4847719669342,1.14329993724823,-957.900024414062,4.5,-911.700012207031,-0.325748092096808,-0.773354009106881,0.2902439227022,ST
7.0,-6.22068691253662,-1.97327363491058,6.57897472381592,0.0304879993200302,-2.72105383872986,1.33385002613068,-948.300048828125,11.1000003814697,-906.900024414062,-0.330346644644459,-0.740357382207725,0.288489899453969,ST
7.03333333333333,-6.21829414367676,-1.94575905799866,6.50061798095703,-0.541162014007568,-2.02745199203491,0.716467976570129,-957.900024414062,9.90000057220459,-906.900024414062,-0.332655609813012,-0.739087969645988,0.28950360429893,ST
7.06666666666667,-6.51856231689453,-1.77169942855835,7.14302349090576,-0.419209986925125,-1.53964400291443,0.990859985351562,-962.700012207031,9.90000057220459,-918.900024414062,-0.361218924318684,-0.726101206583241,0.251279536114442,ST
7.1,-6.72432327270508,-1.6024249792099,7.54497528076172,0.0762199983000755,-1.6768399477005,1.79879200458527,-960.300048828125,11.1000003814697,-911.700012207031,-0.388781482215468,-0.717176268617908,0.214990556270366,ST
7.13333333333333,-5.65903043746948,-1.32727921009064,7.75133466720581,0.754577994346619,-1.37195992469788,2.57623600959778,-967.500061035156,8.10000038146973,-916.500061035156,-0.41838672660738,-0.641327642864432,0.174199280176601,ST
7.16666666666667,-5.10993528366089,-0.821848452091217,8.31358909606934,0.647870004177094,-1.15854394435883,2.4847719669342,-977.100036621094,5.10000038146973,-918.900024414062,-0.459208446711814,-0.566508164955066,0.109752282796283,ST
7.2,-4.37302303314209,-0.236864611506462,8.72451305389404,-0.495429992675781,-0.365855991840363,2.16464805603027,-972.300048828125,0.900000035762787,-921.300048828125,-0.498209840057504,-0.484876088736167,0.042053832397867,ST
7.23333333333333,-4.00217485427856,-0.0412718653678894,9.24968338012695,-1.30336201190948,0.0533539988100529,2.21800184249878,-972.300048828125,7.50000047683716,-902.100036621094,-0.517257074348733,-0.423928108232491,0.0121803136254394,ST
7.26666666666667,-3.18630766868591,0.142358019948006,9.8256950378418,-2.14940404891968,1.52439999580383,2.11891603469849,-972.300048828125,9.30000019073486,-906.900024414062,-0.531225396314316,-0.336634484878845,-0.0076886467884181,ST
7.3,-3.6091947555542,-0.208751901984215,9.7598991394043,-1.88263392448425,3.07166600227356,1.46342396736145,-962.700012207031,12.3000001907349,-923.700012207031,-0.527377161630962,-0.355690361387772,0.0184638312795396,ST
7.33333333333333,-4.38079929351807,-0.456981241703033,9.17312049865723,-1.57775402069092,4.26832008361816,0.78506600856781,-962.700012207031,13.5000009536743,-911.700012207031,-0.519759554674852,-0.435196920431756,0.0458977755377907,ST
7.36666666666667,-4.83778047561646,-0.624461233615875,8.3578519821167,-1.56251001358032,5.5183277130127,-0.274392008781433,-948.300048828125,5.70000028610229,-921.300048828125,-0.508607816667703,-0.513273915001165,0.071266053908936,ST
7.4,-5.51727056503296,-1.02103006839752,7.70647382736206,-0.952749967575073,4.93143367767334,-0.78506600856781,-936.300048828125,14.1000003814697,-909.300048828125,-0.480776239183517,-0.602940719129264,0.121432952557231,ST
7.43333333333333,-6.39534473419189,-2.04265832901001,7.07722759246826,-1.11281192302704,4.36740589141846,-1.41006994247437,-936.300048828125,9.90000057220459,-906.900024414062,-0.396071561254842,-0.702451783757534,0.25648146174101,ST
7.46666666666667,-6.51258087158203,-2.35130000114441,6.24461269378662,-1.99696397781372,3.81099987030029,-2.65245604515076,-931.500061035156,14.1000003814697,-902.100036621094,-0.331131599700939,-0.764781160532109,0.34849001107344,ST
7.5,-6.58794689178467,-2.43384385108948,5.81215524673462,-1.48628997802734,3.33843588829041,-2.61434602737427,-936.300048828125,17.7000007629395,-904.500061035156,-0.29560815230125,-0.801984499413451,0.393849182091865,ST
7.53333333333333,-6.69321966171265,-2.62584757804871,5.01542901992798,-0.724089980125427,2.80489587783813,-2.0731840133667,-941.100036621094,9.30000019073486,-887.700012207031,-0.236479631465045,-0.857701717657606,0.469268531996072,ST
7.56666666666667,-6.98571157455444,-2.57321095466614,4.80368614196777,0.0838419944047928,3.08691000938416,-1.14329993724823,-914.700012207031,21.3000011444092,-906.900024414062,-0.215874114815581,-0.901134858269266,0.491171234402958,ST
7.6,-7.66460418701172,-2.5618462562561,5.17632913589478,0.304879993200302,3.03355598449707,-0.769822001457214,-919.500061035156,14.7000007629395,-892.500061035156,-0.229554133758688,-0.923528660202365,0.469448060066746,ST
7.63333333333333,-7.84643936157227,-3.38967633247375,5.21102142333984,0.304879993200302,2.5000159740448,-0.807931959629059,-905.100036621094,13.5000009536743,-897.300048828125,-0.155446315879593,-0.908206989968682,0.558757787812777,ST
7.66666666666667,-8.79868316650391,-3.32507681846619,6.4958324432373,-0.503051996231079,1.35671591758728,-2.37806391716003,-902.700012207031,9.30000019073486,-887.700012207031,-0.203849325085284,-0.883709041719821,0.492582111651453,ST
7.7,-8.28846740722656,-3.5433988571167,5.54418706893921,0.99848198890686,-0.525918006896973,-1.89025592803955,-912.300048828125,14.7000007629395,-887.700012207031,-0.151577760175501,-0.894949877561989,0.554901561082896,ST
7.73333333333333,-8.16465187072754,-3.28320670127869,4.76002168655396,1.08232402801514,-0.586893975734711,-2.01982998847961,-900.300048828125,20.1000003814697,-887.700012207031,-0.116384445941283,-0.940333451344811,0.594295679972903,ST
7.76666666666667,-7.44388914108276,-3.48478102684021,4.06378316879272,1.19665396213531,-0.129574000835419,-1.96647596359253,-905.100036621094,16.5,-878.100036621094,-0.0362411292180474,-0.944599989903229,0.687985795017887,ST
7.8,-8.56600570678711,-2.68446564674377,4.68226337432861,1.15092194080353,0.746955990791321,-0.952749967575073,-905.100036621094,8.70000076293945,-885.300048828125,-0.13986655834471,-0.996851242834591,0.557937714868836,ST
7.83333333333333,-7.9876012802124,-2.61747360229492,3.70071053504944,2.01982998847961,0.701223969459534,0.350611984729767,-902.700012207031,14.7000007629395,-890.100036621094,-0.0988696684113071,-1.04481884805157,0.60110083409745,ST
7.86666666666667,-8.69460582733154,-2.54091143608093,4.25100231170654,1.73019397258759,1.30336201190948,1.06708002090454,-902.700012207031,8.10000038146973,-887.700012207031,-0.1418552556916,-1.05394555154461,0.547683524919502,ST
7.9,-8.4057035446167,-2.2250919342041,4.623046875,1.6768399477005,0.3125019967556,1.59299790859222,-905.100036621094,6.30000019073486,-870.900024414062,-0.217371072047127,-1.02938103344719,0.457841486805186,ST
7.93333333333333,-8.31837463378906,-1.66762256622314,4.42386531829834,1.32622802257538,-0.739333987236023,1.75305998325348,-893.100036621094,10.5,-885.300048828125,-0.288945885849025,-1.04929168640663,0.374331166370735,ST
7.96666666666667,-8.1191930770874,-1.22080981731415,5.11232805252075,1.40244793891907,-0.754577994346619,2.99544596672058,-909.900024414062,9.90000057220459,-873.300048828125,-0.394950585209563,-1.00762531430613,0.251801247239868,ST
8.0,-7.81653213500977,-0.890036761760712,5.43532514572144,0.983237981796265,-1.92836594581604,3.03355598449707,-921.900024414062,7.50000047683716,-880.500061035156,-0.465720727263489,-0.96488327641543,0.170011906479382,ST
8.03333333333333,-7.64007997512817,-0.22968690097332,5.21461057662964,0.922261953353882,-1.76830399036407,3.55185198783875,-924.300048828125,10.5,-870.900024414062,-0.558641893880534,-0.968610347903343,0.0609168865892404,ST
8.06666666666667,-6.29724931716919,-0.645396292209625,6.37321329116821,-0.663114011287689,-1.34909391403198,3.52136397361755,-914.700012207031,1.5,-870.900024414062,-0.542535246138935,-0.811506352300837,0.0902044346819293,ST
8.1,-6.5018138885498,-0.241649761795998,7.80516767501831,-1.49391198158264,-2.46190595626831,1.80641400814056,-912.300048828125,2.10000014305115,-887.700012207031,-0.583687500432646,-0.710516440878746,0.0397187698758381,ST
8.13333333333333,-5.55256128311157,-0.314623206853867,7.52344226837158,-1.12043392658234,-2.57623600959778,1.61586391925812,-917.100036621094,11.7000007629395,-885.300048828125,-0.587928287364618,-0.644287622277074,0.0411820702528099,ST
8.16666666666667,-4.94424962997437,-0.986935913562775,8.14072608947754,-2.47714996337891,-0.815553963184357,0.746955990791321,-929.100036621094,1.5,-866.100036621094,-0.551375597810181,-0.542681823190816,0.123059622487083,ST
8.2,-5.34859466552734,-0.980954468250275,8.03784561157227,-1.86738991737366,-0.693601965904236,1.53202199935913,-926.700012207031,5.10000038146973,-875.700012207031,-0.556835690701401,-0.574747272811149,0.122967661077138,ST
8.23333333333333,-5.26545238494873,-1.79921400547028,7.24530601501465,-1.52439999580383,-0.617381989955902,1.64635193347931,-936.300048828125,6.30000019073486,-866.100036621094,-0.506738980014758,-0.607671494522142,0.223142091498956,ST
8.26666666666667,-4.41309881210327,-2.42786240577698,5.97126150131226,-1.61586391925812,-1.21189796924591,0.114329993724823,-933.900024414062,6.30000019073486,-863.700012207031,-0.434676844391756,-0.60123086928247,0.355093147763585,ST
8.3,-6.21829414367676,-2.54928541183472,6.37440967559814,-2.18751406669617,-1.18903195858002,-1.85214591026306,-931.500061035156,8.10000038146973,-873.300048828125,-0.419831125592826,-0.710500969363491,0.380610553162709,ST
8.33333333333333,-7.39543962478638,-2.44879722595215,6.59392833709717,-1.31098401546478,-0.670735955238342,-2.0579400062561,-943.500061035156,7.50000047683716,-849.300048828125,-0.429461003805833,-0.788288161502762,0.365296545418829,ST
8.36666666666667,-7.79440116882324,-2.10606145858765,7.34340143203735,-0.0304879993200302,-0.830797970294952,-0.701223969459534,-936.300048828125,14.7000007629395,-863.700012207031,-0.477164868454724,-0.792896051649548,0.297375840897035,ST
8.4,-8.41228294372559,-1.74777376651764,6.87684965133667,2.03507399559021,-1.22714197635651,0.617381989955902,-938.700012207031,12.9000005722046,-858.900024414062,-0.506575510789228,-0.854004885825607,0.254456177623007,ST
8.43333333333333,-8.99965953826904,-1.27105379104614,6.57598400115967,1.70732796192169,-0.777444005012512,1.14329993724823,-950.700012207031,9.30000019073486,-856.500061035156,-0.547377262658754,-0.914821517541219,0.200174250167668,ST
8.46666666666667,-8.50559329986572,-1.52765715122223,6.33194160461426,0.945127964019775,0.144817993044853,1.42531394958496,-950.700012207031,9.90000057220459,-854.100036621094,-0.52741958261634,-0.917461932145898,0.225565965929247,ST
8.5,-7.55334949493408,-1.42896354198456,6.58375978469849,-0.602137982845306,-0.0228659994900227,-0.167683988809586,-931.500061035156,12.9000005722046,-858.900024414062,-0.534876390391566,-0.85742485439862,0.217063341089843,ST
8.53333333333333,-7.24710035324097,-1.16039741039276,6.05320692062378,-0.0152439996600151,-0.708845973014832,-0.647870004177094,-957.900024414062,14.7000007629395,-858.900024414062,-0.550242930873839,-0.863180604458594,0.195856199903966,ST
8.56666666666667,-6.94563627243042,-1.51748871803284,5.7122654914856,0.655492007732391,-0.541162014007568,-0.25152599811554,-938.700012207031,13.5000009536743,-856.500061035156,-0.510743815345008,-0.864584958009784,0.24603800495481,ST
8.6,-7.0867977142334,-1.67958545684814,5.47300815582275,1.14329993724823,0.289635986089706,0.0,-950.700012207031,9.30000019073486,-858.900024414062,-0.476256625553029,-0.887581444527421,0.287831199998044,ST
8.63333333333333,-7.03894662857056,-1.80519545078278,5.76191139221191,0.792688012123108,1.01372599601746,-0.0914639979600906,-955.500061035156,21.3000011444092,-868.500061035156,-0.464491783349487,-0.867744243479144,0.300403211794361,ST
8.66666666666667,-7.11969566345215,-2.00437712669373,6.20513534545898,0.0838419944047928,0.922261953353882,-0.137196004390717,-948.300048828125,18.9000015258789,-882.900024414062,-0.456007934518647,-0.838180794692222,0.310639097130819,ST
8.7,-6.88701820373535,-1.98404026031494,5.96408367156982,-0.663114011287689,0.769822001457214,-0.602137982845306,-950.700012207031,19.5,-866.100036621094,-0.447699473023329,-0.833024140331998,0.321661258110879,ST
8.73333333333333,-6.44379425048828,-2.16228675842285,6.76380062103271,-0.853663980960846,1.04421401023865,-0.716467976570129,-953.100036621094,17.7000007629395,-870.900024414062,-0.452925883736042,-0.754061326874006,0.31396977564215,ST
8.76666666666667,-6.80866146087646,-1.90987050533295,7.62512636184692,-0.746955990791321,1.05183601379395,-1.06708002090454,-945.900024414062,18.3000011444092,-875.700012207031,-0.487216439283024,-0.723101777078228,0.261465479330532,ST
8.8,-6.29186582565308,-1.62395811080933,8.11680030822754,0.342989981174469,0.289635986089706,-0.792688012123108,-941.100036621094,15.9000005722046,-878.100036621094,-0.518071935487759,-0.664918152513062,0.210199727993835,ST
8.83333333333333,-5.59024429321289,-1.57491040229797,8.09347248077393,0.655492007732391,-0.152439996600151,-0.487807989120483,-933.900024414062,14.7000007629395,-882.900024414062,-0.525396717942534,-0.60774574987886,0.194808522427051,ST
8.86666666666667,-4.85811710357666,-1.30574607849121,7.54138660430908,0.480185985565186,-1.30336201190948,-0.952749967575073,-943.500061035156,12.9000005722046,-880.500061035156,-0.533902881698037,-0.572046994601641,0.176027041841179,ST
8.9,-5.84086608886719,-1.26686680316925,7.52045154571533,1.15092194080353,-2.27135586738586,-0.6250039935112,-948.300048828125,15.3000001907349,-897.300048828125,-0.53686540443737,-0.636423581462644,0.167089656727342,ST
8.93333333333333,-5.99219608306885,-1.28301668167114,6.60768556594849,1.12805593013763,-3.12502002716064,-0.0990860015153885,-957.900024414062,21.3000011444092,-885.300048828125,-0.525344322544019,-0.704662736164173,0.184353296131101,ST
8.96666666666667,-5.86658620834351,-1.67480027675629,6.54846906661987,0.3125019967556,-3.88721990585327,0.777444005012512,-955.500061035156,20.7000007629395,-897.300048828125,-0.495042558303911,-0.707909897870293,0.234554074716017,ST
9.0,-5.31450033187866,-2.12161302566528,6.73927688598633,-0.137196004390717,-5.3506441116333,0.25152599811554,-960.300048828125,16.5,-904.500061035156,-0.463467604356484,-0.65068915647078,0.28968568515252,ST
9.03333333333333,-5.55315923690796,-3.00566840171814,5.99578523635864,-1.18903195858002,-5.13722801208496,-1.47104597091675,-969.900024414062,18.3000011444092,-887.700012207031,-0.375512188461753,-0.67824191621022,0.436902323602614,ST
9.06666666666667,-6.46054220199585,-3.80418920516968,6.22128486633301,-1.72257196903229,-2.27135586738586,-1.98171997070312,-969.900024414062,18.3000011444092,-902.100036621094,-0.316496453094821,-0.712773297393564,0.531230584710382,ST
9.1,-7.24710035324097,-4.11821413040161,7.35775661468506,-2.78965187072754,-0.320124000310898,-4.20734405517578,-957.900024414062,13.5000009536743,-899.700012207031,-0.320273263934057,-0.707258227210705,0.522548298733226,ST
9.13333333333333,-7.56949949264526,-4.10864400863647,7.13823843002319,-1.62348592281342,-0.937505960464478,-3.94819593429565,-981.900024414062,20.7000007629395,-902.100036621094,-0.313854515796309,-0.732083127645942,0.528279873747811,ST
9.16666666666667,-8.4415922164917,-3.57450246810913,6.24042558670044,-0.434453994035721,-0.739333987236023,-2.64483404159546,-969.900024414062,18.9000015258789,-902.100036621094,-0.31321236573094,-0.835328679396094,0.525619795431604,ST
9.2,-7.57129383087158,-2.9422652721405,5.09857082366943,-0.129574000835419,0.861285984516144,-0.3125019967556,-969.900024414062,17.7000007629395,-906.900024414062,-0.312571453412065,-0.896513343061185,0.525299720958177,ST
9.23333333333333,-7.49772214889526,-2.79572033882141,5.69551753997803,-0.411587983369827,1.21189796924591,0.914639949798584,-962.700012207031,19.5,-911.700012207031,-0.358424175479627,-0.875519741532741,0.467654233536302,ST
9.26666666666667,-7.26085758209229,-2.15271663665771,5.35876274108887,-1.11281192302704,1.53202199935913,1.86738991737366,-962.700012207031,20.7000007629395,-904.500061035156,-0.41671114298543,-0.898068676238598,0.397254540930242,ST
9.3,-6.73449182510376,-1.91645002365112,5.44848442077637,-0.899396002292633,2.63721203804016,2.55336999893188,-957.900024414062,20.1000003814697,-904.500061035156,-0.459504375006585,-0.873271834758725,0.347071865408203,ST
9.33333333333333,-6.59033918380737,-2.2191104888916,6.26554775238037,-0.160062000155449,3.01068997383118,3.63569402694702,-953.100036621094,26.1000003814697,-904.500061035156,-0.470420617501896,-0.803300660037004,0.338101031443965,ST
9.36666666666667,-6.03885126113892,-2.77299070358276,7.28239059448242,0.655492007732391,2.04269599914551,3.81862187385559,-955.500061035156,21.3000011444092,-914.100036621094,-0.462688256212404,-0.689511632777155,0.355409524031217,ST
9.4,-5.90905427932739,-2.58637022972107,7.51805877685547,1.08994603157043,0.907018005847931,2.57623600959778,-955.500061035156,17.7000007629395,-909.300048828125,-0.480160939943925,-0.650065694104932,0.331284829827697,ST
9.43333333333333,-5.48736381530762,-2.61268854141235,7.46661853790283,1.04421401023865,0.663114011287689,2.05031800270081,-929.100036621094,16.5,-904.500061035156,-0.481364124079718,-0.616096957587602,0.33243071179086,ST
9.46666666666667,-4.85632276535034,-2.4876766204834,6.63220930099487,0.846041977405548,0.289635986089706,1.60061991214752,-950.700012207031,21.3000011444092,-906.900024414062,-0.472129913413152,-0.605042290701108,0.35131113236607,ST
9.5,-5.06447649002075,-2.7562427520752,6.76439905166626,0.327746003866196,0.762199997901917,1.6844619512558,-936.300048828125,20.7000007629395,-899.700012207031,-0.458933278436958,-0.607897765598498,0.378037392439322,ST
9.53333333333333,-4.81923770904541,-3.13905429840088,6.92948627471924,-0.198172003030777,0.579271972179413,0.632625997066498,-933.900024414062,19.5,-911.700012207031,-0.438696287498769,-0.574562219600612,0.416001324778862,ST
9.56666666666667,-4.92331457138062,-2.82323479652405,6.97135639190674,0.160062000155449,-0.647870004177094,-0.342989981174469,-943.500061035156,17.1000003814697,-904.500061035156,-0.452035384516613,-0.577592794496325,0.390933397654598,ST
9.6,-5.71764850616455,-2.61149215698242,6.78413772583008,1.31098401546478,-1.88263392448425,-0.586893975734711,-938.700012207031,24.3000011444092,-911.700012207031,-0.462299964047503,-0.645748337245128,0.370502239640815,ST
9.63333333333333,-5.73798561096191,-1.86500978469849,5.86778259277344,1.6920839548111,-2.90398192405701,-0.350611984729767,-929.100036621094,14.7000007629395,-911.700012207031,-0.493972855328876,-0.725163240993952,0.318349920269802,ST
9.66666666666667,-6.68006086349487,-1.54141438007355,5.6165623664856,1.77592599391937,-2.43903994560242,0.762199997901917,-941.100036621094,21.9000015258789,-916.500061035156,-0.525383835968866,-0.828902214169434,0.272694861391951,ST
9.7,-8.25556945800781,-1.87816894054413,7.29016637802124,1.29574000835419,-0.518296003341675,2.31708788871765,-953.100036621094,18.9000015258789,-909.300048828125,-0.543791087366397,-0.831150188177902,0.249945293528142,ST
9.73333333333333,-7.99178838729858,-1.10177934169769,7.40740251541138,0.46494197845459,-0.853663980960846,1.73019397258759,-945.900024414062,15.3000001907349,-902.100036621094,-0.610575527501392,-0.819835245965115,0.162185601499983,ST
9.76666666666667,-8.43800258636475,-1.23456704616547,7.57249021530151,0.78506600856781,-1.89787793159485,2.33233189582825,-945.900024414062,15.3000001907349,-902.100036621094,-0.617360239468732,-0.828152461377383,0.156682810589351,ST
9.8,-7.71963310241699,-1.19150078296661,7.72621297836304,-0.129574000835419,-2.23324584960938,1.19665396213531,-950.700012207031,10.5,-904.500061035156,-0.623572912646631,-0.786127380975208,0.151763182436758,ST
9.83333333333333,-7.52583503723145,-1.1155366897583,7.45345973968506,0.152439996600151,-2.27135586738586,0.78506600856781,-953.100036621094,13.5000009536743,-918.900024414062,-0.628188190552071,-0.782012321925218,0.147452109545231,ST
9.86666666666667,-6.7919135093689,-0.979160070419312,6.43482208251953,0.495429992675781,-0.411587983369827,0.655492007732391,-962.700012207031,17.1000003814697,-928.500061035156,-0.627729978283563,-0.801264682124877,0.148569891060162,ST
9.9,-6.48985147476196,-0.980954468250275,6.94503784179688,0.46494197845459,0.282013982534409,0.548784017562866,-957.900024414062,8.70000076293945,-909.300048828125,-0.633565839034247,-0.756840757308562,0.140390396231364,ST
9.93333333333333,-5.88871765136719,-0.751865744590759,7.62751913070679,0.152439996600151,-0.121951997280121,0.396344006061554,-953.100036621094,12.3000001907349,-897.300048828125,-0.657010788647945,-0.675475872154659,0.105524596882963,ST
9.96666666666667,-4.74387168884277,-0.790146887302399,5.7744722366333,0.487807989120483,0.175305992364883,-0.289635986089706,-953.100036621094,10.5,-921.300048828125,-0.640709667962886,-0.681860185238098,0.129488135864644,ST
10.0,-5.79600524902344,-1.05990934371948,7.3792896270752,-0.937505960464478,2.33233189582825,-0.579271972179413,-960.300048828125,17.7000007629395,-911.700012207031,-0.632425173807791,-0.66819066202202,0.142340138985229,ST
10.0333333333333,-5.52923345565796,-1.50432956218719,8.41048812866211,-1.04421401023865,2.15702605247498,-0.663114011287689,-953.100036621094,18.9000015258789,-911.700012207031,-0.613926052783773,-0.596068837197539,0.172868090846355,ST
10.0666666666667,-5.25348949432373,-1.96310520172119,8.10005187988281,-1.79879200458527,0.480185985565186,-1.74543797969818,-943.500061035156,12.3000001907349,-916.500061035156,-0.581775795198505,-0.569466347243256,0.229071954098588,ST
10.1,-4.79531240463257,-2.33574819564819,7.79679346084595,-1.88263392448425,-0.381099998950958,-1.95885396003723,-933.900024414062,20.1000003814697,-902.100036621094,-0.552167565016925,-0.538756340402748,0.28293503774206,DLL
10.1333333333333,-4.28928327560425,-2.06000447273254,6.75243616104126,-0.975615978240967,-0.87652999162674,-1.42531394958496,-953.100036621094,19.5,-906.900024414062,-0.544531641891853,-0.542778097913121,0.29573508983461,DLL
10.1666666666667,-4.92271661758423,-2.25679349899292,6.33074522018433,-0.525918006896973,-1.08994603157043,-0.548784017562866,-945.900024414062,14.1000003814697,-918.900024414062,-0.524254478431367,-0.612419309490702,0.333432435919329,DLL
10.2,-5.52265405654907,-2.29447650909424,7.28897047042847,-0.495429992675781,-1.46342396736145,-0.167683988809586,-953.100036621094,19.5,-916.500061035156,-0.53837046172666,-0.621129601515567,0.311156127890494,DLL
10.2333333333333,-5.32646322250366,-2.6216607093811,5.93298006057739,0.236281991004944,-2.88873791694641,0.243903994560242,-945.900024414062,29.1000003814697,-911.700012207031,-0.491550279983655,-0.670858047716577,0.392157880524119,DLL
10.2666666666667,-6.77516555786133,-3.30234742164612,5.58844995498657,-0.99848198890686,0.205793991684914,-0.846041977405548,-943.500061035156,19.5,-911.700012207031,-0.415845074247868,-0.780996088009772,0.506278959484749,DLL
10.3,-8.28667259216309,-3.19827055931091,7.17472505569458,-0.556405961513519,1.72257196903229,-0.754577994346619,-955.500061035156,19.5,-911.700012207031,-0.461581296894741,-0.807861534639333,0.440156368408604,DLL
10.3333333333333,-8.30342102050781,-3.75573968887329,6.89658832550049,-0.434453994035721,0.99848198890686,-1.08994603157043,-943.500061035156,23.7000007629395,-911.700012207031,-0.422629744941533,-0.813022382315855,0.491619588309448,DLL
10.3666666666667,-9.84363842010498,-2.56842589378357,7.78841972351074,-0.579271972179413,0.297257989645004,-0.762199997901917,-938.700012207031,18.9000015258789,-902.100036621094,-0.52353982001205,-0.865348067706654,0.355670444716083,DLL
10.4,-8.02648067474365,-2.29746723175049,6.51557159423828,-0.198172003030777,-1.05945801734924,1.34909391403198,-943.500061035156,30.9000015258789,-909.300048828125,-0.538508897184119,-0.860331823052677,0.33974973486279,DLL
10.4333333333333,-7.09995698928833,-2.12280941009521,5.83548259735107,-1.22714197635651,-1.34909391403198,1.51677799224854,-945.900024414062,24.3000011444092,-911.700012207031,-0.538944094257253,-0.852781793993201,0.345759889787759,DLL
10.4666666666667,-6.35885810852051,-1.86919677257538,5.26485443115234,-2.12653803825378,-1.18140995502472,1.57775402069092,-943.500061035156,21.3000011444092,-904.500061035156,-0.548277679702377,-0.849700465519198,0.342051304082259,DLL
10.5,-6.34928750991821,-1.94635725021362,5.37371635437012,-3.29270386695862,-1.02897000312805,3.50611996650696,-955.500061035156,25.5000019073486,-906.900024414062,-0.557402913741448,-0.840442296775943,0.345350356219341,DLL
10.5333333333333,-7.12627553939819,-1.9529367685318,5.63271236419678,-4.80185985565186,-1.31860601902008,5.51070594787598,-945.900024414062,23.7000007629395,-911.700012207031,-0.583017620620707,-0.868141048510719,0.333700897549024,DLL
10.5666666666667,-6.85471868515015,-2.11981868743896,5.10634660720825,-8.20127201080322,-3.20886182785034,8.48328590393066,-945.900024414062,29.1000003814697,-906.900024414062,-0.577456076761038,-0.887425536449687,0.377141628054029,DLL
10.6,-7.08440542221069,-2.89561009407043,4.50640916824341,-15.6403436660767,-6.05186796188354,14.1006994247437,-948.300048828125,27.9000015258789,-890.100036621094,-0.511787017639249,-0.919321843022591,0.524528311855727,DLL
10.6333333333333,-7.56172323226929,-3.54459524154663,3.81974101066589,-19.1617069244385,-8.12505149841309,19.7714672088623,-955.500061035156,29.1000003814697,-904.500061035156,-0.444715415200777,-0.967199170698012,0.686234401090588,DLL
10.6666666666667,-7.21659517288208,-5.00466203689575,3.84247040748596,-22.5077648162842,-9.20737552642822,24.8400974273682,-950.700012207031,30.9000015258789,-897.300048828125,-0.376653691740348,-0.893336190216294,0.866969920452853,DLL
10.7,-5.80557584762573,-6.72133255004883,4.14333629608154,-24.9086952209473,-10.9680576324463,25.7166271209717,-962.700012207031,44.7000007629395,-882.900024414062,-0.36477632045453,-0.702960855122855,1.00073824415348,DLL
10.7333333333333,-3.8998920917511,-7.13165855407715,5.73738718032837,-22.5687408447266,-12.035138130188,22.8964881896973,-955.500061035156,50.7000007629395,-870.900024414062,-0.483279692036867,-0.476150048529296,0.923224261644988,DLL
10.7666666666667,-5.66381597518921,-6.16984462738037,8.55523872375488,-15.1296691894531,-10.495493888855,16.0976638793945,-965.100036621094,45.9000015258789,-868.500061035156,-0.646884100815991,-0.497130183167132,0.692185405292118,DLL
10.8,-4.19118785858154,-5.18589973449707,9.78442287445068,-7.59151172637939,-9.10828971862793,10.7622632980347,-957.900024414062,54.3000030517578,-854.100036621094,-0.75421251047635,-0.387484613506247,0.528695205337705,DLL
10.8333333333333,-4.83000469207764,-3.71207523345947,9.65043830871582,-2.65245604515076,-7.35522985458374,5.12198400497437,-945.900024414062,51.9000015258789,-854.100036621094,-0.824233747655618,-0.421473098157521,0.399492044367533,DLL
10.8666666666667,-4.89460372924805,-2.55287408828735,8.75621509552002,0.167683988809586,-4.69515180587769,1.12043392658234,-950.700012207031,50.1000022888184,-858.900024414062,-0.871692820991075,-0.47433615115997,0.30306366927115,DLL
10.9,-4.93767023086548,-2.143146276474,8.41646957397461,0.449698001146317,-3.39178991317749,-0.632625997066498,-967.500061035156,55.5000038146973,-858.900024414062,-0.893219726226552,-0.504884272726146,0.257698783794445,DLL
10.9333333333333,-4.22169303894043,-2.00856399536133,8.06177139282227,0.945127964019775,-2.46952795982361,-1.52439999580383,-965.100036621094,54.3000030517578,-854.100036621094,-0.895855675528925,-0.473264592435995,0.246187708074704,DLL
10.9666666666667,-3.74138426780701,-2.29866337776184,7.40620613098145,1.61586391925812,-1.28049600124359,-2.11129403114319,-960.300048828125,53.7000007629395,-873.300048828125,-0.871606852711781,-0.451885393392318,0.288917219789088,DLL
11.0,-3.78026366233826,-2.43803071975708,7.05390024185181,1.6920839548111,0.762199997901917,-3.03355598449707,-979.500061035156,56.7000007629395,-856.500061035156,-0.848046132030093,-0.465188534698436,0.323677757878654,DLL
11.0333333333333,-4.52435350418091,-2.95004105567932,7.1226863861084,1.50915598869324,2.54574799537659,-3.25459384918213,-979.500061035156,46.5,-863.700012207031,-0.812162905927858,-0.519284216578959,0.379286091244335,DLL
11.0666666666667,-4.51717567443848,-4.33892917633057,6.57717990875244,-1.29574000835419,5.80034208297729,-3.12502002716064,-977.100036621094,53.7000007629395,-866.100036621094,-0.718519179125753,-0.526559192220224,0.548177335140026,DLL
11.1,-5.49274682998657,-3.42137789726257,7.54976081848145,1.41769194602966,7.16468000411987,-4.6494197845459,-979.500061035156,55.5000038146973,-858.900024414062,-0.750757578704118,-0.579849229811933,0.455534610789635,DLL
11.1333333333333,-5.33184623718262,-4.23664665222168,6.97016000747681,0.434453994035721,4.32929611206055,-4.81710386276245,-974.700012207031,60.3000030517578,-866.100036621094,-0.695551022599844,-0.581356969993497,0.533080991734017,DLL
11.1666666666667,-7.66639852523804,-3.51708078384399,7.15139722824097,-1.12043392658234,2.01220798492432,-2.18751406669617,-965.100036621094,51.9000015258789,-856.500061035156,-0.72418231140074,-0.729586025843617,0.479834750762609,DLL
11.2,-6.7620062828064,-3.41001296043396,6.90496253967285,-1.83690190315247,1.12043392658234,0.92988395690918,-965.100036621094,54.3000030517578,-854.100036621094,-0.737343638698512,-0.724379695421269,0.465090486921307,DLL
11.2333333333333,-5.53641128540039,-3.27722525596619,6.81763362884521,-1.45580196380615,0.205793991684914,2.13416004180908,-950.700012207031,53.7000007629395,-849.300048828125,-0.751446156655147,-0.651963449304642,0.451369853145901,DLL
11.2666666666667,-5.78464078903198,-3.10017490386963,6.36304473876953,-0.457319974899292,-0.579271972179413,1.95885396003723,-962.700012207031,54.9000015258789,-858.900024414062,-0.755745953239566,-0.678931857085942,0.451361128010656,DLL
11.3,-6.17283535003662,-2.60251998901367,6.06756210327148,0.670735955238342,-0.121951997280121,1.09756803512573,-960.300048828125,57.9000015258789,-846.900024414062,-0.781615464908728,-0.737609310672389,0.41281314237285,DLL
11.3333333333333,-6.41927051544189,-2.39436626434326,6.02150535583496,1.2347639799118,-0.0457319989800453,0.922261953353882,-955.500061035156,60.3000030517578,-851.700012207031,-0.801711601107905,-0.772454365002142,0.382748400305351,DLL
11.3666666666667,-6.06217908859253,-2.34771108627319,4.65115976333618,1.58537602424622,0.617381989955902,-0.228659987449646,-950.700012207031,52.5000038146973,-863.700012207031,-0.751592347312224,-0.843825005962708,0.447478210988503,DLL
11.4,-7.47379636764526,-2.46135830879211,5.65903043746948,0.846041977405548,1.2500079870224,-0.701223969459534,-960.300048828125,52.5000038146973,-856.500061035156,-0.770099872272555,-0.874398342872638,0.41876825836492,DLL
11.4333333333333,-7.6209397315979,-3.04933285713196,6.30083799362183,-0.175305992364883,-0.282013982534409,-0.724089980125427,-962.700012207031,50.1000022888184,-851.700012207031,-0.748671941471624,-0.835361237883798,0.446411288632178,DLL
11.4666666666667,-7.11730337142944,-3.41240572929382,6.54069328308105,-0.739333987236023,-2.10367202758789,-0.503051996231079,-962.700012207031,54.3000030517578,-849.300048828125,-0.730218716947598,-0.778210230613546,0.474678743108971,DLL
11.5,-6.99049711227417,-3.6714015007019,7.13165855407715,-1.00610399246216,-2.62196803092957,-0.0152439996600151,-962.700012207031,54.9000015258789,-858.900024414062,-0.733428399089928,-0.725905151000187,0.475209682753289,DLL
11.5333333333333,-6.37740039825439,-4.20075798034668,7.08320903778076,-0.701223969459534,-2.47714996337891,0.175305992364883,-969.900024414062,54.3000030517578,-854.100036621094,-0.705948003492481,-0.669663528127309,0.523180260739572,DLL
11.5666666666667,-5.3180890083313,-4.47171688079834,6.5735912322998,-0.350611984729767,-1.85976791381836,0.480185985565186,-969.900024414062,57.3000030517578,-856.500061035156,-0.673793044811169,-0.604066938708297,0.582223114779188,DLL
11.6,-5.31928539276123,-4.24382448196411,6.27511787414551,-0.0152439996600151,-0.868907988071442,0.670735955238342,-981.900024414062,54.9000015258789,-856.500061035156,-0.670682601134782,-0.610154533622977,0.591264170158594,DLL
11.6333333333333,-5.21999359130859,-4.01114654541016,5.85761404037476,0.884151995182037,-0.0228659994900227,2.03507399559021,-969.900024414062,57.3000030517578,-846.900024414062,-0.670150529424031,-0.630762272252641,0.595615510076617,DLL
11.6666666666667,-6.31160449981689,-3.57749319076538,6.20034980773926,1.42531394958496,0.320124000310898,3.61282801628113,-969.900024414062,56.1000022888184,-861.300048828125,-0.711768890090857,-0.707203025940328,0.533500849163977,DLL
11.7,-5.52504682540894,-3.74377679824829,6.07414197921753,1.53202199935913,-0.571649968624115,4.40551567077637,-967.500061035156,54.9000015258789,-861.300048828125,-0.711343145969482,-0.67111856532682,0.542025656411258,DLL
11.7333333333333,-4.59792518615723,-3.70011234283447,6.05918836593628,1.29574000835419,-2.41617393493652,4.01679372787476,-960.300048828125,50.1000022888184,-861.300048828125,-0.719897693027848,-0.589822327696396,0.540734316365332,DLL
11.7666666666667,-5.75174283981323,-3.22159814834595,7.63649129867554,0.609759986400604,-2.90398192405701,2.95733594894409,-962.700012207031,58.5000038146973,-863.700012207031,-0.792587257354827,-0.602125389790634,0.423446498853895,DLL
11.8,-5.83787536621094,-2.12460374832153,8.17721271514893,0.693601965904236,-3.73477983474731,3.43752193450928,-965.100036621094,48.9000015258789,-866.100036621094,-0.879736550439111,-0.601698404396239,0.283267783374279,DLL
11.8333333333333,-5.38747358322144,-1.96908664703369,8.33631896972656,0.647870004177094,-3.16313004493713,4.13874578475952,-962.700012207031,55.5000038146973,-858.900024414062,-0.914982988808589,-0.56573191084129,0.235582250254916,DLL
11.8666666666667,-4.78035879135132,-1.40743041038513,8.11739826202393,0.0685980021953583,-1.87501192092896,2.23324584960938,-979.500061035156,54.3000030517578,-868.500061035156,-0.948952273564627,-0.530986723825402,0.180591977677452,DLL
11.9,-3.60201692581177,-1.73700714111328,8.01870441436768,-0.647870004177094,-2.01220798492432,1.07470202445984,-967.500061035156,57.3000030517578,-868.500061035156,-0.940299491439954,-0.434850900457156,0.207014229222028,DLL
11.9333333333333,-4.29287195205688,-1.41101932525635,7.85481357574463,-1.64635193347931,-2.18751406669617,-0.297257989645004,-972.300048828125,53.7000007629395,-868.500061035156,-0.951493618684661,-0.478630908394017,0.186047833341676,DLL
11.9666666666667,-3.84306859970093,-2.01634001731873,8.31657981872559,-2.080806016922,-1.11281192302704,0.685979962348938,-969.900024414062,48.9000015258789,-849.300048828125,-0.936139431630064,-0.432248939789197,0.229949118820838,DLL
12.0,-3.34960055351257,-2.75504660606384,8.65572738647461,-2.75916385650635,-0.952749967575073,-0.304879993200302,-989.100036621094,58.5000038146973,-866.100036621094,-0.912482152500829,-0.367954206207297,0.296667898128876,DLL
12.0333333333333,-4.15230846405029,-3.12170815467834,8.66110992431641,-2.9192259311676,-0.0914639979600906,-1.15092194080353,-979.500061035156,50.7000007629395,-856.500061035156,-0.89611110407793,-0.411830675762818,0.340512433523593,DLL
12.0666666666667,-4.64996337890625,-3.22638320922852,8.53490161895752,-1.63872992992401,2.31708788871765,-0.891773998737335,-967.500061035156,54.3000030517578,-858.900024414062,-0.885835854210856,-0.461882900008534,0.360522627414164,DLL
12.1,-4.59852313995361,-3.62833523750305,8.37639427185059,-0.175305992364883,2.82013988494873,-0.556405961513519,-967.500061035156,54.3000030517578,-863.700012207031,-0.864906625686685,-0.469094218403515,0.400392278870706,DLL
12.1333333333333,-4.96697902679443,-2.59235167503357,6.74944543838501,1.2576299905777,3.51374197006226,-1.76830399036407,-962.700012207031,59.7000007629395,-858.900024414062,-0.870286772203138,-0.578617274438074,0.374874184005106,DLL
12.1666666666667,-5.61177730560303,-2.4715268611908,6.94563627243042,2.05031800270081,3.89484190940857,-0.25152599811554,-969.900024414062,50.7000007629395,-863.700012207031,-0.88016715034092,-0.641067530502366,0.347568685404889,DLL
12.2,-5.41498851776123,-2.55466866493225,6.4455885887146,1.05945801734924,3.42227792739868,-0.952749967575073,-965.100036621094,53.1000022888184,-861.300048828125,-0.85998462328314,-0.662621314075498,0.372080771392306,DLL
12.2333333333333,-5.59981441497803,-2.81665515899658,6.91632699966431,-0.457319974899292,2.64483404159546,-1.79879200458527,-960.300048828125,56.7000007629395,-856.500061035156,-0.846240829776825,-0.6495724934597,0.387509943144642,DLL
12.2666666666667,-6.26554775238037,-2.58337950706482,6.71236038208008,-0.342989981174469,1.29574000835419,-1.21951997280121,-957.900024414062,57.9000015258789,-863.700012207031,-0.852268023060915,-0.70414371379475,0.374036899273291,DLL
12.3,-6.68305158615112,-2.74846696853638,6.43661642074585,-0.137196004390717,1.93598794937134,-0.495429992675781,-962.700012207031,62.1000022888184,-856.500061035156,-0.833755530447955,-0.752794889944126,0.399115566397675,DLL
12.3333333333333,-6.11302137374878,-3.22698140144348,5.87974548339844,-0.92988395690918,2.30184388160706,-1.46342396736145,-953.100036621094,50.7000007629395,-854.100036621094,-0.769635613997013,-0.743745613959508,0.489393592089792,DLL
12.3666666666667,-6.52035665512085,-3.27244019508362,5.74336862564087,-0.716467976570129,1.53202199935913,-1.14329993724823,-955.500061035156,55.5000038146973,-854.100036621094,-0.749374086318977,-0.773453938449657,0.516129891880094,DLL
12.4,-6.15429306030273,-3.53203415870667,5.51487827301025,-0.731711983680725,1.08994603157043,-0.99848198890686,-962.700012207031,54.3000030517578,-842.100036621094,-0.716427572464923,-0.758858546945996,0.561924702963468,DLL
12.4333333333333,-5.8641939163208,-3.9058735370636,5.40362358093262,-0.990859985351562,-0.411587983369827,-1.36433792114258,-948.300048828125,53.7000007629395,-849.300048828125,-0.679923552860299,-0.727533458752261,0.615836154230337,DLL
12.4666666666667,-7.05748891830444,-4.18580436706543,6.32655811309814,-0.739333987236023,-1.29574000835419,-0.945127964019775,-953.100036621094,55.5000038146973,-846.900024414062,-0.697734434554496,-0.743378539178422,0.591019353014775,DLL
12.5,-7.79440116882324,-4.50700712203979,7.58026599884033,-0.792688012123108,-2.15702605247498,-0.365855991840363,-962.700012207031,55.5000038146973,-837.300048828125,-0.730683310264434,-0.724489227573956,0.546112813935924,DLL
12.5333333333333,-5.23434925079346,-4.98193264007568,6.44798135757446,-0.525918006896973,-3.3613018989563,-0.137196004390717,-967.500061035156,57.9000015258789,-839.700012207031,-0.678816925768503,-0.598420628978878,0.636346369288156,DLL
12.5666666666667,-6.27152919769287,-4.54887723922729,7.44987058639526,-0.0838419944047928,-3.10977602005005,0.0838419944047928,-967.500061035156,57.3000030517578,-861.300048828125,-0.723309219169801,-0.614790404146039,0.564606855534066,DLL
12.6,-5.13804817199707,-4.39575290679932,7.32964420318604,1.22714197635651,-2.37044191360474,0.846041977405548,-972.300048828125,57.9000015258789,-837.300048828125,-0.73848842905548,-0.552928948440025,0.541222805381049,DLL
12.6333333333333,-4.26954460144043,-3.83648896217346,6.79909133911133,2.34757590293884,-2.0731840133667,1.10518991947174,-969.900024414062,53.7000007629395,-846.900024414062,-0.754018859015568,-0.507415963471654,0.513202315892334,DLL
12.6666666666667,-4.47530555725098,-3.63252234458923,6.30801582336426,2.80489587783813,-1.04421401023865,1.42531394958496,-965.100036621094,55.5000038146973,-858.900024414062,-0.753233369843832,-0.544017714811595,0.515310027403881,DLL
12.7,-5.54418706893921,-3.58227825164795,7.5730881690979,1.65397393703461,-0.449698001146317,0.937505960464478,-957.900024414062,51.3000030517578,-849.300048828125,-0.787403589887182,-0.57797847517073,0.451073807073239,DLL
12.7333333333333,-5.35457611083984,-3.67199969291687,7.35596227645874,1.28811800479889,-1.27287399768829,1.46342396736145,-967.500061035156,53.7000007629395,-861.300048828125,-0.786155617804456,-0.576681849086119,0.457352137461375,DLL
12.7666666666667,-5.91802644729614,-3.16238188743591,8.13235187530518,1.44817996025085,-0.731711983680725,1.44055795669556,-981.900024414062,53.1000022888184,-851.700012207031,-0.827361959147404,-0.592185112620646,0.384967637413317,DLL
12.8,-4.75643301010132,-3.31131958961487,8.36144065856934,2.40855193138123,-0.609759986400604,-0.3125019967556,-965.100036621094,53.7000007629395,-856.500061035156,-0.829322241221775,-0.50673845452335,0.375386842100428,DLL
12.8333333333333,-3.45786452293396,-3.6211576461792,7.69570732116699,4.82472610473633,0.594515979290009,-5.27442407608032,-977.100036621094,54.9000015258789,-863.700012207031,-0.791456132518018,-0.406886403089147,0.424767235324027,DLL
12.8666666666667,-3.04574394226074,-3.54878234863281,7.35057878494263,6.58540773391724,2.14940404891968,-10.1296377182007,-979.500061035156,49.5000038146973,-866.100036621094,-0.757923661706388,-0.363899718123601,0.441219774008745,DLL
12.9,-4.99210119247437,-2.62345504760742,7.15378999710083,11.1052541732788,4.22258806228638,-10.9680576324463,-991.500061035156,45.9000015258789,-873.300048828125,-0.755751720846058,-0.535839328233736,0.364766588518058,DLL
12.9333333333333,-4.75104951858521,-3.20126128196716,7.47738552093506,11.8140993118286,4.67990779876709,-10.2896995544434,-1003.50006103516,41.1000022888184,-890.100036621094,-0.706945425356153,-0.530888445732152,0.389354933827405,DLL
12.9666666666667,-5.04473781585693,-3.13307285308838,7.33622360229492,12.78209400177,4.01679372787476,-11.5701961517334,-1003.50006103516,48.9000015258789,-878.100036621094,-0.664316560749138,-0.556662640872169,0.393345446269457,DLL
13.0,-4.39934158325195,-3.09479165077209,6.73269748687744,11.7378797531128,3.42989993095398,-11.4101333618164,-977.100036621094,37.5,-899.700012207031,-0.614557179726339,-0.538093738947661,0.416990122535316,DLL
13.0333333333333,-5.60998296737671,-2.98473334312439,7.5730881690979,8.55950546264648,4.5655779838562,-10.4268960952759,-996.300048828125,35.7000007629395,-897.300048828125,-0.598148700733991,-0.592880874002733,0.381030807630088,DLL
13.0666666666667,-3.77727293968201,-3.28260850906372,6.51856231689453,6.31101608276367,3.17075204849243,-9.03969192504883,-989.100036621094,36.3000030517578,-904.500061035156,-0.533625593767867,-0.497010373083035,0.45099694896962,DLL
13.1,-7.11610698699951,-1.68975389003754,8.08031368255615,5.22869205474854,4.52746772766113,-6.05186796188354,-991.500061035156,35.1000022888184,-894.900024414062,-0.617318443023978,-0.673269080189713,0.262804167413629,DLL
13.1333333333333,-6.44379425048828,-2.05581736564636,7.58146238327026,5.39637565612793,5.0838737487793,-2.52288198471069,-993.900024414062,29.7000007629395,-909.300048828125,-0.602957290258827,-0.690662014295255,0.26110889841456,DLL
13.1666666666667,-5.20384407043457,-2.59893131256104,7.99418067932129,4.5655779838562,4.96192169189453,-2.38568592071533,-979.500061035156,29.7000007629395,-904.500061035156,-0.563982113489261,-0.584475800315036,0.302969687557936,DLL
13.2,-5.91025066375732,-2.57620167732239,8.2142972946167,4.33691787719727,3.84910988807678,-3.58996200561523,-969.900024414062,25.5000019073486,-902.100036621094,-0.55020043185271,-0.601806207654384,0.302005975235779,DLL
13.2333333333333,-6.27691221237183,-2.66472697257996,7.37091588973999,4.83234786987305,3.14788603782654,-4.20734405517578,-962.700012207031,27.9000015258789,-909.300048828125,-0.514332282838933,-0.66273683889715,0.335956275984258,DLL
13.2666666666667,-4.77019023895264,-2.76401877403259,5.49454116821289,4.35978412628174,4.1311240196228,-5.80034208297729,-972.300048828125,26.7000007629395,-899.700012207031,-0.430640283392931,-0.662947316044994,0.441427866387189,DLL
13.3,-4.35567712783813,-2.56902408599854,4.79591035842896,3.7957558631897,4.71801805496216,-6.98937368392944,-965.100036621094,31.5000019073486,-909.300048828125,-0.380725750852828,-0.674422913497177,0.486827802692623,DLL
13.3333333333333,-4.60570096969604,-2.16288495063782,4.54229784011841,4.74850606918335,4.19210004806519,-6.10522174835205,-974.700012207031,23.1000003814697,-909.300048828125,-0.380571364243131,-0.73008890027227,0.455197883673595,DLL
13.3666666666667,-5.4436993598938,-2.52595782279968,4.58656024932861,5.72412204742432,4.2302098274231,-4.86283588409424,-960.300048828125,24.3000011444092,-909.300048828125,-0.3345124142317,-0.791830522496647,0.493719055159939,DLL
13.4,-7.54497528076172,-3.16656899452209,6.56103038787842,5.03051996231079,4.71801805496216,-3.69666981697083,-955.500061035156,29.1000003814697,-904.500061035156,-0.341894329612705,-0.804485839458606,0.458861853013958,DLL
13.4333333333333,-8.33033752441406,-4.12419557571411,7.67836141586304,4.16161203384399,2.37806391716003,-3.46038794517517,-938.700012207031,24.3000011444092,-911.700012207031,-0.307519709147818,-0.770988378258438,0.486991282909055,DLL
13.4666666666667,-8.2741117477417,-3.77428221702576,7.71066093444824,3.94057393074036,2.14178204536438,-3.30794787406921,-943.500061035156,21.9000015258789,-911.700012207031,-0.3125441416652,-0.768400233966804,0.461367479576691,DLL
13.5,-7.82670068740845,-3.74078607559204,8.07014465332031,3.45276594161987,0.823175966739655,-1.76830399036407,-948.300048828125,24.9000015258789,-914.100036621094,-0.320273202536243,-0.729413382651971,0.436045157949256,DLL
13.5333333333333,-5.16616106033325,-3.21920537948608,6.12259149551392,2.81251788139343,-1.41006994247437,-1.49391198158264,-945.900024414062,22.5,-909.300048828125,-0.291850867057987,-0.656552762117396,0.471878731864536,DLL
13.5666666666667,-5.56452417373657,-2.1371648311615,6.01971101760864,3.42989993095398,0.914639949798584,-0.243903994560242,-936.300048828125,27.3000011444092,-902.100036621094,-0.356785756865946,-0.708760794781687,0.358273067496355,DLL
13.6,-5.3958477973938,-2.47391939163208,5.89649343490601,3.46800994873047,1.95123195648193,0.754577994346619,-945.900024414062,15.9000005722046,-906.900024414062,-0.33363520436298,-0.70538312893238,0.385417428928676,DLL
13.6333333333333,-4.97116613388062,-2.59474420547485,6.56461906433105,1.96647596359253,1.28811800479889,0.198172003030777,-931.500061035156,16.5,-911.700012207031,-0.336217945074724,-0.631696773372512,0.375481076350914,ST
13.6666666666667,-5.53042984008789,-2.23585844039917,7.02937602996826,2.21800184249878,-0.571649968624115,0.518296003341675,-931.500061035156,18.3000011444092,-906.900024414062,-0.369992941483896,-0.640971988201496,0.315407813474189,ST
13.7,-6.05021619796753,-2.33275747299194,7.01322650909424,2.11891603469849,-0.92988395690918,0.792688012123108,-931.500061035156,14.7000007629395,-906.900024414062,-0.368540488636873,-0.677478012999036,0.315824862037759,ST
13.7333333333333,-7.00784301757812,-2.32139277458191,8.1251745223999,1.79879200458527,-0.541162014007568,1.05945801734924,-929.100036621094,16.5,-909.300048828125,-0.389910829876351,-0.689426534561524,0.281100313460771,ST
13.7666666666667,-6.54069328308105,-2.41530132293701,7.73997020721436,2.25611186027527,-0.87652999162674,0.853663980960846,-929.100036621094,19.5,-904.500061035156,-0.380147879545565,-0.679876796501717,0.294216004186652,ST
13.8,-6.28887510299683,-2.25739169120789,6.75423049926758,2.16464805603027,-0.609759986400604,-0.121951997280121,-938.700012207031,12.9000005722046,-909.300048828125,-0.364108487744422,-0.714748287133887,0.31410866458441,ST
13.8333333333333,-6.56581544876099,-1.61797678470612,6.78114700317383,2.0579400062561,-0.434453994035721,-0.106707997620106,-926.700012207031,9.90000057220459,-906.900024414062,-0.405127769825037,-0.746837319282481,0.247948210205362,ST
13.8666666666667,-6.28169727325439,-0.926523447036743,6.8397650718689,2.53050398826599,-1.13567793369293,1.45580196380615,-936.300048828125,16.5,-914.100036621094,-0.470897839867044,-0.739034574496113,0.148993948484921,ST
13.9,-5.43233442306519,-0.333763778209686,6.73927688598633,2.26373386383057,-0.655492007732391,1.64635193347931,-933.900024414062,11.7000007629395,-899.700012207031,-0.526491886036097,-0.689746288184053,0.0635894913753196,ST
13.9333333333333,-5.22298431396484,0.302062213420868,6.88283109664917,1.74543797969818,0.289635986089706,1.34909391403198,-938.700012207031,14.1000003814697,-899.700012207031,-0.58275212958585,-0.657748467259109,-0.0266526954677975,ST
13.9666666666667,-5.81694030761719,-0.0634031519293785,7.80038261413574,1.52439999580383,1.31098401546478,1.21951997280121,-938.700012207031,13.5000009536743,-916.500061035156,-0.568052574752224,-0.646041250997128,-0.0022056355279579,ST
14.0,-6.00415897369385,-0.208751901984215,8.3877592086792,0.37347799539566,1.03659200668335,0.358233988285065,-945.900024414062,10.5,-909.300048828125,-0.555782179081991,-0.627619450806636,0.0186503263123309,ST
14.0333333333333,-6.57119846343994,-0.553880393505096,8.52832221984863,0.129574000835419,0.945127964019775,0.297257989645004,-931.500061035156,11.1000003814697,-911.700012207031,-0.534118486057193,-0.651622070186599,0.0554822438799895,ST
14.0666666666667,-6.46472930908203,-0.703416109085083,8.09646320343018,-0.0685980021953583,1.09756803512573,-0.434453994035721,-936.300048828125,14.7000007629395,-904.500061035156,-0.517664095594989,-0.669380586075154,0.0809603351226263,ST
14.1,-6.2188925743103,-0.87687760591507,7.82610273361206,-0.0685980021953583,0.78506600856781,-0.92988395690918,-936.300048828125,8.70000076293945,-911.700012207031,-0.500030065926493,-0.66961025498866,0.10662160787128,ST
14.1333333333333,-5.65005826950073,-0.744089841842651,6.55983400344849,0.243903994560242,-0.762199997901917,-1.11281192302704,-926.700012207031,9.30000019073486,-904.500061035156,-0.494146980318823,-0.698912445567316,0.11248605125024,ST
14.1666666666667,-5.90307283401489,-0.973178625106812,6.14532089233398,0.0457319989800453,-0.922261953353882,-0.99848198890686,-936.300048828125,5.10000038146973,-909.300048828125,-0.468669426936704,-0.745534604968459,0.148674312160481,ST
14.2,-6.50360870361328,-1.1155366897583,6.7620062828064,-0.457319974899292,-0.0914639979600906,-1.06708002090454,-933.900024414062,11.7000007629395,-911.700012207031,-0.458220561576636,-0.756101492686007,0.162478837926243,ST
14.2333333333333,-6.18001317977905,-1.37871956825256,6.24580907821655,-0.830797970294952,-0.175305992364883,-1.37195992469788,-945.900024414062,8.70000076293945,-904.500061035156,-0.424276379140285,-0.765507236550947,0.210367504220972,ST
14.2666666666667,-5.0291862487793,-2.07794857025146,5.59084224700928,-1.57013201713562,0.571649968624115,-2.66007804870605,-948.300048828125,17.1000003814697,-911.700012207031,-0.336618073053594,-0.712431405081191,0.336794507068854,ST
14.3,-5.97485017776489,-2.27174711227417,6.19556474685669,-2.19513607025146,1.45580196380615,-4.26832008361816,-924.300048828125,17.1000003814697,-904.500061035156,-0.318076064053391,-0.731474353820812,0.357716582741814,ST
14.3333333333333,-6.58914279937744,-2.98174262046814,6.69082736968994,-1.37958192825317,2.30184388160706,-4.26069784164429,-926.700012207031,20.7000007629395,-918.900024414062,-0.273811509899293,-0.73308352089043,0.414782404996578,ST
14.3666666666667,-6.56701183319092,-3.36575055122375,6.8182315826416,-0.3125019967556,2.17227005958557,-4.02441596984863,-914.700012207031,18.3000011444092,-897.300048828125,-0.238543119253453,-0.716667141948359,0.456466411253227,ST
14.4,-7.36613082885742,-3.69712162017822,6.75183773040771,0.548784017562866,1.08994603157043,-2.81251788139343,-919.500061035156,18.9000015258789,-906.900024414062,-0.206896041137596,-0.753509968887537,0.494769882642529,ST
14.4333333333333,-7.11311626434326,-3.52306199073792,7.04313325881958,0.807931959629059,0.708845973014832,-1.90549993515015,-926.700012207031,13.5000009536743,-909.300048828125,-0.218073659648315,-0.738101955288704,0.471408191329309,ST
14.4666666666667,-6.67946243286133,-3.56493210792542,7.13345289230347,0.815553963184357,-0.907018005847931,-0.548784017562866,-931.500061035156,22.5,-911.700012207031,-0.221587471118028,-0.703981415329161,0.463979391444947,ST
14.5,-6.96238422393799,-3.25569224357605,6.88163471221924,1.32622802257538,-1.41769194602966,-0.114329993724823,-924.300048828125,19.5,-909.300048828125,-0.233788314941149,-0.731935919773783,0.443681748507614,ST
14.5333333333333,-6.14173221588135,-3.06309008598328,6.76439905166626,1.47866797447205,-0.663114011287689,0.0152439996600151,-936.300048828125,14.1000003814697,-909.300048828125,-0.243584041833615,-0.697474186441229,0.425943736846264,ST
14.5666666666667,-5.4257550239563,-2.59414601325989,6.74585628509521,0.983237981796265,-1.50153398513794,0.0914639979600906,-924.300048828125,19.5,-904.500061035156,-0.274314890918283,-0.652920277711195,0.376492690863191,ST
14.6,-5.58904790878296,-2.78495359420776,6.55205821990967,1.12805593013763,-2.68294382095337,0.975615978240967,-926.700012207031,21.3000011444092,-906.900024414062,-0.26609249115803,-0.66009936314929,0.393081501502223,ST
14.6333333333333,-5.7326021194458,-3.00088334083557,6.71295833587646,0.815553963184357,-2.46190595626831,0.853663980960846,-941.100036621094,12.9000005722046,-902.100036621094,-0.256348622365516,-0.659077776596766,0.412608507201634,ST
14.6666666666667,-5.53401899337769,-2.40931987762451,6.88103675842285,0.548784017562866,-3.07928800582886,0.922261953353882,-929.100036621094,18.9000015258789,-914.100036621094,-0.297855014224227,-0.647890940705828,0.349151126023481,ST
14.7,-6.34868955612183,-2.32797241210938,6.98870229721069,0.945127964019775,-3.55185198783875,1.62348592281342,-953.100036621094,10.5,-911.700012207031,-0.318677121822155,-0.696548645474097,0.321822802343017,ST
14.7333333333333,-5.70927476882935,-2.24662494659424,6.69740676879883,0.891773998737335,-2.5152599811554,1.81403601169586,-953.100036621094,12.3000001907349,-911.700012207031,-0.323874744421969,-0.679903151703297,0.319084903330804,ST
14.7666666666667,-5.69850826263428,-2.06060242652893,6.93128061294556,0.670735955238342,-1.77592599391937,1.76068198680878,-953.100036621094,10.5,-918.900024414062,-0.344384833522397,-0.668136499336078,0.291219284064563,ST
14.8,-5.51069116592407,-1.78126978874207,6.96358060836792,0.685979962348938,-1.80641400814056,1.78354799747467,-955.500061035156,5.70000028610229,-916.500061035156,-0.369936888421502,-0.654988495789256,0.254738615511161,DLR
14.8333333333333,-5.82411813735962,-1.25310957431793,7.85900068283081,0.495429992675781,-2.00458598136902,1.71494996547699,-960.300048828125,11.7000007629395,-921.300048828125,-0.421394316085977,-0.634491438740626,0.174498638614219,DLR
14.8666666666667,-5.66202116012573,-1.02880585193634,8.63419342041016,1.44055795669556,-2.35519790649414,2.58385801315308,-962.700012207031,14.7000007629395,-918.900024414062,-0.453504613099972,-0.586032876207591,0.124797176905317,DLR
14.9,-4.01712799072266,-0.428868502378464,7.92300176620483,1.28049600124359,-2.31708788871765,1.40244793891907,-965.100036621094,12.9000005722046,-926.100036621094,-0.486121013262644,-0.489297260424411,0.0646004593125852,DLR
14.9333333333333,-4.76002168655396,-0.343334078788757,8.716139793396,0.525918006896973,-1.04421401023865,0.548784017562866,-969.900024414062,9.30000019073486,-926.100036621094,-0.496848499485753,-0.496070594124307,0.0432998713277198,DLR
14.9666666666667,-5.36294984817505,-0.69264954328537,9.54217529296875,0.739333987236023,-0.403965979814529,0.503051996231079,-955.500061035156,11.1000003814697,-916.500061035156,-0.486602418994487,-0.507428024155779,0.0651035786518708,DLR
15.0,-4.86110782623291,-0.959421336650848,9.66180324554443,0.579271972179413,-0.205793991684914,-0.724089980125427,-962.700012207031,4.5,-918.900024414062,-0.471871282751001,-0.472548243414521,0.0919962789748996,DLR
15.0333333333333,-4.18640279769897,-1.00129127502441,8.84653472900391,1.18140995502472,-0.967993974685669,-2.10367202758789,-962.700012207031,8.70000076293945,-911.700012207031,-0.459318490718943,-0.444552216936911,0.108293665193556,DLR
15.0666666666667,-4.54169940948486,-1.10656452178955,7.97025489807129,1.6768399477005,-1.02897000312805,-3.84148788452148,-965.100036621094,11.7000007629395,-909.300048828125,-0.438718715604617,-0.498550132064931,0.132514031810063,DLR
15.1,-5.06806516647339,-1.52466642856598,7.26564264297485,2.75916385650635,0.144817993044853,-5.38875389099121,-965.100036621094,12.3000001907349,-911.700012207031,-0.392705179840612,-0.57994867521251,0.193640598030375,DLR
15.1333333333333,-5.51966333389282,-1.46784281730652,7.37510299682617,3.353679895401,1.08232402801514,-6.15857601165771,-960.300048828125,9.30000019073486,-921.300048828125,-0.372809678371778,-0.62403093125682,0.197509636917089,DLR
15.1666666666667,-5.20264768600464,-2.33694458007812,7.93855333328247,4.55033397674561,0.83841997385025,-6.79882383346558,-969.900024414062,6.90000009536743,-911.700012207031,-0.31356096417768,-0.572952849765882,0.268984199133752,DLR
15.2,-5.01782131195068,-2.54808902740479,7.80277490615845,5.99851369857788,1.21189796924591,-8.7957878112793,-955.500061035156,3.90000009536743,-914.100036621094,-0.269515379522676,-0.551701074195311,0.305614096415516,DLR
15.2333333333333,-3.75992679595947,-3.26586055755615,7.27401685714722,7.78968381881714,2.5152599811554,-12.141845703125,-955.500061035156,9.30000019073486,-911.700012207031,-0.18505093756012,-0.455294045031877,0.402449676699783,DLR
15.2666666666667,-2.79751467704773,-3.51289367675781,7.29076480865479,10.1677474975586,4.78661584854126,-16.2882137298584,-943.500061035156,2.70000004768372,-916.500061035156,-0.124046824877166,-0.351237849800096,0.436062105833437,DLR
15.3,-5.48736381530762,-3.95731401443481,8.4230489730835,12.934534072876,7.00461769104004,-18.5443248748779,-945.900024414062,-2.10000014305115,-909.300048828125,-0.0661752866785633,-0.499837901844764,0.434146793638743,DLR
15.3333333333333,-3.71267342567444,-4.0057635307312,6.67946243286133,14.1235656738281,5.21344804763794,-18.658655166626,-924.300048828125,-2.10000014305115,-902.100036621094,0.0277604794465809,-0.448918378454158,0.51488841528061,DLR
15.3666666666667,-4.99688625335693,-3.42317223548889,7.89488887786865,15.0000953674316,7.03510570526123,-19.4284782409668,-917.100036621094,-8.10000038146973,-904.500061035156,0.0467564070370875,-0.509693047556871,0.423009242869837,DLR
15.4,-7.06586313247681,-2.41290879249573,8.17960548400879,15.21351146698,8.42230987548828,-18.6815223693848,-900.300048828125,-3.30000019073486,-899.700012207031,0.0466077186769559,-0.657672177071494,0.316553655221418,DLR
15.4333333333333,-6.03645896911621,-1.59405100345612,7.93077754974365,13.5290498733521,5.64790201187134,-13.9558820724487,-888.300048828125,5.10000038146973,-885.300048828125,0.0335243328739643,-0.647843561683883,0.218771271713087,DLR
15.4666666666667,-4.68106698989868,-1.31292378902435,5.46104526519775,7.45431566238403,1.37958192825317,-6.51680994033813,-852.300048828125,-5.10000038146973,-851.700012207031,0.0880342388063153,-0.693968570983086,0.232372531211767,DLR
15.5,-5.19846057891846,-1.86082279682159,7.91163730621338,1.2500079870224,0.556405961513519,0.78506600856781,-864.300048828125,-9.90000057220459,-851.700012207031,0.086917257042303,-0.570306085323391,0.228107982291446,DLR
15.5333333333333,-6.50061798095703,-1.54141438007355,8.55344486236572,1.65397393703461,0.106707997620106,1.77592599391937,-854.700012207031,-8.10000038146973,-858.900024414062,0.0613608975002883,-0.628352867630966,0.18474688677694,DLR
15.5666666666667,-5.83608102798462,-1.11194777488708,7.51447010040283,2.04269599914551,0.327746003866196,3.31556987762451,-842.700012207031,-7.50000047683716,-854.100036621094,0.0365431690311268,-0.650916537612881,0.148410057694996,DLR
15.6,-5.58725357055664,-0.171667039394379,6.54308605194092,1.60061991214752,0.442075997591019,4.18447780609131,-869.100036621094,-6.90000009536743,-854.100036621094,-0.0365987872839027,-0.69869660147399,0.0402555888717002,DLR
15.6333333333333,-4.75882530212402,-0.798520863056183,5.4616436958313,0.243903994560242,0.632625997066498,4.96192169189453,-854.700012207031,-11.1000003814697,-863.700012207031,0.0063089930828916,-0.711297660209592,0.119920592658149,DLR
15.6666666666667,-5.92759704589844,-0.16269488632679,7.74415683746338,-0.731711983680725,1.55488801002502,3.95581793785095,-852.300048828125,-8.10000038146973,-856.500061035156,-0.0545214988232943,-0.667704119266526,0.0368179139657567,DLR
15.7,-6.05141258239746,-0.127404451370239,7.4211597442627,0.823175966739655,1.27287399768829,4.70277404785156,-854.700012207031,-18.3000011444092,-839.700012207031,-0.0763582820401851,-0.683055330943858,0.0141050841488857,DLR
15.7333333333333,-6.90316820144653,0.113049022853374,6.54308605194092,1.38720393180847,0.350611984729767,4.10825777053833,-866.700012207031,-20.7000007629395,-851.700012207031,-0.102594325380675,-0.786267594229791,-0.0177829961759027,DLR
15.7666666666667,-7.5611252784729,0.941477060317993,7.9433388710022,0.541162014007568,-0.304879993200302,2.45428395271301,-869.100036621094,-11.7000007629395,-849.300048828125,-0.16483341087476,-0.762770021555804,-0.10223603845272,DLR
15.8,-7.01203012466431,1.70171678066254,8.35426330566406,1.05945801734924,-1.37195992469788,1.44055795669556,-869.100036621094,-12.9000005722046,-844.500061035156,-0.220718559012636,-0.701389805113533,-0.184975253087151,DLR
15.8333333333333,-6.22547197341919,1.46724474430084,6.99528217315674,0.327746003866196,-2.00458598136902,-0.594515979290009,-869.100036621094,-14.7000007629395,-851.700012207031,-0.229573630802503,-0.7113456160082,-0.202297677208168,DLR
15.8666666666667,-6.55145978927612,0.65436840057373,8.16285705566406,-1.31860601902008,-1.18140995502472,-2.17989206314087,-876.300048828125,-14.7000007629395,-854.100036621094,-0.158501589972952,-0.680008523438515,-0.0952959555808727,DLR
15.9,-5.23913431167603,0.299071490764618,7.51207780838013,-1.37958192825317,-1.09756803512573,-2.14940404891968,-859.500061035156,-12.3000001907349,-858.900024414062,-0.125274433811914,-0.619210623831977,-0.0443388295727205,DLR
15.9333333333333,-5.24511575698853,-0.133385881781578,7.10892915725708,-1.79117000102997,-0.769822001457214,-2.47714996337891,-857.100036621094,-12.9000005722046,-856.500061035156,-0.0896119748366113,-0.631665688887697,0.0125314938387639,DLR
15.9666666666667,-4.83060264587402,-0.378624498844147,6.62981653213501,-1.65397393703461,-0.37347799539566,-2.0579400062561,-845.100036621094,-12.3000001907349,-858.900024414062,-0.0645142354362359,-0.628876304754931,0.0524638951375888,DLR
16.0,-4.93527746200562,-0.527562081813812,6.76260423660278,-1.65397393703461,-0.320124000310898,-2.21800184249878,-873.900024414062,-12.9000005722046,-861.300048828125,-0.0480893707323854,-0.628324400507932,0.0772584083575462,DLR
16.0333333333333,-5.54119634628296,-1.62814521789551,7.88890743255615,-2.01220798492432,-0.327746003866196,-2.5000159740448,-864.300048828125,-14.1000003814697,-863.700012207031,0.0181237239948314,-0.606297515582888,0.187992344809731,DLR
16.0666666666667,-5.03875637054443,-2.15630531311035,7.44030046463013,-1.75305998325348,-1.14329993724823,-2.24086785316467,-869.100036621094,-9.30000019073486,-854.100036621094,0.0653795054144036,-0.579866603280427,0.269818152675225,DLR
16.1,-6.16206884384155,-2.31481337547302,8.87165641784668,-1.44817996025085,-0.914639949798584,-2.83538389205933,-864.300048828125,-11.7000007629395,-858.900024414062,0.0643231457572513,-0.587099345729549,0.2625300134202,DLR
16.1333333333333,-5.37730550765991,-2.13836121559143,8.78492546081543,0.213415995240211,-1.87501192092896,-0.266770005226135,-859.500061035156,-2.70000004768372,-861.300048828125,0.0536902054352804,-0.544094061383369,0.242962889306551,DLR
16.1666666666667,-5.42336225509644,-1.75136256217957,8.77655220031738,0.83841997385025,-1.71494996547699,0.46494197845459,-876.300048828125,-6.30000019073486,-861.300048828125,0.0321951840880738,-0.542456743236916,0.202753466816137,DLR
16.2,-4.83957481384277,-1.42358028888702,8.429030418396,0.602137982845306,-0.807931959629059,0.967993974685669,-873.900024414062,-6.90000009536743,-861.300048828125,0.014685045142257,-0.518848145525806,0.171379149263855,DLR
16.2333333333333,-4.35747146606445,-1.35778450965881,7.99298429489136,0.129574000835419,-0.0381099991500378,1.17378795146942,-871.500061035156,-14.1000003814697,-870.900024414062,0.0107524244707451,-0.498558205644194,0.167813729684418,DLR
16.2666666666667,-4.52854061126709,-0.910373628139496,7.23812818527222,-0.0304879993200302,0.403965979814529,1.79879200458527,-869.100036621094,-7.50000047683716,-863.700012207031,-0.0110073581220481,-0.54632853215583,0.131543598375942,DLR
16.3,-5.15659046173096,-1.36316788196564,7.75611972808838,-0.769822001457214,1.05945801734924,1.69970595836639,-869.100036621094,-9.90000057220459,-866.100036621094,0.0031568908069467,-0.575704775427711,0.165974775395424,DLR
16.3333333333333,-5.32586479187012,-1.14723825454712,8.22147560119629,-0.259148001670837,0.746955990791321,2.10367202758789,-869.100036621094,-14.1000003814697,-880.500061035156,-0.0136030227619682,-0.572985030259936,0.142719480939495,DLR
16.3666666666667,-5.05131721496582,-1.06947958469391,7.69271659851074,0.556405961513519,0.243903994560242,2.45428395271301,-864.300048828125,-8.70000076293945,-861.300048828125,-0.0211280953185354,-0.576713005194766,0.136119082716407,DLR
16.4,-5.23255491256714,-0.766221165657043,7.65024852752686,0.960371971130371,0.335367977619171,2.20275783538818,-857.100036621094,-6.30000019073486,-858.900024414062,-0.0418436162409346,-0.594205785043822,0.103870079393082,DLR
16.4333333333333,-5.16974973678589,-0.766819298267365,7.1645565032959,1.15854394435883,0.541162014007568,2.67532205581665,-869.100036621094,-8.10000038146973,-851.700012207031,-0.0465044980734095,-0.618157334140688,0.101853145362293,DLR
16.4666666666667,-6.00236463546753,-1.29976463317871,7.3045220375061,0.289635986089706,0.99848198890686,1.96647596359253,-859.500061035156,-9.30000019073486,-866.100036621094,-0.0156768780037296,-0.669646616054735,0.158142523158351,DLR
16.5,-6.33852100372314,-1.10417187213898,6.83497953414917,-0.182927995920181,1.54726600646973,2.21037983894348,-859.500061035156,-15.3000001907349,-875.700012207031,-0.0200273270841904,-0.731932803846802,0.157594613442397,DLR
16.5333333333333,-6.72851037979126,-0.965402781963348,7.33323287963867,-0.708845973014832,1.50153398513794,0.754577994346619,-861.900024414062,-11.1000003814697,-854.100036621094,-0.0361060359616944,-0.739139850088151,0.136602073853332,DLR
16.5666666666667,-6.36842823028564,-0.486888378858566,7.06825542449951,-0.0762199983000755,0.190549999475479,1.2576299905777,-859.500061035156,-12.9000005722046,-854.100036621094,-0.0757487871271977,-0.734190885694888,0.0809133509464749,DLR
16.6,-6.11003065109253,-0.224901750683784,7.12986421585083,0.541162014007568,-0.525918006896973,0.960371971130371,-876.300048828125,-9.90000057220459,-856.500061035156,-0.105376095146582,-0.711993347058104,0.0376273037964956,DLR
16.6333333333333,-6.06576776504517,-0.130395174026489,7.83686923980713,1.63872992992401,-0.967993974685669,1.34147191047668,-871.500061035156,-11.1000003814697,-851.700012207031,-0.118593354147083,-0.668045086411116,0.0169280384332365,DLR
16.6666666666667,-6.09208631515503,0.310436189174652,7.64785623550415,2.12653803825378,-0.960371971130371,0.586893975734711,-864.300048828125,-12.9000005722046,-851.700012207031,-0.147278772400487,-0.670156309994388,-0.0325268502899445,DLR
16.7,-5.66022682189941,0.952243626117706,7.6149582862854,2.13416004180908,-0.83841997385025,0.480185985565186,-871.500061035156,-17.1000003814697,-863.700012207031,-0.193282025205541,-0.640678335593541,-0.111828562426738,DLR
16.7333333333333,-6.01731824874878,0.0843381583690643,7.99717140197754,1.06708002090454,-0.495429992675781,-0.0762199983000755,-878.700012207031,-14.1000003814697,-846.900024414062,-0.143995381538411,-0.643879965232107,-0.0323999048920582,DLR
16.7666666666667,-6.81165218353271,0.590367138385773,8.62402534484863,0.571649968624115,-1.15854394435883,-0.358233988285065,-859.500061035156,-9.30000019073486,-846.900024414062,-0.160000501941672,-0.661103174439389,-0.0613246967767807,DLR
16.8,-5.83368825912476,0.269762486219406,7.82550430297852,0.0609759986400604,-1.22714197635651,0.0762199983000755,-869.100036621094,-18.9000015258789,-863.700012207031,-0.146240552361105,-0.641796568929724,-0.0387477445131484,DLR
16.8333333333333,-5.98681306838989,0.166881889104843,7.89130020141602,-0.792688012123108,-1.51677799224854,-0.365855991840363,-873.900024414062,-15.3000001907349,-861.300048828125,-0.13723386991894,-0.645388988474973,-0.0231795515945297,DLR
16.8666666666667,-5.94434499740601,0.111852735280991,7.25009107589722,-0.746955990791321,-0.967993974685669,-0.0381099991500378,-885.900024414062,-12.3000001907349,-856.500061035156,-0.133734281688317,-0.677007292149448,-0.0159249454712211,DLR
16.9,-5.64527320861816,-0.32838049530983,7.20343589782715,-0.87652999162674,-0.777444005012512,-0.0914639979600906,-871.500061035156,-17.1000003814697,-873.300048828125,-0.103415375630508,-0.665843665713515,0.0345667144894061,DLR
16.9333333333333,-4.66671133041382,-0.584385693073273,6.20034980773926,-0.579271972179413,-1.34147191047668,-0.388722002506256,-873.900024414062,-15.3000001907349,-863.700012207031,-0.0735247108650264,-0.645581297581405,0.0839854458112314,DLR
16.9666666666667,-5.99698162078857,-1.2058562040329,7.41757106781006,-1.6615959405899,-0.655492007732391,-1.92836594581604,-881.100036621094,-14.1000003814697,-870.900024414062,-0.0318499065043008,-0.66711789045061,0.150577236358587,DLR
17.0,-5.01064348220825,-1.09101283550262,7.33861589431763,-1.43293595314026,-0.868907988071442,-1.00610399246216,-881.100036621094,-11.1000003814697,-858.900024414062,-0.0319514589674618,-0.607268199148307,0.151001725332376,DLR
17.0333333333333,-5.11950588226318,-1.16637873649597,7.58325672149658,-1.45580196380615,-1.35671591758728,-1.03659200668335,-871.500061035156,-8.70000076293945,-866.100036621094,-0.0299828215117313,-0.590118469188347,0.155085646601224,DLR
17.0666666666667,-5.55435562133789,-1.57610678672791,7.99298429489136,-1.49391198158264,-1.20427596569061,-0.67835795879364,-873.900024414062,-6.90000009536743,-870.900024414062,-0.0115052636114697,-0.595082679319635,0.190150140789636,DLR
17.1,-5.88991403579712,-1.74478304386139,9.26702880859375,-1.2576299905777,-1.34147191047668,-0.884151995182037,-876.300048828125,-3.30000019073486,-868.500061035156,-0.0124243429878734,-0.563641630417326,0.189197358812337,DLR
17.1333333333333,-4.73131084442139,-1.29856836795807,8.27291584014893,-0.708845973014832,-2.30946588516235,0.167683988809586,-866.700012207031,-9.30000019073486,-882.900024414062,-0.0285033204284073,-0.519871287072615,0.162078498009269,DLR
17.1666666666667,-4.86290216445923,-1.69992232322693,8.61325836181641,-1.19665396213531,-1.6692179441452,0.228659987449646,-878.700012207031,-7.50000047683716,-873.300048828125,-0.0174099534991991,-0.506463296639283,0.189541218643725,DLR
17.2,-4.51597929000854,-1.60421943664551,8.21190452575684,-1.01372599601746,-1.08232402801514,0.533540010452271,-883.500061035156,-5.10000038146973,-875.700012207031,-0.0182952111580155,-0.495908708238544,0.193102718937169,DLR
17.2333333333333,-4.09249401092529,-1.5964435338974,8.10244464874268,-0.800309956073761,-0.472563982009888,0.358233988285065,-895.500061035156,-10.5,-873.300048828125,-0.0191489245450147,-0.466750969377158,0.195051533045249,DLR
17.2666666666667,-4.34132146835327,-1.58866775035858,7.84643936157227,-0.975615978240967,-0.0914639979600906,1.17378795146942,-888.300048828125,-10.5,-858.900024414062,-0.0206834400835341,-0.491368890588283,0.199371356167448,DLR
17.3,-4.3544807434082,-1.87517821788788,7.72800731658936,-1.50915598869324,0.411587983369827,1.86738991737366,-888.300048828125,-11.7000007629395,-885.300048828125,-0.0107385058231283,-0.500352156321301,0.231475116124027,DLR
