seconds,sensor_accX_m_s_,sensor_accY_m_s_,sensor_accZ_m_s_,sensor_gyroX___s_,sensor_gyroY___s_,sensor_gyroZ___s_,sensor_magX__T_,sensor_magY__T_,sensor_magZ__T_,sensor_yaw___,sensor_pitch___,sensor_roll___,label2
0.0,3.63312029838562,-3.29397344589233,8.46133041381836,0.381099998950958,-0.640248000621796,0.518296003341675,-1349.10009765625,20.1000003814697,-897.300048828125,-1.95021711702828,0.380787468715121,0.371195767393836,ST
0.0333333333333333,3.61098909378052,-3.25210332870483,8.36682415008545,0.457319974899292,-0.426831990480423,0.525918006896973,-1346.70007324219,23.7000007629395,-904.500061035156,-1.95330542532526,0.382730419136996,0.370409506491556,ST
0.0666666666666667,3.58108186721802,-3.24133682250977,8.36562728881836,0.457319974899292,-0.205793991684914,0.548784017562866,-1344.30004882812,22.5,-878.100036621094,-1.95603644581666,0.37989846818057,0.369309865798718,ST
0.1,3.54579162597656,-3.2568883895874,8.488844871521,0.381099998950958,-0.228659987449646,0.480185985565186,-1344.30004882812,30.9000015258789,-892.500061035156,-1.95760218489726,0.372304513207786,0.366204403817673,ST
0.133333333333333,3.49853825569153,-3.25449585914612,8.50977993011475,0.396344006061554,-0.297257989645004,0.457319974899292,-1351.5,24.3000011444092,-897.300048828125,-1.95983203479276,0.367131982810897,0.365014689531688,ST
0.166666666666667,3.54579162597656,-3.23595356941223,8.52054691314697,0.472563982009888,-0.426831990480423,0.541162014007568,-1349.10009765625,18.3000011444092,-899.700012207031,-1.96216642316939,0.371121307398263,0.362725631007032,ST
0.2,3.52904343605042,-3.19109272956848,8.46731185913086,0.426831990480423,-0.564027965068817,0.533540010452271,-1329.90002441406,23.7000007629395,-892.500061035156,-1.96481281160705,0.372395892080999,0.360255367894246,ST
0.233333333333333,3.50751042366028,-3.17972803115845,8.43919944763184,0.426831990480423,-0.594515979290009,0.647870004177094,-1346.70007324219,29.7000007629395,-902.100036621094,-1.96857450686364,0.371548473523249,0.360147298536027,ST
0.266666666666667,3.52066946029663,-3.2006630897522,8.44219017028809,0.442075997591019,-0.617381989955902,0.716467976570129,-1337.10009765625,20.7000007629395,-882.900024414062,-1.97364064561313,0.372339734474414,0.362126939207806,ST
0.3,3.56971716880798,-3.15998935699463,8.4356107711792,0.495429992675781,-0.6250039935112,0.724089980125427,-1349.10009765625,26.7000007629395,-880.500061035156,-1.97649672851886,0.377571309746411,0.358391969075959,ST
0.333333333333333,3.63371849060059,-3.17015767097473,8.53609848022461,0.480185985565186,-0.693601965904236,0.571649968624115,-1351.5,29.1000003814697,-899.700012207031,-1.97915454089482,0.380321592680137,0.355468002895997,ST
0.366666666666667,3.6833643913269,-3.21920537948608,8.43860149383545,0.381099998950958,-0.708845973014832,0.381099998950958,-1339.5,30.3000011444092,-890.100036621094,-1.98507535164156,0.387678467799145,0.363679694239814,ST
0.4,3.74138426780701,-3.17434477806091,8.50020980834961,0.350611984729767,-0.762199997901917,0.160062000155449,-1341.90002441406,31.5000019073486,-882.900024414062,-1.98482114110977,0.391968365261483,0.35749295341146,ST
0.433333333333333,3.80060052871704,-3.15640044212341,8.4469747543335,0.365855991840363,-0.6250039935112,0.129574000835419,-1349.10009765625,27.3000011444092,-885.300048828125,-1.98677591300472,0.399512225774954,0.357228335774227,ST
0.466666666666667,3.76889896392822,-3.10675454139709,8.46671390533447,0.411587983369827,-0.442075997591019,0.160062000155449,-1353.90002441406,20.7000007629395,-890.100036621094,-1.98634555612929,0.396652112079624,0.351552396928932,ST
0.5,3.74018788337708,-3.07624936103821,8.41826438903809,0.503051996231079,-0.289635986089706,0.282013982534409,-1341.90002441406,29.1000003814697,-892.500061035156,-1.98800785040071,0.395685158521322,0.349817880160395,ST
0.533333333333333,3.7013087272644,-3.07266044616699,8.45833969116211,0.495429992675781,-0.228659987449646,0.434453994035721,-1361.10009765625,26.7000007629395,-897.300048828125,-1.99012714721907,0.390557867294029,0.348015745047025,ST
0.566666666666667,3.67199969291687,-3.02959418296814,8.48525619506836,0.434453994035721,-0.25152599811554,0.457319974899292,-1341.90002441406,23.7000007629395,-894.900024414062,-1.99076426472741,0.387351533223584,0.342875086337735,ST
0.6,3.74138426780701,-3.06847333908081,8.4350118637085,0.297257989645004,-0.228659987449646,0.411587983369827,-1358.70007324219,22.5,-887.700012207031,-1.99504388216259,0.394594120951381,0.348358985283624,ST
0.633333333333333,3.72284173965454,-3.11991381645203,8.50619125366211,0.243903994560242,-0.160062000155449,0.289635986089706,-1341.90002441406,25.5000019073486,-894.900024414062,-1.99776923635191,0.390205926781357,0.351192433940422,ST
0.666666666666667,3.63969993591309,-3.08462333679199,8.53789234161377,0.221037998795509,-0.0990860015153885,0.160062000155449,-1349.10009765625,25.5000019073486,-878.100036621094,-1.99715169528293,0.38181277077104,0.34666995537395,ST
0.7,3.58945608139038,-3.07565116882324,8.55882740020752,0.304879993200302,-0.129574000835419,0.259148001670837,-1356.30004882812,23.1000003814697,-887.700012207031,-1.99806564423395,0.376255197036468,0.344749443834257,ST
0.733333333333333,3.6014187335968,-3.00806093215942,8.49841499328613,0.358233988285065,-0.160062000155449,0.457319974899292,-1351.5,20.7000007629395,-892.500061035156,-1.99879559753524,0.379854483737848,0.340170759474007,ST
0.766666666666667,3.61637234687805,-3.04993104934692,8.49602317810059,0.396344006061554,-0.114329993724823,0.564027965068817,-1349.10009765625,17.7000007629395,-897.300048828125,-2.00298255732494,0.380836422389877,0.34410710115228,ST
0.8,3.66661643981934,-3.09060478210449,8.47987270355225,0.3125019967556,-0.114329993724823,0.510673999786377,-1353.90002441406,21.9000015258789,-894.900024414062,-2.00722635456755,0.385467323776492,0.349005788478552,ST
0.833333333333333,3.66781258583069,-2.95662069320679,8.476881980896,0.388722002506256,-0.266770005226135,0.426831990480423,-1351.5,23.7000007629395,-882.900024414062,-2.00946543094557,0.388047114141983,0.335264952354245,ST
0.866666666666667,3.6773829460144,-2.98114466667175,8.51576137542725,0.259148001670837,-0.205793991684914,0.434453994035721,-1344.30004882812,27.3000011444092,-878.100036621094,-2.01212855196659,0.387168697519732,0.336545947982892,ST
0.9,3.69712162017822,-2.99310731887817,8.51516342163086,0.228659987449646,-0.190549999475479,0.37347799539566,-1344.30004882812,27.3000011444092,-882.900024414062,-2.01451306772634,0.388760967007079,0.337828287437262,ST
0.933333333333333,3.66482210159302,-2.98712611198425,8.48824691772461,0.213415995240211,-0.182927995920181,0.327746003866196,-1337.10009765625,29.1000003814697,-885.300048828125,-2.01637532663335,0.386983686568233,0.338242350681249,ST
0.966666666666667,3.63192415237427,-2.97994828224182,8.52174282073975,0.221037998795509,-0.152439996600151,0.304879993200302,-1349.10009765625,20.7000007629395,-894.900024414062,-2.01726995889933,0.382836445012952,0.336369513212461,ST
1.0,3.6091947555542,-2.99669623374939,8.57138919830322,0.243903994560242,-0.205793991684914,0.304879993200302,-1351.5,30.9000015258789,-899.700012207031,-2.01889141546103,0.378760656022468,0.336167750404259,ST
1.03333333333333,3.61816692352295,-2.93568563461304,8.59352016448975,0.289635986089706,-0.335367977619171,0.3125019967556,-1341.90002441406,19.5,-882.900024414062,-2.01833437214503,0.379480522170717,0.329399046847261,ST
1.06666666666667,3.69831800460815,-2.98234081268311,8.50858402252197,0.121951997280121,-0.327746003866196,0.396344006061554,-1351.5,24.3000011444092,-904.500061035156,-2.02308708451374,0.388960664123859,0.336781047424351,ST
1.1,3.69831800460815,-2.98054647445679,8.50918197631836,0.0609759986400604,-0.381099998950958,0.396344006061554,-1349.10009765625,26.1000003814697,-882.900024414062,-2.0251844909242,0.389617266554078,0.337147228266413,ST
1.13333333333333,3.74796390533447,-3.03736996650696,8.46790981292725,0.0762199983000755,-0.388722002506256,0.434453994035721,-1351.5,31.5000019073486,-887.700012207031,-2.03000764324924,0.394799252623146,0.344199670254623,ST
1.16666666666667,3.71805667877197,-3.06727719306946,8.488844871521,0.0533539988100529,-0.221037998795509,0.365855991840363,-1351.5,30.3000011444092,-894.900024414062,-2.03263743040707,0.391129142295437,0.346775853362354,ST
1.2,3.70609378814697,-3.07206225395203,8.47389125823975,0.137196004390717,-0.152439996600151,0.350611984729767,-1344.30004882812,27.9000015258789,-880.500061035156,-2.03464765302289,0.390198766287597,0.347766509489982,ST
1.23333333333333,3.66841077804565,-3.00746297836304,8.4828634262085,0.0990860015153885,-0.259148001670837,0.259148001670837,-1353.90002441406,24.3000011444092,-887.700012207031,-2.03354374711195,0.38748380105273,0.341194663952411,ST
1.26666666666667,3.62175559997559,-3.03916454315186,8.56301498413086,0.0457319989800453,-0.327746003866196,0.266770005226135,-1339.5,28.5000019073486,-885.300048828125,-2.03497217900224,0.380149416174015,0.341220100411184,ST
1.3,3.6211576461792,-3.08761405944824,8.45774173736572,0.0228659994900227,-0.304879993200302,0.388722002506256,-1346.70007324219,24.9000015258789,-892.500061035156,-2.03994332090588,0.382505977094951,0.34976824664943,ST
1.33333333333333,3.6091947555542,-3.11393237113953,8.4709005355835,0.144817993044853,-0.274392008781433,0.266770005226135,-1351.5,25.5000019073486,-894.900024414062,-2.0455775407389,0.380713813737408,0.352258597932023,ST
1.36666666666667,3.5852689743042,-3.10137128829956,8.46910667419434,0.0914639979600906,-0.3125019967556,0.297257989645004,-1346.70007324219,27.9000015258789,-894.900024414062,-2.04695618322921,0.378778964171081,0.351184823480502,ST
1.4,3.6091947555542,-3.10137128829956,8.50798606872559,0.160062000155449,-0.419209986925125,0.320124000310898,-1341.90002441406,33.3000030517578,-885.300048828125,-2.04835773182519,0.379705317086091,0.349672691326459,ST
1.43333333333333,3.66242933273315,-3.13247466087341,8.50140571594238,0.228659987449646,-0.533540010452271,0.304879993200302,-1351.5,19.5,-894.900024414062,-2.05168313967022,0.384562073884597,0.352782198302695,ST
1.46666666666667,3.67499041557312,-3.04394960403442,8.46910667419434,0.3125019967556,-0.533540010452271,0.3125019967556,-1353.90002441406,29.1000003814697,-887.700012207031,-2.05112116452962,0.388147295239777,0.345315482327687,ST
1.5,3.67199969291687,-3.03677177429199,8.46013450622559,0.365855991840363,-0.556405961513519,0.37347799539566,-1358.70007324219,26.1000003814697,-887.700012207031,-2.05335770631777,0.388496603672345,0.344430328802484,ST
1.53333333333333,3.70071053504944,-3.08940839767456,8.524733543396,0.388722002506256,-0.602137982845306,0.396344006061554,-1344.30004882812,31.5000019073486,-894.900024414062,-2.05725720740783,0.388269523170777,0.347254336202574,ST
1.56666666666667,3.70429944992065,-3.00148153305054,8.536696434021,0.434453994035721,-0.6250039935112,0.403965979814529,-1337.10009765625,23.7000007629395,-875.700012207031,-2.05680668909511,0.389285848985273,0.338278307135261,ST
1.6,3.81974101066589,-3.04753851890564,8.45774173736572,0.480185985565186,-0.663114011287689,0.556405961513519,-1351.5,26.1000003814697,-894.900024414062,-2.06296607176779,0.401733063568925,0.345113022021272,ST
1.63333333333333,3.62833523750305,-2.95961141586304,8.5666036605835,0.564027965068817,-0.388722002506256,0.266770005226135,-1349.10009765625,26.7000007629395,-882.900024414062,-2.06051351585437,0.382516974855958,0.332722237360052,ST
1.66666666666667,3.59244680404663,-3.03557562828064,8.67187690734863,0.830797970294952,-0.0381099991500378,0.327746003866196,-1365.90002441406,25.5000019073486,-882.900024414062,-2.06399131220241,0.373140918575569,0.335339274211578,ST
1.7,3.45008873939514,-2.95303177833557,8.50200462341309,0.967993974685669,0.0304879993200302,-0.411587983369827,-1363.5,21.9000015258789,-906.900024414062,-2.06288081033907,0.366658893556036,0.332522153357741,ST
1.73333333333333,3.13068032264709,-2.86271214485168,8.50499534606934,0.945127964019775,0.304879993200302,-0.586893975734711,-1351.5,27.9000015258789,-887.700012207031,-2.05844106379442,0.33718793286663,0.323163382541743,ST
1.76666666666667,2.91893768310547,-2.72454118728638,8.69640064239502,0.983237981796265,0.0,-0.503051996231079,-1344.30004882812,24.3000011444092,-890.100036621094,-2.0514054831125,0.311873101684001,0.302916165411095,ST
1.8,2.66951203346252,-2.65575480461121,8.46551704406738,1.06708002090454,-0.815553963184357,0.342989981174469,-1356.30004882812,15.3000001907349,-887.700012207031,-2.05484469719246,0.294451357050909,0.302461718773034,ST
1.83333333333333,2.70779323577881,-2.90936732292175,8.45534896850586,0.762199997901917,-0.891773998737335,0.983237981796265,-1361.10009765625,21.3000011444092,-890.100036621094,-2.06812623235975,0.294947989942313,0.328998037998943,ST
1.86666666666667,2.97994828224182,-3.15221357345581,8.54507064819336,0.144817993044853,-0.990859985351562,1.09756803512573,-1353.90002441406,25.5000019073486,-897.300048828125,-2.08059692149552,0.315830927332741,0.352403896098807,ST
1.9,3.19767236709595,-3.29217886924744,8.56959438323975,-0.236281991004944,-1.50153398513794,1.09756803512573,-1361.10009765625,22.5,-892.500061035156,-2.09096581070405,0.335664530537797,0.367180389227693,ST
1.93333333333333,3.60022258758545,-3.45367741584778,8.26095294952393,-0.602137982845306,-1.02134799957275,0.579271972179413,-1349.10009765625,23.7000007629395,-887.700012207031,-2.10947298800086,0.383556539109759,0.397693185379072,ST
1.96666666666667,3.59184861183167,-3.34421730041504,8.63479232788086,-0.457319974899292,-0.640248000621796,0.0762199983000755,-1351.5,26.1000003814697,-892.500061035156,-2.100492049946,0.371714336712314,0.371984981935101,ST
2.0,3.35976910591125,-3.07624936103821,8.47628402709961,-0.228659987449646,-0.579271972179413,-0.46494197845459,-1363.5,18.9000015258789,-878.100036621094,-2.09112017545084,0.358501185064026,0.349414894622576,ST
2.03333333333333,3.20305562019348,-2.94705033302307,8.42484378814697,-0.190549999475479,-0.480185985565186,-0.510673999786377,-1365.90002441406,24.9000015258789,-892.500061035156,-2.08529011486049,0.346207392777758,0.337187942153191,ST
2.06666666666667,3.08701586723328,-3.17912983894348,8.48346138000488,-0.685979962348938,-0.205793991684914,-0.685979962348938,-1358.70007324219,24.9000015258789,-870.900024414062,-2.08901657174482,0.330000403241586,0.358317337692534,ST
2.1,3.11094164848328,-3.2066445350647,8.84653472900391,-0.762199997901917,0.114329993724823,-1.42531394958496,-1358.70007324219,19.5,-894.900024414062,-2.07934294180348,0.320453870913907,0.348762321450478,ST
2.13333333333333,3.09359550476074,-2.96320033073425,8.50200462341309,-0.0304879993200302,0.0,-1.94360995292664,-1370.70007324219,27.9000015258789,-887.700012207031,-2.06796204021903,0.331378431667829,0.33519863449239,ST
2.16666666666667,3.39924645423889,-2.88903045654297,8.42484378814697,0.602137982845306,-0.602137982845306,-2.15702605247498,-1363.5,23.7000007629395,-882.900024414062,-2.05953679016803,0.364666121298484,0.32852224430404,ST
2.2,3.16357827186584,-2.48408770561218,8.18678283691406,1.39482593536377,-0.663114011287689,-2.40855193138123,-1361.10009765625,20.1000003814697,-882.900024414062,-2.0410845475273,0.357028932530263,0.293061527594643,ST
2.23333333333333,3.78504872322083,-2.52476143836975,8.42185306549072,1.96647596359253,-0.853663980960846,-1.94360995292664,-1356.30004882812,22.5,-890.100036621094,-2.03557722665015,0.406373594601377,0.28694323975638,ST
2.26666666666667,4.08471822738647,-2.35787963867188,8.89558219909668,2.53812599182129,-1.59299790859222,-1.94360995292664,-1356.30004882812,9.90000057220459,-878.100036621094,-2.02173096563012,0.420397101363657,0.255562567626498,ST
2.3,4.52734422683716,-1.94815170764923,9.0672492980957,3.16313004493713,-2.11891603469849,-1.32622802257538,-1365.90002441406,14.7000007629395,-866.100036621094,-2.00411441415661,0.456402406519656,0.207881293793827,ST
2.33333333333333,5.14702033996582,-1.79203629493713,8.88302135467529,3.26221585273743,-1.62348592281342,-0.701223969459534,-1370.70007324219,21.3000011444092,-868.500061035156,-2.00298946596594,0.51707218348314,0.193588362685457,ST
2.36666666666667,5.416184425354,-1.72564244270325,8.74544811248779,2.73629784584045,0.25152599811554,-0.891773998737335,-1368.30004882812,20.7000007629395,-866.100036621094,-2.00337536732397,0.544444652325453,0.189280546250594,ST
2.4,5.84744548797607,-1.8626172542572,8.644362449646,1.95885396003723,1.55488801002502,-1.44817996025085,-1373.10009765625,18.3000011444092,-875.700012207031,-2.01053083578376,0.580279767891348,0.20592797336488,ST
2.43333333333333,5.79600524902344,-1.89611327648163,8.87404918670654,1.88263392448425,3.39941191673279,-2.0655620098114,-1368.30004882812,14.7000007629395,-885.300048828125,-2.00437590059973,0.564261163877248,0.20429259938156,ST
2.46666666666667,5.52504682540894,-2.01933073997498,9.04751014709473,1.99696397781372,5.434485912323,-2.63721203804016,-1356.30004882812,12.3000001907349,-882.900024414062,-1.99939791709564,0.531093852233192,0.211816811217918,ST
2.5,4.53332567214966,-1.56653642654419,9.50628662109375,2.59148001670837,7.40858364105225,-2.90398192405701,-1368.30004882812,11.1000003814697,-899.700012207031,-1.96449381408977,0.434148820754469,0.158673772686487,ST
2.53333333333333,3.93637895584106,-1.31651270389557,9.12825965881348,3.06404399871826,8.38420009613037,-2.34757590293884,-1341.90002441406,9.30000019073486,-892.500061035156,-1.94750414977738,0.39219490822766,0.136713404924027,ST
2.56666666666667,3.41420006752014,-0.946860313415527,8.9536018371582,2.9116039276123,8.39182186126709,-2.16464805603027,-1334.70007324219,8.70000076293945,-916.500061035156,-1.92661512048833,0.350685240594083,0.10037806036044,ST
2.6,2.47810626029968,-0.0753660127520561,9.0851936340332,2.9192259311676,7.43144989013672,-2.72867584228516,-1322.70007324219,9.30000019073486,-916.500061035156,-1.88966221880037,0.258217277822635,0.0065416579091814,ST
2.63333333333333,2.5175838470459,-0.304454773664474,8.74245738983154,2.44666194915771,6.33388185501099,-1.6768399477005,-1317.90002441406,10.5,-921.300048828125,-1.89086789830442,0.268590937498823,0.0282272140217098,ST
2.66666666666667,1.92901110649109,0.0221312902867794,8.93745231628418,2.14178204536438,5.35826587677002,-1.44817996025085,-1308.30004882812,2.10000014305115,-926.100036621094,-1.87924100132058,0.207186235727861,-0.0046716488899262,ST
2.7,1.55397546291351,0.208751901984215,9.15039157867432,1.70732796192169,4.90856790542603,-0.914639949798584,-1293.90002441406,6.90000009536743,-930.900024414062,-1.87348756337723,0.162464038006565,-0.0247432180872026,ST
2.73333333333333,1.73282015323639,-0.0406737215816975,9.56310939788818,1.30336201190948,3.60520601272583,0.228659987449646,-1296.30004882812,3.30000019073486,-935.700012207031,-1.87959713031084,0.172330811982935,0.0004139295782039,ST
2.76666666666667,1.77169942855835,-0.131591454148293,9.64924240112305,0.823175966739655,2.01982998847961,0.792688012123108,-1277.10009765625,5.10000038146973,-942.900024414062,-1.88522935062504,0.177687974146695,0.0117082981731317,ST
2.8,1.57610678672791,-0.206359326839447,10.0039415359497,0.335367977619171,0.914639949798584,0.6250039935112,-1277.10009765625,6.90000009536743,-923.700012207031,-1.88920115162027,0.1560144729439,0.019696286009836,ST
2.83333333333333,1.46126329898834,-0.285314202308655,9.67974758148193,0.243903994560242,0.0304879993200302,1.31860601902008,-1272.30004882812,-0.300000011920929,-947.700012207031,-1.89598714868697,0.150035798272367,0.0288035440160133,ST
2.86666666666667,1.26746499538422,-0.286510497331619,9.87055492401123,-0.0914639979600906,-0.137196004390717,1.18140995502472,-1301.10009765625,8.10000038146973,-940.500061035156,-1.90075352083612,0.129181723763929,0.0294141733141231,ST
2.9,1.58388257026672,-0.485692083835602,9.42792987823486,-0.121951997280121,-0.617381989955902,2.04269599914551,-1289.10009765625,-0.900000035762787,-940.500061035156,-1.91259908487334,0.165271450966459,0.0511392712310456,ST
2.93333333333333,1.98643279075623,-0.647788822650909,9.07203483581543,-0.914639949798584,-1.06708002090454,1.46342396736145,-1286.70007324219,-0.300000011920929,-930.900024414062,-1.92206270570556,0.213902687577385,0.0722141153723477,ST
2.96666666666667,1.86022460460663,-0.73751026391983,9.1808967590332,-1.18140995502472,-1.20427596569061,1.10518991947174,-1289.10009765625,0.900000035762787,-942.900024414062,-1.92795751179447,0.201919399847932,0.0820832905018822,ST
3.0,1.68855762481689,-0.694444000720978,9.47398662567139,-1.14329993724823,-1.12043392658234,0.983237981796265,-1281.90002441406,5.70000028610229,-940.500061035156,-1.93015612590303,0.179202181574007,0.0759021506569827,ST
3.03333333333333,1.61020088195801,-0.835007607936859,10.1941509246826,-0.87652999162674,-0.792688012123108,0.967993974685669,-1286.70007324219,4.5,-942.900024414062,-1.93532291411874,0.158244614399623,0.0832480654993033,ST
3.06666666666667,1.49117040634155,-0.78775429725647,9.91900444030762,-0.663114011287689,-0.701223969459534,0.891773998737335,-1296.30004882812,2.10000014305115,-928.500061035156,-1.93831025490114,0.150358616719083,0.08081780690292,ST
3.1,0.936691880226135,-0.940280735492706,10.2198705673218,-1.17378795146942,-0.243903994560242,0.335367977619171,-1291.5,8.70000076293945,-935.700012207031,-1.9406892323811,0.0949642661172,0.0930722210099148,ST
3.13333333333333,1.06589078903198,-0.818259596824646,9.73657131195068,-1.05183601379395,-0.739333987236023,0.564027965068817,-1289.10009765625,7.50000047683716,-938.100036621094,-1.94206979530712,0.108956126623066,0.0862377512374275,ST
3.16666666666667,1.09400343894958,-1.00488018989563,9.17850399017334,-1.50153398513794,-0.548784017562866,0.541162014007568,-1296.30004882812,3.90000009536743,-930.900024414062,-1.94667865082975,0.118353684886627,0.110665622528951,ST
3.2,1.35957896709442,-1.09639608860016,9.25745868682861,-1.6844619512558,-0.823175966739655,0.198172003030777,-1298.70007324219,3.30000019073486,-928.500061035156,-1.94819465352534,0.144520062239589,0.120276739410728,ST
3.23333333333333,1.42597281932831,-1.0575168132782,8.99188327789307,-1.48628997802734,-0.884151995182037,0.274392008781433,-1279.5,6.30000019073486,-935.700012207031,-1.94872089543465,0.156892776583897,0.119798740749171,ST
3.26666666666667,1.73401641845703,-1.31112945079803,9.14680194854736,-1.44055795669556,-0.525918006896973,0.129574000835419,-1293.90002441406,11.7000007629395,-938.100036621094,-1.95255677606998,0.184933512003709,0.143713964091648,ST
3.3,1.79442894458771,-1.25849282741547,9.1091194152832,-1.2347639799118,-0.762199997901917,0.152439996600151,-1284.30004882812,-2.10000014305115,-938.100036621094,-1.95189834436286,0.19344878250422,0.139784921456426,ST
3.33333333333333,1.746577501297,-1.61797678470612,9.28916072845459,-1.28811800479889,-0.503051996231079,0.358233988285065,-1284.30004882812,14.1000003814697,-942.900024414062,-1.95883474135633,0.184503328279137,0.172718242598301,ST
3.36666666666667,1.70231485366821,-1.97865700721741,10.2461891174316,-1.39482593536377,-0.655492007732391,0.777444005012512,-1296.30004882812,7.50000047683716,-930.900024414062,-1.96486562956622,0.163770073786774,0.192329247096768,ST
3.4,1.54739582538605,-1.53423666954041,10.4525480270386,-1.31098401546478,-1.01372599601746,0.83841997385025,-1301.10009765625,9.90000057220459,-930.900024414062,-1.96159385843804,0.147987862853076,0.150948348390407,ST
3.43333333333333,1.59524726867676,-1.52347016334534,9.99796009063721,-1.13567793369293,-0.830797970294952,1.76068198680878,-1308.30004882812,10.5,-930.900024414062,-1.96872248145985,0.156840416947968,0.153540398142207,ST
3.46666666666667,2.19578289985657,-1.76751244068146,8.90395641326904,-1.57013201713562,-1.13567793369293,1.79879200458527,-1301.10009765625,13.5000009536743,-933.300048828125,-1.98411306516466,0.234663799399278,0.197201794728672,ST
3.5,1.52406823635101,-1.86321532726288,8.80406665802002,-1.85976791381836,-0.0457319989800453,1.04421401023865,-1313.10009765625,11.1000003814697,-928.500061035156,-1.98956804892351,0.171546213725183,0.211229732939694,ST
3.53333333333333,1.40623414516449,-2.00856399536133,7.61794900894165,-1.40244793891907,1.01372599601746,1.47866797447205,-1289.10009765625,12.3000001907349,-926.100036621094,-2.00194355963916,0.174176145383238,0.258652724138045,ST
3.56666666666667,1.56055498123169,-3.05471611022949,8.32555198669434,-1.71494996547699,1.12043392658234,1.81403601169586,-1284.30004882812,20.1000003814697,-928.500061035156,-2.02246204932073,0.171457408922326,0.350796115101025,ST
3.6,1.26567053794861,-3.23176646232605,10.2126932144165,-1.41006994247437,0.83841997385025,0.0990860015153885,-1301.10009765625,15.9000005722046,-930.900024414062,-2.01526954759934,0.119529492045611,0.31141973254606,ST
3.63333333333333,1.8626172542572,-2.96379852294922,11.0112142562866,-0.0457319989800453,-0.152439996600151,0.78506600856781,-1308.30004882812,12.9000005722046,-938.100036621094,-2.01212984694997,0.159253696415069,0.2661676266708,ST
3.66666666666667,2.24004530906677,-2.99908876419067,10.16663646698,0.167683988809586,-0.868907988071442,0.983237981796265,-1286.70007324219,17.7000007629395,-940.500061035156,-2.02049989246598,0.206212930571483,0.285708595791471,ST
3.7,1.95174050331116,-2.96320033073425,9.03016471862793,-0.106707997620106,0.731711983680725,0.480185985565186,-1303.5,14.7000007629395,-928.500061035156,-2.02743458130396,0.201360650362053,0.315616055846488,ST
3.73333333333333,0.989328503608704,-2.551677942276,9.6103630065918,0.221037998795509,2.59910202026367,-0.0304879993200302,-1293.90002441406,14.7000007629395,-928.500061035156,-2.01640312077145,0.100644885688907,0.262051385903957,ST
3.76666666666667,0.561058104038239,-1.68377244472504,9.6881217956543,1.02897000312805,2.69056582450867,-0.25152599811554,-1296.30004882812,23.1000003814697,-938.100036621094,-2.00675657193732,0.0554079640876612,0.175754211933714,ST
3.8,0.447410941123962,-1.76272737979889,9.93395805358887,1.15092194080353,1.84452390670776,0.480185985565186,-1279.5,18.9000015258789,-933.300048828125,-2.00749114836828,0.0418743267966975,0.173749194677083,ST
3.83333333333333,0.907981038093567,-1.97207736968994,8.83337497711182,0.472563982009888,1.14329993724823,-0.564027965068817,-1265.10009765625,14.1000003814697,-952.500061035156,-2.00737989629185,0.0948253540686998,0.215966814736268,ST
3.86666666666667,0.193200185894966,-1.55098474025726,9.22336483001709,0.853663980960846,1.82165801525116,-1.48628997802734,-1284.30004882812,17.7000007629395,-942.900024414062,-1.9975003181484,0.0226390226809775,0.168085150985873,ST
3.9,0.546104550361633,-1.42178583145142,9.67556095123291,1.39482593536377,1.65397393703461,-1.83690190315247,-1286.70007324219,10.5,-935.700012207031,-1.98853209447711,0.0515421253244627,0.144801671013118,ST
3.93333333333333,0.459971934556961,-1.40563595294952,9.15816688537598,1.33385002613068,0.419209986925125,-1.6615959405899,-1272.30004882812,17.7000007629395,-945.300048828125,-1.98137705993199,0.0493983269222409,0.149622460607308,ST
3.96666666666667,0.620274245738983,-1.42896354198456,8.98111629486084,0.647870004177094,0.221037998795509,-1.38720393180847,-1284.30004882812,13.5000009536743,-940.500061035156,-1.97592894278959,0.0671783325998381,0.15615820872733,ST
4.0,0.355296939611435,-1.49834811687469,9.25327205657959,0.152439996600151,0.358233988285065,-1.17378795146942,-1281.90002441406,11.1000003814697,-954.900024414062,-1.97126499892403,0.0393856045081614,0.159931440864074,ST
4.03333333333333,0.2105463296175,-2.50861167907715,9.24429988861084,-0.830797970294952,0.739333987236023,-0.602137982845306,-1284.30004882812,11.7000007629395,-950.100036621094,-1.97122681750139,0.0221163023752228,0.259939299942382,ST
4.06666666666667,0.156115308403969,-2.9542281627655,9.24729061126709,-1.09756803512573,0.472563982009888,-0.685979962348938,-1262.70007324219,11.1000003814697,-940.500061035156,-1.9688702703175,0.0160429179369014,0.308010874002632,ST
4.1,-0.0412718653678894,-3.28320670127869,9.44288349151611,-1.2423859834671,0.0838419944047928,-0.724089980125427,-1262.70007324219,4.5,-942.900024414062,-1.96606966157283,-0.0027680084502881,0.335215493270243,ST
4.13333333333333,0.0185424312949181,-2.9542281627655,9.44826602935791,-0.868907988071442,-0.449698001146317,-0.0609759986400604,-1267.5,13.5000009536743,-947.700012207031,-1.96640723730293,0.0023256515287145,0.306417961837744,ST
4.16666666666667,0.177648469805717,-2.62644577026367,9.48415470123291,-0.320124000310898,-0.541162014007568,0.861285984516144,-1267.5,9.30000019073486,-942.900024414062,-1.97035040855278,0.0178360067732382,0.272315206949198,ST
4.2,0.531749129295349,-2.38120722770691,9.86098480224609,0.106707997620106,-0.647870004177094,1.70732796192169,-1272.30004882812,14.7000007629395,-938.100036621094,-1.97696264889391,0.0510404388348909,0.238643421466943,ST
4.23333333333333,1.06648886203766,-2.07974314689636,9.2161865234375,0.442075997591019,-1.21951997280121,2.85062789916992,-1262.70007324219,5.70000028610229,-945.300048828125,-1.98846814877022,0.109966539851409,0.222646328816787,ST
4.26666666666667,1.4421226978302,-1.83749520778656,9.35615253448486,0.114329993724823,-0.724089980125427,2.84300589561462,-1274.70007324219,14.7000007629395,-945.300048828125,-1.99683556334511,0.147914299776988,0.196178765468906,ST
4.3,1.14125680923462,-1.88235592842102,9.78083419799805,0.0685980021953583,-0.548784017562866,2.70580983161926,-1269.90002441406,8.10000038146973,-942.900024414062,-2.00721353955555,0.116173785111341,0.190933687740147,ST
4.33333333333333,1.51330173015594,-1.52347016334534,9.43450927734375,0.0685980021953583,-0.342989981174469,2.9344699382782,-1267.5,21.3000011444092,-950.100036621094,-2.01553348140126,0.154572954251785,0.162409379555723,ST
4.36666666666667,1.11613476276398,-1.67539846897125,9.51645469665527,0.0228659994900227,0.571649968624115,2.04269599914551,-1260.30004882812,17.7000007629395,-947.700012207031,-2.02475286958156,0.115904453755736,0.173899266314868,ST
4.4,1.05213344097137,-1.77887713909149,9.58284854888916,0.129574000835419,0.92988395690918,1.10518991947174,-1267.5,19.5,-942.900024414062,-2.02973791749234,0.106094416966893,0.183018929594638,ST
4.43333333333333,0.742893576622009,-1.80340111255646,9.23114013671875,0.160062000155449,0.533540010452271,0.37347799539566,-1272.30004882812,18.3000011444092,-942.900024414062,-2.0317080005192,0.0794996724311997,0.192105862150687,ST
4.46666666666667,0.955832481384277,-1.99121797084808,8.97334098815918,-0.198172003030777,0.182927995920181,0.647870004177094,-1272.30004882812,14.7000007629395,-952.500061035156,-2.03629613628676,0.101638826332022,0.217190080689234,ST
4.5,0.857737004756927,-1.90927231311798,9.10732460021973,-0.594515979290009,-0.274392008781433,0.221037998795509,-1279.5,13.5000009536743,-942.900024414062,-2.0363017462431,0.0928717945893786,0.208303960262172,ST
4.53333333333333,1.09460163116455,-2.07615423202515,9.61155986785889,-0.708845973014832,-0.716467976570129,0.442075997591019,-1274.70007324219,16.5,-942.900024414062,-2.03889344092254,0.110764728754176,0.213734522728731,ST
4.56666666666667,1.17654716968536,-2.44461035728455,9.34359169006348,-0.647870004177094,-1.31860601902008,0.503051996231079,-1272.30004882812,18.9000015258789,-940.500061035156,-2.04654772260316,0.122488172038729,0.254562088375714,ST
4.6,1.52347016334534,-2.87646961212158,9.1390266418457,-1.07470202445984,-1.37195992469788,0.152439996600151,-1279.5,19.5,-940.500061035156,-2.05492301945821,0.157642502702525,0.30375965214289,ST
4.63333333333333,1.29019439220428,-2.93987274169922,9.49312686920166,-0.739333987236023,-0.823175966739655,0.198172003030777,-1269.90002441406,19.5,-940.500061035156,-2.0560356803801,0.131709833960855,0.301810815036793,ST
4.66666666666667,1.37333631515503,-2.92372274398804,9.39443397521973,-0.297257989645004,-0.274392008781433,0.0609759986400604,-1274.70007324219,18.9000015258789,-950.100036621094,-2.05652655251953,0.138786537379929,0.302249651243939,ST
4.7,1.42776727676392,-2.92252659797668,9.70247745513916,0.0762199983000755,-0.3125019967556,-0.0914639979600906,-1269.90002441406,19.5,-930.900024414062,-2.05530206259969,0.140442181321562,0.293032925566211,ST
4.73333333333333,1.46186137199402,-2.8561327457428,9.32086181640625,-0.0685980021953583,-0.67835795879364,-0.213415995240211,-1286.70007324219,23.1000003814697,-947.700012207031,-2.05583627187604,0.149502982840567,0.297189476615673,ST
4.76666666666667,1.53662931919098,-2.88783431053162,9.22755146026611,-0.0228659994900227,-0.746955990791321,0.495429992675781,-1281.90002441406,19.5,-945.300048828125,-2.05950169173349,0.158043338875258,0.303148571741882,ST
4.8,1.59225654602051,-2.87706780433655,9.08160495758057,0.6250039935112,-0.480185985565186,1.16616594791412,-1281.90002441406,24.3000011444092,-942.900024414062,-2.06568386654807,0.165416636477965,0.305928217512099,ST
4.83333333333333,1.36615860462189,-2.86869359016418,9.42792987823486,0.83841997385025,0.121951997280121,1.09756803512573,-1269.90002441406,18.9000015258789,-950.100036621094,-2.06893028707161,0.138240695702064,0.294681491874769,ST
4.86666666666667,1.21662282943726,-2.82682371139526,8.91711521148682,1.19665396213531,0.243903994560242,1.64635193347931,-1277.10009765625,17.1000003814697,-950.100036621094,-2.07729538776378,0.128567960390212,0.304724754732155,ST
4.9,1.07247030735016,-2.64439010620117,8.81961822509766,0.503051996231079,0.518296003341675,1.18140995502472,-1284.30004882812,17.7000007629395,-950.100036621094,-2.08019463961692,0.115113126865624,0.291244235579042,ST
4.93333333333333,0.470140367746353,-2.46016192436218,10.0135116577148,0.594515979290009,0.670735955238342,1.44055795669556,-1274.70007324219,11.7000007629395,-942.900024414062,-2.08175930024395,0.046954377041941,0.242245658131546,ST
4.96666666666667,0.896018147468567,-2.57261300086975,9.73776721954346,1.12805593013763,0.327746003866196,2.37044191360474,-1267.5,14.1000003814697,-952.500061035156,-2.09187722733234,0.0846998327143695,0.255747892034408,ST
5.0,0.888242304325104,-2.1252019405365,9.63727951049805,1.34909391403198,0.342989981174469,2.19513607025146,-1279.5,12.9000005722046,-947.700012207031,-2.09780102806605,0.0881592415994964,0.217007210176066,ST
5.03333333333333,0.523973226547241,-1.83928966522217,9.22216796875,1.22714197635651,0.685979962348938,2.5076379776001,-1253.10009765625,14.7000007629395,-940.500061035156,-2.10681552108134,0.0551450766351631,0.195929209540503,ST
5.06666666666667,0.91874760389328,-1.78904557228088,8.82918834686279,1.12043392658234,0.182927995920181,2.88111591339111,-1274.70007324219,12.3000001907349,-959.700012207031,-2.11857010041199,0.0975902678026286,0.198257749610655,ST
5.1,0.570030272006989,-1.69992232322693,9.14321327209473,0.792688012123108,0.175305992364883,2.83538389205933,-1267.5,16.5,-947.700012207031,-2.12904069149215,0.0620560452067709,0.183609548337211,ST
5.13333333333333,0.906186580657959,-2.2472231388092,9.29932880401611,0.365855991840363,0.0457319989800453,2.59910202026367,-1260.30004882812,20.7000007629395,-954.900024414062,-2.1431621398602,0.091454417080249,0.23360967296889,ST
5.16666666666667,0.463560789823532,-2.11981868743896,9.64385890960693,0.381099998950958,-0.236281991004944,1.86738991737366,-1260.30004882812,20.1000003814697,-954.900024414062,-2.14962261747256,0.0493267314440608,0.216962087259296,ST
5.2,0.420494496822357,-1.88833737373352,9.86098480224609,0.388722002506256,-0.266770005226135,1.31860601902008,-1272.30004882812,17.1000003814697,-947.700012207031,-2.15389110532201,0.0423219445871727,0.190346339293051,ST
5.23333333333333,0.30624920129776,-1.82553231716156,10.0009508132935,0.137196004390717,-0.655492007732391,0.518296003341675,-1260.30004882812,20.1000003814697,-947.700012207031,-2.15632593929563,0.0315712936336953,0.180784781715903,ST
5.26666666666667,0.388194799423218,-1.84228038787842,9.87234973907471,-0.342989981174469,-0.884151995182037,-0.533540010452271,-1260.30004882812,24.9000015258789,-947.700012207031,-2.15481927882071,0.0399377658747499,0.184874161160666,ST
5.3,0.443822085857391,-1.84826183319092,9.97044563293457,-0.221037998795509,-0.922261953353882,-0.853663980960846,-1265.10009765625,20.7000007629395,-947.700012207031,-2.15186342660824,0.0453178770134736,0.183688134365652,ST
5.33333333333333,0.731528878211975,-1.96908664703369,9.45723819732666,-0.37347799539566,-0.823175966739655,-1.265251994133,-1260.30004882812,21.9000015258789,-950.100036621094,-2.14867343132773,0.0754865934137378,0.204454804605582,ST
5.36666666666667,0.865512907505035,-1.95233869552612,9.37110614776611,-0.297257989645004,-0.419209986925125,-1.98934197425842,-1284.30004882812,19.5,-950.100036621094,-2.14072073899248,0.0908084514436992,0.205570647408507,ST
5.4,0.485093951225281,-1.77768087387085,9.35256385803223,0.0076219998300075,-0.114329993724823,-2.34757590293884,-1267.5,20.1000003814697,-947.700012207031,-2.13032160876205,0.05424437367033,0.188667636503418,ST
5.43333333333333,0.610703945159912,-2.1592960357666,8.72630786895752,-0.472563982009888,0.0304879993200302,-2.46952795982361,-1286.70007324219,21.9000015258789,-957.300048828125,-2.12359824444655,0.0678949267682872,0.239819822450368,ST
5.46666666666667,0.0239257179200649,-2.0612006187439,9.36332988739014,-0.617381989955902,0.289635986089706,-2.65245604515076,-1272.30004882812,16.5,-935.700012207031,-2.11206645093391,0.0069547242434456,0.219021746240158,ST
5.5,0.282921612262726,-2.17185711860657,9.43630313873291,-0.144817993044853,-0.114329993724823,-1.35671591758728,-1274.70007324219,7.50000047683716,-945.300048828125,-2.10662930455419,0.0288071983278219,0.22605280738913,ST
5.53333333333333,0.506028950214386,-2.55227613449097,8.87404918670654,-0.388722002506256,-0.579271972179413,-1.22714197635651,-1262.70007324219,13.5000009536743,-940.500061035156,-2.1045141099363,0.0546293912896881,0.277327577520681,ST
5.56666666666667,0.418101936578751,-2.56902408599854,9.36452674865723,-0.358233988285065,-0.716467976570129,-1.02897000312805,-1267.5,8.70000076293945,-947.700012207031,-2.10080422441829,0.0453153775939989,0.268854313281696,ST
5.6,0.78177285194397,-2.74188733100891,8.95180797576904,-0.0762199983000755,-0.990859985351562,-0.289635986089706,-1274.70007324219,20.7000007629395,-940.500061035156,-2.10250027592616,0.0826993849703814,0.295624712452496,ST
5.63333333333333,0.178844749927521,-2.62285685539246,9.50090312957764,0.274392008781433,-0.106707997620106,0.114329993724823,-1272.30004882812,18.3000011444092,-947.700012207031,-2.1018182006953,0.0214309863926456,0.270196265759656,ST
5.66666666666667,0.247631192207336,-2.59893131256104,10.0206890106201,0.899396002292633,0.0990860015153885,0.92988395690918,-1265.10009765625,12.9000005722046,-947.700012207031,-2.10525701165845,0.0232452539151277,0.25311161541976,ST
5.7,0.758445262908936,-2.29806518554688,10.1462993621826,1.42531394958496,-0.807931959629059,1.19665396213531,-1262.70007324219,20.7000007629395,-942.900024414062,-2.10988597040028,0.071210792516326,0.222009647466056,ST
5.73333333333333,0.827231705188751,-1.79801774024963,9.34538555145264,1.22714197635651,-1.13567793369293,1.08994603157043,-1269.90002441406,12.9000005722046,-938.100036621094,-2.11343369381463,0.0875351960165411,0.189616871604093,ST
5.76666666666667,1.01504862308502,-1.79741966724396,8.88302135467529,1.05183601379395,-0.25152599811554,1.49391198158264,-1267.5,20.7000007629395,-947.700012207031,-2.12092675774849,0.110150120112234,0.197630371367723,ST
5.8,0.759043455123901,-1.8907299041748,8.94821929931641,0.868907988071442,0.266770005226135,1.45580196380615,-1289.10009765625,8.70000076293945,-954.900024414062,-2.12760323387523,0.083549811506209,0.20636669853504,ST
5.83333333333333,0.784165441989899,-1.97387182712555,9.26344013214111,0.282013982534409,0.114329993724823,1.29574000835419,-1274.70007324219,11.7000007629395,-940.500061035156,-2.13325985505343,0.082019033814909,0.209468766609836,ST
5.86666666666667,1.28959619998932,-1.99959194660187,9.22695350646973,0.388722002506256,-0.861285984516144,1.80641400814056,-1289.10009765625,12.3000001907349,-950.100036621094,-2.14161019860992,0.133249610394035,0.212936956059333,ST
5.9,1.13587355613708,-2.06778025627136,9.3896484375,0.266770005226135,-0.983237981796265,0.693601965904236,-1272.30004882812,19.5,-947.700012207031,-2.14594192427742,0.119710472520464,0.216309961560119,ST
5.93333333333333,1.01325416564941,-1.78605496883392,9.27420711517334,0.556405961513519,-0.739333987236023,0.922261953353882,-1265.10009765625,20.1000003814697,-938.100036621094,-2.14788879521252,0.108355072437684,0.190662777399994,ST
5.96666666666667,0.724351167678833,-2.23406410217285,9.57148361206055,0.182927995920181,-0.670735955238342,0.899396002292633,-1272.30004882812,19.5,-938.100036621094,-2.15538887509336,0.0764319898749248,0.226804625258188,ST
6.0,0.190807610750198,-1.93200182914734,9.37648963928223,0.335367977619171,-0.442075997591019,1.05183601379395,-1281.90002441406,18.3000011444092,-945.300048828125,-2.1588260336301,0.0237104451433521,0.204144431597684,ST
6.03333333333333,0.440831363201141,-2.41889023780823,9.41357421875,0.236281991004944,-0.0381099991500378,1.65397393703461,-1279.5,20.1000003814697,-945.300048828125,-2.16749604066695,0.043772842943845,0.249144097866851,ST
6.06666666666667,0.619676113128662,-2.35728144645691,9.41417217254639,0.144817993044853,-1.20427596569061,1.07470202445984,-1267.5,15.3000001907349,-945.300048828125,-2.17319810354295,0.0643986374395195,0.24541562406132,ST
6.1,1.13587355613708,-2.43623638153076,9.43869590759277,0.175305992364883,-2.14940404891968,0.945127964019775,-1277.10009765625,12.9000005722046,-938.100036621094,-2.17967689961469,0.115899539348081,0.252132974770598,ST
6.13333333333333,1.94217026233673,-2.36924433708191,9.18867206573486,0.358233988285065,-2.96495795249939,0.746955990791321,-1284.30004882812,12.9000005722046,-942.900024414062,-2.18574337494874,0.201069146232411,0.252209037524901,ST
6.16666666666667,1.88773918151855,-2.28969120979309,9.28557109832764,0.6250039935112,-2.5000159740448,0.754577994346619,-1286.70007324219,20.7000007629395,-930.900024414062,-2.18995859948622,0.198898949895824,0.241627828731386,ST
6.2,2.45896577835083,-2.26995253562927,9.33761024475098,1.76068198680878,-1.21951997280121,1.65397393703461,-1284.30004882812,14.1000003814697,-940.500061035156,-2.19788912427628,0.248687067747704,0.236539551829808,ST
6.23333333333333,1.81117689609528,-1.9146556854248,9.65402793884277,2.99544596672058,-0.411587983369827,2.15702605247498,-1284.30004882812,12.9000005722046,-938.100036621094,-2.20102783084046,0.184588250825057,0.193074639995607,ST
6.26666666666667,2.4517879486084,-2.29567265510559,9.96984672546387,2.53050398826599,0.525918006896973,2.27897787094116,-1293.90002441406,12.9000005722046,-938.100036621094,-2.21835873216505,0.231313835807907,0.221411381685515,ST
6.3,2.08692073822021,-1.66403377056122,10.5931119918823,2.73629784584045,-0.0457319989800453,1.15092194080353,-1274.70007324219,18.3000011444092,-940.500061035156,-2.21136412606324,0.194135833305312,0.155234417930188,ST
6.33333333333333,1.87936520576477,-1.88773918151855,9.84782600402832,2.96495795249939,-0.0533539988100529,1.37195992469788,-1284.30004882812,14.7000007629395,-938.100036621094,-2.22421080321759,0.185515787112747,0.182885498890898,ST
6.36666666666667,1.20166921615601,-1.68736135959625,9.71085071563721,2.78965187072754,0.663114011287689,1.04421401023865,-1284.30004882812,14.1000003814697,-945.300048828125,-2.22725152195699,0.123852927329297,0.168330297191356,ST
6.4,0.927121579647064,-1.11852741241455,9.17371845245361,2.53050398826599,1.47104597091675,1.46342396736145,-1277.10009765625,6.90000009536743,-940.500061035156,-2.22832018046908,0.0984325392198921,0.119645332016398,ST
6.43333333333333,0.754856407642365,-0.922934591770172,8.92907810211182,2.53812599182129,2.43903994560242,1.92836594581604,-1284.30004882812,14.1000003814697,-935.700012207031,-2.23411128962138,0.0804724829037279,0.100073264459321,ST
6.46666666666667,0.531749129295349,-0.735715866088867,9.11868953704834,2.43141794204712,2.90398192405701,1.33385002613068,-1267.5,6.90000009536743,-940.500061035156,-2.23801061607549,0.0540380507036944,0.0774167000873104,ST
6.5,0.242846041917801,-0.917551338672638,9.57985782623291,2.01982998847961,2.59910202026367,0.548784017562866,-1265.10009765625,13.5000009536743,-957.300048828125,-2.24011633178516,0.0226523396230459,0.0910965880141955,ST
6.53333333333333,0.236266478896141,-0.864316582679749,9.62770938873291,1.44817996025085,1.57013201713562,0.106707997620106,-1265.10009765625,9.90000057220459,-950.100036621094,-2.24002791787616,0.0217492295674958,0.0872529620364907,ST
6.56666666666667,0.165087461471558,-0.805100440979004,9.77903938293457,0.907018005847931,0.990859985351562,0.0762199983000755,-1269.90002441406,13.5000009536743,-952.500061035156,-2.23994985773143,0.015492470692595,0.0809663317300732,ST
6.6,0.277538329362869,-0.727341830730438,9.59481143951416,0.708845973014832,0.632625997066498,0.335367977619171,-1272.30004882812,12.3000001907349,-957.300048828125,-2.24110867879221,0.0270919313938402,0.0747568079490192,ST
6.63333333333333,0.457579374313354,-0.696836590766907,9.11809158325195,0.564027965068817,0.602137982845306,0.434453994035721,-1257.90002441406,5.10000038146973,-959.700012207031,-2.24283348229554,0.047701724564859,0.0752900874145723,ST
6.66666666666667,0.0610105842351913,-0.733323276042938,9.92319202423096,0.221037998795509,1.12043392658234,-0.548784017562866,-1272.30004882812,12.9000005722046,-952.500061035156,-2.24003272827671,0.0061628861405969,0.0734520895346676,ST
6.7,-0.183031752705574,-0.453990519046783,10.4268283843994,0.411587983369827,0.0,-0.83841997385025,-1262.70007324219,8.10000038146973,-964.500061035156,-2.23678649226737,-0.0160317443315485,0.0446700846111053,ST
6.73333333333333,-0.188415035605431,-0.720762252807617,9.97582817077637,0.304879993200302,-0.731711983680725,-1.08232402801514,-1255.5,15.3000001907349,-947.700012207031,-2.2321661783248,-0.0173524697829231,0.0699909144660448,ST
6.76666666666667,0.104076877236366,-0.437840640544891,9.61215782165527,0.556405961513519,-0.724089980125427,-0.365855991840363,-1267.5,16.5,-950.100036621094,-2.23093773780802,0.0103248961245008,0.0460873522186185,ST
6.8,0.561058104038239,-1.21722090244293,9.06964206695557,-0.221037998795509,-0.792688012123108,-0.144817993044853,-1267.5,12.3000001907349,-957.300048828125,-2.23353456696094,0.0597891084312247,0.128989996064078,ST
6.83333333333333,0.472532957792282,-1.21662282943726,9.7598991394043,-0.960371971130371,-0.182927995920181,-0.594515979290009,-1269.90002441406,13.5000009536743,-947.700012207031,-2.23057358792364,0.0489007887221971,0.125773535373633,ST
6.86666666666667,0.947458446025848,-1.1837249994278,9.63070011138916,-0.632625997066498,-0.365855991840363,1.13567793369293,-1284.30004882812,8.10000038146973,-952.500061035156,-2.23493977171788,0.0947634076779426,0.123717056811525,ST
6.9,0.795530140399933,-1.62874329090118,10.2384128570557,-0.0838419944047928,-0.152439996600151,1.65397393703461,-1272.30004882812,8.70000076293945,-935.700012207031,-2.2443567569697,0.0775322632937514,0.156053918024074,ST
6.93333333333333,0.715977132320404,-1.54201257228851,9.57208156585693,0.426831990480423,0.282013982534409,2.13416004180908,-1257.90002441406,14.1000003814697,-957.300048828125,-2.253515954518,0.0728782092348322,0.159086332815938,ST
6.96666666666667,0.203368604183197,-1.57610678672791,10.3951263427734,0.87652999162674,1.21951997280121,1.49391198158264,-1262.70007324219,14.7000007629395,-947.700012207031,-2.25872949438269,0.019594305599872,0.149501646831848,ST
7.0,0.0257201474159956,-1.3721399307251,10.1917581558228,1.6692179441452,1.15092194080353,2.40092992782593,-1262.70007324219,13.5000009536743,-952.500061035156,-2.26754504419993,0.0011385758033769,0.132057007263554,ST
7.03333333333333,0.263781040906906,-1.47681498527527,9.72759914398193,2.21037983894348,0.815553963184357,3.52898597717285,-1265.10009765625,12.9000005722046,-952.500061035156,-2.28272815423033,0.0234792908583443,0.146272747585403,ST
7.06666666666667,0.391185492277145,-1.19508969783783,9.43391132354736,2.43141794204712,0.388722002506256,3.84148788452148,-1269.90002441406,8.10000038146973,-950.100036621094,-2.29747733987077,0.0386129429269852,0.123475729970943,ST
7.1,0.363072782754898,-1.05632042884827,9.11151218414307,2.33995389938354,0.67835795879364,3.54422998428345,-1265.10009765625,7.50000047683716,-957.300048828125,-2.31126835390784,0.037737623096168,0.112283720509188,ST
7.13333333333333,0.189013183116913,-0.538926839828491,9.50987529754639,2.33995389938354,1.14329993724823,3.01068997383118,-1241.10009765625,7.50000047683716,-952.500061035156,-2.32166921579531,0.0187360951458257,0.0562561770530618,ST
7.16666666666667,0.403746515512466,-0.520982503890991,9.61275577545166,2.21037983894348,0.160062000155449,2.96495795249939,-1255.5,7.50000047683716,-954.900024414062,-2.33369007437508,0.0399953681110893,0.0508246476049798,ST
7.2,0.543113827705383,-0.281725347042084,9.05109977722168,1.49391198158264,-0.571649968624115,2.15702605247498,-1238.70007324219,9.30000019073486,-954.900024414062,-2.34173614052388,0.0595155143674535,0.0300640496719597,ST
7.23333333333333,-0.13398402929306,0.145348742604256,9.38127422332764,1.17378795146942,0.0152439996600151,1.80641400814056,-1262.70007324219,9.90000057220459,-959.700012207031,-2.34842499591048,-0.0106537805638404,-0.0152064280560739,ST
7.26666666666667,-0.299071490764618,-0.0460570082068443,9.86218166351318,1.03659200668335,1.02134799957275,1.92074394226074,-1248.30004882812,7.50000047683716,-959.700012207031,-2.35641882158551,-0.0311531448686786,0.0019743382667988,ST
7.3,-0.137572884559631,0.203368604183197,10.2025241851807,0.670735955238342,0.0685980021953583,1.2347639799118,-1250.70007324219,6.90000009536743,-942.900024414062,-2.36183927801106,-0.0146324791143358,-0.0197375367108978,ST
7.33333333333333,0.382811486721039,0.185424327850342,10.0057353973389,0.182927995920181,-1.40244793891907,1.02134799957275,-1250.70007324219,2.70000004768372,-957.300048828125,-2.3658705063272,0.0373580830258143,-0.0188565613141215,ST
7.36666666666667,1.04316139221191,0.247631192207336,8.98051834106445,-0.0152439996600151,-2.64483404159546,0.487807989120483,-1265.10009765625,9.90000057220459,-945.300048828125,-2.36713454168134,0.116964429771818,-0.0271226357874101,ST
7.4,1.2058562040329,0.507823407649994,9.08280086517334,-0.495429992675781,-2.11129403114319,-0.685979962348938,-1248.30004882812,9.90000057220459,-957.300048828125,-2.36021467493721,0.134506977639738,-0.0537952107845463,ST
7.43333333333333,0.964804589748383,0.447410941123962,9.76767444610596,-0.602137982845306,-1.21951997280121,-1.04421401023865,-1255.5,6.90000009536743,-947.700012207031,-2.35609979288376,0.101894553368599,-0.045316586330817,ST
7.46666666666667,0.896018147468567,0.284716039896011,10.0816993713379,-0.800309956073761,-0.731711983680725,-1.53202199935913,-1265.10009765625,15.9000005722046,-950.100036621094,-2.35081612085961,0.0903953863283583,-0.0279790861884476,ST
7.5,0.727341830730438,0.445018380880356,9.60677433013916,-0.632625997066498,-0.0381099991500378,-1.47866797447205,-1257.90002441406,6.90000009536743,-942.900024414062,-2.34330155726924,0.0763523512476482,-0.0443366448132287,ST
7.53333333333333,0.601731836795807,0.45638307929039,10.030858039856,-0.556405961513519,0.762199997901917,-1.47866797447205,-1255.5,5.70000028610229,-954.900024414062,-2.33732691324123,0.0594973056571274,-0.0446336808190068,ST
7.56666666666667,0.383409649133682,-0.250023752450943,9.87892913818359,-1.53202199935913,1.28049600124359,-1.48628997802734,-1262.70007324219,12.9000005722046,-945.300048828125,-2.33367356413159,0.0374927884725962,0.0250165898174052,ST
7.6,0.526963949203491,0.0203368607908487,9.45364952087402,-2.00458598136902,0.937505960464478,-1.76830399036407,-1253.10009765625,8.70000076293945,-945.300048828125,-2.32511395098717,0.053065493721364,0.0026367389099977,ST
7.63333333333333,0.70760315656662,-0.529954671859741,8.97573375701904,-2.42379593849182,1.28811800479889,-2.16464805603027,-1245.90002441406,10.5,-959.700012207031,-2.31918348093149,0.0750660052862855,0.0592673844362333,ST
7.66666666666667,0.194396466016769,-0.679490387439728,9.38845252990723,-1.76068198680878,2.27135586738586,-2.77440786361694,-1257.90002441406,9.30000019073486,-947.700012207031,-2.30782821246942,0.0205569434051676,0.0742095489904471,ST
7.7,-0.491075366735458,-1.31711077690125,10.1863746643066,-1.39482593536377,2.72105383872986,-3.07928800582886,-1257.90002441406,11.7000007629395,-950.100036621094,-2.2937050170662,-0.0474617717707998,0.127779896567759,ST
7.73333333333333,-0.513804793357849,-0.717771589756012,10.5482511520386,-0.853663980960846,1.79117000102997,-3.82624387741089,-1250.70007324219,14.1000003814697,-954.900024414062,-2.28053740015593,-0.0509099745912547,0.0732905396562984,ST
7.76666666666667,-0.264977335929871,-0.884653449058533,10.4298191070557,0.0304879993200302,0.457319974899292,-2.82013988494873,-1253.10009765625,11.1000003814697,-952.500061035156,-2.26863530564521,-0.0272269728310015,0.0840276598641054,ST
7.8,0.147741317749023,-0.954038023948669,10.0727272033691,0.0609759986400604,0.106707997620106,-3.14026403427124,-1241.10009765625,11.1000003814697,-957.300048828125,-2.25590833762021,0.0123678202494149,0.09367403660656,ST
7.83333333333333,0.0825437307357788,-1.19927668571472,9.43929386138916,-0.564027965068817,-0.0381099991500378,-2.76678586006165,-1241.10009765625,6.30000019073486,-954.900024414062,-2.24516078316087,0.0095044156696631,0.125274154319663,ST
7.86666666666667,-0.325987905263901,-0.90977543592453,9.15816688537598,-0.259148001670837,1.50153398513794,-1.01372599601746,-1233.90002441406,3.30000019073486,-947.700012207031,-2.24076160750377,-0.0349589321826154,0.101087119212231,ST
7.9,-0.305052906274796,-1.46784281730652,8.89737701416016,-0.205793991684914,2.76678586006165,-0.160062000155449,-1243.5,14.1000003814697,-964.500061035156,-2.23636723226095,-0.0383540683670886,0.16047269676793,ST
7.93333333333333,-0.754258275032043,-1.65266907215118,9.75152492523193,0.266770005226135,2.59148001670837,-1.33385002613068,-1214.70007324219,14.1000003814697,-976.500061035156,-2.2282488027145,-0.0783483057700983,0.167325403054904,ST
7.96666666666667,-1.01086163520813,-1.77827906608582,9.70128059387207,0.388722002506256,1.6768399477005,-1.03659200668335,-1229.10009765625,8.10000038146973,-969.300048828125,-2.22133280247126,-0.103402781639366,0.180179809967431,ST
8.0,-0.79672646522522,-1.6024249792099,10.4489593505859,0.358233988285065,0.83841997385025,-0.342989981174469,-1221.90002441406,10.5,-971.700012207031,-2.22163981452179,-0.0778930826865249,0.15301109440469,ST
8.03333333333333,0.0562254376709461,-1.20824885368347,9.63488674163818,0.823175966739655,-0.327746003866196,0.129574000835419,-1217.10009765625,2.10000014305115,-969.300048828125,-2.22331272218471,0.0012227241290561,0.125116898540127,ST
8.06666666666667,0.433653652667999,-1.24712812900543,8.70836353302002,0.403965979814529,-0.0228659994900227,-0.144817993044853,-1212.30004882812,10.5,-966.900024414062,-2.22311843833849,0.0474338535017637,0.140881255194565,ST
8.1,-0.282323479652405,-1.28481113910675,9.19704627990723,0.160062000155449,1.21189796924591,-0.419209986925125,-1207.5,6.90000009536743,-969.300048828125,-2.22074286503476,-0.0275429540334515,0.138682930675729,ST
8.13333333333333,-1.22080981731415,-1.4020471572876,9.79698371887207,0.221037998795509,2.01220798492432,0.0304879993200302,-1217.10009765625,10.5,-966.900024414062,-2.21943933240821,-0.120226053842489,0.141623528616651,ST
8.16666666666667,-1.80100846290588,-0.821848452091217,9.87115383148193,1.05183601379395,1.40244793891907,1.29574000835419,-1219.5,8.70000076293945,-964.500061035156,-2.23251771331215,-0.18005378904286,0.083296148962446,ST
8.2,-1.60122871398926,-0.45937380194664,9.91960334777832,1.6920839548111,0.175305992364883,1.6615959405899,-1219.5,9.90000057220459,-969.300048828125,-2.24438367828366,-0.161527794799016,0.0452925672881509,ST
8.23333333333333,-1.11673295497894,-0.513206660747528,9.03195858001709,1.05183601379395,-1.35671591758728,1.69970595836639,-1209.90002441406,0.900000035762787,-964.500061035156,-2.25020339542518,-0.122416070531344,0.0541254841855014,ST
8.26666666666667,-1.01684308052063,-0.686069965362549,9.27839374542236,-0.266770005226135,-0.975615978240967,0.868907988071442,-1214.70007324219,7.50000047683716,-966.900024414062,-2.25221372252924,-0.107938072915038,0.0732163550235784,ST
8.3,-0.614890992641449,-1.0575168132782,9.48355674743652,-0.525918006896973,-1.48628997802734,0.914639949798584,-1214.70007324219,6.30000019073486,-969.300048828125,-2.25348672630521,-0.0647283742713008,0.109502604834002,ST
8.33333333333333,-0.416905641555786,-1.17295837402344,9.38605976104736,-0.426831990480423,-1.49391198158264,0.922261953353882,-1217.10009765625,5.10000038146973,-978.900024414062,-2.25719069954796,-0.0430529832799754,0.12404195498544,ST
8.36666666666667,-0.343334078788757,-1.24054849147797,9.32265663146973,-0.327746003866196,-0.716467976570129,0.533540010452271,-1224.30004882812,5.70000028610229,-962.100036621094,-2.25941979707367,-0.0358374720176953,0.132290535056302,ST
8.4,-0.732725143432617,-1.15800476074219,10.0057353973389,0.274392008781433,0.0152439996600151,0.396344006061554,-1207.5,3.30000019073486,-971.700012207031,-2.26196669036885,-0.0711020050247004,0.115473867745179,ST
8.43333333333333,-0.472532957792282,-0.996506214141846,10.1809911727905,0.792688012123108,-0.937505960464478,0.137196004390717,-1226.70007324219,12.9000005722046,-966.900024414062,-2.26379423541072,-0.0461645988790351,0.0973344171718452,ST
8.46666666666667,-0.495262384414673,-0.584385693073273,9.51765060424805,0.815553963184357,-1.44817996025085,0.0609759986400604,-1224.30004882812,4.5,-971.700012207031,-2.26608875354614,-0.0492512415008671,0.0613627610640523,ST
8.5,-0.670518279075623,-0.550291538238525,10.015305519104,0.289635986089706,-0.983237981796265,0.556405961513519,-1219.5,3.30000019073486,-964.500061035156,-2.26885696619809,-0.0641298343654839,0.0547461429605433,ST
8.53333333333333,-0.193200185894966,-0.629844546318054,10.0081281661987,-0.205793991684914,-1.03659200668335,0.548784017562866,-1226.70007324219,11.1000003814697,-964.500061035156,-2.27108340378676,-0.0200608943955531,0.0627221089372042,ST
8.56666666666667,-0.034094151109457,-0.66932201385498,9.5684928894043,-0.25152599811554,-0.960371971130371,0.579271972179413,-1231.5,9.90000057220459,-950.100036621094,-2.27360091157403,-0.0030494619850973,0.0698119233011402,ST
8.6,-0.338548928499222,-0.986337780952454,9.55294132232666,-0.213415995240211,-0.0990860015153885,-0.922261953353882,-1233.90002441406,4.5,-957.300048828125,-2.26926909925386,-0.033171635485385,0.101474820224785,ST
8.63333333333333,-0.623264968395233,-1.37094366550446,9.61993312835693,-0.320124000310898,-0.198172003030777,-1.49391198158264,-1229.10009765625,12.3000001907349,-966.900024414062,-2.26165205422783,-0.0615346074898988,0.139785674473768,ST
8.66666666666667,-0.899008870124817,-1.30155909061432,9.43690204620361,-0.25152599811554,-0.510673999786377,-0.922261953353882,-1238.70007324219,4.5,-957.300048828125,-2.25850034763762,-0.0910823796883497,0.137756510143604,ST
8.7,-0.762632310390472,-1.21243584156036,9.79399299621582,0.342989981174469,-0.350611984729767,0.0152439996600151,-1236.30004882812,3.90000009536743,-962.100036621094,-2.25982944667641,-0.0774031833835141,0.12348071137166,ST
8.73333333333333,-0.513804793357849,-1.02461886405945,9.96506214141846,0.922261953353882,-0.205793991684914,0.411587983369827,-1241.10009765625,0.900000035762787,-978.900024414062,-2.26272067452291,-0.0525666148181011,0.102182034794767,ST
8.76666666666667,-0.0263182912021875,-0.997104346752167,9.305908203125,1.12043392658234,-0.480185985565186,0.92988395690918,-1209.90002441406,9.30000019073486,-966.900024414062,-2.26671287008165,-0.0046204967499342,0.104640060388558,ST
8.8,0.16269488632679,-0.839194595813751,9.45125675201416,0.78506600856781,-0.67835795879364,0.579271972179413,-1238.70007324219,7.50000047683716,-950.100036621094,-2.2692234626503,0.0168471940437685,0.0882616824851706,ST
8.83333333333333,-0.150732025504112,-0.863718450069427,9.38546180725098,0.480185985565186,-0.114329993724823,0.701223969459534,-1226.70007324219,3.90000009536743,-964.500061035156,-2.27233554684352,-0.0144616857375625,0.0908016264564136,ST
8.86666666666667,-0.359483927488327,-0.99590802192688,9.53439903259277,0.411587983369827,0.617381989955902,1.13567793369293,-1224.30004882812,11.7000007629395,-952.500061035156,-2.2765457658437,-0.0375623899368981,0.102681763571222,ST
8.9,-0.203368604183197,-0.787156164646149,10.063157081604,0.579271972179413,0.350611984729767,1.29574000835419,-1219.5,3.90000009536743,-964.500061035156,-2.28289990952002,-0.021593520318458,0.0780114649346875,ST
8.93333333333333,-0.225499898195267,-0.692051410675049,9.93754768371582,0.815553963184357,0.0457319989800453,1.21951997280121,-1221.90002441406,2.10000014305115,-966.900024414062,-2.28792266300713,-0.0227850590699644,0.0686601438586201,ST
8.96666666666667,-0.151928320527077,-0.594554126262665,9.99018383026123,0.640248000621796,0.198172003030777,0.92988395690918,-1221.90002441406,2.10000014305115,-964.500061035156,-2.29175461886151,-0.0160573569514527,0.0589269467131385,ST
9.0,-0.132189601659775,-0.51440292596817,9.09476375579834,0.25152599811554,-0.160062000155449,0.37347799539566,-1219.5,8.10000038146973,-969.300048828125,-2.2933204744766,-0.0143769227680678,0.0562256773082043,ST
9.03333333333333,-0.768613696098328,-0.416905641555786,9.26523494720459,-0.106707997620106,0.304879993200302,0.320124000310898,-1212.30004882812,-2.70000004768372,-959.700012207031,-2.29505816904558,-0.0790643901331415,0.0457948590447826,ST
9.06666666666667,-0.793137550354004,-0.372643083333969,9.58703517913818,-0.243903994560242,-0.0228659994900227,0.99848198890686,-1224.30004882812,9.30000019073486,-974.100036621094,-2.29965439163727,-0.0823022331225998,0.0395368404548813,ST
9.1,-0.370848655700684,-0.52935653924942,10.2473850250244,-0.327746003866196,-1.50153398513794,1.21951997280121,-1212.30004882812,10.5,-966.900024414062,-2.30484075120766,-0.0355343601940271,0.0515969387717393,ST
9.13333333333333,-0.153722748160362,-0.345128506422043,9.24908447265625,-0.335367977619171,-1.82165801525116,1.12805593013763,-1221.90002441406,9.90000057220459,-969.300048828125,-2.31005732255235,-0.0148462907644386,0.0386783259959583,ST
9.16666666666667,-0.184228032827377,-0.320604622364044,9.13723182678223,-0.0990860015153885,-0.922261953353882,0.533540010452271,-1236.30004882812,2.70000004768372,-971.700012207031,-2.31240324581849,-0.0183462525921579,0.0354378641550363,ST
9.2,-0.804502308368683,-0.327782362699509,9.30291748046875,0.175305992364883,-0.701223969459534,0.518296003341675,-1236.30004882812,2.10000014305115,-966.900024414062,-2.31457424164583,-0.080973877121111,0.0348839148846092,ST
9.23333333333333,-1.43315052986145,-0.887644171714783,10.4968109130859,-0.350611984729767,-0.914639949798584,0.907018005847931,-1221.90002441406,6.90000009536743,-959.700012207031,-2.31364963202921,-0.130546328052561,0.0817204143418868,ST
9.26666666666667,-0.702219843864441,-0.679490387439728,10.2575540542603,-0.548784017562866,-3.13264203071594,2.28659987449646,-1231.5,8.70000076293945,-966.900024414062,-2.32530684151898,-0.0671248862202359,0.0676703004044289,ST
9.3,0.628050148487091,-0.394774347543716,9.49252891540527,-0.228659987449646,-3.10215401649475,3.37654590606689,-1241.10009765625,8.10000038146973,-974.100036621094,-2.3395985949656,0.0627293427464206,0.0437745409208853,ST
9.33333333333333,1.42058956623077,-0.75545459985733,9.23831844329834,-0.457319974899292,-2.85824990272522,3.09453201293945,-1236.30004882812,13.5000009536743,-962.100036621094,-2.35646140374156,0.150946665952355,0.080766713239988,ST
9.36666666666667,1.31830716133118,-1.05811488628387,8.87046051025391,-0.99848198890686,-1.82927989959717,0.830797970294952,-1255.5,8.10000038146973,-966.900024414062,-2.36595736220872,0.149588965155234,0.118981856805824,ST
9.4,0.0657957270741463,-0.73451954126358,9.94113636016846,-0.693601965904236,-0.586893975734711,-0.556405961513519,-1238.70007324219,9.30000019073486,-954.900024414062,-2.36025715995099,0.0154730769322873,0.0773251977732096,ST
9.43333333333333,0.0484495796263218,-0.808689296245575,10.2085056304932,-0.121951997280121,-1.08232402801514,0.114329993724823,-1257.90002441406,11.7000007629395,-947.700012207031,-2.36107432719681,0.0071365080823665,0.0791502212940623,ST
9.46666666666667,0.0454588644206524,-0.783567309379578,9.76528167724609,-0.106707997620106,-1.20427596569061,0.152439996600151,-1260.30004882812,14.1000003814697,-962.100036621094,-2.3621388498467,0.0067347709845609,0.080203452132383,ST
9.5,-0.22968690097332,-0.938486337661743,9.72341251373291,-0.403965979814529,-0.617381989955902,0.92988395690918,-1262.70007324219,10.5,-964.500061035156,-2.36636109333655,-0.0212970918089939,0.0961608245206453,ST
9.53333333333333,-0.323595345020294,-0.656162858009338,9.74614143371582,-0.503051996231079,-0.739333987236023,1.08994603157043,-1250.70007324219,7.50000047683716,-942.900024414062,-2.37172656485012,-0.0313231304829394,0.0697487914336885,ST
9.56666666666667,0.553880393505096,-0.826035439968109,9.13483905792236,-0.701223969459534,-1.74543797969818,1.61586391925812,-1248.30004882812,17.7000007629395,-952.500061035156,-2.37943211876972,0.058465086891157,0.0904761433212849,ST
9.6,0.95463615655899,-0.989328503608704,9.38845252990723,-0.983237981796265,-2.05031800270081,0.83841997385025,-1248.30004882812,11.1000003814697,-957.300048828125,-2.38449900625631,0.1014154525606,0.10588242090644,ST
9.63333333333333,1.15202331542969,-1.25370764732361,9.58464336395264,-1.21189796924591,-2.21800184249878,0.0990860015153885,-1262.70007324219,7.50000047683716,-954.900024414062,-2.38816692732415,0.121165340961388,0.130658339579311,ST
9.66666666666667,0.937888205051422,-1.49057233333588,9.96266937255859,-1.265251994133,-2.14178204536438,-0.205793991684914,-1260.30004882812,12.3000001907349,-954.900024414062,-2.39009207455758,0.0980782969613654,0.149527534688772,ST
9.7,0.584983825683594,-1.58747148513794,9.08818435668945,-1.52439999580383,-1.82165801525116,0.106707997620106,-1267.5,11.7000007629395,-950.100036621094,-2.39327049298942,0.0683464339837896,0.174063658910486,ST
9.73333333333333,0.425279647111893,-1.72025918960571,9.17969989776611,-1.74543797969818,-0.914639949798584,0.731711983680725,-1265.10009765625,11.1000003814697,-942.900024414062,-2.39732899592588,0.0480121617652115,0.187594992183524,ST
9.76666666666667,0.905588448047638,-1.3039516210556,9.98061370849609,-0.259148001670837,-0.907018005847931,1.95885396003723,-1267.5,15.3000001907349,-952.500061035156,-2.40195405980784,0.0882239837382923,0.13412702004397,ST
9.8,1.81237316131592,-1.09340536594391,8.53430366516113,0.518296003341675,-1.54726600646973,1.92074394226074,-1272.30004882812,12.3000001907349,-942.900024414062,-2.41049831841328,0.204491982160505,0.127536046035423,ST
9.83333333333333,1.46664655208588,-0.953439891338348,9.12526893615723,0.152439996600151,-1.12043392658234,0.480185985565186,-1272.30004882812,16.5,-942.900024414062,-2.40896400858397,0.163043925478696,0.105432557302664,ST
9.86666666666667,1.17475283145905,-1.29617583751678,9.6641960144043,-0.609759986400604,-1.06708002090454,0.403965979814529,-1272.30004882812,14.1000003814697,-942.900024414062,-2.41465792933586,0.124171806494771,0.13276030160597,ST
9.9,1.27105379104614,-1.89970207214355,10.3765840530396,-1.60824191570282,-0.640248000621796,0.0609759986400604,-1267.5,9.90000057220459,-950.100036621094,-2.42047291823755,0.121157109453088,0.181406324387577,ST
9.93333333333333,1.53064787387848,-1.86800050735474,10.0344467163086,-1.36433792114258,-1.11281192302704,-0.0457319989800453,-1274.70007324219,17.1000003814697,-945.300048828125,-2.42098661308073,0.149325442287551,0.186226657073841,ST
9.96666666666667,1.27105379104614,-1.68496870994568,9.00922966003418,-0.807931959629059,-0.533540010452271,-0.533540010452271,-1269.90002441406,14.7000007629395,-942.900024414062,-2.41868907182336,0.13939926298912,0.1861967593487,ST
10.0,1.06529259681702,-1.78246605396271,9.19345760345459,-0.282013982534409,0.564027965068817,-0.3125019967556,-1267.5,14.7000007629395,-942.900024414062,-2.41747389059131,0.113730306071893,0.191635987748859,ST
10.0333333333333,1.08323693275452,-1.82493424415588,9.32445049285889,0.152439996600151,0.525918006896973,-0.762199997901917,-1272.30004882812,14.1000003814697,-940.500061035156,-2.41427099994324,0.112924193232275,0.192764812072099,ST
10.0666666666667,0.902597725391388,-1.51031100749969,9.32026386260986,0.663114011287689,0.152439996600151,-0.960371971130371,-1272.30004882812,17.1000003814697,-945.300048828125,-2.40736332049511,0.0963910965902378,0.161346285700978,ST
10.1,0.637022256851196,-1.50313329696655,10.1983375549316,0.297257989645004,-0.0990860015153885,-1.16616594791412,-1272.30004882812,15.9000005722046,-945.300048828125,-2.40169956491961,0.0642633782072282,0.146626876369951,ST
10.1333333333333,0.582591235637665,-1.41101932525635,10.3658180236816,-0.160062000155449,-0.586893975734711,-0.87652999162674,-1274.70007324219,20.7000007629395,-952.500061035156,-2.3977606944544,0.057260922834671,0.136096760805627,ST
10.1666666666667,1.05273163318634,-1.29976463317871,9.39084434509277,-0.617381989955902,-0.716467976570129,-0.144817993044853,-1265.10009765625,15.9000005722046,-935.700012207031,-2.39755043168543,0.108553701630122,0.138453828952244,ST
10.2,0.943271458148956,-1.39486944675446,9.15338230133057,-0.99848198890686,0.0914639979600906,-0.0609759986400604,-1274.70007324219,16.5,-954.900024414062,-2.39826598306678,0.101818472054126,0.152075894133778,ST
10.2333333333333,1.16637873649597,-2.15451097488403,9.49312686920166,-1.64635193347931,0.571649968624115,0.266770005226135,-1262.70007324219,12.9000005722046,-945.300048828125,-2.40588846960893,0.117543065538815,0.223150887198476,ST
10.2666666666667,1.03538548946381,-2.01095676422119,9.98061370849609,-1.13567793369293,-0.259148001670837,-0.655492007732391,-1267.5,12.9000005722046,-950.100036621094,-2.40071914475644,0.102967040384089,0.202054929915687,ST
10.3,1.31292378902435,-2.26875638961792,9.2999267578125,-0.221037998795509,-0.0838419944047928,-0.899396002292633,-1265.10009765625,9.90000057220459,-952.500061035156,-2.40118634595213,0.135151949777619,0.237628782733618,ST
10.3333333333333,1.16996765136719,-1.88415038585663,9.54337120056152,0.46494197845459,0.434453994035721,-1.88263392448425,-1272.30004882812,14.1000003814697,-938.100036621094,-2.38791624536804,0.120381524419077,0.19584452092252,ST
10.3666666666667,0.894223749637604,-1.59943425655365,9.36452674865723,0.830797970294952,0.403965979814529,-2.04269599914551,-1265.10009765625,20.7000007629395,-945.300048828125,-2.37651732770539,0.0950741272502384,0.168747209325822,ST
10.4,0.948654770851135,-1.75315701961517,9.23114013671875,0.388722002506256,0.289635986089706,-1.2347639799118,-1274.70007324219,13.5000009536743,-947.700012207031,-2.37296206840839,0.100251608787583,0.185898787835308,ST
10.4333333333333,1.23755776882172,-1.8626172542572,10.0105209350586,-0.289635986089706,-0.175305992364883,-1.31098401546478,-1265.10009765625,11.1000003814697,-959.700012207031,-2.36730491480245,0.120617896992884,0.184292010301272,ST
10.4666666666667,1.73700714111328,-2.08213567733765,9.21977615356445,-0.236281991004944,-0.472563982009888,-1.04421401023865,-1274.70007324219,10.5,-942.900024414062,-2.36871841222279,0.179542621775833,0.220154923959422,ST
10.5,1.6664263010025,-2.03787302970886,8.45056343078613,-0.121951997280121,0.358233988285065,-1.2500079870224,-1274.70007324219,12.9000005722046,-940.500061035156,-2.36599491945483,0.188823241471694,0.235618394985614,ST
10.5333333333333,0.869699895381927,-2.19458651542664,9.28736591339111,-0.0838419944047928,1.2500079870224,-1.45580196380615,-1265.10009765625,12.3000001907349,-942.900024414062,-2.35862945575901,0.0953832754870656,0.232092371463555,ST
10.5666666666667,0.377428203821182,-2.2011661529541,10.182785987854,0.396344006061554,1.00610399246216,-0.617381989955902,-1265.10009765625,9.90000057220459,-942.900024414062,-2.35415985018639,0.0384070250712349,0.213340019166106,ST
10.6,1.00787091255188,-1.85543954372406,9.4434814453125,1.07470202445984,-0.289635986089706,0.602137982845306,-1257.90002441406,15.9000005722046,-950.100036621094,-2.35572157262705,0.100621351447296,0.193523414128007,ST
10.6333333333333,1.09460163116455,-1.8386914730072,9.68931770324707,0.914639949798584,-0.411587983369827,0.762199997901917,-1267.5,15.3000001907349,-940.500061035156,-2.35869089594844,0.110365637288459,0.186546458169995,ST
10.6666666666667,1.43853390216827,-1.51270353794098,9.08160495758057,0.983237981796265,-0.320124000310898,1.02897000312805,-1253.10009765625,15.3000001907349,-952.500061035156,-2.36080265936658,0.152798169969838,0.164870641557645,ST
10.7,1.36735486984253,-1.71547400951385,8.97633171081543,0.655492007732391,0.205793991684914,-0.221037998795509,-1272.30004882812,13.5000009536743,-954.900024414062,-2.36338889465782,0.148419274346386,0.186727145626759,ST
10.7333333333333,0.122021168470383,-1.80579364299774,9.68692588806152,0.914639949798584,1.05945801734924,-0.0609759986400604,-1265.10009765625,11.7000007629395,-959.700012207031,-2.36229000470277,0.0189667354879273,0.18294730726254,ST
10.7666666666667,-0.0586180128157139,-1.90987050533295,10.5470552444458,1.21189796924591,0.205793991684914,1.17378795146942,-1260.30004882812,11.1000003814697,-962.100036621094,-2.3670493769161,-0.0049515588715994,0.177312929763367,ST
10.8,0.557469248771667,-1.78844749927521,10.0434188842773,1.40244793891907,-1.79879200458527,1.98934197425842,-1269.90002441406,11.7000007629395,-947.700012207031,-2.37688065329301,0.0540369636503225,0.174124084654102,ST
10.8333333333333,1.41281366348267,-1.46664655208588,8.86866569519043,1.46342396736145,-3.15550804138184,2.46190595626831,-1269.90002441406,11.7000007629395,-947.700012207031,-2.38821336309368,0.154151670728889,0.162794203008796,ST
10.8666666666667,1.59106028079987,-1.30574607849121,9.02238845825195,1.33385002613068,-1.82165801525116,2.14178204536438,-1267.5,11.7000007629395,-952.500061035156,-2.39543612567538,0.174100171502878,0.143371548928466,ST
10.9,1.65805232524872,-1.40683221817017,9.2520751953125,1.02134799957275,-0.975615978240967,1.48628997802734,-1267.5,12.3000001907349,-938.100036621094,-2.4035819762319,0.176499090939949,0.149240019392497,ST
10.9333333333333,0.864316582679749,-1.21123957633972,9.61754035949707,0.564027965068817,-0.0990860015153885,0.594515979290009,-1262.70007324219,14.1000003814697,-947.700012207031,-2.40312055937761,0.094281319014939,0.125905969814454,ST
10.9666666666667,0.806894838809967,-1.25071692466736,9.44288349151611,0.419209986925125,-0.510673999786377,1.02134799957275,-1262.70007324219,11.7000007629395,-959.700012207031,-2.408041174397,0.0857143336404231,0.130801623200272,ST
11.0,0.783567309379578,-1.56294763088226,9.64146614074707,0.0685980021953583,-0.548784017562866,1.49391198158264,-1281.90002441406,9.30000019073486,-952.500061035156,-2.41667261401537,0.0809108003390821,0.158992882378607,ST
11.0333333333333,1.07007777690887,-1.4080286026001,9.44049072265625,-0.0838419944047928,-1.04421401023865,1.99696397781372,-1267.5,12.9000005722046,-950.100036621094,-2.42425856332476,0.110980903845664,0.149231633429074,ST
11.0666666666667,0.650779545307159,-1.06589078903198,9.43929386138916,0.266770005226135,-0.487807989120483,1.78354799747467,-1272.30004882812,14.1000003814697,-945.300048828125,-2.42895538607884,0.0709455432088841,0.114034332316464,ST
11.1,0.849961161613464,-1.29198884963989,9.65283107757568,0.25152599811554,0.495429992675781,0.37347799539566,-1267.5,16.5,-945.300048828125,-2.43304972556065,0.0861029821606871,0.132651804759685,ST
11.1333333333333,1.45528185367584,-1.36077523231506,10.0464096069336,-0.198172003030777,-1.53964400291443,-0.960371971130371,-1265.10009765625,9.90000057220459,-952.500061035156,-2.43010192785764,0.14222076073692,0.134684983566951,ST
11.1666666666667,1.46305775642395,-1.19568777084351,8.99666881561279,-1.03659200668335,-2.87349390983582,-1.53964400291443,-1272.30004882812,6.30000019073486,-938.100036621094,-2.42475110793944,0.163769227357212,0.133681088668806,ST
11.2,1.62993955612183,-1.70410931110382,8.83995532989502,-1.50915598869324,-1.65397393703461,0.25152599811554,-1279.5,13.5000009536743,-945.300048828125,-2.43557137990124,0.180994299232603,0.190316198633283,ST
11.2333333333333,1.50074076652527,-2.25380277633667,9.15637302398682,-1.98934197425842,-0.0381099991500378,1.05945801734924,-1265.10009765625,11.7000007629395,-938.100036621094,-2.44709023780194,0.158906134068285,0.241803404899717,ST
11.2666666666667,1.10297560691833,-2.27533578872681,9.70187854766846,-1.41006994247437,0.739333987236023,1.6615959405899,-1279.5,13.5000009536743,-935.700012207031,-2.45102144220318,0.111375499190612,0.2336483085008,ST
11.3,1.11912548542023,-1.9086742401123,9.42733097076416,-0.335367977619171,1.06708002090454,1.77592599391937,-1272.30004882812,12.9000005722046,-950.100036621094,-2.45375633152232,0.113276617099417,0.202268506244227,ST
11.3333333333333,1.58926582336426,-2.07196736335754,9.0014533996582,0.0762199983000755,0.548784017562866,0.78506600856781,-1274.70007324219,14.1000003814697,-945.300048828125,-2.45952634987137,0.165767021836488,0.224818386207159,ST
11.3666666666667,1.31112945079803,-1.86441159248352,9.37529277801514,0.0990860015153885,0.403965979814529,0.0838419944047928,-1277.10009765625,17.1000003814697,-947.700012207031,-2.45550909968566,0.137425507844999,0.197862800016161,ST
11.4,0.843381583690643,-1.65027642250061,9.49551963806152,0.236281991004944,0.823175966739655,0.510673999786377,-1269.90002441406,20.1000003814697,-942.900024414062,-2.45425075496798,0.0888510383093757,0.173303903978176,ST
11.4333333333333,1.05213344097137,-2.19339036941528,10.6194305419922,-0.0533539988100529,1.30336201190948,0.78506600856781,-1277.10009765625,12.3000001907349,-954.900024414062,-2.45918079172764,0.0939910406174771,0.202511245728123,ST
11.4666666666667,1.48160016536713,-2.00138640403748,10.0081281661987,-0.0381099991500378,0.25152599811554,0.236281991004944,-1284.30004882812,20.7000007629395,-945.300048828125,-2.45933482001794,0.140637288248512,0.197791204924278,ST
11.5,1.31292378902435,-1.94037580490112,8.84892749786377,-0.0152439996600151,0.0533539988100529,-0.129574000835419,-1260.30004882812,15.3000001907349,-933.300048828125,-2.4611803087799,0.143687029880424,0.214758097689398,ST
11.5333333333333,0.74050098657608,-2.11204290390015,9.09476375579834,0.0304879993200302,1.45580196380615,0.182927995920181,-1269.90002441406,14.7000007629395,-954.900024414062,-2.46201043735892,0.0802622192224761,0.2273862751299,ST
11.5666666666667,0.277538329362869,-2.13417410850525,9.79459095001221,0.37347799539566,0.792688012123108,0.0,-1262.70007324219,14.1000003814697,-947.700012207031,-2.46062560631383,0.0287013328373737,0.214473326499124,ST
11.6,0.300267785787582,-1.70410931110382,9.20781326293945,0.78506600856781,0.114329993724823,1.19665396213531,-1262.70007324219,21.3000011444092,-957.300048828125,-2.4644390221335,0.0313003384798446,0.183681129883521,ST
11.6333333333333,0.765622973442078,-1.66523003578186,9.44886493682861,0.617381989955902,-0.495429992675781,1.6768399477005,-1253.10009765625,19.5,-952.500061035156,-2.47128215537429,0.0773134734788633,0.17413479994917,ST
11.6666666666667,1.19269704818726,-1.84766364097595,8.3279447555542,0.137196004390717,-0.769822001457214,2.03507399559021,-1269.90002441406,13.5000009536743,-947.700012207031,-2.48498517763332,0.136440981947105,0.216373827581019,ST
11.7,0.580796837806702,-2.31062626838684,9.03315544128418,-0.449698001146317,0.884151995182037,0.92988395690918,-1265.10009765625,18.3000011444092,-950.100036621094,-2.4911902399081,0.0636800668113517,0.249775343546185,ST
11.7333333333333,0.0047851437702775,-2.49724698066711,10.1714210510254,-0.106707997620106,0.983237981796265,0.381099998950958,-1262.70007324219,13.5000009536743,-940.500061035156,-2.49143292534814,0.0025773477386889,0.241484111072166,ST
11.7666666666667,-0.0418700091540813,-2.62883830070496,10.0135116577148,0.503051996231079,0.647870004177094,0.510673999786377,-1260.30004882812,14.1000003814697,-947.700012207031,-2.49276193451371,-0.004880410194989,0.254984387543144,ST
11.8,0.430662930011749,-2.20654940605164,9.92977142333984,1.27287399768829,-0.769822001457214,-0.0838419944047928,-1253.10009765625,16.5,-952.500061035156,-2.49262186036701,0.0407178323243111,0.218788222830777,ST
11.8333333333333,0.889438569545746,-2.02232146263123,9.31727313995361,1.84452390670776,-2.01220798492432,0.221037998795509,-1255.5,12.3000001907349,-952.500061035156,-2.49524183929271,0.092998645266523,0.211109774292496,ST
11.8666666666667,1.05332982540131,-1.73102581501007,9.25446796417236,1.75305998325348,-1.99696397781372,-0.213415995240211,-1267.5,12.9000005722046,-959.700012207031,-2.49388410960477,0.113715756645777,0.183479171774767,ST
11.9,1.08921837806702,-1.64190244674683,9.34119892120361,1.76068198680878,-1.30336201190948,0.541162014007568,-1255.5,14.1000003814697,-950.100036621094,-2.49641194413274,0.116255818895331,0.171825822618293,ST
11.9333333333333,0.935495615005493,-1.36974740028381,10.0739240646362,1.65397393703461,-0.304879993200302,0.868907988071442,-1274.70007324219,17.7000007629395,-957.300048828125,-2.49716404179238,0.0931408252679647,0.13413757016736,ST
11.9666666666667,1.23935222625732,-1.19269704818726,10.130747795105,1.72257196903229,-0.884151995182037,1.39482593536377,-1272.30004882812,12.9000005722046,-933.300048828125,-2.50194194405794,0.120389964601873,0.115680972195145,ST
12.0,0.893027484416962,-1.21243584156036,8.42544174194336,1.265251994133,0.205793991684914,1.2500079870224,-1279.5,15.3000001907349,-940.500061035156,-2.5107386599796,0.104529498428097,0.139944877425091,ST
12.0333333333333,0.759043455123901,-1.75973665714264,9.5326042175293,0.190549999475479,1.21951997280121,0.0762199983000755,-1279.5,14.7000007629395,-950.100036621094,-2.51391736187392,0.0777599970703462,0.179638806834748,ST
12.0666666666667,0.99889874458313,-1.35778450965881,9.76348781585693,0.724089980125427,-0.807931959629059,-0.205793991684914,-1269.90002441406,11.7000007629395,-947.700012207031,-2.51018605627369,0.101469163288379,0.138589325258324,ST
12.1,0.821848452091217,-1.38350474834442,9.4434814453125,1.13567793369293,-0.937505960464478,0.0533539988100529,-1257.90002441406,12.9000005722046,-945.300048828125,-2.51186848542708,0.0881887009525166,0.143275762065696,ST
12.1333333333333,1.24473547935486,-1.33026993274689,9.90704250335693,1.27287399768829,-0.457319974899292,0.259148001670837,-1265.10009765625,13.5000009536743,-942.900024414062,-2.51267563680623,0.123015156669204,0.131848473298661,ST
12.1666666666667,1.69752979278564,-0.598741114139557,9.26643085479736,1.90549993515015,-0.701223969459534,-0.160062000155449,-1265.10009765625,14.1000003814697,-947.700012207031,-2.50347541068394,0.178852616939572,0.0650566688229153,ST
12.2,1.04316139221191,-0.602928102016449,9.96685600280762,1.54726600646973,0.167683988809586,-0.746955990791321,-1272.30004882812,6.30000019073486,-945.300048828125,-2.50013263203208,0.107557270329704,0.0579312428503922,ST
12.2333333333333,0.601731836795807,-0.416905641555786,9.81313323974609,1.45580196380615,0.297257989645004,-0.0609759986400604,-1269.90002441406,14.7000007629395,-935.700012207031,-2.49884411064104,0.0629730271741298,0.0407911350596903,ST
12.2666666666667,1.38828980922699,-0.298473328351974,8.63180160522461,1.08994603157043,-0.525918006896973,0.144817993044853,-1262.70007324219,7.50000047683716,-947.700012207031,-2.49930210024986,0.15599726024954,0.0330599976283846,ST
12.3,0.922934591770172,-0.919943869113922,8.5546407699585,-0.304879993200302,-0.167683988809586,0.129574000835419,-1279.5,5.70000028610229,-950.100036621094,-2.50902374480117,0.110121586344842,0.103186824647232,ST
12.3333333333333,0.381615221500397,-1.39965450763702,9.72281360626221,-1.12805593013763,0.426831990480423,0.480185985565186,-1265.10009765625,6.90000009536743,-950.100036621094,-2.51340706444866,0.0423621910569666,0.142459201212865,ST
12.3666666666667,0.438438802957535,-1.70052051544189,10.3030128479004,-1.08232402801514,-0.335367977619171,0.777444005012512,-1272.30004882812,9.90000057220459,-945.300048828125,-2.51744345364084,0.0423257250801214,0.16412732236688,ST
12.4,0.534739792346954,-1.9308055639267,10.0553817749023,-0.914639949798584,-0.937505960464478,0.487807989120483,-1279.5,11.7000007629395,-950.100036621094,-2.52109086575602,0.0529447479733749,0.189711110087841,ST
12.4333333333333,0.886447906494141,-1.55337727069855,9.60378360748291,-0.487807989120483,-1.63110792636871,1.14329993724823,-1277.10009765625,10.5,-945.300048828125,-2.52468542682107,0.0908956438715483,0.163138300755737,ST
12.4666666666667,1.1556122303009,-1.10536825656891,8.99307918548584,0.129574000835419,-1.36433792114258,2.17227005958557,-1265.10009765625,11.7000007629395,-942.900024414062,-2.52998667078372,0.126433209812169,0.125037896445095,ST
12.5,1.40563595294952,-1.04435765743256,9.28258037567139,0.304879993200302,-0.358233988285065,2.24086785316467,-1267.5,11.7000007629395,-945.300048828125,-2.53754410802686,0.148130122430216,0.112868444415354,ST
12.5333333333333,1.27524077892303,-0.901999592781067,8.78492546081543,0.67835795879364,-0.213415995240211,2.0731840133667,-1267.5,6.30000019073486,-947.700012207031,-2.54497593313006,0.143664911056992,0.102273431516043,ST
12.5666666666667,1.24712812900543,-1.00488018989563,9.80117034912109,0.396344006061554,-0.144817993044853,0.647870004177094,-1274.70007324219,14.1000003814697,-942.900024414062,-2.54774022433726,0.127114299952688,0.101667515213474,ST
12.6,1.13348090648651,-0.989926636219025,10.1486921310425,0.708845973014832,-1.08994603157043,0.411587983369827,-1267.5,10.5,-947.700012207031,-2.54951876694213,0.113413043199193,0.096439321138618,ST
12.6333333333333,1.18611752986908,-0.672910869121552,9.31787109375,0.99848198890686,-0.685979962348938,0.640248000621796,-1281.90002441406,11.7000007629395,-933.300048828125,-2.5499459445082,0.126636641059929,0.0719171642743573,ST
12.6666666666667,1.07247030735016,-0.580796837806702,9.7060661315918,0.647870004177094,1.06708002090454,0.724089980125427,-1272.30004882812,9.30000019073486,-957.300048828125,-2.55165632130555,0.108741196841708,0.0593426443935069,ST
12.7,1.1155366897583,-0.497056812047958,9.27181434631348,0.0685980021953583,1.46342396736145,0.800309956073761,-1267.5,3.90000009536743,-947.700012207031,-2.55395297969293,0.11644529663563,0.0539334088726484,ST
12.7333333333333,0.829026162624359,-0.641807436943054,10.5189418792725,-0.495429992675781,2.30184388160706,0.632625997066498,-1267.5,9.90000057220459,-945.300048828125,-2.55648443251554,0.0769758096260759,0.0613955554521306,ST
12.7666666666667,1.51509618759155,-0.888242304325104,10.9950637817383,-1.02897000312805,0.579271972179413,-0.297257989645004,-1265.10009765625,12.9000005722046,-947.700012207031,-2.55671367818938,0.131978845639729,0.0810574247860391,ST
12.8,2.47391939163208,-1.16099548339844,9.19166278839111,-1.44055795669556,-0.769822001457214,-0.175305992364883,-1260.30004882812,12.3000001907349,-947.700012207031,-2.56366206457918,0.255187106539271,0.125492783069457,ST
12.8333333333333,1.91525375843048,-1.11015331745148,8.37878704071045,-1.74543797969818,0.320124000310898,-0.952749967575073,-1267.5,18.3000011444092,-952.500061035156,-2.55998029379228,0.224288855239478,0.133889245675405,ST
12.8666666666667,0.394774347543716,-1.60661196708679,9.0672492980957,-1.91312193870544,3.54422998428345,0.190549999475479,-1265.10009765625,12.3000001907349,-950.100036621094,-2.56327019387991,0.0469966369962034,0.176263980815156,ST
12.9,0.413316786289215,-1.89910387992859,9.52363204956055,-2.16464805603027,3.03355598449707,0.853663980960846,-1257.90002441406,12.3000001907349,-954.900024414062,-2.56496489037629,0.0375957005290036,0.199293884159699,ST
12.9333333333333,0.587376415729523,-1.97506809234619,8.9715461730957,-2.14178204536438,0.731711983680725,0.899396002292633,-1250.70007324219,10.5,-947.700012207031,-2.5684143632038,0.0607734169606798,0.219215506035229,ST
12.9666666666667,0.289501190185547,-2.11144471168518,8.78672027587891,-1.90549993515015,1.29574000835419,0.792688012123108,-1250.70007324219,20.7000007629395,-959.700012207031,-2.57086741352454,0.0314008121400299,0.237975230124563,ST
13.0,-0.101684302091599,-2.48707842826843,9.81791877746582,-1.73019397258759,2.40092992782593,0.0838419944047928,-1260.30004882812,14.1000003814697,-962.100036621094,-2.56893333880344,-0.0113752050709339,0.250331071855958,ST
13.0333333333333,-1.07426476478577,-2.69523215293884,11.3276319503784,-0.83841997385025,2.33995389938354,-0.0228659994900227,-1250.70007324219,20.7000007629395,-969.300048828125,-2.56742456493751,-0.091808721387309,0.235895113452152,ST
13.0666666666667,-0.260790348052979,-2.66652131080627,10.4681005477905,-0.221037998795509,1.15854394435883,0.579271972179413,-1231.5,22.5,-954.900024414062,-2.56790446785871,-0.0292268353386687,0.249187653649943,ST
13.1,-0.0305052921175957,-2.34591674804688,8.76219654083252,0.0533539988100529,0.533540010452271,-0.564027965068817,-1233.90002441406,16.5,-952.500061035156,-2.564953602055,-0.0055396658739539,0.260768784014833,ST
13.1333333333333,-0.601731836795807,-1.99420869350433,8.28547668457031,0.144817993044853,1.50915598869324,-0.152439996600151,-1238.70007324219,14.7000007629395,-945.300048828125,-2.56366238403103,-0.0693055905807885,0.237357496987626,ST
13.1666666666667,-0.702219843864441,-2.18441820144653,9.08160495758057,0.0990860015153885,1.79117000102997,0.396344006061554,-1224.30004882812,18.9000015258789,-952.500061035156,-2.56359220018675,-0.0777518753010183,0.235960432451679,ST
13.2,-0.546702682971954,-2.22628808021545,9.58344650268555,0.396344006061554,0.6250039935112,0.87652999162674,-1229.10009765625,15.9000005722046,-957.300048828125,-2.56723217744794,-0.057739851919645,0.227824080540536,ST
13.2333333333333,-0.234472051262856,-2.01634001731873,10.1080179214478,1.30336201190948,-1.40244793891907,1.2500079870224,-1231.5,20.7000007629395,-957.300048828125,-2.57495247190632,-0.0224054064104468,0.196012838142791,ST
13.2666666666667,0.379222631454468,-2.12280941009521,10.0224838256836,1.72257196903229,-2.41617393493652,1.17378795146942,-1233.90002441406,21.3000011444092,-957.300048828125,-2.58234115059726,0.0379353055031448,0.205370529824825,ST
13.3,0.803904175758362,-2.12221121788025,9.56909084320068,1.73019397258759,-1.29574000835419,0.731711983680725,-1248.30004882812,8.70000076293945,-962.100036621094,-2.58760849603209,0.0815265499437388,0.21486515891714,ST
13.3333333333333,0.398961365222931,-2.14075374603271,10.1241683959961,1.6920839548111,-0.182927995920181,-0.495429992675781,-1231.5,11.1000003814697,-959.700012207031,-2.58559808363899,0.0413448324753011,0.205908848070741,ST
13.3666666666667,0.683079302310944,-1.7866530418396,9.6941032409668,2.34757590293884,-0.777444005012512,-0.945127964019775,-1241.10009765625,18.9000015258789,-966.900024414062,-2.58156530003807,0.0690374911433179,0.179761212755198,ST
13.4,0.883457183837891,-1.58567702770233,7.8356728553772,2.9268479347229,0.114329993724823,0.434453994035721,-1233.90002441406,19.5,-969.300048828125,-2.58551966051732,0.107257548723539,0.193724597300896,ST
13.4333333333333,0.0861325860023499,-1.09220910072327,8.08749103546143,2.83538389205933,2.01220798492432,-0.411587983369827,-1236.30004882812,15.9000005722046,-966.900024414062,-2.5795214318059,0.0132579758353783,0.133159857347248,ST
13.4666666666667,-1.01026344299316,-1.1998747587204,9.37648963928223,2.27897787094116,3.16313004493713,0.236281991004944,-1226.70007324219,11.7000007629395,-969.300048828125,-2.57871041350202,-0.104388753920392,0.123929674798076,ST
13.5,-1.29557764530182,-0.966000914573669,9.63249397277832,2.0579400062561,2.080806016922,0.67835795879364,-1231.5,15.3000001907349,-969.300048828125,-2.58259405273827,-0.134811118770112,0.0979360408919513,ST
13.5333333333333,-1.43733751773834,-0.845176041126251,9.75870227813721,1.97409796714783,1.49391198158264,1.12043392658234,-1236.30004882812,13.5000009536743,-971.700012207031,-2.58749778682037,-0.147719552648723,0.0835257464117339,ST
13.5666666666667,-0.115441590547562,-1.05093717575073,10.5147552490234,1.47104597091675,-0.495429992675781,2.46190595626831,-1226.70007324219,14.1000003814697,-964.500061035156,-2.59610561945317,-0.0188124447365144,0.096085666566912,ST
13.6,0.193200185894966,-0.37025049328804,9.55234336853027,0.907018005847931,-1.98171997070312,1.17378795146942,-1236.30004882812,14.7000007629395,-971.700012207031,-2.60128016515613,0.020990923036575,0.0407633724788688,ST
13.6333333333333,-0.0065795728005468,-0.2105463296175,9.51645469665527,0.846041977405548,-1.02897000312805,1.47104597091675,-1231.5,10.5,-964.500061035156,-2.60713893916156,0.0022495515479944,0.0218773596131199,ST
13.6666666666667,-0.13398402929306,-0.422288924455643,10.2258520126343,0.457319974899292,0.884151995182037,1.36433792114258,-1241.10009765625,12.3000001907349,-952.500061035156,-2.61288503855554,-0.0139742958253188,0.0396302868846137,ST
13.7,0.527562081813812,-0.488682806491852,9.13842868804932,-0.0762199983000755,-0.221037998795509,1.05183601379395,-1229.10009765625,6.30000019073486,-966.900024414062,-2.61741381422339,0.0535173640826822,0.0527855798578488,ST
13.7333333333333,0.797922730445862,-0.246434897184372,8.37818813323975,-0.78506600856781,-1.2576299905777,-0.266770005226135,-1238.70007324219,14.7000007629395,-969.300048828125,-2.61476076518968,0.0944800394636351,0.0320830210473462,ST
13.7666666666667,0.945664048194885,-0.509617805480957,7.76987743377686,-0.739333987236023,-0.548784017562866,0.236281991004944,-1236.30004882812,14.7000007629395,-969.300048828125,-2.61908278921865,0.120451163209812,0.0651315898332874,ST
13.8,0.757847130298615,-0.878672003746033,8.716139793396,-0.541162014007568,0.670735955238342,-0.0457319989800453,-1231.5,12.3000001907349,-966.900024414062,-2.62198371149685,0.0872821125012424,0.099205548106447,ST
13.8333333333333,-1.0335910320282,-0.987534046173096,10.8951740264893,0.3125019967556,2.09605002403259,-0.754577994346619,-1214.70007324219,12.3000001907349,-964.500061035156,-2.61813227117449,-0.0864521828248439,0.0905268581464686,ST
13.8666666666667,-1.72205364704132,-1.23875403404236,12.4407758712769,1.28811800479889,2.99544596672058,0.152439996600151,-1219.5,3.30000019073486,-959.700012207031,-2.61626178762958,-0.139070329312817,0.0966719834822872,ST
13.9,-1.04854464530945,-0.804502308368683,11.3503608703613,1.18903195858002,0.297257989645004,-0.144817993044853,-1205.10009765625,6.30000019073486,-964.500061035156,-2.61812680403924,-0.0952186299129715,0.0704048146737169,ST
13.9333333333333,-0.598741114139557,-0.133385881781578,9.24968338012695,0.83841997385025,-1.21951997280121,-0.746955990791321,-1217.10009765625,11.7000007629395,-981.300048828125,-2.61912345036321,-0.0639213942366783,0.0155615861399468,ST
13.9666666666667,-0.656162858009338,0.0520384386181831,7.67297792434692,-0.388722002506256,0.358233988285065,-0.792688012123108,-1224.30004882812,11.1000003814697,-966.900024414062,-2.61730872465527,-0.0849678477342524,-0.0050402358395338,ST
14.0,-0.515001118183136,-0.761435985565186,8.43262004852295,-1.2576299905777,0.731711983680725,-0.556405961513519,-1217.10009765625,14.7000007629395,-964.500061035156,-2.60829368200239,-0.0630990193570509,0.0875488663284153,ST
14.0333333333333,-1.01983380317688,-1.19927668571472,9.57208156585693,-1.6844619512558,-0.221037998795509,-1.05183601379395,-1212.30004882812,6.30000019073486,-971.700012207031,-2.60141744402396,-0.102681814615553,0.125776083323952,ST
14.0666666666667,-0.849961161613464,-1.66283750534058,10.5476531982422,-1.44817996025085,-0.579271972179413,-0.342989981174469,-1221.90002441406,9.90000057220459,-959.700012207031,-2.59797497150772,-0.0794144990022285,0.157471517604941,ST
14.1,-0.391185492277145,-1.78007352352142,10.6493377685547,-0.548784017562866,-0.967993974685669,0.0304879993200302,-1217.10009765625,8.70000076293945,-962.100036621094,-2.59839373810453,-0.0367566603413889,0.166122680801705,ST
14.1333333333333,-0.395970642566681,-2.02710652351379,11.0201864242554,0.190549999475479,-0.975615978240967,-0.0762199983000755,-1221.90002441406,14.1000003814697,-976.500061035156,-2.59823804975111,-0.0338145890293337,0.180636366610308,ST
14.1666666666667,-0.893027484416962,-2.05103230476379,9.98898792266846,1.76830399036407,-0.426831990480423,1.2423859834671,-1207.5,11.7000007629395,-974.100036621094,-2.60197943858093,-0.0838120959495541,0.198123835163207,ST
14.2,-0.747080564498901,-1.76272737979889,9.59540939331055,3.56709599494934,0.739333987236023,2.97257995605469,-1226.70007324219,11.1000003814697,-974.100036621094,-2.61377510869661,-0.0789412214715099,0.176462703604566,ST
14.2333333333333,-0.239855334162712,-1.58687329292297,8.393141746521,4.35978412628174,0.983237981796265,3.46038794517517,-1217.10009765625,7.50000047683716,-969.300048828125,-2.62614076901387,-0.0334621609871069,0.178889535972385,ST
14.2666666666667,-0.686069965362549,-0.897214472293854,9.3956298828125,3.56709599494934,0.609759986400604,1.77592599391937,-1207.5,8.70000076293945,-966.900024414062,-2.63653788090359,-0.0715090084936599,0.0942646610743127,ST
14.3,-0.553282260894775,-0.536534249782562,9.341796875,2.44666194915771,-1.28811800479889,1.2423859834671,-1202.70007324219,10.5,-957.300048828125,-2.6437729891082,-0.0578351303605679,0.0554652513060009,ST
14.3333333333333,-0.409129798412323,-0.386400371789932,9.05588436126709,0.952749967575073,-2.59910202026367,1.44055795669556,-1217.10009765625,10.5,-969.300048828125,-2.65093161690714,-0.0415255907122986,0.041576584394519,ST
14.3666666666667,-0.692051410675049,-0.25839775800705,9.33521747589111,-0.0533539988100529,-1.98171997070312,1.33385002613068,-1207.5,7.50000047683716,-966.900024414062,-2.65747431730995,-0.0689978964581437,0.0283732950758012,ST
14.4,-0.53533798456192,-0.571824669837952,9.28018856048584,-0.586893975734711,-1.17378795146942,1.99696397781372,-1226.70007324219,7.50000047683716,-971.700012207031,-2.6638728117627,-0.0564701144338487,0.0602938845238347,ST
14.4333333333333,-0.45638307929039,-0.958823204040527,9.67376613616943,-0.807931959629059,-1.15092194080353,1.11281192302704,-1224.30004882812,5.70000028610229,-964.500061035156,-2.66697729880209,-0.045782119012287,0.0976893457558686,ST
14.4666666666667,0.0430662930011749,-1.05332982540131,9.991379737854,-0.945127964019775,-1.80641400814056,0.983237981796265,-1236.30004882812,9.90000057220459,-969.300048828125,-2.67154721585187,0.0040272348326436,0.106133697486008,ST
14.5,0.24882747232914,-0.534141659736633,9.14441013336182,-0.67835795879364,-2.5076379776001,0.632625997066498,-1214.70007324219,3.30000019073486,-957.300048828125,-2.67408703280994,0.0297868857688168,0.0623901482520223,ST
14.5333333333333,-0.180041030049324,-0.717173397541046,9.47996807098389,-0.25152599811554,-1.08232402801514,1.12805593013763,-1241.10009765625,12.3000001907349,-957.300048828125,-2.6793202008777,-0.0148902381999324,0.0752660739504218,ST
14.5666666666667,0.20755560696125,-1.24712812900543,10.282675743103,-0.92988395690918,-1.73019397258759,0.914639949798584,-1245.90002441406,8.70000076293945,-966.900024414062,-2.68380455863806,0.0205681844391068,0.119491022991848,ST
14.6,0.0131591456010938,-0.722556710243225,9.98300647735596,-0.670735955238342,-2.5000159740448,0.967993974685669,-1233.90002441406,8.70000076293945,-964.500061035156,-2.68841948136289,0.0061882389685136,0.0754665301276703,ST
14.6333333333333,0.344530344009399,-0.863718450069427,9.07562351226807,-0.304879993200302,-1.6692179441452,1.55488801002502,-1260.30004882812,11.7000007629395,-966.900024414062,-2.69626915937258,0.0389186648249223,0.0946348206552402,ST
14.6666666666667,0.35709136724472,-0.931906759738922,9.24968338012695,-0.541162014007568,-1.10518991947174,0.92988395690918,-1257.90002441406,9.30000019073486,-966.900024414062,-2.70060091462098,0.0400752275290541,0.101016111236204,ST
14.7,0.409129798412323,-0.857138872146606,8.52712631225586,-0.457319974899292,-0.99848198890686,0.937505960464478,-1248.30004882812,16.5,-969.300048828125,-2.70517478647965,0.0489093785728723,0.101064919900447,ST
14.7333333333333,-0.43425178527832,-0.931906759738922,9.91900444030762,0.160062000155449,0.396344006061554,0.853663980960846,-1260.30004882812,10.5,-964.500061035156,-2.70870642978066,-0.040279239514945,0.0937023924541855,ST
14.7666666666667,-0.199779748916626,-1.47920751571655,11.0608596801758,0.190549999475479,-0.78506600856781,0.297257989645004,-1248.30004882812,6.90000009536743,-959.700012207031,-2.70931155695835,-0.0176492241526422,0.130887799977892,ST
14.8,-0.643601834774017,-0.696836590766907,10.3060035705566,0.434453994035721,-1.47866797447205,-0.3125019967556,-1245.90002441406,12.9000005722046,-959.700012207031,-2.71077257511881,-0.057557485165296,0.0699262353800754,ST
14.8333333333333,-0.259594053030014,-0.528160214424133,10.2611427307129,0.708845973014832,-1.01372599601746,1.03659200668335,-1241.10009765625,8.70000076293945,-964.500061035156,-2.71584570144025,-0.0256511330492575,0.0513297824621991,ST
14.8666666666667,1.17594909667969,-0.687864422798157,8.95838737487793,-0.259148001670837,-2.03507399559021,0.899396002292633,-1241.10009765625,8.10000038146973,-957.300048828125,-2.72112820769323,0.123887256977625,0.075681893819666,ST
14.9,1.1155366897583,-0.37025049328804,7.87873935699463,-0.388722002506256,-1.2500079870224,0.510673999786377,-1255.5,13.5000009536743,-952.500061035156,-2.71986050106683,0.141716263696392,0.0491488914087168,ST
14.9333333333333,0.647190690040588,-0.797324597835541,9.24908447265625,0.121951997280121,0.564027965068817,0.434453994035721,-1257.90002441406,14.1000003814697,-954.900024414062,-2.7251833564647,0.0730067074424659,0.0836294141128276,ST
14.9666666666667,0.250621914863586,-0.643601834774017,9.77485275268555,0.564027965068817,-0.190549999475479,-0.129574000835419,-1250.70007324219,18.3000011444092,-964.500061035156,-2.72387301460237,0.0279973079595549,0.0655858690118606,ST
15.0,0.138171032071114,-0.520982503890991,10.5380830764771,0.693601965904236,-1.19665396213531,0.327746003866196,-1245.90002441406,11.1000003814697,-954.900024414062,-2.72520368752026,0.0158519764301362,0.0491477720645855,ST
15.0333333333333,0.138769164681435,-0.0478514358401299,9.99437046051025,0.670735955238342,-1.16616594791412,0.762199997901917,-1250.70007324219,15.3000001907349,-952.500061035156,-2.72801804648858,0.0159016599185584,0.0056409412670279,ST
15.0666666666667,1.13886415958405,-0.900803327560425,10.2952365875244,-0.983237981796265,-1.35671591758728,1.03659200668335,-1257.90002441406,9.30000019073486,-954.900024414062,-2.73698559112085,0.106166246975498,0.0840649200106522,ST
15.1,0.962412059307098,-0.821250319480896,9.88311672210693,-1.85214591026306,-1.79879200458527,0.510673999786377,-1255.5,15.3000001907349,-952.500061035156,-2.73908987969573,0.100180270390476,0.0861219558123385,ST
15.1333333333333,0.901999592781067,-0.763828575611115,9.81253528594971,-1.56251001358032,-0.342989981174469,0.899396002292633,-1260.30004882812,8.70000076293945,-950.100036621094,-2.74169978976631,0.0923642007249126,0.0809001889503991,ST
15.1666666666667,1.20824885368347,-1.52526462078094,9.71264553070068,-0.663114011287689,0.457319974899292,0.571649968624115,-1245.90002441406,14.7000007629395,-950.100036621094,-2.75101944816598,0.119611287987614,0.152389981359642,ST
15.2,1.24712812900543,-1.45229113101959,9.02298641204834,-0.358233988285065,0.0152439996600151,-0.632625997066498,-1248.30004882812,11.1000003814697,-947.700012207031,-2.74916417429807,0.134889401806151,0.15964613289193,ST
15.2333333333333,0.875083148479462,-1.16219174861908,8.97035026550293,0.167683988809586,0.243903994560242,-1.15854394435883,-1253.10009765625,18.3000011444092,-959.700012207031,-2.74076082288044,0.0981875475307876,0.129863710319814,ST
15.2666666666667,0.292491912841797,-0.897214472293854,9.50568771362305,0.739333987236023,0.579271972179413,-1.01372599601746,-1260.30004882812,13.5000009536743,-957.300048828125,-2.73418630764764,0.0335302711325644,0.0947583019525706,ST
15.3,0.107067592442036,-0.629246413707733,9.71444034576416,0.388722002506256,-0.228659987449646,0.114329993724823,-1257.90002441406,11.1000003814697,-947.700012207031,-2.73408007480705,0.0127250106390876,0.0658726487603297,ST
15.3333333333333,-0.23925718665123,-0.682481110095978,10.3430881500244,-0.304879993200302,-0.137196004390717,1.15854394435883,-1255.5,19.5,-952.500061035156,-2.73892837069654,-0.0210244465263341,0.0663615265831726,ST
15.3666666666667,0.415709376335144,-1.21363210678101,10.9394369125366,-1.15092194080353,-0.777444005012512,1.65397393703461,-1253.10009765625,10.5,-954.900024414062,-2.74610146573447,0.0351756076105879,0.109771086557628,ST
15.4,1.23097825050354,-1.14843451976776,9.10014724731445,-1.2500079870224,-2.15702605247498,1.03659200668335,-1265.10009765625,14.7000007629395,-952.500061035156,-2.75221046400198,0.130744507819438,0.126874360962907,ST
15.4333333333333,0.610105812549591,-1.52705895900726,9.10433387756348,-0.78506600856781,-0.266770005226135,0.342989981174469,-1257.90002441406,17.1000003814697,-935.700012207031,-2.75728293240312,0.0702726073673767,0.165151892924966,ST
15.4666666666667,0.274547636508942,-1.73820352554321,9.00982761383057,-0.419209986925125,0.137196004390717,0.0990860015153885,-1255.5,8.70000076293945,-952.500061035156,-2.75875681737772,0.0321101510862063,0.189736276214518,ST
15.5,-0.320604622364044,-1.54799401760101,9.22157001495361,-0.0609759986400604,0.152439996600151,-0.0609759986400604,-1248.30004882812,8.70000076293945,-950.100036621094,-2.75839002118476,-0.0304774159091555,0.167845481126829,ST
15.5333333333333,-0.197387173771858,-1.71487593650818,10.1797952651978,-0.0304879993200302,-0.381099998950958,1.07470202445984,-1250.70007324219,9.90000057220459,-959.700012207031,-2.76294180214356,-0.0194838648268931,0.166960408766934,ST
15.5666666666667,0.337352633476257,-1.1777435541153,9.44407939910889,-0.0533539988100529,-2.01220798492432,1.78354799747467,-1250.70007324219,11.1000003814697,-964.500061035156,-2.77136756947565,0.0356596768998945,0.126356638173949,ST
15.6,0.418700069189072,-1.24593186378479,9.2161865234375,-0.0533539988100529,-0.632625997066498,2.76678586006165,-1262.70007324219,21.9000015258789,-954.900024414062,-2.78340229336724,0.0449110641084439,0.13422758613787,ST
15.6333333333333,1.02940404415131,-1.65386533737183,9.66479396820068,-0.594515979290009,-0.434453994035721,2.29422187805176,-1265.10009765625,12.3000001907349,-947.700012207031,-2.79510371023061,0.101074614732152,0.168661087476542,ST
15.6666666666667,1.12809765338898,-1.67898726463318,9.8077507019043,-0.769822001457214,-1.07470202445984,1.62348592281342,-1257.90002441406,18.3000011444092,-954.900024414062,-2.80216763196573,0.113457802759462,0.171081755302298,ST
15.7,1.24533367156982,-1.76332545280457,9.56310939788818,-0.655492007732391,-1.54726600646973,1.53202199935913,-1257.90002441406,17.1000003814697,-957.300048828125,-2.81042767825278,0.128570189696263,0.18310269964239,ST
15.7333333333333,1.64728569984436,-1.86680424213409,9.40041446685791,-0.663114011287689,-1.98934197425842,1.20427596569061,-1248.30004882812,18.3000011444092,-952.500061035156,-2.81826996198518,0.170509284289673,0.196761885249991,ST
15.7666666666667,1.7483719587326,-1.95832014083862,9.56310939788818,-0.663114011287689,-1.53202199935913,0.967993974685669,-1269.90002441406,15.9000005722046,-957.300048828125,-2.82417445465206,0.179067397418867,0.203204925882811,ST
15.8,1.26088535785675,-1.92123520374298,9.95788383483887,-0.175305992364883,-0.358233988285065,0.960371971130371,-1274.70007324219,23.1000003814697,-950.100036621094,-2.82659451007293,0.126688154896951,0.191728304830205,ST
15.8333333333333,1.25131511688232,-1.97865700721741,9.8137321472168,0.243903994560242,0.586893975734711,1.12805593013763,-1262.70007324219,18.9000015258789,-940.500061035156,-2.83176461019943,0.123139133772613,0.198399241684025,ST
15.8666666666667,0.654966533184052,-2.15570735931396,9.84543323516846,0.632625997066498,1.86738991737366,0.518296003341675,-1255.5,19.5,-950.100036621094,-2.83389339927448,0.0652578358071748,0.213500581505449,ST
15.9,0.500645637512207,-2.04146194458008,9.81492805480957,0.495429992675781,1.74543797969818,0.594515979290009,-1248.30004882812,19.5,-966.900024414062,-2.834399788016,0.0478285310310849,0.204789210610605,DLL
15.9333333333333,0.406139075756073,-1.758540391922,9.78621673583984,0.495429992675781,0.548784017562866,1.2423859834671,-1255.5,16.5,-954.900024414062,-2.83784118330642,0.0399939782405346,0.178697863963177,DLL
15.9666666666667,0.671714544296265,-1.91226303577423,9.13065242767334,0.663114011287689,0.564027965068817,1.41769194602966,-1257.90002441406,27.3000011444092,-942.900024414062,-2.84451946043139,0.0685812650694814,0.203809957297097,DLL
16.0,0.308641761541367,-1.70769822597504,9.15457820892334,0.769822001457214,1.10518991947174,0.746955990791321,-1243.5,18.9000015258789,-964.500061035156,-2.84577789470759,0.0332709918874123,0.184368195090775,DLL
16.0333333333333,0.0903195887804031,-1.42896354198456,9.45963096618652,0.967993974685669,0.846041977405548,1.12043392658234,-1255.5,15.9000005722046,-947.700012207031,-2.84902973965783,0.0092292392458016,0.150447965093835,DLL
16.0666666666667,-0.253014475107193,-1.32488667964935,10.0194931030273,1.16616594791412,0.0457319989800453,1.73019397258759,-1245.90002441406,21.3000011444092,-954.900024414062,-2.85662349004236,-0.0239810472952263,0.130303757284795,DLL
16.1,-0.061608724296093,-1.15860295295715,9.60617637634277,1.15854394435883,-0.647870004177094,1.97409796714783,-1267.5,21.3000011444092,-952.500061035156,-2.86570289189054,-0.0064637560249413,0.118518917152447,DLL
16.1333333333333,-0.296080768108368,-0.951047301292419,9.18747615814209,0.952749967575073,0.106707997620106,1.61586391925812,-1248.30004882812,19.5,-947.700012207031,-2.87234686997919,-0.0309459719274077,0.102448881554109,DLL
16.1666666666667,-0.574815392494202,-1.16398620605469,10.0978498458862,0.78506600856781,-0.0533539988100529,1.74543797969818,-1257.90002441406,18.3000011444092,-942.900024414062,-2.87877582955536,-0.055170980506346,0.112583920524303,DLL
16.2,-0.160302311182022,-1.44451522827148,10.0027446746826,0.297257989645004,-1.34909391403198,1.92836594581604,-1253.10009765625,18.3000011444092,-959.700012207031,-2.88689304877243,-0.0158024041964342,0.141495217858743,DLL
16.2333333333333,0.296678900718689,-1.31232571601868,9.4554443359375,-0.0152439996600151,-2.66770005226135,1.57775402069092,-1250.70007324219,14.7000007629395,-962.100036621094,-2.89536394169728,0.0330509770798758,0.138178820879521,DLL
16.2666666666667,1.06230187416077,-1.09519982337952,8.88062858581543,0.282013982534409,-3.58996200561523,1.71494996547699,-1262.70007324219,11.1000003814697,-945.300048828125,-2.90304109492379,0.118490490297198,0.12356212246297,DLL
16.3,1.63173401355743,-1.20705246925354,8.51576137542725,-0.160062000155449,-4.03965997695923,1.57013201713562,-1265.10009765625,19.5,-947.700012207031,-2.91471293481646,0.190765644051498,0.140954236113806,DLL
16.3333333333333,2.06957459449768,-1.36137342453003,8.536696434021,-1.32622802257538,-4.26069784164429,1.40244793891907,-1274.70007324219,24.9000015258789,-942.900024414062,-2.9256222936243,0.23884465555401,0.160060298494485,DLL
16.3666666666667,1.67180955410004,-1.15082705020905,8.81363677978516,-1.45580196380615,-3.74240183830261,2.05031800270081,-1267.5,23.1000003814697,-950.100036621094,-2.92909066196777,0.194745341921036,0.134884041255309,DLL
16.4,1.95054423809052,-1.3099330663681,9.58583927154541,-1.2576299905777,-2.60672402381897,2.85062789916992,-1267.5,16.5,-935.700012207031,-2.94179868903534,0.202324593403412,0.138905589552659,DLL
16.4333333333333,1.93798327445984,-1.76930689811707,9.98240852355957,-1.13567793369293,-1.50915598869324,2.01982998847961,-1277.10009765625,17.7000007629395,-935.700012207031,-2.95697706169917,0.191584094165026,0.175796165942754,DLL
16.4666666666667,1.16219174861908,-1.8506543636322,10.3825654983521,-1.02897000312805,-0.746955990791321,1.47866797447205,-1267.5,30.3000011444092,-938.100036621094,-2.96346677591186,0.114559912393662,0.178410628561256,DLL
16.5,0.890634894371033,-1.95353496074677,11.0566730499268,-0.724089980125427,-0.503051996231079,2.28659987449646,-1274.70007324219,21.3000011444092,-942.900024414062,-2.97240669384844,0.0814560129753374,0.176615064129917,DLL
16.5333333333333,1.78426051139832,-1.87039303779602,10.0326519012451,-0.87652999162674,-1.50153398513794,3.17837381362915,-1269.90002441406,20.7000007629395,-938.100036621094,-2.98669379448203,0.168985612806661,0.186158303409145,DLL
16.5666666666667,1.44272089004517,-1.65207087993622,9.4907341003418,-0.510673999786377,-0.350611984729767,4.19210004806519,-1284.30004882812,30.9000015258789,-942.900024414062,-3.0012881728909,0.149245971876676,0.175072558383784,DLL
16.6,0.477318078279495,-0.940280735492706,9.18448543548584,0.556405961513519,1.36433792114258,4.94667768478394,-1274.70007324219,22.5,-938.100036621094,-3.01342998154565,0.0544177937530853,0.106070252766985,DLL
16.6333333333333,0.991122901439667,-1.76691436767578,9.05648231506348,0.0914639979600906,0.0609759986400604,7.60675573348999,-1279.5,24.3000011444092,-938.100036621094,-3.05004478214862,0.101567169099382,0.188393930239377,DLL
16.6666666666667,0.706406831741333,-1.43733751773834,8.67127895355225,0.121951997280121,-1.04421401023865,8.04883193969727,-1277.10009765625,32.7000007629395,-938.100036621094,-3.08261235520841,0.0806952589588297,0.166372165663372,DLL
16.7,1.05512416362762,-2.05581736564636,8.37160873413086,0.67835795879364,0.358233988285065,10.5183601379395,-1265.10009765625,29.7000007629395,-930.900024414062,-3.13077271078655,0.11489787701764,0.236975616899297,DLL
16.7333333333333,1.36197149753571,-2.96200394630432,9.61873722076416,0.495429992675781,1.10518991947174,10.1982355117798,-1262.70007324219,27.9000015258789,-942.900024414062,3.10692154751759,0.126875872503369,0.296097921819385,DLL
16.7666666666667,0.0699827298521996,-2.53492999076843,11.3874454498291,1.82165801525116,2.10367202758789,9.47414588928223,-1257.90002441406,32.1000022888184,-935.700012207031,3.07668759703521,0.0063754341598462,0.221113903921086,DLL
16.8,0.854746282100677,-2.87587141990662,10.7019739151001,2.33233189582825,2.16464805603027,9.95433139801025,-1245.90002441406,35.1000022888184,-942.900024414062,3.03816529420635,0.065208807246314,0.256997116029564,DLL
16.8333333333333,1.53842377662659,-3.35139513015747,9.53978252410889,1.98171997070312,2.34757590293884,8.08694171905518,-1250.70007324219,31.5000019073486,-938.100036621094,3.00161701264237,0.137992834925809,0.331057606504133,DLL
16.8666666666667,0.817661464214325,-2.33993530273438,9.1390266418457,2.53050398826599,2.56099200248718,4.71039581298828,-1248.30004882812,31.5000019073486,-947.700012207031,2.99263914725975,0.0825687518427901,0.250548686136572,DLL
16.9,-0.0813474431633949,-1.42058956623077,8.65213775634766,3.64331603050232,2.82776188850403,4.36740589141846,-1241.10009765625,29.1000003814697,-942.900024414062,2.97951482172956,-0.0106554687748641,0.161026724788895,DLL
16.9333333333333,-0.711790144443512,-0.373839348554611,8.65094184875488,3.53660798072815,2.27897787094116,3.04879999160767,-1214.70007324219,33.9000015258789,-959.700012207031,2.96270883826238,-0.0826170782443563,0.0427814967493245,DLL
16.9666666666667,-1.39726197719574,-0.160900458693504,9.79758167266846,2.77440786361694,1.56251001358032,2.79727387428284,-1226.70007324219,38.7000007629395,-957.300048828125,2.94934042031922,-0.141078863717231,0.0126815150010241,DLL
17.0,-1.10058307647705,-0.773398876190186,10.4226408004761,0.106707997620106,-1.05945801734924,2.78965187072754,-1221.90002441406,24.3000011444092,-945.300048828125,2.94379723001889,-0.104878443266981,0.0709537373674902,DLL
17.0333333333333,-0.764426708221436,-0.964804589748383,9.72281360626221,-2.19513607025146,-3.13264203071594,1.73781597614288,-1233.90002441406,24.9000015258789,-945.300048828125,2.93761466102909,-0.0748639552746978,0.100548266013426,DLL
17.0666666666667,-0.138171032071114,-1.46245956420898,8.77236461639404,-3.56709599494934,-3.15550804138184,2.43903994560242,-1224.30004882812,33.9000015258789,-950.100036621094,2.92816689067728,-0.0142675259611211,0.167444699920874,DLL
17.1,-0.472532957792282,-1.45348739624023,8.84234714508057,-2.30184388160706,-1.62348592281342,4.29880809783936,-1224.30004882812,32.7000007629395,-950.100036621094,2.9085058369564,-0.0493282570119779,0.166635772396255,DLL
17.1333333333333,-0.499449372291565,-2.16049242019653,9.0134162902832,-1.6844619512558,-1.18140995502472,5.66314601898193,-1217.10009765625,38.7000007629395,-933.300048828125,2.88758651951198,-0.0537591787526322,0.233786567749732,DLL
17.1666666666667,-0.0538328662514687,-2.35309433937073,8.84294605255127,-1.72257196903229,-1.74543797969818,6.03662395477295,-1221.90002441406,36.9000015258789,-930.900024414062,2.86063436996843,-0.0077397493744947,0.261643534873679,DLL
17.2,-0.419896364212036,-2.14135193824768,9.7180290222168,-1.41006994247437,-1.29574000835419,4.58844375610352,-1231.5,33.3000030517578,-947.700012207031,2.84032505222909,-0.0397247151045274,0.221642634947817,DLL
17.2333333333333,-0.490477234125137,-2.43683457374573,10.0822982788086,-0.0914639979600906,-0.632625997066498,6.14333200454712,-1214.70007324219,35.7000007629395,-945.300048828125,2.81402082097273,-0.0482704001370197,0.236134920650446,DLL
17.2666666666667,-0.768613696098328,-2.34591674804688,10.5655975341797,-0.0304879993200302,-0.92988395690918,5.46497392654419,-1217.10009765625,42.9000015258789,-938.100036621094,2.79072375038479,-0.0700140775197168,0.219005280083673,DLL
17.3,-1.09639608860016,-2.27234506607056,10.270712852478,0.0304879993200302,-0.937505960464478,5.58692598342896,-1219.5,43.5,-950.100036621094,2.76782206911897,-0.102278174168746,0.21686358489857,DLL
17.3333333333333,-0.861325860023499,-2.31900024414062,9.47458457946777,0.533540010452271,-0.564027965068817,5.92991590499878,-1214.70007324219,43.5,-940.500061035156,2.74624829335716,-0.0902857269461731,0.236868888001347,DLL
17.3666666666667,-0.726145565509796,-1.9989937543869,9.305908203125,0.739333987236023,-1.07470202445984,5.82320785522461,-1214.70007324219,38.7000007629395,-935.700012207031,2.72055939303518,-0.077319354361603,0.211134913965189,DLL
17.4,-0.256005197763443,-1.92422592639923,8.61923980712891,0.846041977405548,-1.99696397781372,6.60065174102783,-1217.10009765625,41.1000022888184,-938.100036621094,2.69169289994396,-0.0304617705843404,0.217398868145249,DLL
17.4333333333333,-0.0251220054924488,-1.76511991024017,8.65752124786377,0.853663980960846,-1.31860601902008,6.50156593322754,-1209.90002441406,38.1000022888184,-942.900024414062,2.6638866171119,-0.0043804564550683,0.200508660226056,DLL
17.4666666666667,0.0209350045770407,-1.34462535381317,9.24788856506348,1.38720393180847,-0.564027965068817,6.18144178390503,-1205.10009765625,50.1000022888184,-935.700012207031,2.63657191996992,0.0013133277686776,0.144539180103742,DLL
17.5,-0.156713455915451,-1.29557764530182,9.62651252746582,1.6692179441452,0.0,5.41161966323853,-1202.70007324219,47.7000007629395,-942.900024414062,2.61361040224908,-0.0164733686208502,0.131412676677261,DLL
17.5333333333333,-0.0125610027462244,-1.50373148918152,9.54277324676514,0.327746003866196,-0.937505960464478,3.803377866745,-1197.90002441406,44.1000022888184,-945.300048828125,2.59810055235183,-0.0016338874740119,0.154222352788961,DLL
