seconds,sensor_accX_m_s_,sensor_accY_m_s_,sensor_accZ_m_s_,sensor_gyroX___s_,sensor_gyroY___s_,sensor_gyroZ___s_,sensor_magX__T_,sensor_magY__T_,sensor_magZ__T_,sensor_yaw___,sensor_pitch___,sensor_roll___,label1
0.0,5.82710886001587,-1.91944074630737,8.08509826660156,-2.46190595626831,-0.632625997066498,0.228659987449646,-1353.90002441406,6.30000019073486,-813.300048828125,2.35682446334285,0.618846817631582,0.227690868960738,ST
0.0333333333333333,5.7146577835083,-1.86560797691345,8.5546407699585,-1.71494996547699,-0.3125019967556,0.78506600856781,-1349.10009765625,6.30000019073486,-822.900024414062,2.36159487877108,0.58662753667669,0.22044564327102,ST
0.0666666666666667,5.73738718032837,-1.93618881702423,8.10543537139893,-0.724089980125427,0.0152439996600151,0.746955990791321,-1365.90002441406,9.30000019073486,-832.500061035156,2.3535953186196,0.599945264278922,0.233873971789213,ST
0.1,5.24930286407471,-1.8105788230896,8.16166114807129,-0.236281991004944,0.495429992675781,0.67835795879364,-1346.70007324219,5.70000028610229,-818.100036621094,2.35946555686924,0.566353287557287,0.221730861783051,ST
0.133333333333333,5.0351676940918,-1.64549136161804,8.22386741638184,0.342989981174469,0.426831990480423,0.403965979814529,-1356.30004882812,8.10000038146973,-820.500061035156,2.36881338643044,0.545179715096251,0.202095348630383,ST
0.166666666666667,4.74147939682007,-1.29198884963989,8.02049922943115,0.724089980125427,0.228659987449646,0.419209986925125,-1375.5,9.30000019073486,-820.500061035156,2.38496545254527,0.531357185800829,0.167489639997912,ST
0.2,4.93587589263916,-1.27284824848175,8.00674152374268,0.472563982009888,-0.274392008781433,0.594515979290009,-1358.70007324219,5.10000038146973,-830.100036621094,2.38724082584219,0.543999106684881,0.159520622179452,ST
0.233333333333333,5.3360333442688,-1.27823150157928,7.88292598724365,-0.114329993724823,-1.17378795146942,1.65397393703461,-1353.90002441406,8.10000038146973,-827.700012207031,2.38235105050773,0.581211798992675,0.162307093087993,ST
0.266666666666667,5.54239273071289,-1.2238005399704,7.9373574256897,-0.320124000310898,-1.18140995502472,0.175305992364883,-1356.30004882812,5.10000038146973,-825.300048828125,2.38595156685528,0.602138089299953,0.155301871865461,ST
0.3,5.58964586257935,-1.38111209869385,8.03485488891602,-0.472563982009888,-1.31098401546478,0.647870004177094,-1353.90002441406,11.7000007629395,-830.100036621094,2.377358108884,0.602899186514648,0.168702305766365,ST
0.333333333333333,5.59682369232178,-1.54619956016541,7.91283321380615,-0.342989981174469,-1.32622802257538,0.411587983369827,-1363.5,12.3000001907349,-822.900024414062,2.36493765728409,0.607757779121332,0.189180926924406,ST
0.366666666666667,5.66561031341553,-1.56115317344666,8.01631164550781,-0.0152439996600151,-1.19665396213531,0.350611984729767,-1341.90002441406,6.90000009536743,-818.100036621094,2.36210728752889,0.608301095458473,0.192279993664288,ST
0.4,5.86180114746094,-1.70530557632446,7.92240381240845,0.0609759986400604,-0.99848198890686,0.297257989645004,-1361.10009765625,6.90000009536743,-825.300048828125,2.35128880711164,0.624554979904003,0.209098015076271,ST
0.433333333333333,5.89649343490601,-1.67360401153564,7.88651514053345,0.144817993044853,-0.945127964019775,-0.243903994560242,-1368.30004882812,11.7000007629395,-820.500061035156,2.35131107182112,0.631441742470561,0.208862013814195,ST
0.466666666666667,6.00236463546753,-1.92602038383484,7.76808261871338,-0.533540010452271,-2.33995389938354,-1.54726600646973,-1377.90002441406,15.3000001907349,-815.700012207031,2.33780479068835,0.644775248200365,0.235849338199272,ST
0.5,5.64527320861816,-1.46126329898834,7.63589334487915,0.228659987449646,-1.60061991214752,-0.846041977405548,-1363.5,5.10000038146973,-813.300048828125,2.36121670914502,0.633937173100221,0.197568673676888,ST
0.533333333333333,5.82770681381226,-1.61020088195801,7.94214248657227,0.564027965068817,-0.602137982845306,0.449698001146317,-1365.90002441406,8.10000038146973,-830.100036621094,2.35837778561901,0.626266739844892,0.199320377297366,ST
0.566666666666667,6.1889853477478,-1.52406823635101,7.57667684555054,0.266770005226135,-2.62196803092957,-1.18140995502472,-1377.90002441406,16.5,-806.100036621094,2.36030100930718,0.670499701620302,0.197580104597012,ST
0.6,6.0550012588501,-1.36077523231506,7.72082948684692,0.419209986925125,-1.72257196903229,-0.937505960464478,-1373.10009765625,12.3000001907349,-808.500061035156,2.37300432044791,0.662855018992886,0.177823149296876,ST
0.633333333333333,6.52394533157349,-1.44511342048645,7.34459733963013,-0.541162014007568,-1.85976791381836,-0.731711983680725,-1363.5,7.50000047683716,-791.700012207031,2.36601504159594,0.708719458922746,0.191194488986775,ST
0.666666666666667,5.78344440460205,-1.37453258037567,7.68494081497192,-0.129574000835419,0.0990860015153885,0.365855991840363,-1358.70007324219,6.30000019073486,-798.900024414062,2.37246307888302,0.651702409888601,0.180313479316848,ST
0.7,5.92580223083496,-1.34881234169006,7.69391298294067,0.282013982534409,0.426831990480423,0.617381989955902,-1368.30004882812,8.70000076293945,-779.700012207031,2.37427164835159,0.648685450490982,0.174858078922856,ST
0.733333333333333,5.90486764907837,-1.40683221817017,7.64845418930054,0.67835795879364,0.800309956073761,1.14329993724823,-1370.70007324219,5.70000028610229,-777.300048828125,2.36754648361486,0.647852203860263,0.180888021281911,ST
0.766666666666667,5.94195222854614,-1.21722090244293,7.7878212928772,0.137196004390717,-0.487807989120483,0.0304879993200302,-1373.10009765625,3.90000009536743,-779.700012207031,2.37981491784627,0.647009518386114,0.159864629954384,ST
0.8,5.82352018356323,-1.20765066146851,7.70348310470581,0.358233988285065,0.106707997620106,-0.0304879993200302,-1380.30004882812,12.3000001907349,-784.500061035156,2.38189469647993,0.642257140255234,0.155660110454147,ST
0.833333333333333,5.85641765594482,-1.39307498931885,7.66520214080811,0.243903994560242,-0.358233988285065,0.457319974899292,-1358.70007324219,19.5,-791.700012207031,2.3685319268205,0.644598009218863,0.175669949800666,ST
0.866666666666667,5.7744722366333,-1.35898077487946,7.52344226837158,-0.0685980021953583,-0.769822001457214,0.426831990480423,-1365.90002441406,10.5,-786.900024414062,2.3656250362174,0.647458426745876,0.17886422728948,ST
0.9,5.82112741470337,-1.51509618759155,7.82610273361206,0.243903994560242,-0.37347799539566,0.640248000621796,-1368.30004882812,12.3000001907349,-779.700012207031,2.35785083826266,0.634462516933333,0.189150154180165,ST
0.933333333333333,6.08789920806885,-1.42178583145142,7.74654960632324,0.579271972179413,0.0914639979600906,0.541162014007568,-1377.90002441406,8.10000038146973,-789.300048828125,2.35990598331434,0.654051532032826,0.182465989697237,ST
0.966666666666667,6.47370147705078,-1.32548487186432,7.76808261871338,0.525918006896973,-0.358233988285065,0.480185985565186,-1363.5,8.70000076293945,-779.700012207031,2.3648893713642,0.681310647262538,0.171650952324226,ST
1.0,6.28109931945801,-1.42836546897888,7.70228719711304,0.594515979290009,-0.152439996600151,0.0381099991500378,-1361.10009765625,7.50000047683716,-784.500061035156,2.35850632729229,0.677154281355213,0.180258505133552,ST
1.03333333333333,6.32117509841919,-1.39427125453949,7.55215311050415,0.556405961513519,-0.434453994035721,-0.25152599811554,-1358.70007324219,6.30000019073486,-779.700012207031,2.35740731864528,0.687287662303693,0.181152401237812,ST
1.06666666666667,6.16326522827148,-1.35718643665314,7.70228719711304,0.297257989645004,-0.0685980021953583,0.106707997620106,-1368.30004882812,9.90000057220459,-782.100036621094,2.36039782722866,0.671027839508228,0.175313922249027,ST
1.1,6.0310754776001,-1.43315052986145,7.5970139503479,0.541162014007568,0.3125019967556,0.350611984729767,-1361.10009765625,11.1000003814697,-786.900024414062,2.35363185719285,0.663494505146767,0.184028448721368,ST
1.13333333333333,6.10345077514648,-1.49236667156219,7.67716503143311,0.46494197845459,-0.0609759986400604,0.663114011287689,-1370.70007324219,12.3000001907349,-791.700012207031,2.34780623732143,0.662756039808399,0.190464802908411,ST
1.16666666666667,6.07773065567017,-1.50911474227905,7.67357635498047,0.663114011287689,-0.0990860015153885,0.640248000621796,-1363.5,12.9000005722046,-779.700012207031,2.34399988136222,0.661040257229967,0.19321550221056,ST
1.2,6.02928113937378,-1.41042113304138,7.5491623878479,0.632625997066498,-0.221037998795509,0.297257989645004,-1356.30004882812,11.1000003814697,-791.700012207031,2.34701820040865,0.66494944959384,0.185796017355284,ST
1.23333333333333,6.01014041900635,-1.41640257835388,7.71544599533081,0.739333987236023,-0.190549999475479,0.236281991004944,-1368.30004882812,9.30000019073486,-784.500061035156,2.34802166934434,0.656224277660919,0.181666512220853,ST
1.26666666666667,6.05380487442017,-1.42118775844574,7.65144491195679,0.861285984516144,-0.274392008781433,0.167683988809586,-1370.70007324219,8.70000076293945,-791.700012207031,2.3460421996573,0.660463604010179,0.182278401683539,ST
1.3,6.03885126113892,-1.275838971138,7.76987743377686,0.990859985351562,-0.106707997620106,0.167683988809586,-1373.10009765625,11.1000003814697,-794.100036621094,2.35457935908619,0.65562780596771,0.165488061640465,ST
1.33333333333333,6.1351523399353,-1.23217451572418,7.58026599884033,1.13567793369293,-0.0762199983000755,0.114329993724823,-1363.5,9.90000057220459,-801.300048828125,2.35576437761341,0.670419578578162,0.160579725612125,ST
1.36666666666667,5.97066307067871,-1.14484560489655,7.64007997512817,1.03659200668335,-0.0838419944047928,0.0152439996600151,-1358.70007324219,9.90000057220459,-801.300048828125,2.36095921000705,0.660597434946478,0.149696749585095,ST
1.4,5.90247488021851,-1.11972367763519,7.64905214309692,1.17378795146942,-0.114329993724823,0.0381099991500378,-1365.90002441406,8.10000038146973,-798.900024414062,2.36229121442979,0.653961971394027,0.144650386986273,ST
1.43333333333333,6.02629041671753,-1.10058307647705,7.67237997055054,1.11281192302704,-0.228659987449646,0.259148001670837,-1370.70007324219,4.5,-803.700012207031,2.36190189336373,0.659983392015029,0.141548864490382,ST
1.46666666666667,5.89888620376587,-1.01624488830566,7.86139297485352,1.16616594791412,-0.274392008781433,0.541162014007568,-1380.30004882812,3.30000019073486,-808.500061035156,2.36617313238907,0.643882518135891,0.129961466271875,ST
1.5,5.98741102218628,-1.08802211284637,8.00973224639893,1.2423859834671,-0.297257989645004,0.922261953353882,-1363.5,9.30000019073486,-798.900024414062,2.36059373152597,0.638982596850096,0.133306759945041,ST
1.53333333333333,6.1889853477478,-1.19090270996094,7.76030683517456,1.43293595314026,-0.289635986089706,0.868907988071442,-1361.10009765625,5.70000028610229,-794.100036621094,2.34773077109501,0.663015934885315,0.147953711721502,ST
1.56666666666667,6.07354354858398,-1.30036282539368,8.05578994750977,1.46342396736145,-0.221037998795509,0.586893975734711,-1361.10009765625,3.90000009536743,-798.900024414062,2.33950529323853,0.644699175279549,0.156264739475149,ST
1.6,5.24152708053589,-0.79074501991272,8.12397766113281,2.33233189582825,0.480185985565186,0.213415995240211,-1373.10009765625,10.5,-801.300048828125,2.36546537901929,0.585144654825788,0.10544458872521,ST
1.63333333333333,5.54418706893921,-0.745884299278259,7.7758584022522,2.9116039276123,0.823175966739655,0.510673999786377,-1363.5,5.70000028610229,-794.100036621094,2.36733027382681,0.609557725103777,0.0939841093476186,ST
1.66666666666667,5.73559284210205,-0.82962429523468,7.86916875839233,2.00458598136902,-0.25152599811554,0.830797970294952,-1375.5,0.900000035762787,-798.900024414062,2.35890455600808,0.624107566549003,0.100938017047649,ST
1.7,5.40003490447998,-0.587376415729523,7.82311201095581,1.75305998325348,0.564027965068817,1.08232402801514,-1365.90002441406,6.30000019073486,-808.500061035156,2.3674814697997,0.606243069719824,0.0786905233323958,ST
1.73333333333333,5.87256765365601,-0.882260859012604,8.13773536682129,1.59299790859222,0.701223969459534,1.86738991737366,-1363.5,2.10000014305115,-810.900024414062,2.34811107196471,0.618246135112645,0.102235283885951,ST
1.76666666666667,5.45267152786255,-0.729136288166046,8.19695091247559,1.57775402069092,0.640248000621796,1.50915598869324,-1365.90002441406,-2.10000014305115,-810.900024414062,2.34978187124541,0.589592668077368,0.0900915482285622,ST
1.8,5.27023792266846,-0.448009073734283,8.23343753814697,2.27897787094116,2.37044191360474,1.73019397258759,-1365.90002441406,3.90000009536743,-813.300048828125,2.36069385615047,0.568647063666461,0.0584722292615687,ST
1.83333333333333,5.42396068572998,-0.166283741593361,8.32734680175781,1.93598794937134,1.40244793891907,1.2347639799118,-1370.70007324219,2.10000014305115,-822.900024414062,2.37370655069185,0.573675061645859,0.0252036084783259,ST
1.86666666666667,4.82521915435791,0.296080768108368,8.30820560455322,1.75305998325348,1.12043392658234,0.716467976570129,-1361.10009765625,5.70000028610229,-803.700012207031,2.39756338091612,0.532416281882766,-0.0275420731293014,ST
1.9,4.49564266204834,0.372044920921326,8.28906536102295,1.70732796192169,1.45580196380615,1.15854394435883,-1363.5,2.70000004768372,-818.100036621094,2.40076300124664,0.501806451996919,-0.0428390081917992,ST
1.93333333333333,4.53811073303223,0.366063505411148,8.34947776794434,1.28049600124359,1.2423859834671,1.6844619512558,-1370.70007324219,2.70000004768372,-818.100036621094,2.39643386213525,0.49670122874639,-0.0440849648966093,ST
1.96666666666667,4.68525409698486,0.23925718665123,8.31418704986572,0.663114011287689,0.525918006896973,1.69970595836639,-1351.5,8.10000038146973,-818.100036621094,2.38571600428179,0.509424517951333,-0.0311129542078263,ST
2.0,4.8916130065918,0.0783567279577255,8.47747993469238,0.381099998950958,-0.0457319989800453,1.17378795146942,-1361.10009765625,12.3000001907349,-818.100036621094,2.37351303754884,0.521109292682295,-0.0125193637618079,ST
2.03333333333333,5.21640491485596,-0.0388792939484119,8.39134788513184,0.282013982534409,-0.198172003030777,0.457319974899292,-1375.5,5.70000028610229,-822.900024414062,2.36504119924389,0.550211165122413,0.0015067771983888,ST
2.06666666666667,5.11950588226318,-0.352306216955185,8.62282943725586,-0.25152599811554,-0.564027965068817,0.350611984729767,-1361.10009765625,6.30000019073486,-825.300048828125,2.34798077715741,0.53923723388508,0.033635748280651,ST
2.1,4.84555625915527,-0.525767683982849,8.608473777771,-0.487807989120483,-0.144817993044853,0.548784017562866,-1358.70007324219,11.7000007629395,-820.500061035156,2.33582140435639,0.51758797315193,0.0566918876754531,ST
2.13333333333333,4.64697265625,-0.56464695930481,8.69879341125488,-0.419209986925125,0.419209986925125,0.800309956073761,-1358.70007324219,6.90000009536743,-822.900024414062,2.33100667883372,0.494720726713575,0.0643797807375829,ST
2.16666666666667,4.74267578125,-0.631639003753662,8.58395004272461,0.205793991684914,0.914639949798584,0.830797970294952,-1365.90002441406,15.3000001907349,-808.500061035156,2.32563378173625,0.500479787317979,0.0719087687461325,ST
2.2,5.07703733444214,-0.809287428855896,8.36084270477295,-0.0304879993200302,0.632625997066498,0.830797970294952,-1361.10009765625,6.30000019073486,-820.500061035156,2.31412483196873,0.533997593853203,0.0921048359669335,ST
2.23333333333333,5.21760129928589,-0.912168025970459,8.40331077575684,-0.266770005226135,0.403965979814529,0.670735955238342,-1356.30004882812,7.50000047683716,-820.500061035156,2.3061616642957,0.548542700491054,0.105767483694963,ST
2.26666666666667,5.20503997802734,-0.871494293212891,8.43142318725586,0.137196004390717,0.403965979814529,0.320124000310898,-1373.10009765625,6.30000019073486,-818.100036621094,2.30656838138406,0.549705152166171,0.10350903918331,ST
2.3,4.92570734024048,-0.683677434921265,8.71075630187988,0.823175966739655,1.34909391403198,0.213415995240211,-1368.30004882812,11.7000007629395,-825.300048828125,2.31625358120384,0.518780919290023,0.0822578110940863,ST
2.33333333333333,4.69422626495361,-0.382213354110718,8.76458930969238,1.43293595314026,1.98171997070312,0.83841997385025,-1358.70007324219,11.1000003814697,-825.300048828125,2.32895007855727,0.49407391182985,0.0498523023266737,ST
2.36666666666667,4.29526472091675,-0.142956167459488,8.63359546661377,1.30336201190948,2.66007804870605,1.34909391403198,-1351.5,13.5000009536743,-834.900024414062,2.33782992909261,0.463553779628847,0.0214992880503773,ST
2.4,4.52435350418091,-0.360082060098648,8.54746341705322,0.602137982845306,2.25611186027527,2.66007804870605,-1368.30004882812,5.10000038146973,-842.100036621094,2.32337910553419,0.479025479019546,0.0394196397203329,ST
2.43333333333333,4.50939989089966,-0.424681514501572,8.70357799530029,0.121951997280121,1.92836594581604,2.23324584960938,-1341.90002441406,8.10000038146973,-832.500061035156,2.31480311074119,0.475018715141679,0.0482451953743256,ST
2.46666666666667,4.45556688308716,-0.436644375324249,8.61026763916016,0.434453994035721,2.01220798492432,1.44055795669556,-1356.30004882812,11.1000003814697,-837.300048828125,2.31055596229442,0.473702288242608,0.0505313202375845,ST
2.5,4.06856870651245,-0.161498606204987,8.86328220367432,0.907018005847931,2.33233189582825,0.823175966739655,-1361.10009765625,11.7000007629395,-844.500061035156,2.31982653966652,0.435776348856178,0.0238768419433052,ST
2.53333333333333,3.93817329406738,-0.168676316738129,9.12168025970459,0.800309956073761,2.03507399559021,0.967993974685669,-1349.10009765625,2.10000014305115,-854.100036621094,2.3191206501889,0.410333939606597,0.0190295243053484,ST
2.56666666666667,4.15828990936279,-0.227294325828552,8.88062858581543,0.327746003866196,1.72257196903229,1.13567793369293,-1344.30004882812,9.30000019073486,-854.100036621094,2.31405232937144,0.430387480641184,0.0246447453168313,ST
2.6,4.17324352264404,-0.461168229579926,8.84115123748779,-0.320124000310898,1.57775402069092,0.815553963184357,-1339.5,5.10000038146973,-844.500061035156,2.3031834508581,0.436240221753202,0.0474848091774526,ST
2.63333333333333,4.17922496795654,-0.632237136363983,8.97872447967529,-0.663114011287689,1.50915598869324,0.259148001670837,-1337.10009765625,14.1000003814697,-854.100036621094,2.29514717176984,0.432799246217134,0.0672866787030416,ST
2.66666666666667,4.23365592956543,-0.872690618038177,9.15517616271973,-0.83841997385025,1.29574000835419,-0.381099998950958,-1334.70007324219,6.30000019073486,-861.300048828125,2.28717555052663,0.429887541352955,0.0909607113839019,ST
2.7,3.9357807636261,-0.702817976474762,8.82559967041016,-0.358233988285065,1.47866797447205,-0.647870004177094,-1344.30004882812,8.10000038146973,-854.100036621094,2.29324555008287,0.418193024941576,0.0814076323790735,ST
2.73333333333333,3.68276619911194,-0.550291538238525,9.13603591918945,0.0533539988100529,1.84452390670776,-0.289635986089706,-1344.30004882812,15.9000005722046,-844.500061035156,2.30123249092319,0.385898430539792,0.0633602046917775,ST
2.76666666666667,3.6151762008667,-0.48449581861496,9.11809158325195,0.182927995920181,1.52439999580383,-0.167683988809586,-1332.30004882812,6.90000009536743,-858.900024414062,2.30482773959815,0.376679667324042,0.0547559042335926,ST
2.8,3.76411366462708,-0.52935653924942,9.24130916595459,-0.0533539988100529,0.830797970294952,-0.190549999475479,-1329.90002441406,12.9000005722046,-870.900024414062,2.30467218585936,0.38315925080071,0.0566630976294748,ST
2.83333333333333,3.74437499046326,-0.425877809524536,8.97334098815918,-0.0076219998300075,0.693601965904236,-0.228659987449646,-1344.30004882812,8.10000038146973,-858.900024414062,2.30808043716715,0.391597311269118,0.0491557397405564,ST
2.86666666666667,3.8598165512085,-0.458775669336319,8.67127895355225,-0.0838419944047928,0.586893975734711,-0.0304879993200302,-1334.70007324219,3.90000009536743,-863.700012207031,2.30709863434044,0.41208290366365,0.0521877025828878,ST
2.9,3.79880595207214,-0.62147057056427,9.01820182800293,-0.221037998795509,0.762199997901917,-0.381099998950958,-1332.30004882812,9.30000019073486,-849.300048828125,2.30293334597435,0.399686137671654,0.0655268588261135,ST
2.93333333333333,3.82392811775208,-0.741099119186401,8.92010593414307,-0.152439996600151,0.647870004177094,-0.396344006061554,-1332.30004882812,6.30000019073486,-858.900024414062,2.29852896947109,0.402146029545421,0.0797340490612678,ST
2.96666666666667,3.57749319076538,-0.952243626117706,8.96137809753418,-0.0228659994900227,0.350611984729767,-0.121951997280121,-1327.5,11.1000003814697,-868.500061035156,2.29079929455154,0.382044133605154,0.10089530073789,ST
3.0,3.6552517414093,-0.77878212928772,8.55224800109863,0.228659987449646,0.205793991684914,0.304879993200302,-1337.10009765625,5.70000028610229,-866.100036621094,2.29313191056504,0.398220603544746,0.0925844328478512,ST
3.03333333333333,3.50631403923035,-0.884653449058533,9.186279296875,0.503051996231079,0.807931959629059,0.0457319989800453,-1327.5,12.9000005722046,-868.500061035156,2.29194215316579,0.367806939832348,0.0946989669706681,ST
3.06666666666667,3.47281813621521,-1.22619307041168,9.47996807098389,-0.0990860015153885,1.03659200668335,0.0304879993200302,-1322.70007324219,8.10000038146973,-868.500061035156,2.28262014586325,0.350969982322465,0.121929200824137,ST
3.1,3.29098272323608,-0.626255691051483,9.2042236328125,0.381099998950958,0.6250039935112,-0.0609759986400604,-1320.30004882812,6.30000019073486,-863.700012207031,2.29808020870223,0.34322807652238,0.0763678902898748,ST
3.13333333333333,3.78205800056458,-0.334361910820007,9.25985145568848,0.769822001457214,-0.236281991004944,-0.0990860015153885,-1339.5,9.90000057220459,-882.900024414062,2.30935272801903,0.378981978650655,0.0432229858322262,ST
3.16666666666667,4.49384832382202,-0.151928320527077,8.92728424072266,0.190549999475479,-0.899396002292633,-0.426831990480423,-1315.5,13.5000009536743,-863.700012207031,2.31874663239513,0.451005463831128,0.0216731694336313,ST
3.2,4.35029363632202,-0.364867210388184,8.70896148681641,-0.564027965068817,0.335367977619171,-1.62348592281342,-1332.30004882812,9.30000019073486,-870.900024414062,2.31575695240376,0.46013279892786,0.037445095204802,ST
3.23333333333333,3.86041474342346,-0.375633776187897,9.46621036529541,-0.807931959629059,1.30336201190948,-2.59910202026367,-1334.70007324219,9.90000057220459,-873.300048828125,2.32154441627058,0.400028453943097,0.0387267686805684,ST
3.26666666666667,3.47700500488281,-0.164489313960075,8.95898532867432,-0.259148001670837,1.34909391403198,-2.57623600959778,-1320.30004882812,12.9000005722046,-875.700012207031,2.33391541937004,0.374404607772286,0.0213256874677462,ST
3.3,3.33703970909119,-0.416905641555786,9.3238525390625,-0.617381989955902,1.38720393180847,-2.24848985671997,-1327.5,8.70000076293945,-870.900024414062,2.33301509090832,0.347060738500163,0.0402186657334347,ST
3.33333333333333,3.75753402709961,-0.202770471572876,8.3279447555542,-0.266770005226135,0.46494197845459,-2.27897787094116,-1320.30004882812,4.5,-880.500061035156,2.34407345434606,0.411056430497968,0.0259413132967591,ST
3.36666666666667,1.85424315929413,0.510215938091278,8.57378101348877,0.121951997280121,1.46342396736145,-1.65397393703461,-1325.10009765625,8.10000038146973,-882.900024414062,2.37029197297635,0.250964552082872,-0.0437913534179737,ST
3.4,2.2532045841217,-0.401353925466537,9.4315185546875,-0.205793991684914,1.62348592281342,0.282013982534409,-1322.70007324219,-7.50000047683716,-887.700012207031,2.35253435838612,0.235103796143513,0.0275556372294521,ST
3.43333333333333,1.94037580490112,-1.24593186378479,9.91721057891846,-1.80641400814056,1.52439999580383,-0.297257989645004,-1317.90002441406,-0.300000011920929,-878.100036621094,2.33703469701411,0.198590470178941,0.107871127039756,ST
3.46666666666667,2.75564455986023,-1.72085738182068,9.25506591796875,-1.6844619512558,0.6250039935112,-0.0304879993200302,-1313.10009765625,12.3000001907349,-894.900024414062,2.32373499151369,0.266603222345394,0.170548514460123,ST
3.5,3.69652366638184,-2.46255469322205,9.30710506439209,-2.10367202758789,-1.62348592281342,-0.503051996231079,-1315.5,8.10000038146973,-882.900024414062,2.3023162399416,0.353399094722431,0.247430715772501,ST
3.53333333333333,3.17135405540466,-1.59165847301483,10.4046974182129,-0.800309956073761,-1.08994603157043,-1.04421401023865,-1320.30004882812,11.7000007629395,-868.500061035156,2.32926982817886,0.306910728597473,0.171517827915924,ST
3.56666666666667,3.02600526809692,-0.406139075756073,9.03674411773682,0.685979962348938,-0.381099998950958,-0.335367977619171,-1320.30004882812,8.10000038146973,-875.700012207031,2.36089754395648,0.320621664887326,0.0695273846661679,ST
3.6,3.97406196594238,-0.550291538238525,8.02229309082031,0.114329993724823,-1.20427596569061,1.07470202445984,-1327.5,6.90000009536743,-873.300048828125,2.35843238705098,0.432591618734055,0.0693034314090537,ST
3.63333333333333,3.74975824356079,-0.811081886291504,8.23343753814697,-0.434453994035721,-1.57775402069092,0.586893975734711,-1305.90002441406,6.90000009536743,-878.100036621094,2.34726581520273,0.429111405277099,0.0934622703963899,ST
3.66666666666667,3.91723823547363,-1.41999137401581,8.09646320343018,-0.426831990480423,-1.03659200668335,0.975615978240967,-1325.10009765625,14.7000007629395,-880.500061035156,2.31780677033766,0.443030475690637,0.158701737641456,ST
3.7,3.72284173965454,-1.6323322057724,9.29633808135986,0.403965979814529,-0.0762199983000755,0.975615978240967,-1320.30004882812,9.90000057220459,-887.700012207031,2.31045442576698,0.389149061926943,0.170898659360267,ST
3.73333333333333,2.82502913475037,-1.58388257026672,9.5864372253418,0.823175966739655,0.579271972179413,1.50153398513794,-1332.30004882812,9.90000057220459,-875.700012207031,2.30876369750669,0.300728070423841,0.164547463110909,ST
3.76666666666667,2.66293239593506,-0.92472904920578,10.5470552444458,1.54726600646973,0.693601965904236,1.59299790859222,-1320.30004882812,4.5,-882.900024414062,2.32209909187965,0.254953225902152,0.0994473980503262,ST
3.8,2.91534876823425,-0.970187902450562,9.74434757232666,1.06708002090454,-0.381099998950958,2.12653803825378,-1315.5,12.9000005722046,-885.300048828125,2.31687693579405,0.282659584654045,0.0986353819625815,ST
3.83333333333333,2.73949480056763,-0.949252903461456,9.40998554229736,0.792688012123108,0.297257989645004,2.19513607025146,-1327.5,4.5,-880.500061035156,2.31091186309222,0.281331676635614,0.0999552980339266,ST
3.86666666666667,2.7682056427002,-0.988730311393738,9.69709396362305,1.45580196380615,0.472563982009888,1.54726600646973,-1315.5,10.5,-890.100036621094,2.30645785744804,0.276638911378273,0.0998393603963786,ST
3.9,2.96499466896057,-1.10118126869202,8.77834606170654,0.693601965904236,0.236281991004944,1.00610399246216,-1317.90002441406,7.50000047683716,-887.700012207031,2.29822691632328,0.313480311643933,0.119156433899733,ST
3.93333333333333,2.62943649291992,-1.04196500778198,8.51217269897461,0.807931959629059,0.495429992675781,0.663114011287689,-1317.90002441406,8.10000038146973,-892.500061035156,2.2959705286219,0.299934750286495,0.12041067048202,ST
3.96666666666667,2.55526685714722,-1.27464270591736,8.51994895935059,0.655492007732391,0.853663980960846,1.06708002090454,-1317.90002441406,8.70000076293945,-880.500061035156,2.28707456256648,0.289325848568855,0.142344516001318,ST
4.0,2.34472036361694,-1.41221559047699,8.69759654998779,0.403965979814529,0.655492007732391,1.31098401546478,-1310.70007324219,9.90000057220459,-887.700012207031,2.28011394932386,0.264794114411815,0.157147491512757,ST
4.03333333333333,2.75145769119263,-1.37572884559631,8.81423473358154,0.907018005847931,0.0,1.91312193870544,-1313.10009765625,10.5,-890.100036621094,2.27599658100767,0.291828863737987,0.154806091449202,ST
4.06666666666667,3.21382212638855,-1.03299295902252,8.76040172576904,1.18140995502472,-0.266770005226135,1.60824191570282,-1322.70007324219,10.5,-887.700012207031,2.28109274323339,0.338566024495709,0.123717741139155,ST
4.1,2.92372274398804,-0.99889874458313,9.84483528137207,1.06708002090454,0.594515979290009,1.12043392658234,-1322.70007324219,6.30000019073486,-890.100036621094,2.28398553314602,0.295422779964111,0.104062007359792,ST
4.13333333333333,3.00925731658936,-0.77878212928772,10.0805034637451,0.960371971130371,0.114329993724823,1.2347639799118,-1310.70007324219,5.70000028610229,-878.100036621094,2.28709589072763,0.290076619451731,0.0810569756586906,ST
4.16666666666667,3.10555839538574,-1.05512416362762,9.4793701171875,0.480185985565186,-0.655492007732391,1.63110792636871,-1327.5,10.5,-882.900024414062,2.2755525647839,0.311095279092389,0.105571958728414,ST
4.2,3.18690586090088,-0.602928102016449,9.79758167266846,0.594515979290009,-0.640248000621796,1.81403601169586,-1320.30004882812,8.70000076293945,-887.700012207031,2.28189754381017,0.31413192431443,0.0698485900811171,ST
4.23333333333333,3.44111657142639,-0.548497080802917,8.97214412689209,0.853663980960846,-0.663114011287689,2.12653803825378,-1315.5,8.70000076293945,-894.900024414062,2.27862010300535,0.357169287515078,0.0625465172330941,ST
4.26666666666667,3.39087247848511,-0.724949300289154,8.83038425445557,0.548784017562866,-0.175305992364883,1.46342396736145,-1327.5,6.30000019073486,-870.900024414062,2.26954144470794,0.363941084422861,0.0780132684147543,ST
4.3,2.70061540603638,-0.741697311401367,9.00982761383057,0.564027965068817,0.3125019967556,0.899396002292633,-1322.70007324219,13.5000009536743,-882.900024414062,2.26625521939646,0.30459871958486,0.0809703607214457,ST
4.33333333333333,2.46733975410461,-0.661546111106873,9.45305156707764,0.663114011287689,-0.129574000835419,1.77592599391937,-1322.70007324219,11.1000003814697,-878.100036621094,2.26405071326323,0.262567852699623,0.0713689220580877,ST
4.36666666666667,2.22628808021545,-0.593955993652344,9.49013614654541,1.04421401023865,-0.449698001146317,2.12653803825378,-1320.30004882812,8.70000076293945,-882.900024414062,2.26057806767959,0.23698003100076,0.0635795301401759,ST
4.4,2.29985976219177,-0.675303399562836,9.89866828918457,0.99848198890686,-0.236281991004944,3.02593398094177,-1322.70007324219,11.1000003814697,-890.100036621094,2.25226047505004,0.229575750415754,0.0668601576139272,ST
4.43333333333333,2.18082928657532,-0.488682806491852,9.42194843292236,1.09756803512573,-0.190549999475479,2.9192259311676,-1320.30004882812,14.7000007629395,-882.900024414062,2.24797627755913,0.227678672369309,0.0542652386584842,ST
4.46666666666667,2.04564905166626,-0.548497080802917,9.22635555267334,0.914639949798584,-0.0304879993200302,3.07928800582886,-1329.90002441406,8.10000038146973,-887.700012207031,2.23952171099183,0.219481915695569,0.0581011799830473,ST
4.5,1.76751244068146,-0.577806115150452,9.64266300201416,0.708845973014832,0.0990860015153885,3.55185198783875,-1322.70007324219,11.7000007629395,-902.100036621094,2.230661807113,0.18783518254247,0.0595295885455775,ST
4.53333333333333,2.03847122192383,-0.708799421787262,9.62591457366943,0.701223969459534,-0.335367977619171,4.24545383453369,-1303.5,22.5,-882.900024414062,2.2178339602961,0.204590098660298,0.071228020902207,ST
4.56666666666667,2.57799625396729,-0.55567479133606,9.3477783203125,0.731711983680725,-0.800309956073761,3.89484190940857,-1317.90002441406,12.3000001907349,-882.900024414062,2.20969784360617,0.259362500929969,0.0616367457152716,ST
4.6,3.13845610618591,-0.487486511468887,9.16713905334473,0.533540010452271,-0.663114011287689,2.88111591339111,-1317.90002441406,12.9000005722046,-882.900024414062,2.20432605772483,0.317620932082168,0.0552161197160643,ST
4.63333333333333,3.59304475784302,-0.32538977265358,9.12168025970459,0.190549999475479,-0.457319974899292,0.815553963184357,-1322.70007324219,13.5000009536743,-873.300048828125,2.20750761469871,0.364043105519939,0.0398433364554622,ST
4.66666666666667,3.30593609809875,-0.33137121796608,8.86388111114502,-0.0381099991500378,-0.0152439996600151,-1.05183601379395,-1329.90002441406,8.70000076293945,-880.500061035156,2.21067716513049,0.358304069234673,0.0373670406607418,ST
4.7,3.20724272727966,0.0065795728005468,9.06425857543945,0.0152439996600151,0.602137982845306,-1.59299790859222,-1320.30004882812,17.1000003814697,-890.100036621094,2.22488069932699,0.342998525168853,0.0060857947284562,ST
4.73333333333333,2.96798539161682,-0.136974737048149,9.33461952209473,0.365855991840363,0.350611984729767,-1.50915598869324,-1315.5,18.3000011444092,-885.300048828125,2.22607803610098,0.314441867859052,0.0117480770511705,ST
4.76666666666667,2.900395154953,-0.0448607243597507,9.38306903839111,0.388722002506256,0.800309956073761,-0.983237981796265,-1315.5,15.9000005722046,-880.500061035156,2.23021783814347,0.30109680657004,0.0049300802321783,ST
4.8,2.62824010848999,-0.0807493031024933,8.97513484954834,0.0533539988100529,1.59299790859222,-0.396344006061554,-1308.30004882812,15.3000001907349,-892.500061035156,2.23025235934937,0.285275055291336,0.0080635978047399,ST
4.83333333333333,2.60072565078735,-0.483299523591995,9.71922492980957,-0.564027965068817,2.40092992782593,-1.02897000312805,-1313.10009765625,14.7000007629395,-887.700012207031,2.22391473804571,0.262755920422864,0.0416995637841294,ST
4.86666666666667,2.55347228050232,-1.1717621088028,9.08938026428223,-1.60061991214752,2.11129403114319,-1.70732796192169,-1303.5,9.30000019073486,-892.500061035156,2.21054039679532,0.267368494563047,0.112224933715361,ST
4.9,2.03248977661133,-1.263876080513,9.25566387176514,-1.22714197635651,2.28659987449646,-1.80641400814056,-1305.90002441406,14.7000007629395,-899.700012207031,2.21125111130461,0.220810558263381,0.132613134641932,ST
4.93333333333333,1.91525375843048,-1.3320643901825,9.84304046630859,-0.952749967575073,2.44666194915771,-1.47104597091675,-1303.5,12.9000005722046,-902.100036621094,2.21524430972859,0.193491996112642,0.134950989766844,ST
4.96666666666667,2.33574819564819,-1.08204066753387,9.63189601898193,0.144817993044853,1.52439999580383,-1.2423859834671,-1303.5,11.1000003814697,-904.500061035156,2.22234055408248,0.225921282665944,0.115938550431583,ST
5.0,2.55287408828735,-1.14484560489655,9.09057712554932,-0.205793991684914,1.38720393180847,-0.579271972179413,-1289.10009765625,11.1000003814697,-902.100036621094,2.22231380335701,0.260672995800581,0.123405816662813,ST
5.03333333333333,2.59534239768982,-1.07785367965698,8.94582653045654,0.0076219998300075,2.08842802047729,-0.685979962348938,-1305.90002441406,8.10000038146973,-902.100036621094,2.22536981692907,0.27405973746285,0.120156709711189,ST
5.06666666666667,2.39735698699951,-0.876279473304749,9.17551326751709,0.442075997591019,2.44666194915771,-0.907018005847931,-1298.70007324219,11.7000007629395,-909.300048828125,2.23362096461597,0.254360117938418,0.0982972966978905,ST
5.1,1.64549136161804,-0.739902853965759,9.11211013793945,0.144817993044853,2.18751406669617,-0.259148001670837,-1291.5,11.7000007629395,-894.900024414062,2.2378355094237,0.188614955874056,0.0837420530342036,ST
5.13333333333333,1.9648996591568,-0.967795312404633,9.20302772521973,-0.449698001146317,1.92836594581604,0.579271972179413,-1291.5,7.50000047683716,-914.100036621094,2.23373295811908,0.20232769623787,0.101256629947502,ST
5.16666666666667,1.53363859653473,-0.74648243188858,10.3592376708984,-0.0076219998300075,1.77592599391937,0.663114011287689,-1284.30004882812,5.10000038146973,-918.900024414062,2.23679296752312,0.153308856313132,0.0769638286010989,ST
5.2,2.32318735122681,-0.577207982540131,9.41177940368652,0.0990860015153885,0.769822001457214,0.396344006061554,-1272.30004882812,9.90000057220459,-911.700012207031,2.23833836733605,0.223670911784311,0.0642647714588777,ST
5.23333333333333,2.15032386779785,-0.191405743360519,9.80416107177734,0.609759986400604,0.99848198890686,-0.602137982845306,-1274.70007324219,7.50000047683716,-916.500061035156,2.24750950389904,0.216122568442914,0.0274848120546891,ST
5.26666666666667,2.42008638381958,-0.348717361688614,9.54277324676514,0.358233988285065,0.472563982009888,-2.27897787094116,-1274.70007324219,16.5,-906.900024414062,2.25111825426266,0.241181508353236,0.0334346860793512,ST
5.3,1.74956822395325,-0.251818180084229,9.69649600982666,0.564027965068817,1.10518991947174,-2.9344699382782,-1277.10009765625,9.90000057220459,-906.900024414062,2.25914249060358,0.189681499222369,0.0258120531303125,ST
5.33333333333333,1.30155909061432,-0.244640469551086,10.2868623733521,0.640248000621796,1.54726600646973,-2.74391984939575,-1272.30004882812,8.10000038146973,-916.500061035156,2.26572768383164,0.136637384327299,0.0226968014082486,ST
5.36666666666667,1.22140789031982,-0.122619308531284,10.1881694793701,0.670735955238342,0.777444005012512,-2.53050398826599,-1269.90002441406,5.10000038146973,-916.500061035156,2.27280176243759,0.121556291130238,0.0126501951616525,ST
5.4,1.32847559452057,-0.0807493031024933,9.02956676483154,0.259148001670837,0.739333987236023,-2.0579400062561,-1267.5,2.70000004768372,-918.900024414062,2.27792559625346,0.140127632711641,0.0089444223870867,ST
5.43333333333333,1.33026993274689,-0.125011876225471,9.38605976104736,-0.525918006896973,1.06708002090454,-2.19513607025146,-1269.90002441406,8.10000038146973,-918.900024414062,2.28259919296818,0.139195229475044,0.0127369426377013,ST
5.46666666666667,1.46126329898834,-0.425279647111893,9.12407302856445,-0.945127964019775,0.434453994035721,-2.69056582450867,-1274.70007324219,9.90000057220459,-926.100036621094,2.28542543278339,0.154879778990724,0.0416598975764823,ST
5.5,1.37692511081696,-0.729136288166046,8.97573375701904,-1.53202199935913,0.190549999475479,-3.42227792739868,-1269.90002441406,8.70000076293945,-911.700012207031,2.28910162278998,0.15235008095298,0.0754578268943487,ST
5.53333333333333,1.04734838008881,-0.967795312404633,9.66240119934082,-1.55488801002502,0.152439996600151,-3.3460578918457,-1269.90002441406,8.10000038146973,-926.100036621094,2.29524341550213,0.114750345240183,0.097666875823882,ST
5.56666666666667,0.997702479362488,-1.06708705425262,10.0697364807129,-1.08994603157043,-0.548784017562866,-2.9268479347229,-1281.90002441406,14.1000003814697,-918.900024414062,2.30125205109962,0.102723939005471,0.105075075157063,ST
5.6,0.840988993644714,-0.980954468250275,9.94771575927734,-0.724089980125427,-0.701223969459534,-1.82165801525116,-1272.30004882812,5.70000028610229,-916.500061035156,2.30584511515757,0.0889536768670659,0.100439214613862,ST
5.63333333333333,1.25550210475922,-0.662742435932159,9.63608360290527,-0.0076219998300075,-0.594515979290009,-0.289635986089706,-1265.10009765625,7.50000047683716,-923.700012207031,2.30924132903828,0.123399281501058,0.0739999723301134,ST
5.66666666666667,1.50851655006409,-0.611302137374878,9.43690204620361,-0.0304879993200302,-0.205793991684914,-0.0609759986400604,-1272.30004882812,6.30000019073486,-911.700012207031,2.31036974786042,0.15146696927298,0.0666087780091365,ST
5.7,1.4301598072052,-0.823044717311859,9.15278339385986,-0.510673999786377,0.274392008781433,-0.205793991684914,-1277.10009765625,7.50000047683716,-921.300048828125,2.308164733437,0.153447308652296,0.0856929947434712,ST
5.73333333333333,1.41400992870331,-1.12869584560394,9.50209903717041,-0.922261953353882,-0.0076219998300075,-0.792688012123108,-1257.90002441406,8.10000038146973,-918.900024414062,2.30620615663345,0.148205717642854,0.112797145169213,ST
5.76666666666667,1.01445043087006,-1.33326065540314,9.41596698760986,-0.434453994035721,-0.0609759986400604,-0.754577994346619,-1267.5,8.10000038146973,-916.500061035156,2.30504498902337,0.114952963753506,0.135548399685523,ST
5.8,1.15501403808594,-1.35778450965881,9.30710506439209,-0.106707997620106,-0.0838419944047928,-0.175305992364883,-1277.10009765625,10.5,-923.700012207031,2.3045551687168,0.120880948827478,0.14310805126185,ST
5.83333333333333,0.915158748626709,-1.27344644069672,10.19056224823,0.236281991004944,0.129574000835419,0.411587983369827,-1272.30004882812,11.1000003814697,-926.100036621094,2.30525009662472,0.0950714443538415,0.127825709213658,ST
5.86666666666667,0.896616339683533,-1.12690138816833,10.146897315979,0.37347799539566,-0.266770005226135,1.2500079870224,-1284.30004882812,9.30000019073486,-918.900024414062,2.30340377138692,0.0891025710656342,0.113308016204793,ST
5.9,0.92771977186203,-0.696238398551941,10.1002426147461,0.739333987236023,-0.205793991684914,1.89787793159485,-1274.70007324219,10.5,-926.100036621094,2.30213591494126,0.0909835473441936,0.0769995462461311,ST
5.93333333333333,1.33625137805939,-0.86192399263382,9.35136699676514,0.922261953353882,-0.0533539988100529,2.01220798492432,-1279.5,12.3000001907349,-921.300048828125,2.29608582611756,0.131032275796026,0.0879373475845484,ST
5.96666666666667,1.2178190946579,-0.928317904472351,9.27480506896973,0.846041977405548,0.419209986925125,1.60824191570282,-1262.70007324219,12.9000005722046,-909.300048828125,2.29115234785698,0.129351405096272,0.0964821833548119,ST
6.0,1.08682572841644,-0.896616339683533,9.2640380859375,1.12043392658234,0.617381989955902,1.31860601902008,-1281.90002441406,14.1000003814697,-909.300048828125,2.28794580390142,0.117521575475205,0.0950975965846199,ST
6.03333333333333,0.646592557430267,-0.930710434913635,9.10014724731445,1.14329993724823,0.579271972179413,1.33385002613068,-1269.90002441406,5.10000038146973,-928.500061035156,2.28437571815232,0.0790428524844079,0.0991280574395133,ST
6.06666666666667,0.757847130298615,-0.827231705188751,9.41835880279541,0.92988395690918,0.365855991840363,1.89025592803955,-1269.90002441406,5.10000038146973,-921.300048828125,2.28077547794433,0.0790451137028705,0.0888359933103964,ST
6.1,0.797324597835541,-0.763230443000793,10.1558694839478,1.18903195858002,0.0762199983000755,1.89787793159485,-1265.10009765625,-0.300000011920929,-935.700012207031,2.27696265593153,0.0779657219413417,0.0759845760241123,ST
6.13333333333333,1.66582822799683,-0.959421336650848,9.53798770904541,1.38720393180847,-0.365855991840363,2.52288198471069,-1265.10009765625,14.1000003814697,-923.700012207031,2.26870811714749,0.153277245145199,0.0938362994827653,ST
6.16666666666667,1.67779099941254,-0.823044717311859,10.0171003341675,1.14329993724823,0.0304879993200302,0.769822001457214,-1262.70007324219,3.30000019073486,-923.700012207031,2.26826851014111,0.16282775264098,0.082950614201347,ST
6.2,1.68018364906311,-0.797324597835541,9.46621036529541,0.87652999162674,-0.0076219998300075,0.0076219998300075,-1269.90002441406,5.10000038146973,-921.300048828125,2.26796258186826,0.172745627902891,0.0825870781855516,ST
6.23333333333333,1.53004968166351,-0.583787560462952,9.64266300201416,0.571649968624115,0.0381099991500378,-0.541162014007568,-1274.70007324219,11.7000007629395,-921.300048828125,2.27227532282043,0.159713279867295,0.0632120777629412,ST
6.26666666666667,1.49954438209534,-0.495262384414673,9.15398025512695,0.708845973014832,0.388722002506256,-0.365855991840363,-1274.70007324219,8.70000076293945,-923.700012207031,2.27431356076173,0.161179858381545,0.0545806584658201,ST
6.3,1.41939330101013,-0.733323276042938,9.78920745849609,0.0914639979600906,0.754577994346619,-0.907018005847931,-1260.30004882812,-0.900000035762787,-918.900024414062,2.27409457889593,0.145746474527893,0.0708366408062473,ST
6.33333333333333,1.14006054401398,-0.497056812047958,9.79160022735596,-0.205793991684914,0.815553963184357,-1.18140995502472,-1260.30004882812,5.70000028610229,-926.100036621094,2.27909349858999,0.120775777080045,0.0548281901133396,ST
6.36666666666667,1.38290655612946,-0.634629666805267,9.46621036529541,-0.137196004390717,0.556405961513519,-0.510673999786377,-1262.70007324219,8.70000076293945,-916.500061035156,2.27911044443996,0.139182092243441,0.064583748984337,ST
6.4,1.18013608455658,-0.696238398551941,9.13603591918945,-0.106707997620106,1.15854394435883,-0.457319974899292,-1262.70007324219,3.90000009536743,-926.100036621094,2.27915763212056,0.128612167704278,0.0739352798276018,ST
6.43333333333333,0.908579170703888,-0.382213354110718,9.93694877624512,0.426831990480423,1.06708002090454,0.403965979814529,-1265.10009765625,5.70000028610229,-926.100036621094,2.28152559730049,0.0971654037369755,0.0450359612703012,ST
6.46666666666667,1.08383500576019,-0.500645637512207,9.36871337890625,0.358233988285065,0.350611984729767,0.830797970294952,-1253.10009765625,8.70000076293945,-918.900024414062,2.27878566354666,0.111266268422,0.0515051408337991,ST
6.5,1.19030451774597,-0.79672646522522,9.21439266204834,-0.243903994560242,0.990859985351562,1.34909391403198,-1265.10009765625,0.900000035762787,-930.900024414062,2.27261064518834,0.123127318908321,0.0797893351606104,ST
6.53333333333333,0.970187902450562,-1.25729656219482,10.5279140472412,-0.419209986925125,1.44055795669556,1.14329993724823,-1260.30004882812,7.50000047683716,-933.300048828125,2.26693621530964,0.0955316701092502,0.111742312608544,ST
6.56666666666667,0.717771589756012,-1.30694234371185,10.278489112854,0.0762199983000755,0.449698001146317,0.182927995920181,-1255.5,13.5000009536743,-926.100036621094,2.26563729675132,0.0738270053804103,0.123421264641952,ST
6.6,0.539524972438812,-0.907981038093567,9.84423732757568,2.12653803825378,0.137196004390717,0.442075997591019,-1255.5,6.90000009536743,-938.100036621094,2.26618772608276,0.0581580922153076,0.0953810588654191,ST
6.63333333333333,0.805100440979004,-0.742893576622009,9.71503829956055,2.53812599182129,-0.518296003341675,0.160062000155449,-1257.90002441406,3.90000009536743,-930.900024414062,2.26659744858,0.0782519294471128,0.0766494929357983,ST
6.66666666666667,1.10477006435394,-0.293090045452118,9.22097206115723,2.46952795982361,-1.86738991737366,0.0609759986400604,-1272.30004882812,5.70000028610229,-930.900024414062,2.26952893050029,0.115030831153976,0.0357698682556071,ST
6.7,1.31232571601868,0.377428203821182,8.65333461761475,1.98934197425842,-2.37806391716003,-0.243903994560242,-1250.70007324219,3.90000009536743,-928.500061035156,2.27810007367962,0.146624105981039,-0.0303382300682441,ST
6.73333333333333,1.10058307647705,0.387596637010574,9.18867206573486,1.59299790859222,-1.12043392658234,-0.213415995240211,-1250.70007324219,8.70000076293945,-930.900024414062,2.27979750117471,0.1258990132595,-0.0422205134317238,ST
6.76666666666667,1.43434679508209,0.318212062120438,9.80954456329346,1.19665396213531,-0.525918006896973,-0.411587983369827,-1253.10009765625,2.70000004768372,-926.100036621094,2.2796060567364,0.141954937930692,-0.0361567855730105,ST
6.8,1.17893981933594,0.477916240692139,9.50150108337402,0.632625997066498,-0.579271972179413,-1.22714197635651,-1262.70007324219,2.70000004768372,-916.500061035156,2.2841355697368,0.127379624532778,-0.0488895573231296,ST
6.83333333333333,0.732127010822296,0.60651695728302,9.90046215057373,0.457319974899292,-0.0457319989800453,-1.2347639799118,-1267.5,6.90000009536743,-926.100036621094,2.2879776981391,0.0844758631678736,-0.0595253855605497,ST
6.86666666666667,1.24892246723175,0.0831418707966805,9.34897422790527,-0.480185985565186,-0.419209986925125,-0.922261953353882,-1277.10009765625,0.900000035762787,-933.300048828125,2.28599252216906,0.123622340503441,-0.0186258455039608,ST
6.9,1.21662282943726,0.0263182912021875,9.66240119934082,-1.02897000312805,-0.472563982009888,-0.87652999162674,-1262.70007324219,8.70000076293945,-926.100036621094,2.28656626663165,0.125573991607994,-0.0046491511944754,ST
6.93333333333333,0.977963745594025,0.0634031519293785,9.81911468505859,-0.640248000621796,-0.396344006061554,-0.243903994560242,-1255.5,9.90000057220459,-930.900024414062,2.28743494344872,0.104256467663965,-0.0052645774507304,ST
6.96666666666667,1.33744764328003,-0.229088753461838,9.19704627990723,-0.754577994346619,-0.190549999475479,0.0914639979600906,-1260.30004882812,7.50000047683716,-921.300048828125,2.28426720496578,0.137916280467045,0.0209332061407596,ST
7.0,0.909177303314209,-0.174657747149467,9.84543323516846,-0.289635986089706,0.480185985565186,0.213415995240211,-1269.90002441406,5.70000028610229,-921.300048828125,2.2841326487067,0.100634658150635,0.018817590097095,ST
7.03333333333333,0.616685390472412,-0.418101936578751,9.7479362487793,0.0990860015153885,1.22714197635651,0.777444005012512,-1243.5,3.30000019073486,-914.100036621094,2.28057651891544,0.0676010749371543,0.0387829897710688,ST
7.06666666666667,0.185424327850342,-0.123217448592186,9.77245998382568,0.0457319989800453,1.39482593536377,1.30336201190948,-1257.90002441406,3.90000009536743,-935.700012207031,2.27865042212492,0.0267830646332391,0.0178862416098582,ST
7.1,1.09878861904144,-0.896018147468567,9.31846904754639,-0.762199997901917,1.18140995502472,4.03203773498535,-1257.90002441406,1.5,-933.300048828125,2.26426650211054,0.100548263863474,0.0850563331439338,ST
7.13333333333333,0.55567479133606,-0.462962657213211,10.4322118759155,-0.731711983680725,1.53964400291443,2.69818782806396,-1255.5,8.10000038146973,-926.100036621094,2.26097709475189,0.0603334637092409,0.0538218898895752,ST
7.16666666666667,0.607713282108307,-0.519786238670349,10.2533664703369,-0.0838419944047928,1.18140995502472,2.0655620098114,-1255.5,3.30000019073486,-930.900024414062,2.25651949546765,0.057573098975469,0.0515698876238473,ST
7.2,0.653172135353088,-0.773398876190186,10.0314559936523,-0.160062000155449,0.152439996600151,1.12043392658234,-1248.30004882812,2.10000014305115,-935.700012207031,2.25275054334759,0.063056715518847,0.0721481488940576,ST
7.23333333333333,0.61249840259552,-0.757248997688293,9.47039794921875,0.0533539988100529,-0.746955990791321,0.457319974899292,-1257.90002441406,2.70000004768372,-940.500061035156,2.25117622419138,0.0651033585798648,0.0782218422258974,ST
7.26666666666667,0.800315320491791,-0.712388277053833,8.55703353881836,-0.121951997280121,-0.716467976570129,-0.0304879993200302,-1253.10009765625,6.90000009536743,-935.700012207031,2.25080172852055,0.0896040264003331,0.0824807050491922,ST
7.3,0.391783654689789,-1.06110560894012,9.59959697723389,-0.228659987449646,-0.350611984729767,-0.0533539988100529,-1257.90002441406,6.30000019073486,-928.500061035156,2.24929901304258,0.0503617711690426,0.105189343989543,ST
7.33333333333333,0.662742435932159,-0.764426708221436,9.76348781585693,0.78506600856781,-1.28049600124359,0.190549999475479,-1257.90002441406,0.900000035762787,-933.300048828125,2.2497955322714,0.0660872192354777,0.0821894707456649,ST
7.36666666666667,0.773398876190186,-0.41152235865593,9.82868576049805,1.98934197425842,-1.56251001358032,-0.243903994560242,-1260.30004882812,5.10000038146973,-926.100036621094,2.25243224656589,0.0786757586301053,0.0457138450818946,ST
7.4,0.919943869113922,-0.178246602416039,10.3867530822754,1.99696397781372,-1.50915598869324,-1.10518991947174,-1257.90002441406,10.5,-928.500061035156,2.25680618823084,0.0888141091970513,0.0192674774991214,ST
7.43333333333333,1.81177508831024,-0.611302137374878,10.0793075561523,0.830797970294952,-1.88263392448425,-1.90549993515015,-1257.90002441406,9.30000019073486,-940.500061035156,2.25684021589439,0.16236660214738,0.0506476760671186,ST
7.46666666666667,1.76511991024017,-0.253014475107193,9.83945178985596,0.609759986400604,-1.57775402069092,-3.94819593429565,-1265.10009765625,4.5,-923.700012207031,2.26970614329607,0.177221766379444,0.0283290732547564,ST
7.5,1.1095552444458,0.0281127188354731,9.13125038146973,1.21951997280121,-0.655492007732391,-2.68294382095337,-1257.90002441406,3.90000009536743,-914.100036621094,2.2800335192399,0.131965469305309,0.0001844308112397,ST
7.53333333333333,0.675901532173157,0.232079476118088,9.17072772979736,0.846041977405548,0.198172003030777,-1.43293595314026,-1257.90002441406,0.300000011920929,-926.100036621094,2.28581162827238,0.0830413748904131,-0.0224743729649147,ST
7.56666666666667,1.13049018383026,0.416307508945465,9.75750637054443,0.411587983369827,-0.167683988809586,-0.114329993724823,-1265.10009765625,-3.30000019073486,-918.900024414062,2.2876872930315,0.110077434334315,-0.039860577053598,ST
7.6,1.81715834140778,0.251818180084229,9.4554443359375,-0.198172003030777,-0.769822001457214,0.320124000310898,-1267.5,6.30000019073486,-923.700012207031,2.2855370556914,0.174809770299687,-0.0289813465162634,ST
7.63333333333333,1.70769822597504,0.0592161528766155,9.31009578704834,-0.632625997066498,-0.228659987449646,-0.259148001670837,-1262.70007324219,9.30000019073486,-916.500061035156,2.28301164178744,0.180556077440127,-0.009563124086854,ST
7.66666666666667,1.37393438816071,-0.0059814294800162,9.69888782501221,-0.739333987236023,0.731711983680725,-0.0228659994900227,-1272.30004882812,4.5,-926.100036621094,2.28182603132481,0.147248417518606,-0.0002631575155775,ST
7.7,1.25610029697418,-0.363072782754898,9.50030517578125,-1.14329993724823,0.556405961513519,0.213415995240211,-1269.90002441406,8.10000038146973,-921.300048828125,2.27706598217059,0.133408250725693,0.0330246168958237,ST
7.73333333333333,0.84158718585968,-0.385802209377289,9.58404445648193,-1.59299790859222,0.3125019967556,0.182927995920181,-1265.10009765625,7.50000047683716,-930.900024414062,2.27614346933486,0.0947534150647658,0.041369899284649,ST
7.76666666666667,0.890634894371033,-0.844577848911285,9.40579795837402,-1.87501192092896,0.571649968624115,0.640248000621796,-1265.10009765625,-0.900000035762787,-928.500061035156,2.27104817276394,0.0932747219361347,0.0842736151863792,ST
7.8,0.817063271999359,-1.0575168132782,9.7419548034668,-2.0731840133667,-0.0914639979600906,0.411587983369827,-1265.10009765625,1.5,-938.100036621094,2.2685527486281,0.085294693028119,0.106266512546153,ST
7.83333333333333,0.903794050216675,-1.20107114315033,10.170823097229,-1.72257196903229,-1.12805593013763,0.495429992675781,-1260.30004882812,2.10000014305115,-926.100036621094,2.26647947786019,0.0889549101438436,0.117749537380904,ST
7.86666666666667,1.26028728485107,-1.26925933361053,9.74434757232666,-0.960371971130371,-2.24086785316467,0.221037998795509,-1257.90002441406,7.50000047683716,-930.900024414062,2.26425522574525,0.124699320699122,0.129166837540187,ST
7.9,1.18910825252533,-1.03179657459259,9.51824951171875,-0.480185985565186,-2.15702605247498,0.426831990480423,-1267.5,12.9000005722046,-926.100036621094,2.26485196554754,0.126716832677069,0.113036049173089,ST
7.93333333333333,1.44511342048645,-0.793137550354004,9.21857929229736,0.0457319989800453,-1.265251994133,0.777444005012512,-1267.5,8.70000076293945,-906.900024414062,2.26576533820505,0.150904089729301,0.0914460635927395,ST
7.96666666666667,1.23636150360107,-0.501243829727173,9.83406829833984,0.442075997591019,-0.564027965068817,0.571649968624115,-1265.10009765625,8.70000076293945,-904.500061035156,2.268885441292,0.13004407051233,0.0571845040174152,ST
8.0,1.85843026638031,-0.409129798412323,9.95848274230957,0.899396002292633,-0.632625997066498,0.396344006061554,-1277.10009765625,4.5,-926.100036621094,2.26972163962159,0.174253222927222,0.0431811602484036,ST
8.03333333333333,1.86082279682159,-0.337950766086578,10.3167695999146,0.937505960464478,-0.518296003341675,-0.830797970294952,-1267.5,4.5,-916.500061035156,2.2729061900527,0.178295058399442,0.0333413543928502,ST
8.06666666666667,2.16467952728271,-0.506028950214386,9.38306903839111,1.07470202445984,-0.434453994035721,-1.40244793891907,-1272.30004882812,8.70000076293945,-923.700012207031,2.27273600822622,0.217984534181162,0.0480189884661468,ST
8.1,1.34103655815125,-0.436046212911606,9.59540939331055,0.990859985351562,0.67835795879364,-1.76830399036407,-1267.5,2.10000014305115,-909.300048828125,2.27710454967054,0.153871710627408,0.0441248351538189,ST
8.13333333333333,1.35898077487946,-0.172863319516182,9.46800518035889,1.08994603157043,0.121951997280121,-1.60061991214752,-1269.90002441406,8.10000038146973,-923.700012207031,2.28373190723678,0.144725158560206,0.0216127695680162,ST
8.16666666666667,1.50253510475159,0.0927121639251709,9.01521110534668,1.07470202445984,-0.525918006896973,-1.27287399768829,-1274.70007324219,7.50000047683716,-921.300048828125,2.29067702543928,0.162265299144452,-0.006398920637006,ST
8.2,1.33625137805939,0.35410064458847,9.24788856506348,0.754577994346619,-0.289635986089706,-1.63110792636871,-1281.90002441406,3.90000009536743,-914.100036621094,2.29875880918393,0.146935770048742,-0.0343932706083184,ST
8.23333333333333,1.4421226978302,0.190209463238716,9.64146614074707,0.121951997280121,-0.175305992364883,-2.24848985671997,-1262.70007324219,1.5,-928.500061035156,2.30222122478098,0.148303615998753,-0.0233204991340544,ST
8.26666666666667,1.37513065338135,0.0496458671987057,9.74973011016846,-0.198172003030777,-0.381099998950958,-3.17075204849243,-1262.70007324219,8.70000076293945,-933.300048828125,2.30747216690889,0.142240858375859,-0.0091304604456063,ST
8.3,1.52885341644287,-0.305651068687439,9.6821403503418,-0.579271972179413,-0.556405961513519,-3.51374197006226,-1262.70007324219,-3.30000019073486,-914.100036621094,2.31102938637502,0.1546906193706,0.0238849213741725,ST
8.33333333333333,1.54261076450348,-0.274547636508942,9.28377723693848,-0.533540010452271,-0.647870004177094,-3.09453201293945,-1262.70007324219,-1.5,-926.100036621094,2.31790871711706,0.163867333582009,0.0285981861949016,ST
8.36666666666667,1.90747797489166,-0.642405569553375,9.06066989898682,-0.899396002292633,-0.518296003341675,-2.59148001670837,-1269.90002441406,0.300000011920929,-918.900024414062,2.31792104635703,0.199220233437739,0.0627974586482961,ST
8.4,1.67121148109436,-0.860727727413177,9.15457820892334,-1.06708002090454,0.129574000835419,-1.69970595836639,-1265.10009765625,-0.300000011920929,-923.700012207031,2.31734121687273,0.183731723706204,0.0885598398391496,ST
8.43333333333333,1.23337078094482,-1.04136693477631,9.36871337890625,-0.716467976570129,0.846041977405548,-0.548784017562866,-1265.10009765625,-3.30000019073486,-918.900024414062,2.31604494149817,0.139825364702918,0.107135275004209,ST
8.46666666666667,1.03418922424316,-0.922336459159851,9.74374866485596,-0.693601965904236,0.815553963184357,0.320124000310898,-1253.10009765625,-0.300000011920929,-916.500061035156,2.31685801880909,0.111063030735784,0.0979493435234306,ST
8.5,1.20286548137665,-0.643601834774017,10.0499982833862,-0.266770005226135,0.381099998950958,1.08232402801514,-1257.90002441406,5.70000028610229,-928.500061035156,2.31755555749597,0.116666904892824,0.0713503327753225,ST
8.53333333333333,1.22260427474976,-0.792539417743683,9.97881889343262,0.0152439996600151,0.510673999786377,1.12043392658234,-1272.30004882812,5.10000038146973,-916.500061035156,2.31431889766293,0.119725999994663,0.0778201004388335,ST
8.56666666666667,1.17056584358215,-1.09460163116455,10.4962129592896,-0.25152599811554,0.358233988285065,0.304879993200302,-1262.70007324219,0.300000011920929,-923.700012207031,2.31125886571815,0.111688869482564,0.0993636795550978,ST
8.6,1.94336652755737,-0.851755619049072,9.92319202423096,-0.0990860015153885,-1.02897000312805,0.274392008781433,-1262.70007324219,8.70000076293945,-926.100036621094,2.31200188601016,0.179656689874849,0.0883526273699585,ST
8.63333333333333,2.09828543663025,-0.747080564498901,9.14321327209473,0.510673999786377,-0.830797970294952,0.655492007732391,-1272.30004882812,-2.10000014305115,-921.300048828125,2.3112672809496,0.217373382236874,0.0823284731627587,ST
8.66666666666667,1.99301242828369,-0.963010191917419,9.32684326171875,0.434453994035721,0.739333987236023,1.39482593536377,-1269.90002441406,6.30000019073486,-918.900024414062,2.30406876845786,0.209420538076538,0.0994326195013072,ST
8.7,1.67121148109436,-0.718369722366333,9.84722805023193,0.685979962348938,1.04421401023865,1.53202199935913,-1255.5,4.5,-930.900024414062,2.30464405640919,0.173947161201492,0.0772580978202468,ST
8.73333333333333,1.19150078296661,-0.0986935868859291,9.31009578704834,1.2500079870224,0.945127964019775,1.80641400814056,-1279.5,3.90000009536743,-923.700012207031,2.30862361606425,0.135319997401504,0.0225988697632843,ST
8.76666666666667,1.49655365943909,-0.103478737175465,9.46860313415527,1.03659200668335,1.15854394435883,1.81403601169586,-1267.5,4.5,-935.700012207031,2.30533501480663,0.151432667106717,0.011769974734406,ST
8.8,1.63173401355743,-0.130395174026489,9.07263278961182,0.548784017562866,0.769822001457214,1.2500079870224,-1257.90002441406,8.10000038146973,-930.900024414062,2.30205415504087,0.171497474674492,0.0133672043849156,ST
8.83333333333333,1.40743041038513,-0.461766362190247,9.26463603973389,-0.0533539988100529,0.556405961513519,0.640248000621796,-1267.5,4.5,-935.700012207031,2.29590121842757,0.154009367024493,0.042695408462876,ST
8.86666666666667,1.71308147907257,-0.767417430877686,9.4434814453125,-0.228659987449646,-0.190549999475479,1.03659200668335,-1260.30004882812,3.90000009536743,-938.100036621094,2.28821840591442,0.174632216062805,0.0747913567145509,ST
8.9,1.2578946352005,-0.690257012844086,9.69529914855957,0.617381989955902,-0.282013982534409,1.56251001358032,-1257.90002441406,5.70000028610229,-923.700012207031,2.28494788436442,0.138187140518409,0.0712995740658093,ST
8.93333333333333,1.02103006839752,-0.638218522071838,10.2731056213379,0.952749967575073,0.426831990480423,2.13416004180908,-1255.5,-3.30000019073486,-918.900024414062,2.28089644572616,0.106003199629593,0.062924108448472,ST
8.96666666666667,0.680088579654694,-0.355895072221756,10.6266078948975,1.15092194080353,0.274392008781433,2.76678586006165,-1257.90002441406,0.300000011920929,-926.100036621094,2.27655378274277,0.0718033594428547,0.0381149682777139,ST
9.0,1.4361412525177,-0.385802209377289,9.87234973907471,0.685979962348938,-0.342989981174469,2.66007804870605,-1257.90002441406,8.70000076293945,-930.900024414062,2.27024790496048,0.130060131325117,0.0383266235099038,ST
9.03333333333333,1.32548487186432,-0.397765070199966,9.62651252746582,0.533540010452271,0.274392008781433,1.48628997802734,-1274.70007324219,3.90000009536743,-930.900024414062,2.26646658302633,0.134910806448582,0.040229136010335,ST
9.06666666666667,1.79981219768524,-0.637620389461517,8.77415943145752,0.106707997620106,0.152439996600151,0.807931959629059,-1267.5,-2.10000014305115,-921.300048828125,2.26046388402707,0.188048251188487,0.066009704822713,ST
9.1,1.04734838008881,-0.429466664791107,8.50977993011475,-0.0381099991500378,0.0914639979600906,0.190549999475479,-1267.5,3.90000009536743,-933.300048828125,2.26206373731744,0.134641392722173,0.0534612120201882,ST
9.13333333333333,0.688462555408478,-0.416905641555786,9.08997917175293,0.144817993044853,0.533540010452271,0.92988395690918,-1265.10009765625,0.900000035762787,-928.500061035156,2.26053117599201,0.0852404475690206,0.0471178463748819,ST
9.16666666666667,0.87388688325882,-0.470140367746353,9.89986419677734,0.571649968624115,0.426831990480423,1.60824191570282,-1255.5,2.10000014305115,-926.100036621094,2.25680500359322,0.0867014891535178,0.0467804331642269,ST
9.2,1.45109486579895,-0.189013183116913,10.0840921401978,0.846041977405548,-0.304879993200302,0.670735955238342,-1265.10009765625,7.50000047683716,-933.300048828125,2.25758935964134,0.131967524585716,0.0233621552971335,ST
9.23333333333333,1.80758810043335,-0.349315494298935,9.66060733795166,0.78506600856781,-0.746955990791321,0.198172003030777,-1257.90002441406,6.30000019073486,-916.500061035156,2.25541584981335,0.175224553034448,0.0325049784405546,ST
9.26666666666667,1.25011885166168,-0.221911042928696,10.1151962280273,0.320124000310898,-0.182927995920181,-0.967993974685669,-1257.90002441406,3.30000019073486,-916.500061035156,2.25889286832889,0.133768336993874,0.0234108438172889,ST
9.3,1.01325416564941,-0.448009073734283,9.61096096038818,0.0304879993200302,0.640248000621796,-0.472563982009888,-1248.30004882812,2.70000004768372,-916.500061035156,2.25780404152818,0.108560677037709,0.0428124346226973,ST
9.33333333333333,0.644798099994659,-0.437840640544891,9.45723819732666,-0.129574000835419,0.846041977405548,0.365855991840363,-1243.5,6.30000019073486,-930.900024414062,2.25680587404731,0.074975053126227,0.0457930154315053,ST
9.36666666666667,0.982748925685883,-0.381615221500397,9.27839374542236,-0.243903994560242,0.289635986089706,0.739333987236023,-1250.70007324219,5.10000038146973,-935.700012207031,2.2554756379843,0.0988494227187712,0.0424863977731135,ST
9.4,1.27284824848175,-0.684275567531586,8.86986255645752,-0.152439996600151,0.0838419944047928,0.0762199983000755,-1248.30004882812,1.5,-930.900024414062,2.2519198673592,0.135172425339304,0.0717679459385153,ST
9.43333333333333,0.788950562477112,-0.899008870124817,9.99796009063721,-0.266770005226135,0.503051996231079,-0.3125019967556,-1269.90002441406,6.90000009536743,-938.100036621094,2.25116880158734,0.0878864464010797,0.0868328261885071,ST
9.46666666666667,0.522178828716278,-0.977365612983704,10.5518398284912,-0.228659987449646,-0.106707997620106,-0.0685980021953583,-1250.70007324219,4.5,-928.500061035156,2.25099921895453,0.0571824345675087,0.0915656830342423,ST
9.5,0.674705266952515,-0.729136288166046,9.73896408081055,0.114329993724823,-1.63872992992401,1.12805593013763,-1255.5,9.30000019073486,-933.300048828125,2.2486268983099,0.0693863139922283,0.0773350578460397,ST
9.53333333333333,0.893027484416962,-0.611302137374878,9.52363204956055,0.510673999786377,-1.00610399246216,1.6768399477005,-1253.10009765625,2.10000014305115,-928.500061035156,2.24540614474927,0.0897228779628573,0.0662608942578587,ST
9.56666666666667,1.31053125858307,-0.569432079792023,8.59352016448975,0.67835795879364,-0.495429992675781,1.6920839548111,-1250.70007324219,5.10000038146973,-933.300048828125,2.24112210703564,0.140614502051745,0.0655231348460628,ST
9.6,1.09639608860016,-0.650779545307159,9.17730808258057,0.381099998950958,-0.0152439996600151,1.35671591758728,-1255.5,-0.300000011920929,-930.900024414062,2.23739647989354,0.122935313732031,0.0694494496176951,ST
9.63333333333333,1.09400343894958,-0.640611112117767,9.97822093963623,0.457319974899292,-0.533540010452271,0.87652999162674,-1255.5,5.70000028610229,-918.900024414062,2.23574786736532,0.112452837276448,0.0646975987079736,ST
9.66666666666667,1.11852741241455,-0.502440094947815,9.73358058929443,0.571649968624115,-0.716467976570129,0.701223969459534,-1255.5,5.70000028610229,-921.300048828125,2.23516456232776,0.114839537877169,0.0535395497463559,ST
9.7,1.49775004386902,-0.702817976474762,9.92797660827637,0.0609759986400604,-0.533540010452271,0.891773998737335,-1255.5,2.10000014305115,-916.500061035156,2.23126943800553,0.143073254400505,0.0672970851760223,ST
9.73333333333333,1.81955087184906,-0.550889670848846,10.0290632247925,0.198172003030777,-0.884151995182037,0.655492007732391,-1260.30004882812,0.300000011920929,-911.700012207031,2.23113597692647,0.173546977165472,0.0571313838944636,ST
9.76666666666667,1.96549785137177,-0.605320692062378,9.55234336853027,0.25152599811554,-0.480185985565186,0.815553963184357,-1250.70007324219,7.50000047683716,-933.300048828125,2.22801526525506,0.198294802337679,0.0621192370894296,ST
9.8,1.65745413303375,-0.656760990619659,9.76707649230957,0.0228659994900227,0.480185985565186,0.807931959629059,-1255.5,8.70000076293945,-923.700012207031,2.22547740742723,0.173143559230228,0.0663033411839536,ST
9.83333333333333,1.33684957027435,-0.348717361688614,9.73118782043457,0.381099998950958,0.342989981174469,0.739333987236023,-1262.70007324219,3.90000009536743,-918.900024414062,2.22760113339263,0.143315520951816,0.0415623217370068,ST
9.86666666666667,1.2118376493454,-0.134582161903381,9.497314453125,0.762199997901917,0.746955990791321,1.31098401546478,-1260.30004882812,-3.90000009536743,-916.500061035156,2.22750639833558,0.129125426185888,0.018860696750181,ST
9.9,1.05990934371948,0.0245238617062569,9.55712795257568,0.632625997066498,0.891773998737335,0.945127964019775,-1250.70007324219,4.5,-916.500061035156,2.2273439204521,0.112965496988535,0.0010189186273545,ST
9.93333333333333,1.05452609062195,-0.0651975870132446,9.59959697723389,0.259148001670837,0.868907988071442,0.0990860015153885,-1253.10009765625,-2.10000014305115,-921.300048828125,2.22652544707536,0.108692096117481,0.0055169356669277,ST
9.96666666666667,0.71059387922287,-0.399559497833252,9.27659893035889,0.236281991004944,0.945127964019775,-0.632625997066498,-1255.5,5.70000028610229,-942.900024414062,2.22517844500565,0.0808318953982576,0.0359382584706339,ST
10.0,0.309838056564331,-0.502440094947815,9.52243614196777,-0.167683988809586,1.08232402801514,-1.31098401546478,-1238.70007324219,8.70000076293945,-933.300048828125,2.22749714903681,0.040806544881052,0.0494722673335996,ST
10.0333333333333,0.412718653678894,-0.427672237157822,9.76348781585693,-0.121951997280121,0.190549999475479,-0.632625997066498,-1253.10009765625,3.30000019073486,-935.700012207031,2.2291660466901,0.0416999488514988,0.0450564718461118,ST
10.0666666666667,0.516197383403778,-0.410326063632965,9.61275577545166,0.129574000835419,-0.564027965068817,-0.0533539988100529,-1248.30004882812,8.10000038146973,-933.300048828125,2.22931578106953,0.0519896242021245,0.0429605418058694,ST
10.1,0.650779545307159,-0.391783654689789,9.85261058807373,-0.0685980021953583,-0.419209986925125,0.106707997620106,-1257.90002441406,2.10000014305115,-928.500061035156,2.22918177910797,0.063677446258875,0.0404984054611503,ST
10.1333333333333,1.38470101356506,-0.451597929000854,9.28018856048584,-0.266770005226135,-0.87652999162674,-0.243903994560242,-1250.70007324219,3.90000009536743,-942.900024414062,2.22904882693996,0.133186025003799,0.0474242239583832,ST
10.1666666666667,0.929514169692993,-0.595152258872986,9.2167854309082,-0.243903994560242,-0.365855991840363,-0.899396002292633,-1231.5,4.5,-923.700012207031,2.22958993328451,0.10642979054554,0.0618391472272002,ST
10.2,0.407335370779037,-0.668125689029694,10.0434188842773,-0.144817993044853,0.358233988285065,-0.952749967575073,-1248.30004882812,-2.70000004768372,-942.900024414062,2.23155137566213,0.0533380020148545,0.0656159489166394,ST
10.2333333333333,0.573020994663239,-0.810483753681183,10.3496675491333,0.0076219998300075,-0.327746003866196,-0.663114011287689,-1253.10009765625,12.3000001907349,-935.700012207031,2.23262586957438,0.0554091821322044,0.076112967557345,ST
10.2666666666667,0.850559294223785,-0.913962483406067,9.49013614654541,0.381099998950958,-0.518296003341675,-0.144817993044853,-1250.70007324219,2.70000004768372,-928.500061035156,2.23170975309859,0.0837423871212603,0.0918945730280435,ST
10.3,1.11613476276398,-0.84158718585968,9.51705265045166,0.457319974899292,-0.609759986400604,0.152439996600151,-1253.10009765625,4.5,-935.700012207031,2.23147860795731,0.110560631840367,0.088340501860379,ST
10.3333333333333,1.22918379306793,-0.712388277053833,8.96377086639404,0.594515979290009,-0.503051996231079,0.914639949798584,-1255.5,8.70000076293945,-930.900024414062,2.23008162248526,0.131351583950412,0.0804707036221553,ST
10.3666666666667,0.875083148479462,-0.83859646320343,9.30710506439209,0.487807989120483,0.0533539988100529,1.44817996025085,-1255.5,-0.900000035762787,-930.900024414062,2.22572804879168,0.100327600674492,0.0876259497683013,ST
10.4,0.910971760749817,-0.756650865077972,9.43690204620361,0.37347799539566,-0.114329993724823,1.88263392448425,-1253.10009765625,5.10000038146973,-921.300048828125,2.22169444759502,0.0966527492781148,0.0810973028179318,ST
10.4333333333333,0.582591235637665,-0.860129594802856,9.65701866149902,0.350611984729767,-0.320124000310898,1.93598794937134,-1255.5,8.10000038146973,-928.500061035156,2.2166506802181,0.0676139210872766,0.0870053297037176,ST
10.4666666666667,0.745884299278259,-0.834409415721893,10.2754983901978,0.388722002506256,-0.0838419944047928,1.89025592803955,-1255.5,4.5,-930.900024414062,2.21234175812373,0.0712959647177796,0.081725980201477,ST
10.5,1.05392789840698,-0.709995687007904,9.92498588562012,0.564027965068817,-0.701223969459534,1.85214591026306,-1255.5,0.900000035762787,-930.900024414062,2.20861528492941,0.0994080280997503,0.0729511206975964,ST
10.5333333333333,1.15680849552155,-0.56165623664856,9.89208889007568,0.579271972179413,-0.609759986400604,1.42531394958496,-1250.70007324219,5.70000028610229,-933.300048828125,2.20656221589011,0.11356309941131,0.0594081156209883,ST
10.5666666666667,1.41759884357452,-0.346324771642685,10.2378149032593,0.640248000621796,-0.579271972179413,1.2576299905777,-1260.30004882812,2.70000004768372,-923.700012207031,2.20593348564927,0.133995030129102,0.0377134894439263,ST
10.6,1.48758161067963,-0.18183545768261,9.22396278381348,1.04421401023865,-0.739333987236023,2.10367202758789,-1257.90002441406,3.30000019073486,-928.500061035156,2.20296021019089,0.155607219959746,0.0223356844572638,ST
10.6333333333333,1.7065018415451,-0.0592161528766155,9.50628662109375,0.586893975734711,-0.182927995920181,2.14940404891968,-1253.10009765625,8.10000038146973,-921.300048828125,2.19975769214198,0.173915153619451,0.0087946544769716,ST
10.6666666666667,1.23875403404236,-0.0221312902867794,9.69948673248291,0.457319974899292,-0.0533539988100529,1.51677799224854,-1255.5,9.30000019073486,-933.300048828125,2.19670037815302,0.134957066150025,0.0030338660318815,ST
10.7,1.30514800548553,-0.211144462227821,10.0619611740112,0.411587983369827,-0.160062000155449,0.746955990791321,-1250.70007324219,2.70000004768372,-926.100036621094,2.19286335372018,0.130252579740191,0.0173332443418283,ST
10.7333333333333,1.3398402929306,-0.0047851437702775,9.81074142456055,0.46494197845459,-0.868907988071442,-0.731711983680725,-1250.70007324219,0.300000011920929,-928.500061035156,2.19640700138874,0.136007746781196,0.002690185010094,ST
10.7666666666667,1.2118376493454,0.080151155591011,9.21199989318848,0.510673999786377,-0.670735955238342,-1.04421401023865,-1257.90002441406,3.90000009536743,-940.500061035156,2.20006407722741,0.132727294672617,-0.0074614287461534,ST
10.8,1.25370764732361,0.152526453137398,9.96386528015137,0.365855991840363,-0.365855991840363,-0.6250039935112,-1255.5,6.30000019073486,-928.500061035156,2.2022841424084,0.127179645547722,-0.0143505534436762,ST
10.8333333333333,1.66343557834625,0.111254595220089,9.1569709777832,0.365855991840363,-0.335367977619171,-0.365855991840363,-1257.90002441406,3.30000019073486,-928.500061035156,2.20283219490791,0.169558951665006,-0.0131852743807691,ST
10.8666666666667,1.35957896709442,0.111254595220089,9.37888145446777,-0.0762199983000755,0.320124000310898,-0.228659987449646,-1255.5,0.300000011920929,-935.700012207031,2.20322213174284,0.148057875156163,-0.0120375539952994,ST
10.9,0.690855145454407,-0.0065795728005468,9.97403430938721,-0.289635986089706,0.548784017562866,-0.266770005226135,-1248.30004882812,3.30000019073486,-923.700012207031,2.20270606121638,0.0816069687581307,-0.001070718719482,ST
10.9333333333333,0.763230443000793,-0.299071490764618,9.99317455291748,-0.350611984729767,0.457319974899292,-0.518296003341675,-1265.10009765625,7.50000047683716,-928.500061035156,2.20198174714797,0.0766652002400067,0.0241059532745891,ST
10.9666666666667,0.945664048194885,-0.341539651155472,9.63369083404541,-0.556405961513519,-0.160062000155449,-0.472563982009888,-1257.90002441406,-2.70000004768372,-923.700012207031,2.20233346142248,0.0937738774571568,0.0338690390402782,ST
11.0,1.22499680519104,-0.55866551399231,9.47578048706055,-0.701223969459534,-0.556405961513519,-0.769822001457214,-1257.90002441406,-0.300000011920929,-923.700012207031,2.20198806420252,0.122622497699482,0.0549987096608669,ST
11.0333333333333,1.01205790042877,-0.617881715297699,9.19345760345459,-0.403965979814529,-0.487807989120483,-0.823175966739655,-1255.5,4.5,-921.300048828125,2.20280665248806,0.112531919073325,0.0653964131247282,ST
11.0666666666667,0.849961161613464,-0.665134966373444,8.86447906494141,-0.518296003341675,0.487807989120483,0.670735955238342,-1260.30004882812,-2.10000014305115,-918.900024414062,2.20043810192901,0.0974361289756124,0.0741505287188244,ST
11.1,0.768015563488007,-0.547300815582275,9.35435771942139,-0.0152439996600151,0.655492007732391,1.6615959405899,-1260.30004882812,2.10000014305115,-928.500061035156,2.19756201127548,0.0832983448566179,0.0613018103210887,ST
11.1333333333333,0.622666835784912,-0.56464695930481,9.72281360626221,0.144817993044853,0.78506600856781,1.90549993515015,-1265.10009765625,5.70000028610229,-935.700012207031,2.19347239063652,0.0665145589471546,0.0586580187395577,ST
11.1666666666667,0.285912334918976,-0.602329969406128,10.1558694839478,0.0533539988100529,1.02134799957275,1.63110792636871,-1257.90002441406,0.300000011920929,-928.500061035156,2.18983235570621,0.0342801520283765,0.0591496131294612,ST
11.2,1.00966536998749,-0.748875021934509,10.6050748825073,-0.0076219998300075,-0.579271972179413,0.800309956073761,-1262.70007324219,3.30000019073486,-930.900024414062,2.18723560752388,0.0846495953161197,0.0685615229253442,ST
11.2333333333333,1.18611752986908,-0.496458679437637,9.48176193237305,0.266770005226135,-1.22714197635651,0.579271972179413,-1257.90002441406,3.90000009536743,-940.500061035156,2.18696376072621,0.118913314976817,0.0549445651223151,ST
11.2666666666667,1.28660547733307,-0.430662930011749,9.05109977722168,0.0609759986400604,0.0076219998300075,1.05183601379395,-1253.10009765625,3.90000009536743,-938.100036621094,2.18503507841938,0.137470562472695,0.0488298497020159,ST
11.3,0.959421336650848,-0.439036935567856,9.18986892700195,0.0152439996600151,0.685979962348938,1.40244793891907,-1250.70007324219,0.900000035762787,-933.300048828125,2.18189202699707,0.109207079161701,0.0481554567792694,ST
11.3333333333333,0.684275567531586,-0.180639177560806,9.97164154052734,0.129574000835419,0.46494197845459,2.30184388160706,-1253.10009765625,12.9000005722046,-933.300048828125,2.17856828823773,0.0750012169553449,0.0235584771860443,ST
11.3666666666667,1.24952065944672,-0.378026366233826,9.90225696563721,-0.0533539988100529,-0.37347799539566,2.57623600959778,-1255.5,6.30000019073486,-930.900024414062,2.17149493841032,0.11567858209339,0.0356477226101805,ST
11.4,1.32069969177246,-0.495860517024994,9.38665771484375,-0.403965979814529,0.3125019967556,0.990859985351562,-1253.10009765625,7.50000047683716,-928.500061035156,2.16748954358319,0.134550494880367,0.0502684642187789,ST
11.4333333333333,0.899008870124817,-0.506028950214386,10.0093240737915,-0.0228659994900227,1.18903195858002,0.640248000621796,-1257.90002441406,2.70000004768372,-933.300048828125,2.16609240736429,0.096292531954297,0.0505926258885533,ST
11.4666666666667,1.08802211284637,-0.66633129119873,9.89747142791748,0.434453994035721,0.937505960464478,-0.693601965904236,-1236.30004882812,8.70000076293945,-926.100036621094,2.16652734129469,0.105773687022162,0.0636841260725356,ST
11.5,1.16936945915222,-0.616685390472412,9.40340518951416,0.403965979814529,-0.0533539988100529,-1.71494996547699,-1243.5,12.3000001907349,-930.900024414062,2.17026417091655,0.120120058216895,0.0642850731838788,ST
11.5333333333333,0.857138872146606,-0.156713455915451,9.31727313995361,-0.114329993724823,-0.846041977405548,-0.99848198890686,-1250.70007324219,12.9000005722046,-923.700012207031,2.17662764882553,0.098702349119728,0.0263817094447746,ST
11.5666666666667,1.57132160663605,-0.30624920129776,9.82808685302734,-0.967993974685669,-2.00458598136902,-0.144817993044853,-1255.5,8.10000038146973,-938.100036621094,2.17646602829679,0.149209417076322,0.0315242387202262,ST
11.6,1.66881883144379,-0.266771763563156,8.47389125823975,-1.38720393180847,-1.36433792114258,-0.0609759986400604,-1250.70007324219,6.30000019073486,-930.900024414062,2.17672181077772,0.187154941826923,0.0334192020749128,ST
11.6333333333333,0.962412059307098,-0.77878212928772,9.68154239654541,-1.02897000312805,1.94360995292664,-0.0228659994900227,-1250.70007324219,8.70000076293945,-930.900024414062,2.17152437211367,0.113922092486844,0.0723347501100726,ST
11.6666666666667,0.452794224023819,-1.30873680114746,11.0524854660034,-0.92988395690918,1.48628997802734,-1.44055795669556,-1245.90002441406,5.70000028610229,-940.500061035156,2.17216676253939,0.05359032275166,0.109859920305481,ST
11.7,0.399559497833252,-1.18133234977722,10.3975191116333,-0.403965979814529,0.0762199983000755,-2.62959003448486,-1236.30004882812,11.7000007629395,-942.900024414062,2.17864631810215,0.0410709688049588,0.112997739066644,ST
11.7333333333333,0.308641761541367,-0.834409415721893,8.74365425109863,-0.228659987449646,-0.144817993044853,-2.30946588516235,-1250.70007324219,7.50000047683716,-938.100036621094,2.18479877961614,0.0367355662738045,0.098533603556692,ST
11.7666666666667,0.458775669336319,-0.971384167671204,8.91651725769043,-0.297257989645004,0.411587983369827,-1.20427596569061,-1243.5,11.1000003814697,-930.900024414062,2.18741242128545,0.0479754975376766,0.106961748099553,ST
11.8,0.800913453102112,-0.906186580657959,9.22097206115723,-0.503051996231079,-0.403965979814529,-0.396344006061554,-1253.10009765625,0.300000011920929,-945.300048828125,2.18877902201125,0.0800304030910823,0.100261041253425,ST
11.8333333333333,0.395970642566681,-0.886447906494141,8.89438629150391,-0.289635986089706,0.533540010452271,0.0609759986400604,-1245.90002441406,11.1000003814697,-935.700012207031,2.1888283781961,0.0502965471782257,0.0999238885261741,ST
11.8666666666667,-0.472532957792282,-0.937888205051422,10.1881694793701,-0.342989981174469,1.54726600646973,0.144817993044853,-1245.90002441406,12.3000001907349,-938.100036621094,2.18891038547111,-0.0300333489678745,0.093844471410953,ST
11.9,-0.0968991592526436,-1.00966536998749,10.9089317321777,-0.602137982845306,-0.190549999475479,0.548784017562866,-1255.5,6.90000009536743,-950.100036621094,2.1875720052239,-0.0129213741055521,0.0934288247719397,ST
11.9333333333333,0.936093747615814,-1.06050753593445,10.2049169540405,-0.434453994035721,-2.33233189582825,0.861285984516144,-1250.70007324219,4.5,-942.900024414062,2.18483947878764,0.073123734603304,0.102190203285241,ST
11.9666666666667,1.0856294631958,-1.22200608253479,8.95121002197266,-0.335367977619171,-1.35671591758728,0.0762199983000755,-1241.10009765625,8.10000038146973,-942.900024414062,2.18174342119868,0.11321528279365,0.130196809208444,ST
12.0,0.994711756706238,-1.6323322057724,9.39323711395264,-0.243903994560242,0.198172003030777,0.510673999786377,-1248.30004882812,9.30000019073486,-933.300048828125,2.17701977750024,0.105458432763355,0.164041625075589,ST
12.0333333333333,0.839194595813751,-1.33146619796753,9.55234336853027,0.182927995920181,-0.0304879993200302,0.297257989645004,-1248.30004882812,12.3000001907349,-938.100036621094,2.17831241386558,0.0905368895039104,0.143420696769422,ST
12.0666666666667,1.36914920806885,-1.25669836997986,9.42972373962402,0.342989981174469,-1.37958192825317,1.10518991947174,-1248.30004882812,8.70000076293945,-933.300048828125,2.17628648133637,0.134071319857758,0.134448651688062,ST
12.1,1.44690787792206,-0.852353751659393,9.12168025970459,0.175305992364883,-1.32622802257538,1.2576299905777,-1253.10009765625,6.90000009536743,-930.900024414062,2.17771851225197,0.154045530192913,0.101073692901127,ST
12.1333333333333,0.955234348773956,-1.10297560691833,8.72750377655029,-0.259148001670837,0.426831990480423,1.37958192825317,-1255.5,5.70000028610229,-926.100036621094,2.17178993955297,0.115524362637967,0.121959420754717,ST
12.1666666666667,0.596348524093628,-1.30634427070618,9.25087928771973,-0.647870004177094,0.960371971130371,1.12043392658234,-1248.30004882812,13.5000009536743,-933.300048828125,2.16819253522353,0.0726486550058228,0.137636336682425,ST
12.2,0.356493204832077,-1.39068245887756,9.34239482879639,-0.419209986925125,0.525918006896973,1.2347639799118,-1231.5,7.50000047683716,-935.700012207031,2.16509708100482,0.0437901499409526,0.14640654840137,ST
12.2333333333333,0.0735715851187706,-1.55876052379608,9.96386528015137,0.190549999475479,0.25152599811554,1.21189796924591,-1250.70007324219,8.10000038146973,-935.700012207031,2.16196583688156,0.0127899231455356,0.153477329916139,ST
12.2666666666667,0.994711756706238,-1.59524726867676,10.1439065933228,0.685979962348938,-0.92988395690918,1.34147191047668,-1241.10009765625,13.5000009536743,-935.700012207031,2.15845830541028,0.0806570773632951,0.154655336154471,ST
12.3,1.41221559047699,-1.40982294082642,9.38665771484375,0.647870004177094,-2.62196803092957,0.868907988071442,-1262.70007324219,12.9000005722046,-926.100036621094,2.15597807959903,0.137606246977975,0.149530175025195,ST
12.3333333333333,0.768613696098328,-0.857138872146606,9.75631046295166,1.02134799957275,-0.945127964019775,1.13567793369293,-1265.10009765625,15.3000001907349,-926.100036621094,2.15863613864074,0.0907356340497722,0.0980727912369023,ST
12.3666666666667,1.01145970821381,-0.590965270996094,10.19056224823,1.81403601169586,0.396344006061554,2.28659987449646,-1262.70007324219,10.5,-928.500061035156,2.15592717922007,0.0966099895608206,0.0623402131617571,ST
12.4,0.889438569545746,-0.479710668325424,10.2970314025879,1.77592599391937,0.289635986089706,1.76068198680878,-1253.10009765625,7.50000047683716,-940.500061035156,2.15292097375101,0.0876628853126641,0.0474776606461519,ST
12.4333333333333,1.74358677864075,-0.404344648122787,8.98590183258057,1.18903195858002,-0.731711983680725,1.50153398513794,-1243.5,11.7000007629395,-928.500061035156,2.14949615802784,0.171437006693659,0.0441427928791707,ST
12.4666666666667,2.2232973575592,-0.639414846897125,8.34230041503906,0.213415995240211,-1.47104597091675,0.381099998950958,-1253.10009765625,11.1000003814697,-923.700012207031,2.14269705282252,0.246999152730064,0.0708300927942748,ST
12.5,1.28301668167114,-0.418101936578751,8.84713268280029,0.205793991684914,-0.487807989120483,0.46494197845459,-1243.5,8.70000076293945,-928.500061035156,2.14541574365329,0.161850298832235,0.0509850444563014,ST
12.5333333333333,0.681882977485657,-0.592161536216736,9.96984672546387,0.342989981174469,0.792688012123108,1.01372599601746,-1257.90002441406,2.10000014305115,-938.100036621094,2.14208550411633,0.0826641047771307,0.0576103888759248,ST
12.5666666666667,0.39537250995636,-0.669920146465302,10.9968585968018,0.182927995920181,-0.0685980021953583,1.265251994133,-1257.90002441406,10.5,-940.500061035156,2.13871748175909,0.0437106161708383,0.0601439581206723,ST
12.6,0.817063271999359,-0.634629666805267,10.9508018493652,-0.0,-0.945127964019775,0.967993974685669,-1262.70007324219,17.7000007629395,-928.500061035156,2.13646263972967,0.0694111188163848,0.0584310378061768,ST
12.6333333333333,1.55816245079041,-0.840390861034393,9.78502082824707,-0.175305992364883,-0.87652999162674,0.221037998795509,-1260.30004882812,11.7000007629395,-923.700012207031,2.13355214594565,0.140795916915614,0.0804339437997386,ST
12.6666666666667,1.12032175064087,-0.967795312404633,9.42194843292236,-0.25152599811554,0.396344006061554,-1.34147191047668,-1257.90002441406,8.10000038146973,-933.300048828125,2.13465297104635,0.121219635174336,0.0987991823105676,ST
12.7,1.03897428512573,-0.772800743579865,8.52772426605225,-0.213415995240211,0.503051996231079,-0.815553963184357,-1250.70007324219,14.1000003814697,-923.700012207031,2.1376872316277,0.120211255272034,0.0919478820802622,ST
12.7333333333333,0.890634894371033,-0.834409415721893,8.75023365020752,-0.175305992364883,0.823175966739655,0.266770005226135,-1253.10009765625,5.70000028610229,-940.500061035156,2.1369432875004,0.102979262762741,0.0948333513473442,ST
12.7666666666667,0.859531462192535,-0.748875021934509,8.92489147186279,0.0076219998300075,0.670735955238342,0.739333987236023,-1255.5,11.1000003814697,-926.100036621094,2.13626701976318,0.0961263194220788,0.086034762090575,ST
12.8,0.738108456134796,-0.898410737514496,9.90165901184082,-0.228659987449646,0.297257989645004,0.510673999786377,-1260.30004882812,11.1000003814697,-911.700012207031,2.13486317878512,0.0780648856166036,0.0899665658680409,ST
12.8333333333333,0.787156164646149,-0.809287428855896,10.4118747711182,-0.0381099991500378,-0.106707997620106,0.518296003341675,-1255.5,12.3000001907349,-935.700012207031,2.13441565341063,0.0758918081995876,0.0801777793463852,ST
12.8666666666667,1.0575168132782,-0.943869590759277,9.45185565948486,-0.0457319989800453,-0.121951997280121,0.564027965068817,-1243.5,8.70000076293945,-926.100036621094,2.13164865267501,0.104335730377205,0.0959913925247259,ST
12.9,0.715977132320404,-0.851157426834106,9.95668792724609,-0.320124000310898,0.342989981174469,0.213415995240211,-1253.10009765625,8.70000076293945,-928.500061035156,2.13203402328607,0.0772407487696625,0.0877836838922459,ST
12.9333333333333,1.26208162307739,-1.05392789840698,9.34418964385986,-0.419209986925125,-0.0685980021953583,0.480185985565186,-1245.90002441406,8.70000076293945,-930.900024414062,2.12900656813188,0.12211854444359,0.108006998592811,ST
12.9666666666667,0.864316582679749,-0.958823204040527,8.81842136383057,-0.617381989955902,0.472563982009888,-0.3125019967556,-1245.90002441406,11.1000003814697,-938.100036621094,2.12987746110555,0.101559520500014,0.10905094362406,ST
13.0,0.748276829719543,-1.1376678943634,9.36811542510986,-0.434453994035721,0.861285984516144,0.457319974899292,-1255.5,15.3000001907349,-930.900024414062,2.12819224988452,0.0820994727289532,0.119273990740243,ST
13.0333333333333,-0.101684302091599,-0.913962483406067,9.62651252746582,0.106707997620106,1.21189796924591,0.472563982009888,-1250.70007324219,13.5000009536743,-930.900024414062,2.1282342703412,0.0042250348545853,0.0989283438326973,ST
13.0666666666667,0.144152462482452,-1.19329524040222,10.2461891174316,0.175305992364883,0.945127964019775,0.78506600856781,-1245.90002441406,13.5000009536743,-930.900024414062,2.12656314989806,0.0105818483615567,0.112275581955002,ST
13.1,1.38888800144196,-1.38051402568817,10.0553817749023,-0.556405961513519,-0.952749967575073,1.01372599601746,-1248.30004882812,15.9000005722046,-935.700012207031,2.12271767358617,0.113278693867617,0.132750990399671,ST
13.1333333333333,1.08263874053955,-1.08981645107269,9.2407112121582,-0.304879993200302,-1.41769194602966,0.46494197845459,-1245.90002441406,7.50000047683716,-935.700012207031,2.12268142849603,0.117200131951525,0.121016903471059,ST
13.1666666666667,1.05990934371948,-1.36496222019196,10.210898399353,-0.0,0.365855991840363,0.556405961513519,-1250.70007324219,8.10000038146973,-935.700012207031,2.12031555226054,0.104358627798281,0.130980950439721,ST
13.2,1.00607645511627,-1.06888151168823,9.45484638214111,0.945127964019775,0.25152599811554,-0.327746003866196,-1248.30004882812,16.5,-930.900024414062,2.12258167854851,0.104854384033993,0.114914328886156,ST
13.2333333333333,0.543113827705383,-0.99590802192688,9.52482891082764,1.19665396213531,1.15854394435883,-0.350611984729767,-1248.30004882812,21.3000011444092,-935.700012207031,2.12431135929649,0.0648120750225191,0.104625486454359,ST
13.2666666666667,0.30923992395401,-0.960019469261169,10.2300395965576,1.06708002090454,0.411587983369827,-0.87652999162674,-1233.90002441406,12.3000001907349,-938.100036621094,2.12681326618666,0.036633976027561,0.0942518845054103,ST
13.3,0.550291538238525,-1.1035737991333,9.49252891540527,0.693601965904236,-0.198172003030777,-0.121951997280121,-1250.70007324219,15.9000005722046,-942.900024414062,2.12624435947075,0.0536034805524432,0.110430645257902,ST
13.3333333333333,1.38948607444763,-1.42776727676392,10.0087261199951,0.266770005226135,-0.274392008781433,0.510673999786377,-1243.5,6.30000019073486,-945.300048828125,2.12281444432006,0.120124827924023,0.135060360613291,ST
13.3666666666667,1.67958545684814,-1.29916656017303,9.234130859375,0.0533539988100529,-0.731711983680725,-0.129574000835419,-1236.30004882812,14.7000007629395,-940.500061035156,2.12233448220018,0.167522926926726,0.138747483026837,ST
13.4,0.240453481674194,-1.1095552444458,9.88730335235596,1.01372599601746,1.73019397258759,-0.182927995920181,-1245.90002441406,14.1000003814697,-935.700012207031,2.12558668050724,0.0473689757677452,0.115099007659977,ST
13.4333333333333,-0.0430662930011749,-1.27464270591736,9.85919094085693,1.44055795669556,2.27897787094116,-0.617381989955902,-1245.90002441406,17.1000003814697,-940.500061035156,2.12744141941516,0.0017647674724167,0.124086823480087,ST
13.4666666666667,-0.326586067676544,-0.82364284992218,9.69828987121582,1.44055795669556,0.533540010452271,-1.63872992992401,-1243.5,14.7000007629395,-942.900024414062,2.13116073648939,-0.0277653530070703,0.0897393968441155,ST
13.5,-0.476719945669174,-0.459971934556961,9.10553073883057,1.45580196380615,0.0,-0.289635986089706,-1238.70007324219,15.3000001907349,-935.700012207031,2.13069966434679,-0.0472876114293027,0.0563821386166511,ST
13.5333333333333,0.16568560898304,-0.263781040906906,8.88960075378418,0.899396002292633,-0.297257989645004,0.274392008781433,-1229.10009765625,7.50000047683716,-945.300048828125,2.12961146330195,0.0057334850892869,0.0337920864173256,ST
13.5666666666667,0.673509001731873,-0.253612607717514,9.10672664642334,0.449698001146317,-1.02134799957275,0.67835795879364,-1255.5,-0.900000035762787,-938.100036621094,2.12812142303307,0.0614649840683468,0.028462371326722,ST
13.6,1.04794645309448,-0.688462555408478,8.74963569641113,0.0304879993200302,-0.922261953353882,0.525918006896973,-1245.90002441406,9.30000019073486,-935.700012207031,2.12330881623299,0.109220747399096,0.0690103500879141,ST
13.6333333333333,0.665134966373444,-0.875083148479462,9.82808685302734,-0.243903994560242,-0.716467976570129,-0.594515979290009,-1248.30004882812,8.70000076293945,-938.100036621094,2.12316288989169,0.0754524273541361,0.0857840108873101,ST
13.6666666666667,-0.0705808699131012,-0.938486337661743,10.1211776733398,-0.0762199983000755,-0.144817993044853,-0.403965979814529,-1238.70007324219,12.9000005722046,-928.500061035156,2.12383505021885,0.0099244673308522,0.0912169607762552,ST
13.7,-0.209350034594536,-1.10716259479523,10.5673923492432,-0.121951997280121,0.175305992364883,0.190549999475479,-1243.5,11.1000003814697,-942.900024414062,2.1234481669794,-0.0143520254991035,0.102062494692001,ST
13.7333333333333,0.732127010822296,-0.946860313415527,9.65283107757568,-0.0228659994900227,-0.899396002292633,0.541162014007568,-1243.5,9.30000019073486,-928.500061035156,2.12199319946136,0.0605116896181823,0.0986250955074877,ST
13.7666666666667,1.02402079105377,-1.05572235584259,9.23293495178223,0.304879993200302,-0.426831990480423,0.87652999162674,-1243.5,14.1000003814697,-947.700012207031,2.11888227377172,0.100284447863212,0.11045960996098,ST
13.8,1.47202980518341,-1.22738933563232,8.95719146728516,0.67835795879364,0.0914639979600906,0.746955990791321,-1241.10009765625,9.90000057220459,-940.500061035156,2.11457171286431,0.148825695515108,0.130154477857001,ST
13.8333333333333,1.20645439624786,-1.1478363275528,9.42194843292236,0.937505960464478,0.182927995920181,0.701223969459534,-1231.5,10.5,-935.700012207031,2.11389310046149,0.130566676085657,0.121847222255187,ST
13.8666666666667,0.01914057508111,-0.676499724388123,9.38785362243652,1.57775402069092,0.762199997901917,0.564027965068817,-1245.90002441406,4.5,-938.100036621094,2.11575492258831,0.0238519540057998,0.0786334130522097,ST
13.9,-0.428270369768143,-1.02461886405945,10.3436861038208,1.6692179441452,1.01372599601746,1.41769194602966,-1245.90002441406,6.30000019073486,-938.100036621094,2.11266401388325,-0.0304415504151865,0.0925382558016793,ST
13.9333333333333,-0.183031752705574,-0.858335137367249,10.5189418792725,1.53964400291443,-1.05945801734924,1.63872992992401,-1226.70007324219,9.90000057220459,-938.100036621094,2.10850653287029,-0.0187031143071615,0.0814576219356518,ST
13.9666666666667,0.501243829727173,-0.51440292596817,9.81074142456055,1.90549993515015,-2.33995389938354,1.36433792114258,-1236.30004882812,5.70000028610229,-950.100036621094,2.10523075720943,0.0400618968610021,0.0556427314727074,ST
14.0,0.830820560455322,-0.061608724296093,8.60608100891113,2.21800184249878,-1.28811800479889,0.823175966739655,-1248.30004882812,0.900000035762787,-933.300048828125,2.10549342614754,0.0886581713206592,0.0121974936015064,ST
14.0333333333333,0.677097856998444,0.286510497331619,9.16594314575195,1.37195992469788,-0.647870004177094,0.0762199983000755,-1260.30004882812,5.70000028610229,-938.100036621094,2.10813427445672,0.0774698346594877,-0.0249420533737099,ST
14.0666666666667,0.768613696098328,0.474925518035889,9.05588436126709,0.480185985565186,-1.62348592281342,0.617381989955902,-1257.90002441406,2.10000014305115,-935.700012207031,2.10855425449469,0.0857649362616413,-0.0484191939826411,ST
14.1,0.495262384414673,0.28112718462944,10.1433086395264,-0.198172003030777,-0.945127964019775,0.815553963184357,-1243.5,8.10000038146973,-933.300048828125,2.10545605786504,0.0567726578455021,-0.031038450692318,ST
14.1333333333333,0.786558032035828,0.16568560898304,11.341986656189,-0.37347799539566,-1.29574000835419,0.975615978240967,-1243.5,5.70000028610229,-938.100036621094,2.10240113130944,0.0687312119963623,-0.0171108150703344,ST
14.1666666666667,2.19996976852417,-0.0777585878968239,9.77545070648193,-0.937505960464478,-3.08691000938416,0.922261953353882,-1248.30004882812,9.30000019073486,-930.900024414062,2.09757392787846,0.198441562346806,0.0049509614950866,ST
14.2,1.97805881500244,-0.286510497331619,9.19166278839111,-0.937505960464478,-1.71494996547699,0.342989981174469,-1257.90002441406,10.5,-928.500061035156,2.09239300879099,0.212105386181059,0.0282348879638841,ST
14.2333333333333,1.12450873851776,-0.330773055553436,9.05648231506348,-0.87652999162674,0.0838419944047928,-0.243903994560242,-1260.30004882812,12.9000005722046,-933.300048828125,2.09195971664119,0.139182777037269,0.0362593010324338,ST
14.2666666666667,1.19808042049408,-0.948654770851135,8.85012340545654,-1.36433792114258,0.266770005226135,0.350611984729767,-1260.30004882812,3.90000009536743,-930.900024414062,2.08367450236321,0.134534882044043,0.0945396783151912,ST
14.3,1.16518247127533,-1.06947958469391,9.00982761383057,-1.51677799224854,-0.388722002506256,0.419209986925125,-1253.10009765625,11.1000003814697,-933.300048828125,2.08031691277794,0.129575999864275,0.115593510303797,ST
14.3333333333333,0.812876284122467,-0.971982300281525,9.75212287902832,-0.99848198890686,-0.144817993044853,0.914639949798584,-1248.30004882812,8.10000038146973,-923.700012207031,2.07972300765072,0.092251657233993,0.104133822113058,ST
14.3666666666667,0.982748925685883,-0.781174719333649,9.71503829956055,-0.403965979814529,0.243903994560242,1.63110792636871,-1243.5,16.5,-930.900024414062,2.07788139231134,0.0982900951581801,0.0858331504287617,ST
14.4,1.45169293880463,-0.810483753681183,9.90046215057373,0.0304879993200302,0.533540010452271,1.31860601902008,-1262.70007324219,17.1000003814697,-923.700012207031,2.07516901871982,0.135832020627441,0.0826137094200001,ST
14.4333333333333,1.01205790042877,-0.899607002735138,10.8646688461304,0.0990860015153885,0.762199997901917,0.472563982009888,-1262.70007324219,11.7000007629395,-916.500061035156,2.0741591661873,0.0991447711181298,0.0825406969140412,ST
14.4666666666667,1.50313329696655,-1.28002595901489,10.3957252502441,-0.0685980021953583,0.205793991684914,-0.0381099991500378,-1250.70007324219,6.30000019073486,-938.100036621094,2.07060031221251,0.133517946613482,0.114505523311346,ST
14.5,1.15142524242401,-0.714780867099762,9.45664024353027,0.350611984729767,0.579271972179413,-1.08994603157043,-1248.30004882812,9.90000057220459,-940.500061035156,2.07769606038653,0.122131951757803,0.0808651318415632,ST
14.5333333333333,0.366661638021469,-0.65436840057373,8.55942630767822,0.449698001146317,2.00458598136902,-0.564027965068817,-1245.90002441406,11.7000007629395,-933.300048828125,2.07974503807912,0.0540735253128525,0.0764039400506967,ST
14.5666666666667,0.202770471572876,-0.28112718462944,9.11988544464111,0.137196004390717,1.28049600124359,0.724089980125427,-1255.5,10.5,-942.900024414062,2.0796185625172,0.0256571533568466,0.0382945215332067,ST
14.6,-0.224303618073463,-0.292491912841797,9.15936374664307,-0.25152599811554,0.914639949798584,1.6920839548111,-1241.10009765625,11.1000003814697,-933.300048828125,2.07570648860798,-0.0163384195069521,0.0334840334380301,ST
14.6333333333333,0.164489313960075,-0.386400371789932,9.62770938873291,-0.304879993200302,1.20427596569061,1.53202199935913,-1245.90002441406,10.5,-930.900024414062,2.07229880391209,0.0085815337065358,0.0392024652739144,ST
14.6666666666667,0.254210770130157,-0.65436840057373,10.3077974319458,-0.411587983369827,0.487807989120483,0.922261953353882,-1238.70007324219,12.9000005722046,-935.700012207031,2.06995457215867,0.0206324894890154,0.0591156623340368,ST
14.7,1.1675751209259,-1.2118376493454,9.86577033996582,-1.15092194080353,-1.18903195858002,0.144817993044853,-1243.5,8.10000038146973,-952.500061035156,2.06626611809397,0.101383083969174,0.112555226215231,ST
14.7333333333333,1.28600740432739,-1.02820777893066,9.18269062042236,-0.983237981796265,-2.11891603469849,-0.67835795879364,-1253.10009765625,15.9000005722046,-930.900024414062,2.06758841075639,0.135261273491069,0.113038985610835,ST
14.7666666666667,1.05452609062195,-1.14065861701965,9.37469482421875,-0.792688012123108,-1.10518991947174,-0.861285984516144,-1250.70007324219,13.5000009536743,-940.500061035156,2.06867930183669,0.116981862789257,0.120755821397802,ST
14.8,1.04854464530945,-1.14484560489655,9.473388671875,-0.579271972179413,-0.564027965068817,0.67835795879364,-1255.5,11.1000003814697,-938.100036621094,2.06707345194888,0.111629272703188,0.121289089383185,ST
14.8333333333333,1.72384798526764,-1.47980570793152,9.44228458404541,-0.830797970294952,-0.548784017562866,0.945127964019775,-1243.5,17.7000007629395,-933.300048828125,2.06108030479841,0.165546203795791,0.149891048808621,ST
14.8666666666667,1.29916656017303,-1.25370764732361,9.86876106262207,-0.647870004177094,-0.510673999786377,0.548784017562866,-1260.30004882812,8.70000076293945,-938.100036621094,2.06259097538377,0.137654820489388,0.132113724539995,ST
14.9,1.34342908859253,-1.71009075641632,9.15816688537598,-0.830797970294952,0.632625997066498,0.746955990791321,-1243.5,17.7000007629395,-940.500061035156,2.05502921528918,0.141222649330059,0.177123851589276,ST
14.9333333333333,1.27643704414368,-1.38589727878571,9.72221565246582,-0.762199997901917,0.708845973014832,-0.0685980021953583,-1250.70007324219,15.3000001907349,-928.500061035156,2.05946429672728,0.130562687378269,0.149374326225766,ST
14.9666666666667,0.811081886291504,-1.52347016334534,9.89507961273193,-0.342989981174469,0.449698001146317,-0.381099998950958,-1245.90002441406,15.9000005722046,-926.100036621094,2.06022429841334,0.0903186618496021,0.152503719395588,ST
15.0,-0.0053832866251468,-1.63771545886993,9.82509613037109,-0.282013982534409,1.87501192092896,-0.891773998737335,-1243.5,12.3000001907349,-928.500061035156,2.06248886940182,0.0142991053051914,0.163126269997632,DLL
15.0333333333333,0.218920320272446,-1.64369690418243,10.1648416519165,0.144817993044853,1.48628997802734,-0.442075997591019,-1241.10009765625,14.1000003814697,-930.900024414062,2.06407986025673,0.0179099590487907,0.160665337593217,DLL
15.0666666666667,0.311632484197617,-1.39187872409821,10.0284652709961,0.335367977619171,0.960371971130371,-0.457319974899292,-1250.70007324219,11.7000007629395,-935.700012207031,2.0658555717052,0.0269495842149036,0.142012308181006,DLL
15.1,0.552085936069489,-1.35359752178192,9.19704627990723,0.0609759986400604,0.37347799539566,0.381099998950958,-1236.30004882812,17.1000003814697,-938.100036621094,2.06487688495988,0.0535938244720972,0.145413200669748,DLL
15.1333333333333,0.342137783765793,-1.40743041038513,9.48236083984375,-0.602137982845306,0.846041977405548,0.426831990480423,-1257.90002441406,12.3000001907349,-940.500061035156,2.0641020131205,0.0375837636531559,0.147887299576019,DLL
15.1666666666667,0.123815596103668,-1.63711726665497,9.38127422332764,-0.564027965068817,1.18140995502472,0.754577994346619,-1241.10009765625,12.9000005722046,-933.300048828125,2.06220830656414,0.0155441654393544,0.169157858831411,DLL
15.2,0.43724250793457,-1.78904557228088,9.47398662567139,-0.335367977619171,0.403965979814529,0.381099998950958,-1221.90002441406,12.9000005722046,-935.700012207031,2.0610526402284,0.0396443282463038,0.184207177415846,DLL
15.2333333333333,-0.0556272976100445,-1.81297135353088,9.51884746551514,-0.121951997280121,-0.213415995240211,0.320124000310898,-1236.30004882812,9.90000057220459,-940.500061035156,2.06011929171775,0.0025754288397799,0.187681473993717,DLL
15.2666666666667,0.0968991592526436,-1.60362136363983,9.24908447265625,0.388722002506256,-0.426831990480423,0.823175966739655,-1226.70007324219,18.3000011444092,-959.700012207031,2.05814962211585,0.0091427560311477,0.174366673427539,DLL
15.3,0.640012979507446,-1.53064787387848,9.28736591339111,0.777444005012512,-1.19665396213531,1.62348592281342,-1241.10009765625,14.7000007629395,-942.900024414062,2.05426534264157,0.0573142378607294,0.164595914613645,DLL
15.3333333333333,0.631639003753662,-1.36855113506317,9.31607723236084,0.556405961513519,-1.265251994133,1.19665396213531,-1229.10009765625,9.90000057220459,-930.900024414062,2.05189691866337,0.066657404501092,0.148751619931711,DLL
15.3666666666667,0.483897656202316,-0.97258049249649,9.42254638671875,0.632625997066498,-0.37347799539566,1.6692179441452,-1236.30004882812,12.9000005722046,-940.500061035156,2.05015422521814,0.054421122435265,0.111352372441641,DLL
15.4,0.580796837806702,-1.29139065742493,9.31428241729736,0.121951997280121,-0.0609759986400604,1.95885396003723,-1231.5,12.3000001907349,-935.700012207031,2.04444229236048,0.0599688633302533,0.13243291742209,DLL
15.4333333333333,0.236864611506462,-1.20525813102722,9.79638576507568,-0.198172003030777,-0.221037998795509,1.54726600646973,-1241.10009765625,14.1000003814697,-930.900024414062,2.04089739706987,0.0300588244767047,0.124473986601815,DLL
15.4666666666667,-0.129198879003525,-1.22499680519104,9.52363204956055,-0.0381099991500378,-0.396344006061554,1.18903195858002,-1250.70007324219,24.9000015258789,-930.900024414062,2.03802853793401,-0.0043488958192342,0.127298863302092,DLL
15.5,-0.294884473085403,-1.26028728485107,8.82320690155029,-0.213415995240211,-0.213415995240211,1.6844619512558,-1241.10009765625,10.5,-933.300048828125,2.0342959256231,-0.0273087759056217,0.139192112134807,DLL
15.5333333333333,0.30624920129776,-1.46784281730652,9.60916709899902,-0.693601965904236,-1.45580196380615,2.98020195960999,-1233.90002441406,18.3000011444092,-945.300048828125,2.02682201592992,0.0217551171101772,0.150244026013104,DLL
15.5666666666667,0.701023578643799,-1.3201014995575,9.51824951171875,-0.37347799539566,-2.0579400062561,1.59299790859222,-1241.10009765625,13.5000009536743,-940.500061035156,2.02294547232671,0.0650509137337356,0.140982059897302,DLL
15.6,0.661546111106873,-1.33625137805939,9.43510723114014,0.0762199983000755,-1.82165801525116,2.58385801315308,-1250.70007324219,14.1000003814697,-933.300048828125,2.01646774831991,0.0704615150489657,0.140911915686859,DLL
15.6333333333333,0.659153580665588,-1.36675667762756,10.0165023803711,-0.259148001670837,-1.37195992469788,2.41617393493652,-1238.70007324219,14.7000007629395,-938.100036621094,2.01011894985553,0.0674614479042627,0.137087507282345,DLL
15.6666666666667,0.709397554397583,-1.38529908657074,10.1343364715576,-0.419209986925125,-1.2423859834671,2.4923939704895,-1243.5,19.5,-930.900024414062,2.0035836044929,0.0702384145013492,0.136933987605965,DLL
15.7,1.14723825454712,-1.12809765338898,9.46501445770264,-0.525918006896973,-1.76830399036407,3.30032587051392,-1236.30004882812,14.1000003814697,-933.300048828125,1.99687235442286,0.11165993444448,0.123547989923587,DLL
15.7333333333333,1.45827257633209,-1.61857485771179,8.91950798034668,-1.2423859834671,-1.74543797969818,3.23172783851624,-1250.70007324219,18.9000015258789,-942.900024414062,1.98318273449967,0.151588577531122,0.170585613958726,DLL
15.7666666666667,0.936093747615814,-1.64788389205933,8.96616268157959,-1.53964400291443,-1.10518991947174,3.27745985984802,-1255.5,25.5000019073486,-918.900024414062,1.97331965895366,0.110817272840297,0.182903699805789,DLL
15.8,0.742893576622009,-1.97207736968994,8.89917087554932,-1.2576299905777,-0.990859985351562,5.09911775588989,-1255.5,21.3000011444092,-923.700012207031,1.9574889043333,0.0861745119662139,0.214738152075274,DLL
15.8333333333333,-0.0137572884559631,-1.79622340202332,9.89388275146484,-1.05945801734924,-0.480185985565186,4.5808219909668,-1255.5,27.9000015258789,-940.500061035156,1.9474511032623,0.0126813752104926,0.187270996030307,DLL
15.8666666666667,0.970187902450562,-2.96379852294922,9.72640323638916,-2.21037983894348,-1.65397393703461,6.82931184768677,-1257.90002441406,27.3000011444092,-928.500061035156,1.92680702679319,0.0793372598092564,0.278792554709635,DLL
15.9,0.588572680950165,-2.1132390499115,10.2461891174316,-1.47866797447205,-0.800309956073761,5.38875389099121,-1250.70007324219,27.9000015258789,-930.900024414062,1.91860863828731,0.0601704510652144,0.22112189179301,DLL
15.9333333333333,0.551487803459167,-2.36924433708191,9.51884746551514,-0.983237981796265,-0.78506600856781,6.25766181945801,-1248.30004882812,30.9000015258789,-933.300048828125,1.9031348734765,0.056007927309918,0.241223865011864,DLL
15.9666666666667,0.0047851437702775,-2.25499892234802,9.61455059051514,-0.525918006896973,-0.190549999475479,6.77595806121826,-1245.90002441406,32.7000007629395,-921.300048828125,1.8881350816147,0.0096967668542243,0.233532029257366,DLL
16.0,0.595152258872986,-2.52655601501465,8.96197605133057,-0.990859985351562,-1.00610399246216,7.72870779037476,-1241.10009765625,27.3000011444092,-926.100036621094,1.86762597438992,0.0532905156563698,0.269758073871614,DLL
16.0333333333333,-0.383409649133682,-1.88235592842102,8.68742847442627,-0.297257989645004,-0.0609759986400604,8.03358745574951,-1255.5,27.3000011444092,-933.300048828125,1.85021705166963,-0.0263264301177859,0.225177727233566,DLL
16.0666666666667,0.261986613273621,-2.63601613044739,8.48226547241211,-1.2423859834671,-0.731711983680725,11.2272052764893,-1241.10009765625,30.3000011444092,-921.300048828125,1.82507380036187,0.0150763268364029,0.287735436036924,DLL
16.1,-0.105871304869652,-2.13058519363403,9.52542686462402,-0.800309956073761,-0.167683988809586,8.8643856048584,-1224.30004882812,33.9000015258789,-921.300048828125,1.80478841482552,-0.0088462777339961,0.233980275946872,DLL
16.1333333333333,1.04196500778198,-3.00925731658936,9.28018856048584,-1.47866797447205,-1.51677799224854,8.8643856048584,-1231.5,29.1000003814697,-916.500061035156,1.78187798824537,0.0817357098719302,0.300172572874084,DLL
16.1666666666667,0.638218522071838,-2.89979720115662,9.83885383605957,-1.08232402801514,-0.670735955238342,6.28052806854248,-1219.5,33.3000030517578,-918.900024414062,1.76842884603385,0.0644372494463726,0.291454784761781,DLL
16.2,0.654966533184052,-2.7442798614502,9.50389385223389,-0.503051996231079,-0.87652999162674,6.44821166992188,-1231.5,41.1000022888184,-921.300048828125,1.75415446736619,0.064407617692213,0.284467106995417,DLL
16.2333333333333,1.17056584358215,-3.05052924156189,8.80107593536377,-0.525918006896973,-0.891773998737335,4.26832008361816,-1229.10009765625,36.3000030517578,-918.900024414062,1.74072744698257,0.112144400262653,0.325019707930541,DLL
16.2666666666667,0.113647162914276,-2.67968058586121,9.79698371887207,0.259148001670837,0.175305992364883,3.92532992362976,-1217.10009765625,38.7000007629395,-918.900024414062,1.73498344607533,0.027297753459165,0.277258824151515,DLL
16.3,-0.0305052921175957,-2.57620167732239,9.28676795959473,1.12043392658234,0.685979962348938,4.69515180587769,-1212.30004882812,38.7000007629395,-906.900024414062,1.72443727587237,-0.0004978682537369,0.270234028894399,DLL
16.3333333333333,0.129198879003525,-2.503826379776,9.10971736907959,0.655492007732391,0.503051996231079,4.07776975631714,-1219.5,44.7000007629395,-911.700012207031,1.71489279925919,0.0090240836379566,0.267646387502813,DLL
16.3666666666667,0.151928320527077,-2.79930901527405,8.9835090637207,-0.556405961513519,-1.21189796924591,3.7728898525238,-1205.10009765625,48.9000015258789,-921.300048828125,1.70544089279818,0.0148405759697826,0.295982983636542,DLL
16.4,0.857737004756927,-3.2245888710022,8.31418704986572,-1.21189796924591,-1.18903195858002,2.5152599811554,-1214.70007324219,43.5,-923.700012207031,1.69633240530772,0.0798938727560134,0.356920747765162,DLL
16.4333333333333,0.0071777156554162,-2.37582397460938,8.61744594573975,0.320124000310898,1.11281192302704,2.22562384605408,-1214.70007324219,39.3000030517578,-909.300048828125,1.69557403795567,0.0142730623282415,0.286367278821489,DLL
16.4666666666667,-0.73451954126358,-2.34472036361694,9.2048225402832,0.67835795879364,1.50153398513794,1.48628997802734,-1207.5,42.3000030517578,-923.700012207031,1.69241078200272,-0.0624529435581025,0.255467442594608,DLL
16.5,-0.683677434921265,-2.88723611831665,9.31488037109375,-0.480185985565186,0.0533539988100529,1.6615959405899,-1202.70007324219,44.1000022888184,-921.300048828125,1.69094568923838,-0.0693958134928097,0.293046076967973,DLL
16.5333333333333,-0.436644375324249,-3.30354356765747,9.83406829833984,-1.33385002613068,-0.777444005012512,0.952749967575073,-1190.70007324219,45.3000030517578,-906.900024414062,1.68968361977115,-0.046961574597408,0.319608918234875,DLL
16.5666666666667,-0.489879101514816,-3.17374658584595,9.93395805358887,-1.19665396213531,-0.571649968624115,-0.975615978240967,-1200.30004882812,36.9000015258789,-916.500061035156,1.69097590488225,-0.0457663005725026,0.313042032403393,DLL
16.6,-0.826035439968109,-3.49255681037903,9.87414455413818,-0.78506600856781,-0.304879993200302,-2.19513607025146,-1209.90002441406,47.7000007629395,-916.500061035156,1.69691648298357,-0.0710424136644436,0.336136297605425,DLL
16.6333333333333,-0.943271458148956,-3.16836333274841,8.81184196472168,0.480185985565186,-0.114329993724823,1.85976791381836,-1202.70007324219,49.5000038146973,-914.100036621094,1.6934149792343,-0.0951980055038299,0.342454921820802,DLL
16.6666666666667,-0.39238178730011,-2.6396050453186,9.47996807098389,0.541162014007568,-0.320124000310898,1.39482593536377,-1195.5,41.7000007629395,-916.500061035156,1.68602850895094,-0.0511966036023343,0.284919939131972,DLL
16.7,-0.66932201385498,-2.66771769523621,8.65273666381836,1.08232402801514,0.0457319989800453,0.0381099991500378,-1200.30004882812,42.3000030517578,-918.900024414062,1.6867131642114,-0.0693113908232973,0.294698361343017,DLL
16.7333333333333,-0.597544848918915,-2.85852527618408,8.02408790588379,0.434453994035721,-0.190549999475479,0.213415995240211,-1193.10009765625,44.7000007629395,-916.500061035156,1.68877603029552,-0.0697522916231225,0.332006903219904,DLL
16.7666666666667,-0.776987731456757,-2.48827481269836,9.09536170959473,0.556405961513519,-0.983237981796265,0.586893975734711,-1202.70007324219,36.9000015258789,-906.900024414062,1.68299669296965,-0.0786754292384597,0.279270983125379,DLL
16.8,-0.887644171714783,-2.63481974601746,9.24310302734375,0.891773998737335,-0.205793991684914,-0.0609759986400604,-1193.10009765625,44.1000022888184,-914.100036621094,1.68297130575163,-0.0895305590374548,0.276662792648721,DLL
16.8333333333333,-0.559861838817596,-2.80588865280151,9.55533409118652,0.0762199983000755,-0.78506600856781,-0.533540010452271,-1195.5,38.7000007629395,-914.100036621094,1.68425057576614,-0.0608284554018002,0.283944643605307,DLL
16.8666666666667,-0.729734420776367,-2.43264746665955,9.56610012054443,0.350611984729767,-1.04421401023865,0.899396002292633,-1205.10009765625,41.1000022888184,-914.100036621094,1.67980667508978,-0.0701194430946087,0.255464173048943,DLL
16.9,-0.0322997197508812,-2.93090057373047,9.32265663146973,-0.525918006896973,-0.632625997066498,0.739333987236023,-1195.5,43.5,-918.900024414062,1.67933692322989,-0.014708287511939,0.296557644174174,DLL
16.9333333333333,-0.148937597870827,-2.900395154953,9.45664024353027,-0.388722002506256,-0.350611984729767,1.02897000312805,-1212.30004882812,48.9000015258789,-911.700012207031,1.67676434158346,-0.0149425877175198,0.297926229519206,DLL
16.9666666666667,0.0927121639251709,-2.86570286750793,9.22994422912598,0.0076219998300075,0.0076219998300075,1.02134799957275,-1207.5,39.9000015258789,-921.300048828125,1.67453428897012,0.0042170501692214,0.300403162811846,DLL
17.0,0.0448607243597507,-2.51279854774475,8.86926364898682,0.708845973014832,0.274392008781433,0.190549999475479,-1197.90002441406,39.3000030517578,-918.900024414062,1.67434944096561,0.004296510157106,0.278868920590885,DLL
17.0333333333333,-0.550889670848846,-2.35728144645691,9.48834228515625,0.92988395690918,0.426831990480423,0.152439996600151,-1197.90002441406,43.5,-909.300048828125,1.67367122858108,-0.0461394096194547,0.248508169134256,DLL
17.0666666666667,-0.178844749927521,-3.00447225570679,8.83457183837891,-0.175305992364883,-0.190549999475479,-0.46494197845459,-1207.5,43.5,-897.300048828125,1.67680540084317,-0.0242126986116919,0.312069862763842,DLL
17.1,-0.421690791845322,-2.58696842193604,8.98291110992432,-0.0304879993200302,-0.236281991004944,-0.419209986925125,-1200.30004882812,41.7000007629395,-916.500061035156,1.67675068304934,-0.0403996953555577,0.286845556707493,DLL
17.1333333333333,-0.249425619840622,-2.71796154975891,8.68383979797363,0.510673999786377,0.396344006061554,0.0609759986400604,-1195.5,39.9000015258789,-926.100036621094,1.67736365172668,-0.0305798918323598,0.29930153893682,DLL
17.1666666666667,-0.41750380396843,-2.56423902511597,8.70357799530029,-0.144817993044853,0.0228659994900227,0.182927995920181,-1183.5,41.1000022888184,-916.500061035156,1.6765949921061,-0.0429845521919128,0.289284174496941,DLL
17.2,-0.87986832857132,-2.34292602539062,9.19764423370361,-0.480185985565186,0.106707997620106,0.579271972179413,-1197.90002441406,33.3000030517578,-918.900024414062,1.67334518367289,-0.0828560666799235,0.258106267848221,DLL
17.2333333333333,-0.470140367746353,-2.52535963058472,9.45843505859375,-0.0152439996600151,0.0762199983000755,1.47866797447205,-1202.70007324219,42.3000030517578,-909.300048828125,1.6702503705577,-0.0556462367315672,0.260242690547798,DLL
17.2666666666667,-0.874485015869141,-2.83998274803162,9.34000205993652,-0.533540010452271,-0.335367977619171,1.06708002090454,-1200.30004882812,39.3000030517578,-914.100036621094,1.66956366731914,-0.0825183511122842,0.288753789897976,DLL
17.3,-0.385204076766968,-3.20006489753723,8.83816051483154,-1.33385002613068,-0.792688012123108,1.54726600646973,-1209.90002441406,39.9000015258789,-914.100036621094,1.66861003403651,-0.0490161735345612,0.337303816074375,DLL
17.3333333333333,-0.0328978635370731,-2.93090057373047,8.57079029083252,-0.754577994346619,-0.922261953353882,1.79117000102997,-1205.10009765625,45.9000015258789,-914.100036621094,1.66380145790114,-0.0123829262068406,0.332059913624851,DLL
17.3666666666667,0.117834165692329,-3.07385683059692,9.01461315155029,-0.518296003341675,-0.533540010452271,1.02134799957275,-1193.10009765625,47.7000007629395,-911.700012207031,1.66101050907038,0.0082003354227691,0.329984068429597,DLL
17.4,-0.0281127188354731,-3.27244019508362,9.12945652008057,-0.739333987236023,-0.434453994035721,-0.381099998950958,-1200.30004882812,45.9000015258789,-902.100036621094,1.66149535982939,-0.0001482053048907,0.342705807835879,DLL
17.4333333333333,-0.638218522071838,-2.88663792610168,9.64684963226318,-0.449698001146317,-0.853663980960846,-0.434453994035721,-1202.70007324219,52.5000038146973,-909.300048828125,1.66078444597825,-0.0492883621944246,0.301892206807146,DLL
17.4666666666667,-0.158507883548737,-3.15041899681091,9.91182708740234,-0.914639949798584,-1.40244793891907,0.358233988285065,-1209.90002441406,43.5,-904.500061035156,1.65900064531253,-0.0191709527694424,0.308065888395029,DLL
17.5,0.320006489753723,-3.56194138526917,9.69649600982666,-0.746955990791321,-1.12043392658234,0.83841997385025,-1197.90002441406,45.9000015258789,-902.100036621094,1.65629769282108,0.0219280698393231,0.344231439177709,DLL
17.5333333333333,0.554478526115417,-3.75215077400208,8.79748725891113,0.152439996600151,-0.289635986089706,0.0609759986400604,-1207.5,50.7000007629395,-902.100036621094,1.65407573594505,0.0522068022968341,0.393022175528059,DLL
17.5666666666667,0.200377896428108,-2.84297347068787,8.59770679473877,1.31098401546478,0.327746003866196,-0.152439996600151,-1188.30004882812,39.3000030517578,-902.100036621094,1.65702764023674,0.0274514414972313,0.33145014966428,DLL
17.6,0.382213354110718,-2.80768299102783,8.70896148681641,1.32622802257538,0.0457319989800453,0.0228659994900227,-1209.90002441406,51.9000015258789,-911.700012207031,1.65748922441571,0.0387955139810676,0.313968689778701,DLL
