seconds,sensor_accX_m_s_,sensor_accY_m_s_,sensor_accZ_m_s_,sensor_gyroX___s_,sensor_gyroY___s_,sensor_gyroZ___s_,sensor_magX__T_,sensor_magY__T_,sensor_magZ__T_,sensor_yaw___,sensor_pitch___,sensor_roll___,label3
0.0,3.67439222335815,-2.95482635498047,8.58155727386475,-0.297257989645004,-0.221037998795509,0.259148001670837,-1358.70007324219,18.9000015258789,-873.300048828125,2.13659903082562,0.385140802689853,0.332398013497841,ST
0.0333333333333333,3.60620403289795,-2.98054647445679,8.55822944641113,-0.205793991684914,-0.381099998950958,0.243903994560242,-1365.90002441406,21.3000011444092,-890.100036621094,2.13440733082686,0.379568907349814,0.335535265618342,ST
0.0666666666666667,3.65584993362427,-2.90278792381287,8.63359546661377,0.0152439996600151,-0.403965979814529,0.358233988285065,-1346.70007324219,27.3000011444092,-890.100036621094,2.13639866718402,0.382010997473466,0.325242351962006,ST
0.1,3.83648896217346,-2.8441698551178,8.57437992095947,0.350611984729767,-0.510673999786377,0.495429992675781,-1361.10009765625,26.1000003814697,-878.100036621094,2.13533402166903,0.400952299908418,0.320448958892847,ST
0.133333333333333,3.93219184875488,-2.83041262626648,8.47209739685059,0.388722002506256,-0.708845973014832,0.495429992675781,-1365.90002441406,21.3000011444092,-885.300048828125,2.1314612399033,0.414701598621049,0.322168889058954,ST
0.166666666666667,3.95851016044617,-2.83938479423523,8.47329330444336,0.266770005226135,-0.525918006896973,0.358233988285065,-1341.90002441406,29.7000007629395,-887.700012207031,2.12866983673013,0.417499568101585,0.323204470435988,ST
0.2,3.97466015815735,-2.83639407157898,8.52413558959961,0.25152599811554,-0.3125019967556,0.205793991684914,-1346.70007324219,23.7000007629395,-894.900024414062,2.12792912458387,0.416974128413056,0.321119886386876,ST
0.233333333333333,3.84725570678711,-2.76880383491516,8.49542427062988,0.236281991004944,-0.335367977619171,0.106707997620106,-1363.5,21.3000011444092,-885.300048828125,2.12912551165755,0.407563493687035,0.315112718929568,ST
0.266666666666667,3.82033920288086,-2.71497106552124,8.47927474975586,0.25152599811554,-0.388722002506256,0.121951997280121,-1356.30004882812,30.9000015258789,-875.700012207031,2.12981845187436,0.405984694824913,0.309853380919801,ST
0.3,3.87955522537231,-2.69044709205627,8.46850776672363,0.304879993200302,-0.434453994035721,0.342989981174469,-1356.30004882812,20.7000007629395,-882.900024414062,2.12853686371628,0.411828121172253,0.307579055688383,ST
0.333333333333333,3.97944521903992,-2.71736359596252,8.46850776672363,0.304879993200302,-0.556405961513519,0.403965979814529,-1356.30004882812,31.5000019073486,-878.100036621094,2.12492504217215,0.420851132821415,0.310227812268114,ST
0.366666666666667,4.06378316879272,-2.74248552322388,8.43262004852295,0.190549999475479,-0.731711983680725,0.472563982009888,-1368.30004882812,19.5,-880.500061035156,2.12032377230898,0.430146177473517,0.314399088300129,ST
0.4,4.09010171890259,-2.76760745048523,8.48226547241211,0.106707997620106,-0.655492007732391,0.457319974899292,-1358.70007324219,16.5,-887.700012207031,2.11729038433204,0.430634432035597,0.315636086347008,ST
0.433333333333333,4.06318521499634,-2.72992444038391,8.48226547241211,0.160062000155449,-0.525918006896973,0.495429992675781,-1349.10009765625,21.3000011444092,-880.500061035156,2.11628081677268,0.428563307668554,0.311840411259269,ST
0.466666666666667,4.08830738067627,-2.78256106376648,8.50858402252197,0.160062000155449,-0.495429992675781,0.632625997066498,-1353.90002441406,17.1000003814697,-887.700012207031,2.11146744161184,0.428864494043578,0.316114312757345,ST
0.5,4.07993316650391,-2.75325202941895,8.41467571258545,0.167683988809586,-0.571649968624115,0.769822001457214,-1373.10009765625,26.1000003814697,-870.900024414062,2.10764091593224,0.432133703680491,0.31662284813578,ST
0.533333333333333,4.11761617660522,-2.8082811832428,8.42125511169434,-0.0076219998300075,-0.434453994035721,0.731711983680725,-1361.10009765625,19.5,-875.700012207031,2.10195153677918,0.434513109245063,0.322303240913329,ST
0.566666666666667,4.14393472671509,-2.88005828857422,8.50619125366211,0.0381099991500378,-0.289635986089706,0.594515979290009,-1356.30004882812,23.1000003814697,-878.100036621094,2.09766023310637,0.432593190312577,0.326650836707742,ST
0.6,4.14453268051147,-2.89680647850037,8.45774173736572,0.228659987449646,-0.182927995920181,0.472563982009888,-1356.30004882812,22.5,-870.900024414062,2.09410274686486,0.434040344069595,0.329788627638449,ST
0.633333333333333,4.06378316879272,-2.88484358787537,8.47987270355225,0.457319974899292,0.0609759986400604,0.327746003866196,-1351.5,28.5000019073486,-875.700012207031,2.09312672991818,0.426046442526421,0.327469165313551,ST
0.666666666666667,3.93458437919617,-2.8100757598877,8.57916450500488,0.647870004177094,0.0381099991500378,0.487807989120483,-1358.70007324219,24.9000015258789,-880.500061035156,2.09488691482379,0.411615098097628,0.31645601618837,ST
0.7,3.91006064414978,-2.88364720344543,8.49422836303711,0.800309956073761,-0.274392008781433,0.716467976570129,-1358.70007324219,23.7000007629395,-868.500061035156,2.08700426323588,0.41114336385273,0.325855739266911,ST
0.733333333333333,3.93877148628235,-2.83938479423523,8.58993148803711,0.846041977405548,-0.419209986925125,0.754577994346619,-1361.10009765625,26.7000007629395,-885.300048828125,2.08530056395889,0.410912847004821,0.31886096200248,ST
0.766666666666667,3.98363208770752,-2.7801685333252,8.50379848480225,1.05183601379395,-0.571649968624115,0.975615978240967,-1349.10009765625,24.9000015258789,-887.700012207031,2.08097352375427,0.418816161933992,0.315232765181206,ST
0.8,3.99200630187988,-2.74906516075134,8.45833969116211,1.04421401023865,-0.411587983369827,0.891773998737335,-1353.90002441406,26.7000007629395,-868.500061035156,2.07598074738699,0.421955618070125,0.313273708334986,ST
0.833333333333333,3.9537250995636,-2.68865275382996,8.44219017028809,0.884151995182037,-0.221037998795509,0.655492007732391,-1353.90002441406,18.3000011444092,-870.900024414062,2.07394237131478,0.419844286539282,0.307579560131223,ST
0.866666666666667,3.91125679016113,-2.67848420143127,8.464919090271,0.731711983680725,-0.175305992364883,0.487807989120483,-1356.30004882812,19.5,-887.700012207031,2.07160139934565,0.415278396143611,0.305697494612965,ST
0.9,3.84845185279846,-2.64020299911499,8.48346138000488,0.533540010452271,-0.205793991684914,0.25152599811554,-1363.5,23.1000003814697,-890.100036621094,2.07139048960805,0.409348110121726,0.30129723664008,ST
0.933333333333333,3.82990956306458,-2.60909962654114,8.49961185455322,0.358233988285065,-0.266770005226135,0.190549999475479,-1351.5,18.9000015258789,-882.900024414062,2.0711896954223,0.407186166076417,0.297578058873748,ST
0.966666666666667,3.89211630821228,-2.59294986724854,8.50439643859863,0.236281991004944,-0.46494197845459,0.160062000155449,-1363.5,21.9000015258789,-899.700012207031,2.07042603079922,0.412954446541149,0.295860696247662,ST
1.0,4.07993316650391,-2.70540070533752,8.51755619049072,0.129574000835419,-0.6250039935112,-0.0228659994900227,-1353.90002441406,21.3000011444092,-892.500061035156,2.06516212097148,0.428330224254479,0.306747437157677,ST
1.03333333333333,4.10565328598022,-2.6276421546936,8.51097679138184,0.0838419944047928,-0.724089980125427,-0.243903994560242,-1356.30004882812,23.7000007629395,-870.900024414062,2.06800787764258,0.432940514533269,0.299742876116352,ST
1.06666666666667,4.0356707572937,-2.59653854370117,8.52054691314697,-0.114329993724823,-0.541162014007568,-0.198172003030777,-1368.30004882812,24.3000011444092,-868.500061035156,2.06978918480759,0.426804053856115,0.296200409388062,ST
1.1,4.07036304473877,-2.6276421546936,8.5785665512085,-0.0304879993200302,-0.419209986925125,0.152439996600151,-1353.90002441406,32.1000022888184,-878.100036621094,2.06825728745444,0.426539919367168,0.297438696752286,ST
1.13333333333333,4.12479400634766,-2.63900685310364,8.57737064361572,0.167683988809586,-0.457319974899292,0.396344006061554,-1365.90002441406,28.5000019073486,-882.900024414062,2.06550502489582,0.431154831944681,0.298541199961685,ST
1.16666666666667,4.12419557571411,-2.59354782104492,8.48166751861572,0.25152599811554,-0.396344006061554,0.487807989120483,-1373.10009765625,25.5000019073486,-875.700012207031,2.06349300054011,0.435444448683278,0.296872951347878,ST
1.2,4.16546773910522,-2.62883830070496,8.50379848480225,0.190549999475479,-0.274392008781433,0.541162014007568,-1370.70007324219,20.1000003814697,-873.300048828125,2.05958438114694,0.437768199391487,0.299821531462612,ST
1.23333333333333,4.07574605941772,-2.59713673591614,8.43202114105225,0.152439996600151,-0.190549999475479,0.495429992675781,-1365.90002441406,17.7000007629395,-887.700012207031,2.05773431421899,0.433109798074135,0.299002821852084,ST
1.26666666666667,4.17683219909668,-2.71257829666138,8.50798606872559,0.137196004390717,-0.0304879993200302,0.381099998950958,-1370.70007324219,25.5000019073486,-873.300048828125,2.05201744325578,0.437185840287958,0.308319959322596,ST
1.3,4.17503786087036,-2.75385022163391,8.51516342163086,0.167683988809586,-0.0457319989800453,0.0609759986400604,-1358.70007324219,24.3000011444092,-878.100036621094,2.04978476630633,0.436585902404973,0.312298503335861,ST
1.33333333333333,4.08950328826904,-2.79572033882141,8.46910667419434,0.160062000155449,-0.160062000155449,-0.274392008781433,-1365.90002441406,29.7000007629395,-878.100036621094,2.04787882572362,0.430722982324472,0.318028399692524,ST
1.36666666666667,3.889723777771,-2.61866998672485,8.548659324646,0.205793991684914,-0.0914639979600906,-0.3125019967556,-1361.10009765625,23.1000003814697,-873.300048828125,2.05674473966858,0.41188963963768,0.297965858180759,ST
1.4,3.80060052871704,-2.57022023200989,8.49063968658447,0.3125019967556,-0.0457319989800453,0.0762199983000755,-1358.70007324219,19.5,-878.100036621094,2.05760714639102,0.405233829502798,0.293734993649358,ST
1.43333333333333,3.91305136680603,-2.62285685539246,8.4828634262085,0.25152599811554,-0.190549999475479,0.67835795879364,-1353.90002441406,26.1000003814697,-882.900024414062,2.05205308578081,0.414583905645741,0.299664253049679,ST
1.46666666666667,3.84546113014221,-2.58278131484985,8.47508811950684,0.0990860015153885,-0.304879993200302,0.754577994346619,-1373.10009765625,23.1000003814697,-885.300048828125,2.05009457028192,0.409888477184273,0.296437214248834,ST
1.5,3.82452607154846,-2.5217707157135,8.55224800109863,0.243903994560242,-0.274392008781433,1.05183601379395,-1361.10009765625,17.7000007629395,-885.300048828125,2.04903871925208,0.405396458867629,0.287636352520073,ST
1.53333333333333,4.03447437286377,-2.62465143203735,8.45594692230225,0.274392008781433,-0.564027965068817,1.09756803512573,-1353.90002441406,26.7000007629395,-890.100036621094,2.03851368226271,0.426832509672993,0.300759164629769,ST
1.56666666666667,4.00157642364502,-2.563640832901,8.417067527771,0.25152599811554,-0.525918006896973,0.937505960464478,-1370.70007324219,25.5000019073486,-878.100036621094,2.03607214632598,0.427201748952096,0.296330838459608,ST
1.6,3.99439883232117,-2.56483697891235,8.67546558380127,0.243903994560242,-0.228659987449646,0.975615978240967,-1358.70007324219,35.7000007629395,-899.700012207031,2.03495627943385,0.416193832626067,0.288176260999954,ST
1.63333333333333,4.2803111076355,-2.69463419914246,8.53430366516113,0.152439996600151,-0.67835795879364,0.983237981796265,-1380.30004882812,33.3000030517578,-875.700012207031,2.0233489704793,0.44488076468446,0.305385881554714,ST
1.66666666666667,4.47530555725098,-2.83519768714905,8.30162620544434,-0.304879993200302,-1.05183601379395,0.335367977619171,-1356.30004882812,27.3000011444092,-873.300048828125,2.01124481723664,0.471573574669549,0.328693479884611,ST
1.7,4.3006477355957,-2.83878660202026,8.3518705368042,-0.381099998950958,-0.556405961513519,-0.175305992364883,-1361.10009765625,27.9000015258789,-878.100036621094,2.0120363571753,0.455672662883713,0.328345810915442,ST
1.73333333333333,4.12539196014404,-2.76461672782898,8.45355415344238,-0.0990860015153885,-0.0838419944047928,-0.213415995240211,-1353.90002441406,28.5000019073486,-875.700012207031,2.01786888998364,0.435705852186973,0.316763004762599,ST
1.76666666666667,4.10266256332397,-2.77957034111023,8.45714378356934,0.0533539988100529,-0.144817993044853,0.205793991684914,-1351.5,26.7000007629395,-875.700012207031,2.01654960292947,0.432201568877568,0.317591173634105,ST
1.8,4.15410280227661,-2.77777600288391,8.47807884216309,0.0228659994900227,-0.243903994560242,0.403965979814529,-1353.90002441406,23.1000003814697,-880.500061035156,2.0150808544731,0.43572954127171,0.316991853385339,ST
1.83333333333333,4.26954460144043,-2.84117913246155,8.52054691314697,0.0533539988100529,-0.342989981174469,0.480185985565186,-1361.10009765625,27.9000015258789,-878.100036621094,2.01076120067096,0.443589748974006,0.321942725627332,ST
1.86666666666667,4.31320905685425,-2.82383298873901,8.3339262008667,0.0914639979600906,-0.403965979814529,0.396344006061554,-1349.10009765625,26.7000007629395,-880.500061035156,2.00650254666714,0.455647664633214,0.32674359155393,ST
1.9,4.24502086639404,-2.78555178642273,8.30641174316406,0.137196004390717,-0.175305992364883,0.388722002506256,-1353.90002441406,28.5000019073486,-880.500061035156,2.00598175656772,0.451537491263065,0.323869317101845,ST
1.93333333333333,4.14333629608154,-2.75684094429016,8.40749740600586,0.205793991684914,0.0914639979600906,0.403965979814529,-1365.90002441406,27.9000015258789,-868.500061035156,2.00719901830378,0.438426477335441,0.317215105230973,ST
1.96666666666667,4.10565328598022,-2.7622241973877,8.4057035446167,0.160062000155449,0.160062000155449,0.342989981174469,-1361.10009765625,23.7000007629395,-878.100036621094,2.00582853823722,0.434271124894781,0.317427109652006,ST
2.0,4.00516510009766,-2.72155046463013,8.50858402252197,0.160062000155449,0.137196004390717,0.289635986089706,-1351.5,16.5,-875.700012207031,2.00777519834288,0.421739270834123,0.309867852032564,ST
2.03333333333333,3.86041474342346,-2.65276408195496,8.58694076538086,0.160062000155449,0.0304879993200302,0.221037998795509,-1368.30004882812,20.1000003814697,-878.100036621094,2.01069200540538,0.40652463887371,0.300127375122679,ST
2.06666666666667,3.75932860374451,-2.58696842193604,8.34349632263184,0.106707997620106,0.0457319989800453,0.442075997591019,-1358.70007324219,32.1000022888184,-878.100036621094,2.00876614019621,0.40612151791747,0.30073970145015,ST
2.1,3.6893458366394,-2.51339673995972,8.572585105896,-0.0914639979600906,0.266770005226135,0.381099998950958,-1358.70007324219,29.7000007629395,-873.300048828125,2.01337775703631,0.391929148815606,0.286481878095912,ST
2.13333333333333,3.53681945800781,-2.38359975814819,8.83636569976807,-0.213415995240211,0.0838419944047928,0.487807989120483,-1356.30004882812,24.3000011444092,-875.700012207031,2.01982356669927,0.369829661208126,0.26549777549195,ST
2.16666666666667,3.2186074256897,-2.33814096450806,8.47927474975586,-0.594515979290009,0.243903994560242,0.594515979290009,-1365.90002441406,21.9000015258789,-887.700012207031,2.01706607897562,0.351182574436594,0.270159048469967,ST
2.2,3.30354356765747,-2.14434266090393,9.03016471862793,-0.92988395690918,0.304879993200302,0.78506600856781,-1353.90002441406,22.5,-875.700012207031,2.02691843934149,0.341673182543825,0.237100683564782,ST
2.23333333333333,3.55237102508545,-2.13357591629028,8.57198715209961,-1.08994603157043,-0.670735955238342,1.05945801734924,-1356.30004882812,25.5000019073486,-882.900024414062,2.02052450070919,0.381221433337143,0.246249188798115,ST
2.26666666666667,3.65046644210815,-2.07136917114258,8.64137172698975,-1.47866797447205,-0.914639949798584,0.853663980960846,-1363.5,16.5,-868.500061035156,2.02156773150253,0.390393759865898,0.239060728497209,ST
2.3,3.69353294372559,-1.97805881500244,8.61923980712891,-1.47866797447205,-1.37958192825317,0.556405961513519,-1349.10009765625,28.5000019073486,-880.500061035156,2.02436151250847,0.397321230531145,0.22941589862467,ST
2.33333333333333,3.83708715438843,-2.31660771369934,8.668288230896,-1.49391198158264,-1.39482593536377,0.525918006896973,-1365.90002441406,24.3000011444092,-880.500061035156,2.01070536867247,0.405700376145628,0.262278167883521,ST
2.36666666666667,4.09129810333252,-2.47451758384705,8.67666149139404,-1.36433792114258,-1.71494996547699,0.403965979814529,-1368.30004882812,26.1000003814697,-873.300048828125,2.00274496236589,0.427028623750957,0.279743129178571,ST
2.4,4.43881893157959,-2.60192203521729,8.29863548278809,-0.815553963184357,-1.81403601169586,0.335367977619171,-1368.30004882812,26.1000003814697,-868.500061035156,1.99017568967348,0.472430030241232,0.304705106830879,ST
2.43333333333333,4.62603759765625,-2.75983166694641,7.9397497177124,-0.419209986925125,-2.02745199203491,0.274392008781433,-1358.70007324219,24.9000015258789,-873.300048828125,1.97375366103579,0.504456186164208,0.334407150542796,ST
2.46666666666667,4.62424325942993,-2.66293239593506,8.02588272094727,0.213415995240211,-2.28659987449646,-0.0685980021953583,-1363.5,32.7000007629395,-861.300048828125,1.97723862534567,0.504260229345119,0.321457373468827,ST
2.5,4.45496892929077,-3.23714971542358,7.76210117340088,0.396344006061554,-1.84452390670776,0.266770005226135,-1375.5,23.1000003814697,-866.100036621094,1.94008580228488,0.490892958124879,0.390881356219666,ST
2.53333333333333,4.21272087097168,-3.70489764213562,7.89488887786865,0.205793991684914,-0.815553963184357,0.419209986925125,-1375.5,28.5000019073486,-863.700012207031,1.91589217482629,0.452764459683961,0.436966192558056,ST
2.56666666666667,3.84665751457214,-3.80598378181458,8.75980377197266,-0.0381099991500378,0.0533539988100529,-0.503051996231079,-1373.10009765625,24.3000011444092,-868.500061035156,1.92848722475099,0.386555514318549,0.410907762613019,ST
2.6,3.2586829662323,-3.80119848251343,9.85201263427734,0.0304879993200302,0.228659987449646,-0.846041977405548,-1375.5,24.9000015258789,-856.500061035156,1.94608651586507,0.303316873314105,0.369550037876301,ST
2.63333333333333,3.57091355323792,-3.31550645828247,9.04272556304932,0.282013982534409,-0.213415995240211,-0.960371971130371,-1382.70007324219,27.9000015258789,-858.900024414062,1.95499494639307,0.353658485516412,0.35127684550959,ST
2.66666666666667,3.95073437690735,-3.1587929725647,8.36502933502197,0.0304879993200302,-0.121951997280121,-1.05183601379395,-1370.70007324219,29.7000007629395,-854.100036621094,1.9552993222189,0.413046858162519,0.35975527474127,ST
2.7,4.47889471054077,-3.38608741760254,6.85471868515015,-0.243903994560242,-0.87652999162674,-0.121951997280121,-1382.70007324219,23.7000007629395,-856.500061035156,1.9127235000302,0.524276972721776,0.453115995043756,ST
2.73333333333333,4.60390663146973,-3.65824246406555,7.04014253616333,-1.21189796924591,-0.0304879993200302,-0.617381989955902,-1373.10009765625,23.7000007629395,-868.500061035156,1.90400804461744,0.526218698831681,0.479119331165515,ST
2.76666666666667,4.06737232208252,-3.11094164848328,8.22506427764893,-0.602137982845306,0.564027965068817,-1.07470202445984,-1375.5,27.3000011444092,-851.700012207031,1.96096034648763,0.438804696967687,0.368465361798451,ST
2.8,4.52554988861084,-3.64089632034302,8.27949523925781,-0.46494197845459,0.282013982534409,0.541162014007568,-1380.30004882812,26.1000003814697,-854.100036621094,1.94117830786039,0.461652136916979,0.412559511867724,ST
2.83333333333333,4.51897001266479,-3.82033920288086,8.31059837341309,-0.480185985565186,0.0762199983000755,0.0685980021953583,-1375.5,24.9000015258789,-858.900024414062,1.9339152352336,0.458893506962148,0.430589672266033,ST
2.86666666666667,4.49624061584473,-4.00875425338745,7.95231103897095,-0.495429992675781,0.472563982009888,-0.228659987449646,-1385.10009765625,25.5000019073486,-868.500061035156,1.92079375416129,0.466672766319693,0.465963696541028,ST
2.9,4.10385894775391,-4.09907388687134,7.66161346435547,-0.419209986925125,0.716467976570129,-0.533540010452271,-1380.30004882812,24.3000011444092,-856.500061035156,1.91397914742159,0.442157136156947,0.489807221628557,ST
2.93333333333333,3.56971716880798,-3.95432329177856,6.94144916534424,-0.198172003030777,1.82165801525116,-0.716467976570129,-1363.5,17.7000007629395,-870.900024414062,1.90917993728992,0.419535783881821,0.515341561696616,ST
2.96666666666667,3.5912504196167,-4.22109508514404,7.72501659393311,0.0914639979600906,2.01220798492432,-0.708845973014832,-1375.5,24.9000015258789,-861.300048828125,1.92107213435299,0.386963191121702,0.499782101382211,ST
3.0,3.95133256912231,-4.52614784240723,7.71903514862061,0.160062000155449,0.78506600856781,-0.670735955238342,-1368.30004882812,24.3000011444092,-870.900024414062,1.91362579823687,0.413521165125904,0.527500085376528,ST
3.03333333333333,3.66661643981934,-3.94116401672363,8.512770652771,0.891773998737335,0.190549999475479,-1.04421401023865,-1387.5,26.1000003814697,-873.300048828125,1.95167812544691,0.374919411596302,0.435490157119851,ST
3.06666666666667,3.2586829662323,-3.57988572120667,8.95001316070557,1.47866797447205,0.670735955238342,-1.05183601379395,-1363.5,29.1000003814697,-868.500061035156,1.97324064353383,0.328611197670213,0.380660337497125,ST
3.1,2.98832225799561,-3.11991381645203,9.10852146148682,2.31708788871765,1.12043392658234,-1.53202199935913,-1368.30004882812,23.7000007629395,-873.300048828125,1.99360132112342,0.301732594420367,0.328316509896502,ST
3.13333333333333,2.70300817489624,-2.77239274978638,9.50209903717041,2.98020195960999,0.891773998737335,-2.00458598136902,-1363.5,26.7000007629395,-868.500061035156,2.01211201870888,0.268247194756986,0.280678223803575,ST
3.16666666666667,2.8902268409729,-1.96310520172119,9.93096733093262,4.11588001251221,-0.3125019967556,-1.80641400814056,-1363.5,24.3000011444092,-870.900024414062,2.0378976764565,0.278660017780999,0.192818522681539,ST
3.2,3.81256318092346,-1.84048593044281,8.88541412353516,3.88721990585327,-2.11891603469849,-0.945127964019775,-1373.10009765625,21.9000015258789,-887.700012207031,2.03315843875426,0.394236031404359,0.196810850071033,ST
3.23333333333333,3.57450246810913,-1.22320234775543,8.50738716125488,3.41465592384338,-2.32470989227295,-1.20427596569061,-1363.5,16.5,-875.700012207031,2.05283972585446,0.398217062598798,0.139891870432617,ST
3.26666666666667,4.07813882827759,-1.73282015323639,7.78602695465088,2.20275783538818,-1.91312193870544,0.868907988071442,-1375.5,20.7000007629395,-868.500061035156,2.01448378465003,0.470978274514977,0.21142119578755,ST
3.3,4.68106698989868,-1.81356954574585,8.20592308044434,0.99848198890686,-1.92836594581604,0.762199997901917,-1370.70007324219,22.5,-863.700012207031,2.00606464738086,0.508771755405099,0.216545410040427,ST
3.33333333333333,4.33593845367432,-2.6096978187561,9.13364315032959,0.327746003866196,-1.07470202445984,1.265251994133,-1373.10009765625,21.3000011444092,-870.900024414062,1.97331212398743,0.434291138568977,0.275378845837301,ST
3.36666666666667,4.46752977371216,-2.46853613853455,9.5565299987793,0.342989981174469,-0.632625997066498,1.03659200668335,-1373.10009765625,12.9000005722046,-868.500061035156,1.97719430101769,0.426173308375154,0.25445231417143,ST
3.4,4.70798349380493,-2.75564455986023,9.22157001495361,0.632625997066498,-1.35671591758728,1.11281192302704,-1377.90002441406,12.3000001907349,-873.300048828125,1.95642409680116,0.454839416418311,0.28828927339839,ST
3.43333333333333,4.94066095352173,-2.50322842597961,8.83337497711182,0.899396002292633,-2.15702605247498,0.99848198890686,-1377.90002441406,19.5,-861.300048828125,1.95444524644295,0.494278957564101,0.276774123476219,ST
3.46666666666667,4.80009746551514,-2.37881469726562,8.26035404205322,0.556405961513519,-1.77592599391937,0.907018005847931,-1373.10009765625,20.1000003814697,-856.500061035156,1.9467596806097,0.510753408124927,0.28050517046303,ST
3.5,5.00406408309937,-2.30404663085938,8.97334098815918,0.487807989120483,-0.739333987236023,0.952749967575073,-1368.30004882812,15.9000005722046,-858.900024414062,1.95489404615373,0.49679388527618,0.252945136972839,ST
3.53333333333333,4.72233867645264,-2.33096313476562,8.68862438201904,0.685979962348938,-0.434453994035721,1.02134799957275,-1380.30004882812,14.7000007629395,-866.100036621094,1.94516525121446,0.484255149535631,0.261530419900065,ST
3.56666666666667,4.52315711975098,-2.43922710418701,8.05519104003906,0.327746003866196,0.37347799539566,0.899396002292633,-1380.30004882812,17.1000003814697,-861.300048828125,1.92746394371932,0.491604290245738,0.29218107994732,ST
3.6,4.25279664993286,-2.56483697891235,8.58813667297363,0.0762199983000755,1.14329993724823,0.701223969459534,-1389.90002441406,26.1000003814697,-861.300048828125,1.92685630278255,0.443843418756491,0.290489211817347,ST
3.63333333333333,4.2803111076355,-2.912358045578,8.44817161560059,0.0076219998300075,1.34909391403198,0.746955990791321,-1382.70007324219,14.7000007629395,-873.300048828125,1.90895196360987,0.444061078494002,0.329656053415711,ST
3.66666666666667,3.84964823722839,-3.22099995613098,8.81124401092529,-0.129574000835419,1.34909391403198,-0.381099998950958,-1377.90002441406,19.5,-854.100036621094,1.90435859030262,0.390840251536583,0.348890797555931,ST
3.7,3.30533814430237,-3.14563393592834,8.83696460723877,0.289635986089706,1.73781597614288,-0.0762199983000755,-1370.70007324219,15.9000005722046,-878.100036621094,1.90914579513661,0.338966986796555,0.341489125164502,ST
3.73333333333333,3.32627296447754,-3.16417622566223,8.57497787475586,0.617381989955902,1.79879200458527,0.320124000310898,-1377.90002441406,14.1000003814697,-866.100036621094,1.90611170212993,0.345462823339003,0.351568939646956,ST
3.76666666666667,3.59902620315552,-2.89381575584412,8.16166114807129,0.868907988071442,1.2576299905777,0.655492007732391,-1380.30004882812,12.3000001907349,-870.900024414062,1.90822687722823,0.388654831788515,0.34011089428384,ST
3.8,3.86998510360718,-3.13127851486206,8.31657981872559,0.78506600856781,0.647870004177094,0.83841997385025,-1387.5,19.5,-878.100036621094,1.89782255045367,0.40803745080216,0.358092832936018,ST
3.83333333333333,3.92501425743103,-3.19527983665466,8.1431188583374,0.419209986925125,0.617381989955902,0.632625997066498,-1373.10009765625,14.1000003814697,-887.700012207031,1.88997042111684,0.419621169447149,0.372541355173218,ST
3.86666666666667,3.81555390357971,-3.00207948684692,8.61146450042725,0.693601965904236,1.40244793891907,0.6250039935112,-1358.70007324219,17.1000003814697,-882.900024414062,1.9027163535286,0.395169178691797,0.336618576517474,ST
3.9,3.7252345085144,-2.78495359420776,9.2108039855957,1.22714197635651,1.21951997280121,0.221037998795509,-1370.70007324219,19.5,-890.100036621094,1.91735170416053,0.368923524929892,0.294098198155788,ST
3.93333333333333,3.10256767272949,-1.73341834545135,8.9536018371582,1.79117000102997,1.31098401546478,-0.3125019967556,-1373.10009765625,16.5,-882.900024414062,1.95139999172036,0.328489447917514,0.194140824013472,ST
3.96666666666667,3.6032133102417,-0.690257012844086,8.07193946838379,2.17227005958557,0.884151995182037,0.160062000155449,-1361.10009765625,15.3000001907349,-882.900024414062,1.98617380936442,0.411670280850283,0.0886703296023877,ST
4.0,3.57510042190552,-0.554478526115417,8.41288089752197,1.30336201190948,0.87652999162674,-0.411587983369827,-1365.90002441406,21.9000015258789,-875.700012207031,1.99532009853986,0.400313148943868,0.0647301714514061,ST
4.03333333333333,3.43633127212524,-0.652574002742767,9.44647216796875,0.792688012123108,0.899396002292633,-0.274392008781433,-1365.90002441406,16.5,-892.500061035156,1.99451423663117,0.349845023392124,0.0672234437967635,ST
4.06666666666667,3.85204076766968,-0.758445262908936,9.14141941070557,0.815553963184357,0.807931959629059,0.129574000835419,-1365.90002441406,15.3000001907349,-892.500061035156,1.98822010645691,0.393347986108437,0.0805216414145102,ST
4.1,4.38379001617432,-1.01385235786438,9.05289363861084,0.861285984516144,0.0152439996600151,0.426831990480423,-1368.30004882812,16.5,-885.300048828125,1.973499642081,0.445724995219491,0.108867424307782,ST
4.13333333333333,5.04892492294312,-1.80758810043335,8.43979740142822,-0.0076219998300075,-0.37347799539566,0.78506600856781,-1358.70007324219,10.5,-892.500061035156,1.92508523771492,0.52518862887297,0.205966704281374,ST
4.16666666666667,4.83658409118652,-2.00019001960754,8.17182922363281,-0.228659987449646,0.815553963184357,0.282013982534409,-1370.70007324219,8.70000076293945,-890.100036621094,1.90900453560114,0.520567232133476,0.238438643163193,ST
4.2,4.56562519073486,-2.38240337371826,8.35007572174072,0.327746003866196,2.43141794204712,0.518296003341675,-1349.10009765625,14.1000003814697,-897.300048828125,1.89128760208109,0.482234376404266,0.274915350162725,ST
4.23333333333333,4.41309881210327,-2.56722974777222,8.60488510131836,1.27287399768829,2.96495795249939,-0.0685980021953583,-1349.10009765625,14.7000007629395,-897.300048828125,1.88710067066205,0.453516750123956,0.286297217649089,ST
4.26666666666667,3.04993104934692,-1.58926582336426,9.63189601898193,2.24848985671997,3.24697184562683,-1.42531394958496,-1351.5,14.7000007629395,-902.100036621094,1.93662794434529,0.30725788254656,0.165889548776461,ST
4.3,2.92133021354675,-1.06888151168823,9.14799880981445,2.97257995605469,3.7881338596344,-0.0076219998300075,-1351.5,17.7000007629395,-899.700012207031,1.95060934129417,0.30085526550686,0.113049850381131,ST
4.33333333333333,2.50083565711975,-0.538328647613525,9.06007194519043,2.95733594894409,4.23783206939697,-0.861285984516144,-1351.5,12.9000005722046,-911.700012207031,1.96750712098055,0.263984465159624,0.0572263371894331,ST
4.36666666666667,2.39077734947205,-0.831418752670288,9.86397552490234,2.28659987449646,3.95581793785095,-0.297257989645004,-1334.70007324219,10.5,-899.700012207031,1.96231353542721,0.23219583356136,0.078483861748071,ST
4.4,2.60790324211121,-0.860129594802856,10.1235694885254,1.79879200458527,1.93598794937134,0.0609759986400604,-1332.30004882812,16.5,-918.900024414062,1.96021408607779,0.247027236805752,0.0814036374319106,ST
4.43333333333333,2.8202440738678,-0.421690791845322,8.90694713592529,1.83690190315247,1.63110792636871,2.04269599914551,-1334.70007324219,12.9000005722046,-914.100036621094,1.95984076923533,0.299890615782091,0.0473637587986151,ST
4.46666666666667,2.88603973388672,-0.10527316480875,8.60608100891113,0.891773998737335,2.62196803092957,1.41006994247437,-1327.5,14.7000007629395,-930.900024414062,1.96384104035747,0.317776567605035,0.0136487627936157,ST
4.5,2.33156132698059,0.501243829727173,10.4896335601807,0.87652999162674,3.18599581718445,-0.762199997901917,-1325.10009765625,9.90000057220459,-928.500061035156,1.98140969187549,0.219263640492252,-0.045783866226516,ST
4.53333333333333,2.31481337547302,-0.638218522071838,11.1248607635498,0.426831990480423,3.17075204849243,-1.02134799957275,-1322.70007324219,9.90000057220459,-921.300048828125,1.96529949985598,0.200512089051581,0.0505901593293448,ST
4.56666666666667,2.58517384529114,0.631639003753662,7.89249658584595,1.44817996025085,0.434453994035721,-1.16616594791412,-1327.5,13.5000009536743,-928.500061035156,1.99980936899765,0.307897357841283,-0.0745669794586386,ST
4.6,-0.125011876225471,-0.22011661529541,8.70058727264404,-1.56251001358032,3.65093803405762,-1.52439999580383,-1317.90002441406,3.90000009536743,-923.700012207031,1.99151275548534,-0.0004459907468466,0.0218438454128579,ST
4.63333333333333,1.36017715930939,-1.05452609062195,9.75870227813721,-3.45276594161987,1.79117000102997,-0.266770005226135,-1305.90002441406,8.10000038146973,-918.900024414062,1.98880669888231,0.126408041273536,0.107957196581373,ST
4.66666666666667,2.34053349494934,-1.26507234573364,10.4172582626343,-2.35519790649414,-1.76830399036407,0.602137982845306,-1308.30004882812,17.1000003814697,-930.900024414062,1.98456998799223,0.216553578298519,0.124207249552496,ST
4.7,2.73650407791138,-2.75923347473145,10.0673446655273,-2.84300589561462,-2.78202986717224,-0.442075997591019,-1310.70007324219,10.5,-918.900024414062,1.95389198546395,0.258677846525342,0.263504900490611,ST
4.73333333333333,2.69224143028259,-2.15750169754028,9.35256385803223,-1.95123195648193,-1.99696397781372,-0.830797970294952,-1327.5,14.7000007629395,-926.100036621094,1.96557059646451,0.276088945916082,0.231998640475749,ST
4.76666666666667,2.85374021530151,-2.95542430877686,8.20891380310059,-1.62348592281342,-1.74543797969818,0.564027965068817,-1325.10009765625,14.7000007629395,-926.100036621094,1.93135920248802,0.316190261084329,0.341853876170105,ST
4.8,2.94346165657043,-3.3107213973999,8.09706115722656,-1.16616594791412,-1.82165801525116,0.556405961513519,-1325.10009765625,9.90000057220459,-914.100036621094,1.91360682014092,0.326583702057257,0.388199314310327,ST
4.83333333333333,2.57440733909607,-3.74437499046326,8.3578519821167,-0.739333987236023,-2.18751406669617,0.701223969459534,-1313.10009765625,14.7000007629395,-909.300048828125,1.89877275431295,0.280037750678846,0.421185097872208,ST
4.86666666666667,2.64319372177124,-2.97516322135925,9.36452674865723,1.02134799957275,-3.52136397361755,1.94360995292664,-1322.70007324219,14.1000003814697,-918.900024414062,1.91424061956995,0.268133860033058,0.312240144895285,ST
4.9,2.62106251716614,-2.24901747703552,9.27719783782959,1.97409796714783,-3.09453201293945,1.45580196380615,-1329.90002441406,14.7000007629395,-916.500061035156,1.92275607925088,0.272336719060451,0.240092211233307,ST
4.93333333333333,2.5056209564209,-1.72982943058014,9.1868782043457,2.69056582450867,-1.63110792636871,2.15702605247498,-1332.30004882812,12.9000005722046,-916.500061035156,1.92471854279077,0.264463134927492,0.186045649688034,ST
4.96666666666667,2.66711950302124,-2.11084651947021,9.89388275146484,1.2576299905777,-1.41769194602966,3.16313004493713,-1329.90002441406,15.9000005722046,-926.100036621094,1.90450042107623,0.259405517968209,0.208155121151219,ST
5.0,2.8722825050354,-0.467747807502747,10.7611904144287,2.69818782806396,-1.97409796714783,2.40855193138123,-1325.10009765625,19.5,-906.900024414062,1.93244264673929,0.263646772406347,0.050146520993151,ST
5.03333333333333,2.81665515899658,-0.750071287155151,9.96326732635498,2.22562384605408,-1.99696397781372,2.78965187072754,-1332.30004882812,15.3000001907349,-914.100036621094,1.91306014802076,0.277065416541071,0.0713284450849439,ST
5.06666666666667,4.02669858932495,-0.948056638240814,7.80636405944824,0.487807989120483,-2.20275783538818,3.01831197738647,-1344.30004882812,14.7000007629395,-902.100036621094,1.88287366798082,0.46431812970466,0.119342455352511,ST
5.1,2.98293900489807,-1.39546751976013,8.70597076416016,-0.853663980960846,-0.594515979290009,2.30184388160706,-1346.70007324219,15.3000001907349,-906.900024414062,1.85965636777343,0.334990836886533,0.159527128323339,ST
5.13333333333333,2.42188096046448,-1.45767438411713,9.45006084442139,-0.640248000621796,0.0685980021953583,3.13264203071594,-1329.90002441406,14.7000007629395,-911.700012207031,1.84950225430711,0.252416382428457,0.155856567940227,ST
5.16666666666667,2.81486082077026,-1.3099330663681,9.71384143829346,0.0152439996600151,-0.175305992364883,3.84148788452148,-1329.90002441406,22.5,-909.300048828125,1.83951208760861,0.277415166335388,0.137113154333664,ST
5.2,3.19348526000977,-2.01933073997498,8.71494293212891,-0.510673999786377,-0.960371971130371,2.77440786361694,-1349.10009765625,17.1000003814697,-911.700012207031,1.80192045359122,0.339941348419064,0.225149904105518,ST
5.23333333333333,3.32507681846619,-1.91704821586609,8.51217269897461,-0.78506600856781,0.0381099991500378,2.32470989227295,-1325.10009765625,18.9000015258789,-906.900024414062,1.79472865269275,0.361719876197328,0.22441767758079,ST
5.26666666666667,2.33814096450806,-1.69154834747314,9.65043830871582,0.0762199983000755,1.50153398513794,1.45580196380615,-1337.10009765625,17.7000007629395,-904.500061035156,1.80434656590009,0.239135930136065,0.17690649793982,ST
5.3,2.43204927444458,-1.4540855884552,9.06246376037598,0.914639949798584,1.33385002613068,2.20275783538818,-1337.10009765625,18.9000015258789,-904.500061035156,1.80006365937447,0.255079147723871,0.159510150497176,ST
5.33333333333333,2.00736784934998,-0.800315320491791,9.27899169921875,0.990859985351562,1.05183601379395,1.73781597614288,-1327.5,17.1000003814697,-921.300048828125,1.80856549037988,0.211955221317143,0.0878494794332555,ST
5.36666666666667,2.44341397285461,-1.15621042251587,8.80167388916016,0.0685980021953583,1.17378795146942,2.02745199203491,-1329.90002441406,15.9000005722046,-914.100036621094,1.79123887103885,0.263178037753787,0.128941519819668,ST
5.4,2.05342483520508,-1.28122222423553,9.23293495178223,-0.762199997901917,1.37195992469788,0.663114011287689,-1332.30004882812,18.3000011444092,-914.100036621094,1.78775999175342,0.217258934771563,0.138776564201952,ST
5.43333333333333,2.10606145858765,-1.47262799739838,9.49432373046875,-1.51677799224854,1.60824191570282,-0.137196004390717,-1315.5,20.7000007629395,-916.500061035156,1.78700623742701,0.213307262499414,0.155315642821454,ST
5.46666666666667,1.72683870792389,-1.73700714111328,10.5841398239136,-1.41006994247437,1.47866797447205,-0.899396002292633,-1320.30004882812,15.9000005722046,-914.100036621094,1.79083025501891,0.160730879293869,0.164221163628518,ST
5.5,1.99719941616058,-1.64369690418243,9.39144325256348,-0.647870004177094,0.708845973014832,-0.342989981174469,-1313.10009765625,14.1000003814697,-906.900024414062,1.79143153141586,0.202665513427659,0.173628474238565,ST
5.53333333333333,1.54919028282166,-1.58149003982544,8.33811283111572,-0.525918006896973,1.49391198158264,-0.556405961513519,-1327.5,17.1000003814697,-914.100036621094,1.79277321008573,0.179249001432449,0.18746270326754,ST
5.56666666666667,1.48279643058777,-1.1436493396759,9.60198879241943,-0.152439996600151,1.89787793159485,-0.823175966739655,-1315.5,21.3000011444092,-914.100036621094,1.80786409169795,0.150914804587372,0.1226916029315,ST
5.6,2.21970868110657,-1.70291304588318,9.28258037567139,-0.952749967575073,0.182927995920181,-1.82927989959717,-1322.70007324219,23.7000007629395,-921.300048828125,1.81311074411687,0.231238559591276,0.182324723386487,ST
5.63333333333333,2.53313541412354,-2.00617146492004,9.4375,-1.40244793891907,-0.137196004390717,-2.23324584960938,-1322.70007324219,23.1000003814697,-923.700012207031,1.81646170215085,0.256169931618869,0.20918909325449,ST
5.66666666666667,2.39077734947205,-1.77528834342957,9.12586688995361,-1.28811800479889,0.716467976570129,-2.27135586738586,-1320.30004882812,17.1000003814697,-916.500061035156,1.83074669251256,0.251552831928408,0.194278771798615,ST
5.7,1.79323267936707,-1.78964376449585,9.38665771484375,-0.67835795879364,2.00458598136902,-1.96647596359253,-1317.90002441406,16.5,-911.700012207031,1.84215281483812,0.186090161680311,0.189056353237693,ST
5.73333333333333,2.35189819335938,-1.50552582740784,9.39503192901611,0.106707997620106,1.03659200668335,-1.10518991947174,-1313.10009765625,15.3000001907349,-928.500061035156,1.85312643149075,0.237535883939293,0.160097833351365,ST
5.76666666666667,1.98703098297119,-1.6383136510849,9.79877853393555,-0.525918006896973,1.2500079870224,-2.39330792427063,-1322.70007324219,19.5,-916.500061035156,1.86255072750329,0.198457812867106,0.165320022853968,ST
5.8,2.13297772407532,-2.05701375007629,9.77485275268555,-0.92988395690918,0.449698001146317,-2.59148001670837,-1308.30004882812,14.7000007629395,-933.300048828125,1.86555624760727,0.209777657074167,0.205466573864096,ST
5.83333333333333,2.64439010620117,-1.61199533939362,8.60608100891113,-0.236281991004944,-0.739333987236023,-1.95123195648193,-1315.5,15.3000001907349,-926.100036621094,1.87852717805774,0.291834790783862,0.185525242959193,ST
5.86666666666667,1.91106677055359,-1.64788389205933,8.8878059387207,-0.167683988809586,1.04421401023865,-2.32470989227295,-1310.70007324219,15.9000005722046,-933.300048828125,1.88906422407213,0.212422945497271,0.182818100599833,ST
5.9,1.75495147705078,-1.54919028282166,9.97762298583984,0.556405961513519,1.79117000102997,-1.63110792636871,-1310.70007324219,24.3000011444092,-933.300048828125,1.90163497357025,0.172058010479275,0.15430216417989,ST
5.93333333333333,1.44451522827148,-1.17295837402344,9.77844142913818,0.487807989120483,1.08232402801514,-2.54574799537659,-1301.10009765625,12.9000005722046,-923.700012207031,1.91737437779394,0.146003165587921,0.120035873728615,ST
5.96666666666667,1.6024249792099,-1.39546751976013,9.44168663024902,-0.152439996600151,0.846041977405548,-2.60672402381897,-1303.5,9.90000057220459,-926.100036621094,1.92440568143886,0.164337279851908,0.144638975376406,ST
6.0,1.8267285823822,-1.66523003578186,9.59062480926514,-1.21951997280121,1.08232402801514,-3.30794787406921,-1301.10009765625,21.9000015258789,-926.100036621094,1.93431483920795,0.183373516449042,0.171224922455106,ST
6.03333333333333,2.01035857200623,-1.81237316131592,9.58284854888916,-1.29574000835419,0.571649968624115,-3.10977602005005,-1296.30004882812,11.7000007629395,-935.700012207031,1.94479991889883,0.202091098907891,0.187041363918625,ST
6.06666666666667,2.07495808601379,-1.91405749320984,8.99128532409668,-0.99848198890686,0.0381099991500378,-2.78965187072754,-1303.5,12.3000001907349,-928.500061035156,1.95183411431391,0.221661892216118,0.209004850458957,ST
6.1,1.91704821586609,-1.31950342655182,9.78801155090332,-0.0076219998300075,0.221037998795509,-2.27135586738586,-1305.90002441406,8.70000076293945,-930.900024414062,1.97551861584103,0.193758954127594,0.137790035342174,ST
6.13333333333333,2.66951203346252,-1.2058562040329,8.79928112030029,0.533540010452271,-0.945127964019775,-0.868907988071442,-1310.70007324219,10.5,-923.700012207031,1.97849280498519,0.28773494539039,0.135090716530013,ST
6.16666666666667,2.57500553131104,-1.44032824039459,8.74185943603516,-0.274392008781433,-0.533540010452271,-0.716467976570129,-1286.70007324219,9.30000019073486,-938.100036621094,1.97371368128906,0.284200421940448,0.16173968369992,ST
6.2,2.50861167907715,-1.97446990013123,10.234824180603,-0.78506600856781,0.342989981174469,-0.0304879993200302,-1293.90002441406,17.1000003814697,-918.900024414062,1.96752213965303,0.237740129342683,0.190596376834662,ST
6.23333333333333,2.23346590995789,-1.91764640808105,9.47398662567139,-0.266770005226135,0.137196004390717,-1.28049600124359,-1305.90002441406,10.5,-935.700012207031,1.97083798696663,0.227915359413824,0.199108448674763,ST
6.26666666666667,1.38948607444763,-3.1468300819397,9.68094444274902,-1.46342396736145,2.4923939704895,-3.16313004493713,-1303.5,13.5000009536743,-935.700012207031,1.96770004365868,0.137353358847742,0.310780893039493,ST
6.3,0.613694667816162,-2.20834374427795,10.1116065979004,-0.358233988285065,3.353679895401,-3.59758400917053,-1293.90002441406,9.30000019073486,-940.500061035156,1.99462663304687,0.0594956618765856,0.220326855508685,ST
6.33333333333333,0.342137783765793,-1.44092643260956,10.3173685073853,1.20427596569061,3.00306797027588,-2.40855193138123,-1296.30004882812,14.7000007629395,-945.300048828125,2.00992831873567,0.029998208674566,0.141069734714288,ST
6.36666666666667,0.891831159591675,-1.38769173622131,9.68871974945068,1.11281192302704,2.61434602737427,-1.96647596359253,-1279.5,5.70000028610229,-940.500061035156,2.01900238217264,0.0833776594796209,0.140079706294826,ST
6.4,1.22918379306793,-1.12450873851776,9.90584564208984,1.43293595314026,1.57775402069092,-1.18903195858002,-1286.70007324219,15.3000001907349,-935.700012207031,2.02704172971115,0.118375497004437,0.111733078273034,ST
6.43333333333333,1.67719292640686,-0.735117733478546,9.09416580200195,1.32622802257538,0.525918006896973,-0.846041977405548,-1281.90002441406,12.3000001907349,-942.900024414062,2.03452982346594,0.177588112946942,0.0799367520149228,ST
6.46666666666667,0.885251581668854,-0.678892254829407,8.47209739685059,0.830797970294952,1.72257196903229,-0.746955990791321,-1272.30004882812,2.70000004768372,-950.100036621094,2.03811189638678,0.104262354387434,0.0784118987535028,ST
6.5,0.875681281089783,-1.35778450965881,10.6571130752563,0.0609759986400604,2.85062789916992,-0.358233988285065,-1272.30004882812,14.7000007629395,-947.700012207031,2.03662567979712,0.0781540240977708,0.123605356895458,ST
6.53333333333333,1.8847484588623,-1.75554966926575,9.73417854309082,-0.198172003030777,-0.0609759986400604,-0.167683988809586,-1272.30004882812,8.70000076293945,-935.700012207031,2.03065733850971,0.181741988710175,0.175340252167115,ST
6.56666666666667,1.08682572841644,-1.60780835151672,9.521240234375,-0.419209986925125,0.274392008781433,-0.861285984516144,-1272.30004882812,8.10000038146973,-950.100036621094,2.03587615691542,0.114936963465081,0.1681567521982,ST
6.6,0.724351167678833,-1.68018364906311,9.97164154052734,-0.0304879993200302,1.13567793369293,-0.160062000155449,-1262.70007324219,8.70000076293945,-938.100036621094,2.03738823980051,0.0723485565309526,0.167009663559624,ST
6.63333333333333,0.527562081813812,-1.43374872207642,9.72939395904541,0.617381989955902,1.30336201190948,0.861285984516144,-1272.30004882812,12.3000001907349,-954.900024414062,2.03589136468843,0.0524051714518912,0.146610943634635,ST
6.66666666666667,0.464757084846497,-1.35957896709442,8.88900279998779,0.259148001670837,1.08994603157043,1.6844619512558,-1257.90002441406,9.90000057220459,-940.500061035156,2.0295521565612,0.0495032675831934,0.151159818771608,ST
6.7,0.760239720344543,-1.5563679933548,9.17670917510986,-0.320124000310898,1.08994603157043,1.89787793159485,-1262.70007324219,12.3000001907349,-940.500061035156,2.02175950493935,0.0772844086937138,0.16770663168338,ST
6.73333333333333,0.548497080802917,-1.65924859046936,9.19585037231445,-0.78506600856781,1.14329993724823,0.762199997901917,-1267.5,9.30000019073486,-952.500061035156,2.01883955430661,0.0574539914487883,0.179342875327724,ST
6.76666666666667,0.0634031519293785,-1.47502052783966,8.90335845947266,-0.411587983369827,1.59299790859222,0.990859985351562,-1250.70007324219,8.70000076293945,-947.700012207031,2.01621587192443,0.0063447927430841,0.165549616722537,ST
6.8,0.0711790099740028,-1.43673944473267,9.96266937255859,0.144817993044853,1.36433792114258,1.21189796924591,-1262.70007324219,8.70000076293945,-933.300048828125,2.01196599672731,0.0044912694284138,0.143972377986507,ST
6.83333333333333,0.209948182106018,-1.41341185569763,9.98480033874512,0.213415995240211,0.0152439996600151,1.93598794937134,-1255.5,8.70000076293945,-950.100036621094,2.00427605590903,0.0193565094404284,0.140528402826283,ST
6.86666666666667,0.77579140663147,-1.40563595294952,9.95549201965332,0.213415995240211,-1.02134799957275,2.66007804870605,-1269.90002441406,5.70000028610229,-947.700012207031,1.99306151279128,0.0745633381266644,0.14023308230406,ST
6.9,1.41101932525635,-1.6903520822525,9.42613506317139,0.0838419944047928,-0.861285984516144,2.21037983894348,-1262.70007324219,9.90000057220459,-950.100036621094,1.97958234066653,0.143157152655422,0.175772447591049,ST
6.93333333333333,1.21841728687286,-1.98942351341248,9.64086818695068,-0.304879993200302,0.0914639979600906,1.42531394958496,-1267.5,9.90000057220459,-962.100036621094,1.97046245663364,0.123627810188718,0.20278207200586,ST
6.96666666666667,0.785959839820862,-1.87996339797974,9.52602481842041,-0.442075997591019,1.20427596569061,0.701223969459534,-1255.5,12.9000005722046,-957.300048828125,1.96951044634634,0.0812036374987194,0.196118010940543,ST
7.0,0.372044920921326,-1.79981219768524,9.97403430938721,-0.289635986089706,1.82927989959717,0.518296003341675,-1245.90002441406,8.10000038146973,-962.100036621094,1.96982476134871,0.0362844360356477,0.180082428678078,ST
7.03333333333333,0.444420218467712,-1.9648996591568,9.82808685302734,-0.327746003866196,0.891773998737335,0.198172003030777,-1265.10009765625,15.9000005722046,-959.700012207031,1.96911711589754,0.0423289293705807,0.196818603608523,ST
7.06666666666667,0.257201462984085,-1.4821982383728,8.85789966583252,-0.0838419944047928,0.274392008781433,-0.114329993724823,-1260.30004882812,14.7000007629395,-950.100036621094,1.97081408740691,0.0290496495252421,0.167803772874608,ST
7.1,0.595750391483307,-1.68078172206879,9.77305793762207,0.0076219998300075,0.175305992364883,-0.259148001670837,-1245.90002441406,14.7000007629395,-950.100036621094,1.97185905165058,0.0579155598117597,0.17012599551334,ST
7.13333333333333,0.968393445014954,-1.69633340835571,9.51884746551514,-0.190549999475479,-0.754577994346619,-1.18140995502472,-1253.10009765625,20.1000003814697,-959.700012207031,1.97585002297451,0.0993411773391822,0.17620736499866,ST
7.16666666666667,1.55218100547791,-1.29976463317871,9.1390266418457,0.0304879993200302,-1.34909391403198,-1.41769194602966,-1260.30004882812,13.5000009536743,-964.500061035156,1.98495876316273,0.165044092805514,0.143061640649703,ST
7.2,1.62216377258301,-1.47382426261902,8.69879341125488,0.0076219998300075,-0.640248000621796,-1.69970595836639,-1260.30004882812,14.7000007629395,-950.100036621094,1.98728077465028,0.182300830788591,0.165847852773768,ST
7.23333333333333,0.818259596824646,-2.04445266723633,9.19644832611084,-0.190549999475479,0.846041977405548,-1.59299790859222,-1260.30004882812,11.1000003814697,-947.700012207031,1.98785476564927,0.0905224853832809,0.216212110214785,ST
7.26666666666667,0.43425178527832,-2.09469676017761,10.4692964553833,0.243903994560242,1.49391198158264,-0.815553963184357,-1248.30004882812,17.7000007629395,-954.900024414062,1.99342715911783,0.0415392118468964,0.198120545171067,ST
7.3,0.375035643577576,-2.31600952148438,10.7934894561768,0.381099998950958,0.495429992675781,-0.434453994035721,-1250.70007324219,11.7000007629395,-966.900024414062,1.99504802547997,0.0337721860543718,0.209911507925146,ST
7.33333333333333,0.61847984790802,-2.2292788028717,9.96924877166748,0.0076219998300075,-0.266770005226135,-0.518296003341675,-1238.70007324219,12.3000001907349,-952.500061035156,1.99641572975848,0.0594609359131523,0.219331687201399,ST
7.36666666666667,0.905588448047638,-2.22628808021545,8.87524509429932,-0.411587983369827,0.602137982845306,-0.670735955238342,-1250.70007324219,19.5,-966.900024414062,1.99777127917261,0.0955728206813525,0.244721598329816,ST
7.4,0.88285905122757,-2.44939541816711,8.4296293258667,-0.533540010452271,0.990859985351562,-0.350611984729767,-1243.5,9.30000019073486,-954.900024414062,1.99685035623476,0.0985491963560191,0.281249708525562,ST
7.43333333333333,0.0376830063760281,-2.49724698066711,8.84892749786377,-0.0685980021953583,2.21800184249878,0.175305992364883,-1236.30004882812,7.50000047683716,-959.700012207031,1.99892422935669,0.0062438621236522,0.275542879208954,ST
7.46666666666667,-0.51739364862442,-2.39077734947205,9.92857551574707,0.655492007732391,2.71343183517456,0.3125019967556,-1231.5,14.7000007629395,-966.900024414062,1.99971186808389,-0.0523351433553327,0.237167517889431,ST
7.5,-0.245836764574051,-2.30045795440674,10.1265602111816,1.21189796924591,1.48628997802734,0.647870004177094,-1236.30004882812,14.7000007629395,-971.700012207031,1.9979945979265,-0.0275878898453649,0.221948314401022,ST
7.53333333333333,-0.472532957792282,-1.83689701557159,9.62651252746582,1.02897000312805,0.708845973014832,0.724089980125427,-1226.70007324219,7.50000047683716,-974.100036621094,1.99461933160534,-0.0483041814310834,0.188845624731643,ST
7.56666666666667,-0.57361912727356,-1.96250712871552,9.29334735870361,0.327746003866196,1.15092194080353,0.868907988071442,-1241.10009765625,6.30000019073486,-974.100036621094,1.99301665588794,-0.0618931870325757,0.20656532509079,ST
7.6,-0.765024840831757,-2.21432518959045,9.72640323638916,-0.205793991684914,1.81403601169586,0.647870004177094,-1245.90002441406,12.9000005722046,-978.900024414062,1.99314548265508,-0.0787895329569752,0.223106229774141,ST
7.63333333333333,-0.0089721446856856,-2.31600952148438,9.31368446350098,-0.0,0.396344006061554,0.868907988071442,-1238.70007324219,10.5,-966.900024414062,1.99057478776916,-0.0050014749100833,0.242899961865364,ST
7.66666666666667,-0.501841962337494,-2.30943012237549,9.0313606262207,0.655492007732391,0.381099998950958,0.861285984516144,-1224.30004882812,6.90000009536743,-957.300048828125,1.98758421466145,-0.0526075763429205,0.248870545316815,ST
7.7,-0.449205368757248,-2.37044048309326,9.84842395782471,0.983237981796265,0.830797970294952,0.990859985351562,-1226.70007324219,9.30000019073486,-957.300048828125,1.98393325412408,-0.0464855834544782,0.235207583853328,ST
7.73333333333333,0.0496458671987057,-2.25679349899292,9.46381855010986,1.29574000835419,0.0457319989800453,0.99848198890686,-1224.30004882812,15.3000001907349,-959.700012207031,1.97983690960309,0.0021168903715841,0.231992230822667,ST
7.76666666666667,-0.241051614284515,-2.15809988975525,9.36811542510986,1.12043392658234,0.282013982534409,0.884151995182037,-1221.90002441406,6.90000009536743,-952.500061035156,1.97660667514727,-0.0241982489097608,0.224891857064674,ST
7.8,-0.396568775177002,-1.98762905597687,9.91421985626221,1.27287399768829,1.08232402801514,1.265251994133,-1205.10009765625,4.5,-966.900024414062,1.97180243360526,-0.0404469164146475,0.197347180026928,ST
7.83333333333333,-0.28112718462944,-1.81356954574585,9.1928596496582,1.31098401546478,0.967993974685669,1.45580196380615,-1200.30004882812,13.5000009536743,-966.900024414062,1.96681876939822,-0.032643387564379,0.192716162656772,ST
7.86666666666667,-0.402550220489502,-1.67779099941254,8.8937873840332,1.04421401023865,1.2576299905777,1.39482593536377,-1217.10009765625,7.50000047683716,-969.300048828125,1.9621149544126,-0.0461832195855407,0.18504139664085,ST
7.9,-0.538328647613525,-1.62395811080933,9.07681941986084,0.907018005847931,1.2576299905777,1.21951997280121,-1217.10009765625,3.90000009536743,-971.700012207031,1.95790436861466,-0.0599627528533976,0.175944647412913,ST
7.93333333333333,-0.455784946680069,-1.90329098701477,9.00922966003418,0.716467976570129,0.716467976570129,1.44055795669556,-1214.70007324219,6.30000019073486,-969.300048828125,1.9545483127768,-0.0517187784664726,0.204960671611083,ST
7.96666666666667,-0.738108456134796,-1.82971930503845,9.55473613739014,0.952749967575073,-0.327746003866196,1.30336201190948,-1219.5,6.90000009536743,-959.700012207031,1.94836104478267,-0.074152044032232,0.188445980454862,ST
8.0,-1.0975923538208,-2.04983592033386,9.29574012756348,1.04421401023865,-1.13567793369293,2.09605002403259,-1231.5,9.90000057220459,-969.300048828125,1.94189693351337,-0.111231388372764,0.213190656808842,ST
8.03333333333333,-1.23396897315979,-2.4517879486084,9.73058986663818,1.03659200668335,-1.29574000835419,3.44514393806458,-1214.70007324219,17.1000003814697,-964.500061035156,1.93032887268528,-0.121077572355124,0.242728526290668,ST
8.06666666666667,-0.215929612517357,-1.79562520980835,9.4195556640625,1.20427596569061,-2.24848985671997,3.38416790962219,-1217.10009765625,9.30000019073486,-971.700012207031,1.91057895354328,-0.0247839813018894,0.188782412179157,ST
8.1,-0.11484345048666,-1.1155366897583,10.0655498504639,1.90549993515015,-1.28811800479889,2.99544596672058,-1217.10009765625,7.50000047683716,-962.100036621094,1.89511752135198,-0.010328739826953,0.110200451813509,ST
8.13333333333333,0.667527556419373,-1.52107763290405,9.45305156707764,1.53964400291443,-0.967993974685669,2.37044191360474,-1209.90002441406,3.90000009536743,-959.700012207031,1.8836631354975,0.0657568392237907,0.154237583678288,ST
8.16666666666667,0.136376604437828,-1.52167570590973,9.82689094543457,1.14329993724823,-0.449698001146317,0.297257989645004,-1221.90002441406,7.50000047683716,-971.700012207031,1.88204783470407,0.0169269179818055,0.151776778330059,ST
8.2,0.222509190440178,-1.63711726665497,9.6402702331543,0.99848198890686,-0.815553963184357,0.0152439996600151,-1231.5,9.30000019073486,-966.900024414062,1.88109586054573,0.0237138014292556,0.165587902828778,ST
8.23333333333333,-0.111254595220089,-1.02521705627441,9.43211650848389,2.34757590293884,-0.701223969459534,1.19665396213531,-1233.90002441406,9.90000057220459,-966.900024414062,1.87634970722521,-0.0086690676257882,0.107886160003428,ST
8.26666666666667,-0.123217448592186,-0.742893576622009,8.90874099731445,3.46800994873047,1.07470202445984,2.57623600959778,-1221.90002441406,0.300000011920929,-954.900024414062,1.86622148391126,-0.0155817561311049,0.0789459540996176,ST
8.3,-0.138171032071114,-0.881662726402283,9.44766807556152,3.95581793785095,3.7805118560791,2.9116039276123,-1236.30004882812,3.90000009536743,-964.500061035156,1.85621559691256,-0.02120296385103,0.0856256835149793,ST
8.33333333333333,-0.82364284992218,-0.674705266952515,10.6959924697876,3.90246391296387,4.11588001251221,1.99696397781372,-1209.90002441406,0.900000035762787,-969.300048828125,1.84825800313358,-0.0813216876680243,0.0572674556332175,ST
8.36666666666667,-1.18970632553101,0.198583468794823,10.4782686233521,3.21648383140564,2.10367202758789,0.800309956073761,-1212.30004882812,9.90000057220459,-966.900024414062,1.83890965967367,-0.114566430004343,-0.0197401815834914,ST
8.4,-1.03897428512573,0.342137783765793,9.20721435546875,1.38720393180847,-0.228659987449646,0.0838419944047928,-1205.10009765625,2.70000004768372,-976.500061035156,1.83712251570271,-0.112034027156948,-0.0384966546540587,ST
8.43333333333333,-1.02043187618256,-0.0358885787427425,8.71733570098877,-0.487807989120483,-1.02134799957275,-0.175305992364883,-1221.90002441406,0.300000011920929,-964.500061035156,1.84227389856021,-0.114586919583032,0.0023638661874206,ST
8.46666666666667,-1.34163463115692,-0.217724040150642,9.31966590881348,-1.34147191047668,-1.34147191047668,0.243903994560242,-1212.30004882812,5.10000038146973,-971.700012207031,1.84323912189941,-0.139186453133386,0.0243603553504741,ST
8.5,-0.973178625106812,-0.903794050216675,9.8256950378418,-1.75305998325348,-1.6920839548111,1.09756803512573,-1214.70007324219,2.70000004768372,-964.500061035156,1.84501497475091,-0.0974577062962155,0.0914837128859498,ST
8.53333333333333,-1.10835897922516,-0.735715866088867,10.8568935394287,-1.265251994133,-1.6692179441452,1.47104597091675,-1212.30004882812,10.5,-964.500061035156,1.83608955655111,-0.0987112795890085,0.0709225750106983,ST
8.56666666666667,-0.781174719333649,-0.794932007789612,10.4645109176636,-0.800309956073761,-1.57013201713562,1.33385002613068,-1224.30004882812,2.70000004768372,-966.900024414062,1.83050023327426,-0.073375615148475,0.0766507859096248,ST
8.6,-0.512608528137207,-0.916953146457672,10.3520603179932,-1.12043392658234,-1.03659200668335,0.640248000621796,-1217.10009765625,6.90000009536743,-954.900024414062,1.82772913670708,-0.0485966444857567,0.0897016667610798,ST
8.63333333333333,-0.235668331384659,-0.706406831741333,9.10672664642334,-1.12805593013763,-1.17378795146942,0.259148001670837,-1224.30004882812,2.70000004768372,-964.500061035156,1.82578104040413,-0.0252938299996118,0.0799915628458674,ST
8.66666666666667,-0.251818180084229,-0.971982300281525,8.68503570556641,-1.14329993724823,-0.670735955238342,0.259148001670837,-1226.70007324219,3.90000009536743,-969.300048828125,1.82517914175481,-0.0275463974726163,0.111403454266919,ST
8.7,-0.487486511468887,-0.799717128276825,8.89498424530029,-0.693601965904236,0.182927995920181,0.190549999475479,-1212.30004882812,11.1000003814697,-962.100036621094,1.82355443144981,-0.0533900125323874,0.0919835483732659,ST
8.73333333333333,-0.201574176549911,-1.22320234775543,9.32205867767334,-0.46494197845459,-0.198172003030777,0.396344006061554,-1238.70007324219,14.7000007629395,-952.500061035156,1.82322374644544,-0.0231338736797077,0.128882937487737,ST
8.76666666666667,-0.145946890115738,-1.00248765945435,8.89857292175293,-0.381099998950958,-0.480185985565186,0.365855991840363,-1205.10009765625,5.10000038146973,-974.100036621094,1.8212054108529,-0.0159987021863055,0.113808917157096,ST
8.8,-0.331969350576401,-0.798520863056183,8.78672027587891,-0.213415995240211,-0.0076219998300075,1.05183601379395,-1221.90002441406,5.10000038146973,-976.500061035156,1.81639531304268,-0.0364523852303159,0.0923272839226856,ST
8.83333333333333,-0.494066089391708,-1.29856836795807,9.84902191162109,-0.609759986400604,0.388722002506256,1.18140995502472,-1200.30004882812,3.30000019073486,-969.300048828125,1.8129587802539,-0.0500021626963383,0.130312762595149,ST
8.86666666666667,-0.681882977485657,-1.47920751571655,10.2479839324951,-0.670735955238342,-0.205793991684914,1.2500079870224,-1236.30004882812,13.5000009536743,-959.700012207031,1.80845821668996,-0.064761315657335,0.143530697809001,ST
8.9,-0.702817976474762,-1.71128702163696,10.4417819976807,-0.609759986400604,-0.259148001670837,1.34147191047668,-1221.90002441406,3.90000009536743,-969.300048828125,1.80402090044263,-0.0661599789264719,0.162150243698592,ST
8.93333333333333,-0.392979919910431,-1.41939330101013,9.83765697479248,-0.381099998950958,-0.807931959629059,1.16616594791412,-1233.90002441406,3.30000019073486,-974.100036621094,1.79789903115957,-0.04010208561164,0.1449663297116,ST
8.96666666666667,-0.372044920921326,-1.314120054245,9.234130859375,-0.0685980021953583,-0.602137982845306,1.22714197635651,-1226.70007324219,13.5000009536743,-966.900024414062,1.79251549744225,-0.0391890769720562,0.1416088490709,ST
9.0,-0.542515695095062,-0.979160070419312,9.43271446228027,0.198172003030777,0.205793991684914,1.18140995502472,-1229.10009765625,10.5,-962.100036621094,1.78573630700482,-0.0569147714429399,0.104677671214902,ST
9.03333333333333,-0.494066089391708,-0.830222427845001,10.0236797332764,0.25152599811554,-0.152439996600151,1.09756803512573,-1217.10009765625,6.90000009536743,-964.500061035156,1.77978521510219,-0.0493307879274447,0.0830929841828345,ST
9.06666666666667,-0.203966751694679,-1.15202331542969,9.94472503662109,-0.152439996600151,-0.792688012123108,0.960371971130371,-1221.90002441406,8.10000038146973,-978.900024414062,1.77666163509581,-0.021006981352956,0.113583416246359,ST
9.1,-0.131591454148293,-1.25071692466736,9.68572902679443,-0.556405961513519,-0.967993974685669,0.564027965068817,-1219.5,9.90000057220459,-976.500061035156,1.77413961214305,-0.0124720161521646,0.1284172096098,ST
9.13333333333333,-0.399559497833252,-1.20645439624786,9.40101337432861,-0.175305992364883,0.175305992364883,0.381099998950958,-1229.10009765625,15.3000001907349,-971.700012207031,1.77262788420973,-0.0408807422308403,0.127945631720402,ST
9.16666666666667,-0.515599250793457,-1.48518896102905,9.39802265167236,-0.0228659994900227,0.853663980960846,0.403965979814529,-1226.70007324219,19.5,-978.900024414062,1.77280495830067,-0.0548182358042095,0.155003775578337,ST
9.2,-0.662144243717194,-1.53543305397034,9.71025276184082,-0.0381099991500378,0.78506600856781,-0.282013982534409,-1214.70007324219,13.5000009536743,-981.300048828125,1.77456815987876,-0.0677804551713877,0.156833562485744,ST
9.23333333333333,-0.626853823661804,-1.83689701557159,9.6163444519043,-0.0990860015153885,0.144817993044853,-0.243903994560242,-1219.5,14.1000003814697,-966.900024414062,1.7776891587423,-0.0642946090901507,0.187372614285645,ST
9.26666666666667,-0.48150509595871,-1.82493424415588,9.46561241149902,-0.3125019967556,-0.289635986089706,-0.609759986400604,-1226.70007324219,6.90000009536743,-962.100036621094,1.78013864908047,-0.0499496865807818,0.190873761114872,ST
9.3,-0.896018147468567,-1.42836546897888,9.55174541473389,0.0609759986400604,0.0685980021953583,-0.243903994560242,-1229.10009765625,17.7000007629395,-969.300048828125,1.77838540679898,-0.0902438336776262,0.150698372785658,ST
9.33333333333333,-1.08144247531891,-1.2818204164505,9.95309925079346,0.342989981174469,0.144817993044853,0.3125019967556,-1229.10009765625,6.30000019073486,-978.900024414062,1.77521322782054,-0.106617982353466,0.128841636049812,ST
9.36666666666667,-0.933103024959564,-1.44451522827148,9.60139083862305,0.182927995920181,-0.0457319989800453,0.67835795879364,-1212.30004882812,4.5,-966.900024414062,1.77447732117537,-0.0965514623508424,0.147679121258831,ST
9.4,-0.963010191917419,-1.24294114112854,9.77305793762207,0.297257989645004,0.0990860015153885,0.228659987449646,-1219.5,11.7000007629395,-966.900024414062,1.77165625783969,-0.0976156201457765,0.12690146412399,ST
9.43333333333333,-1.12690138816833,-1.32727921009064,9.64146614074707,0.457319974899292,-0.0685980021953583,0.259148001670837,-1224.30004882812,3.30000019073486,-976.500061035156,1.77168775624577,-0.114150848153442,0.135403511154593,ST
9.46666666666667,-0.863718450069427,-1.17953789234161,9.27360820770264,0.411587983369827,-0.3125019967556,-0.167683988809586,-1209.90002441406,12.9000005722046,-966.900024414062,1.77142857186755,-0.0929229796044972,0.126396737118721,ST
9.5,-0.869101762771606,-1.2297819852829,8.75681304931641,0.228659987449646,-0.480185985565186,-0.46494197845459,-1217.10009765625,11.7000007629395,-966.900024414062,1.77424646465968,-0.0967804947793225,0.138415752468465,ST
9.53333333333333,-1.27105379104614,-1.52347016334534,9.34598350524902,0.0381099991500378,0.190549999475479,-0.525918006896973,-1217.10009765625,7.50000047683716,-947.700012207031,1.77919814895655,-0.131995289930994,0.160616051691795,ST
9.56666666666667,-0.96360832452774,-1.33864402770996,10.2689189910889,0.37347799539566,-0.37347799539566,-0.0685980021953583,-1202.70007324219,9.30000019073486,-983.700012207031,1.77606164321493,-0.0945411116168902,0.130888974715067,ST
9.6,-0.802109718322754,-1.18910825252533,10.0296611785889,0.83841997385025,-0.891773998737335,0.190549999475479,-1212.30004882812,12.3000001907349,-959.700012207031,1.77384592273431,-0.0784068183563421,0.117069572229281,ST
9.63333333333333,-0.205761179327965,-0.976169347763062,9.96326732635498,0.87652999162674,-1.2423859834671,0.121951997280121,-1219.5,3.90000009536743,-971.700012207031,1.77199754914233,-0.0220525180942964,0.0973901879484202,ST
9.66666666666667,-0.091515876352787,-0.764426708221436,9.65402793884277,0.853663980960846,-1.60824191570282,-0.144817993044853,-1241.10009765625,9.30000019073486,-966.900024414062,1.7717929975884,-0.0075663300079931,0.0787312856185412,ST
9.7,-0.301464051008224,-0.933103024959564,9.33162879943848,-0.0762199983000755,-1.09756803512573,0.0762199983000755,-1214.70007324219,7.50000047683716,-974.100036621094,1.77143779024405,-0.0288659760173843,0.098510179002305,ST
9.73333333333333,-0.366661638021469,-1.15920102596283,9.57806301116943,-0.99848198890686,-0.503051996231079,0.503051996231079,-1221.90002441406,8.10000038146973,-962.100036621094,1.7697876643512,-0.036711002849417,0.120715970070456,ST
9.76666666666667,-0.634031534194946,-1.45588004589081,9.16654109954834,-1.13567793369293,0.571649968624115,1.2423859834671,-1229.10009765625,6.90000009536743,-971.700012207031,1.76680088692399,-0.0675329403547882,0.15702114938132,ST
9.8,-0.754258275032043,-2.08632278442383,9.12347507476807,-0.99848198890686,1.27287399768829,1.47866797447205,-1209.90002441406,6.30000019073486,-976.500061035156,1.76631057591532,-0.0823817622906923,0.22298295027146,ST
9.83333333333333,-0.836203873157501,-1.82433605194092,9.83765697479248,0.0152439996600151,0.983237981796265,1.05183601379395,-1221.90002441406,6.30000019073486,-959.700012207031,1.75982766645456,-0.0852372266109201,0.185617253479049,ST
9.86666666666667,-0.807493031024933,-2.06060242652893,9.23652362823486,1.03659200668335,-0.586893975734711,1.03659200668335,-1217.10009765625,10.5,-964.500061035156,1.75771241125793,-0.0845329578189995,0.216263863082494,ST
9.9,-0.913364291191101,-2.15570735931396,9.533203125,0.769822001457214,-0.937505960464478,0.266770005226135,-1229.10009765625,8.70000076293945,-969.300048828125,1.75651152413732,-0.0912504813471338,0.220683362543549,ST
9.93333333333333,-0.674107134342194,-2.01693820953369,10.3532562255859,0.914639949798584,-1.82165801525116,0.693601965904236,-1224.30004882812,8.70000076293945,-966.900024414062,1.7498922373163,-0.062132774666706,0.191866110272558,ST
9.96666666666667,-0.380418926477432,-1.6783891916275,9.71025276184082,1.31860601902008,-2.11129403114319,1.43293595314026,-1221.90002441406,15.9000005722046,-950.100036621094,1.7414438187991,-0.0366959914606815,0.169862307951534,ST
10.0,-0.133385881781578,-1.31471824645996,9.59301662445068,1.86738991737366,-0.381099998950958,3.06404399871826,-1224.30004882812,8.70000076293945,-969.300048828125,1.72826920440083,-0.0152475021738578,0.135080793419125,ST
10.0333333333333,-0.226696193218231,-1.01923561096191,10.1355323791504,2.05031800270081,-0.0228659994900227,3.3460578918457,-1233.90002441406,5.70000028610229,-974.100036621094,1.7143312166134,-0.0223629175924373,0.0988545136901383,ST
10.0666666666667,-0.316417634487152,-0.348717361688614,9.72460842132568,2.59148001670837,0.259148001670837,3.3613018989563,-1221.90002441406,8.10000038146973,-959.700012207031,1.69859095447234,-0.032683600112411,0.0344525921190313,ST
10.1,-0.331969350576401,-0.268566191196442,9.38426494598389,2.56099200248718,0.221037998795509,2.9268479347229,-1229.10009765625,3.90000009536743,-964.500061035156,1.68614719450668,-0.0357080395517917,0.0244746842213685,ST
10.1333333333333,-0.799118995666504,0.01914057508111,9.82629299163818,1.90549993515015,-0.556405961513519,1.89787793159485,-1238.70007324219,9.90000057220459,-971.700012207031,1.67669643324673,-0.078219281271785,-0.0041950006835099,ST
10.1666666666667,-0.638816714286804,0.186620607972145,9.45006084442139,1.30336201190948,-1.76830399036407,1.73019397258759,-1241.10009765625,6.30000019073486,-969.300048828125,1.66899704179479,-0.0651824882781103,-0.0211286256751013,ST
10.2,-0.577207982540131,0.294884473085403,8.73767280578613,0.945127964019775,-1.76068198680878,1.63872992992401,-1233.90002441406,11.7000007629395,-971.700012207031,1.6617996297843,-0.0628934803719372,-0.0347732679156616,ST
10.2333333333333,-0.544310092926025,0.0580198690295219,9.35256385803223,-0.0228659994900227,-0.92988395690918,1.58537602424622,-1226.70007324219,9.30000019073486,-971.700012207031,1.65689706337343,-0.0568280156932768,-0.0078732769355608,ST
10.2666666666667,-0.369652360677719,-0.26437920331955,9.50150108337402,-0.426831990480423,-1.18903195858002,2.01982998847961,-1241.10009765625,8.70000076293945,-962.100036621094,1.64950094569073,-0.0377521405728748,0.0268255351570891,ST
10.3,-0.442027658224106,-0.364867210388184,10.0960550308228,-0.46494197845459,-1.20427596569061,2.24086785316467,-1233.90002441406,4.5,-957.300048828125,1.64061182655035,-0.0415183307945751,0.0361698817048573,ST
10.3333333333333,-0.450401663780212,-0.573020994663239,9.5272216796875,-0.3125019967556,-0.579271972179413,3.01831197738647,-1243.5,6.30000019073486,-962.100036621094,1.62928774104082,-0.0461403143127046,0.0589114152658608,ST
10.3666666666667,-0.21712589263916,-0.744089841842651,9.86158275604248,-0.556405961513519,-0.289635986089706,3.23172783851624,-1221.90002441406,10.5,-954.900024414062,1.61551254843572,-0.0229263221998607,0.0753796497709114,ST
10.4,-0.496458679437637,-0.226696193218231,10.1289529800415,-0.472563982009888,0.121951997280121,2.26373386383057,-1238.70007324219,11.7000007629395,-966.900024414062,1.60372955034405,-0.0481450760068383,0.0253272924137928,ST
10.4333333333333,-0.0777585878968239,-0.294884473085403,9.77545070648193,-0.617381989955902,-0.114329993724823,3.27745985984802,-1245.90002441406,13.5000009536743,-952.500061035156,1.5894004425429,-0.0096895380319278,0.0308953188921534,ST
10.4666666666667,0.195592746138573,-0.470738530158997,9.08758640289307,-1.19665396213531,-0.282013982534409,3.55947399139404,-1231.5,12.3000001907349,-964.500061035156,1.57494037647443,0.0197785911468787,0.0525431439642245,ST
10.5,-0.216527760028839,-0.276940196752548,8.94343376159668,-1.83690190315247,0.907018005847931,2.96495795249939,-1245.90002441406,12.9000005722046,-959.700012207031,1.56305815306919,-0.0232035066566303,0.0351956445459318,ST
10.5333333333333,0.236864611506462,-1.30096101760864,9.05229568481445,-2.52288198471069,1.18140995502472,3.72715783119202,-1238.70007324219,14.7000007629395,-959.700012207031,1.54878204312158,0.0202329135651414,0.140429362919562,ST
10.5666666666667,-0.542515695095062,-1.03837621212006,10.1301488876343,-2.31708788871765,1.89025592803955,1.87501192092896,-1233.90002441406,14.7000007629395,-950.100036621094,1.54143023271671,-0.0522061099690456,0.10816176269502,ST
10.6,-0.546702682971954,-1.61558413505554,10.8329677581787,-1.86738991737366,1.35671591758728,1.20427596569061,-1219.5,11.1000003814697,-964.500061035156,1.53907510035968,-0.0524994056862158,0.148603580661488,ST
10.6333333333333,-0.0334960073232651,-1.5802937746048,10.7480306625366,-1.31860601902008,0.304879993200302,0.167683988809586,-1245.90002441406,16.5,-962.100036621094,1.538422042493,-0.0060490632638389,0.148300085231747,ST
10.6666666666667,0.442027658224106,-1.35778450965881,9.69470119476318,-0.67835795879364,-0.243903994560242,-0.655492007732391,-1217.10009765625,11.7000007629395,-964.500061035156,1.541099646887,0.0425666752953273,0.140783334649762,ST
10.7,0.320006489753723,-1.46425402164459,9.20601844787598,-0.144817993044853,1.28811800479889,-2.15702605247498,-1214.70007324219,15.9000005722046,-950.100036621094,1.54988317954811,0.0332736744820773,0.156809214280629,ST
10.7333333333333,-0.421690791845322,-0.931906759738922,9.69589710235596,0.495429992675781,2.12653803825378,-2.86587190628052,-1224.30004882812,17.1000003814697,-966.900024414062,1.56325428180499,-0.0429220936421807,0.097857988285253,ST
10.7666666666667,-0.447410941123962,-0.802109718322754,10.1803932189941,0.846041977405548,1.32622802257538,-2.18751406669617,-1217.10009765625,9.30000019073486,-976.500061035156,1.57178594729298,-0.045607678598401,0.0785764346798575,ST
10.8,-0.236266478896141,-0.916953146457672,9.39323711395264,0.289635986089706,0.0533539988100529,-2.0655620098114,-1214.70007324219,17.7000007629395,-974.100036621094,1.58151302893392,-0.025701040336813,0.0960994369399311,ST
10.8333333333333,-0.955832481384277,-0.943271458148956,8.47209739685059,-0.426831990480423,0.914639949798584,-2.24848985671997,-1212.30004882812,17.1000003814697,-969.300048828125,1.59175168695427,-0.107531443262141,0.111044462979426,ST
10.8666666666667,-1.77887713909149,-1.73282015323639,9.63010215759277,-1.27287399768829,2.14178204536438,-2.75154185295105,-1221.90002441406,18.9000015258789,-971.700012207031,1.61248997124136,-0.178171206258099,0.176854815359033,ST
10.9,-2.05641555786133,-1.96669411659241,10.2372169494629,-1.54726600646973,1.31098401546478,-2.98020195960999,-1214.70007324219,12.3000001907349,-966.900024414062,1.62678982526447,-0.19494811592054,0.192562831260834,ST
10.9333333333333,-1.05213344097137,-1.89192616939545,10.8885946273804,-1.34909391403198,-1.69970595836639,-2.21800184249878,-1209.90002441406,9.30000019073486,-969.300048828125,1.63110863797798,-0.0976061748672987,0.175824266698299,ST
10.9666666666667,-0.200377896428108,-2.10665965080261,8.33572006225586,-1.62348592281342,-3.43752193450928,-1.89787793159485,-1207.5,13.5000009536743,-954.900024414062,1.63977670261586,-0.0202754162018545,0.247153269582779,ST
11.0,-0.893027484416962,-1.8889354467392,8.36802005767822,-1.05945801734924,0.25152599811554,-1.265251994133,-1221.90002441406,12.3000001907349,-971.700012207031,1.64337195644783,-0.0986009839334397,0.225474695707896,ST
11.0333333333333,-1.44930040836334,-2.1030707359314,9.24190711975098,-0.602137982845306,1.2423859834671,-0.449698001146317,-1212.30004882812,14.7000007629395,-974.100036621094,1.6459319325113,-0.150667311144801,0.225008798763324,ST
11.0666666666667,-1.80041038990021,-2.2173159122467,9.38127422332764,-0.381099998950958,0.899396002292633,-0.0381099991500378,-1207.5,17.1000003814697,-976.500061035156,1.64785508588608,-0.184003572828922,0.232361764181978,ST
11.1,-1.65506160259247,-2.48408770561218,9.53021240234375,-0.807931959629059,-0.579271972179413,0.701223969459534,-1224.30004882812,17.1000003814697,-962.100036621094,1.64793238182028,-0.166924450095127,0.254706782553148,ST
11.1333333333333,-1.75016629695892,-2.49425625801086,9.41417217254639,-0.815553963184357,-1.2423859834671,1.44817996025085,-1219.5,18.9000015258789,-962.100036621094,1.64137617486981,-0.175788537389814,0.259576925154288,ST
11.1666666666667,-2.40214228630066,-1.25909090042114,9.04631423950195,-0.0533539988100529,-1.01372599601746,3.91008591651917,-1224.30004882812,15.9000005722046,-957.300048828125,1.60090584862341,-0.251756956549451,0.144246616109446,ST
11.2,-2.06060242652893,-2.41948843002319,9.80535793304443,-0.823175966739655,-0.0228659994900227,5.57930374145508,-1221.90002441406,18.9000015258789,-966.900024414062,1.59938842845555,-0.206376756273955,0.235482788300449,NLL
11.2333333333333,-2.06060242652893,-2.31541132926941,10.3514623641968,-0.388722002506256,-0.579271972179413,7.91925764083862,-1209.90002441406,14.1000003814697,-971.700012207031,1.56475297014937,-0.19467386105482,0.219059804187523,NLL
11.2666666666667,-0.706406831741333,-2.35548710823059,10.0607643127441,-0.480185985565186,-2.4923939704895,7.41620588302612,-1212.30004882812,18.9000015258789,-969.300048828125,1.53466021957985,-0.0746731104548587,0.22893419761596,NLL
11.3,-0.216527760028839,-1.9026927947998,8.83696460723877,-0.358233988285065,-3.7805118560791,6.22717380523682,-1217.10009765625,23.1000003814697,-954.900024414062,1.50602270308239,-0.0231422614037288,0.21332766821671,NLL
11.3333333333333,-0.148937597870827,-2.19757723808289,8.44518089294434,-0.304879993200302,-2.25611186027527,5.57930374145508,-1224.30004882812,17.1000003814697,-964.500061035156,1.48274799350656,-0.0160797932395733,0.252408727106477,NLL
11.3666666666667,-0.569432079792023,-1.87039303779602,9.47996807098389,-0.144817993044853,-1.74543797969818,3.91770792007446,-1229.10009765625,23.7000007629395,-954.900024414062,1.46331993311791,-0.0550427182723048,0.197835760791761,NLL
11.4,0.157311603426933,-2.2711489200592,9.86995697021484,-0.411587983369827,-3.30032587051392,3.03355598449707,-1224.30004882812,18.3000011444092,-957.300048828125,1.44769230687744,0.0166820738514959,0.22566355517374,NLL
11.4333333333333,0.0352904349565506,-1.84287846088409,9.61574649810791,-0.556405961513519,-2.87349390983582,0.907018005847931,-1236.30004882812,21.9000015258789,-954.900024414062,1.44220339107599,0.0087238565427975,0.192489989670865,NLL
11.4666666666667,0.125610023736954,-2.18621253967285,8.81244087219238,-0.243903994560242,-0.617381989955902,1.31098401546478,-1231.5,23.7000007629395,-959.700012207031,1.43578756351328,0.0140428194375976,0.240840762405908,NLL
11.5,-0.798520863056183,-2.13656663894653,9.78681564331055,0.175305992364883,0.487807989120483,0.541162014007568,-1233.90002441406,24.9000015258789,-957.300048828125,1.43330905647249,-0.0754251556615915,0.216030468413476,NLL
11.5333333333333,-0.682481110095978,-2.38120722770691,10.2790870666504,1.29574000835419,0.129574000835419,1.77592599391937,-1219.5,19.5,-945.300048828125,1.42742489497838,-0.066101263494433,0.224624609018299,NLL
11.5666666666667,0.053234726190567,-2.36505722999573,10.3771820068359,1.38720393180847,-1.48628997802734,0.754577994346619,-1233.90002441406,23.7000007629395,-966.900024414062,1.42278074253967,0.0040131751256052,0.221785196921649,NLL
11.6,0.44322395324707,-1.39307498931885,9.59780216217041,2.29422187805176,-2.15702605247498,0.0228659994900227,-1238.70007324219,17.1000003814697,-957.300048828125,1.42278543079231,0.047159279526549,0.144165249649617,NLL
11.6333333333333,0.821848452091217,-1.08862018585205,9.15577411651611,2.71343183517456,-1.37195992469788,0.937505960464478,-1238.70007324219,21.3000011444092,-954.900024414062,1.41904509644197,0.0891532123063842,0.115108024790584,NLL
11.6666666666667,-0.319408357143402,-0.479710668325424,10.0368394851685,2.18751406669617,-0.457319974899292,0.129574000835419,-1229.10009765625,15.9000005722046,-952.500061035156,1.420352831964,-0.0257017933257207,0.0470748301376227,NLL
11.7,-0.289501190185547,-0.241051614284515,9.94831371307373,1.79117000102997,-0.83841997385025,1.12805593013763,-1243.5,14.7000007629395,-966.900024414062,1.41524397390805,-0.0275537026295152,0.0226215415321308,NLL
11.7333333333333,0.537132382392883,-0.635227859020233,9.06605339050293,0.472563982009888,-1.77592599391937,0.198172003030777,-1243.5,23.7000007629395,-952.500061035156,1.41340148080922,0.0566646898421534,0.0663217675016234,NLL
11.7666666666667,0.0257201474159956,-0.461168229579926,9.00623893737793,-0.0152439996600151,-0.342989981174469,-0.0457319989800453,-1245.90002441406,25.5000019073486,-969.300048828125,1.41395809442583,0.0066795028755405,0.0521040428325465,NLL
11.8,0.256005197763443,-1.04794645309448,9.45843505859375,0.0228659994900227,0.167683988809586,0.739333987236023,-1255.5,18.3000011444092,-959.700012207031,1.4100747519993,0.0253961602562582,0.107154200509665,NLL
11.8333333333333,-0.234472051262856,-1.23815596103668,10.3616304397583,0.0457319989800453,0.617381989955902,0.754577994346619,-1241.10009765625,21.3000011444092,-959.700012207031,1.40714688346462,-0.0212832242593979,0.118260790349325,NLL
11.8666666666667,-0.0592161528766155,-0.843381583690643,11.1320390701294,0.731711983680725,0.78506600856781,0.830797970294952,-1238.70007324219,20.1000003814697,-952.500061035156,1.40354283164626,-0.0076693117376756,0.0769883310608397,NLL
11.9,1.00607645511627,-1.16936945915222,10.5937099456787,0.663114011287689,-0.304879993200302,0.0533539988100529,-1243.5,22.5,-954.900024414062,1.4018632396909,0.0884211582869022,0.106851617324502,NLL
11.9333333333333,0.557469248771667,-1.04675018787384,9.28437519073486,0.556405961513519,1.63110792636871,-1.60824191570282,-1241.10009765625,14.7000007629395,-964.500061035156,1.40919148570036,0.0584548218292585,0.110918532072445,NLL
11.9666666666667,1.00966536998749,-1.1376678943634,8.65811920166016,0.358233988285065,2.01982998847961,-2.66007804870605,-1236.30004882812,21.3000011444092,-954.900024414062,1.42019155890235,0.109827756186542,0.128676147768606,NLL
12.0,-0.344530344009399,-0.958823204040527,8.70836353302002,-0.708845973014832,2.0655620098114,-4.55033397674561,-1236.30004882812,15.9000005722046,-954.900024414062,1.44008889077692,-0.0327432891477047,0.112080519283231,NLL
12.0333333333333,-0.683079302310944,-1.11374223232269,8.62103462219238,-0.556405961513519,1.41006994247437,-2.30946588516235,-1226.70007324219,25.5000019073486,-959.700012207031,1.45078288642356,-0.0774643697826298,0.128679044750654,NLL
12.0666666666667,-1.07247030735016,-1.60421943664551,9.32564735412598,-0.426831990480423,0.525918006896973,-3.09453201293945,-1217.10009765625,18.3000011444092,-969.300048828125,1.46699836791676,-0.110738543559309,0.169060005964916,NLL
12.1,-1.40683221817017,-1.13826608657837,10.8808183670044,0.0685980021953583,-1.20427596569061,-4.22258806228638,-1231.5,17.1000003814697,-957.300048828125,1.47610529979008,-0.124093136375698,0.108882972018252,NLL
12.1333333333333,-0.479710668325424,-1.45468366146088,9.93395805358887,0.46494197845459,-2.37806391716003,-3.00306797027588,-1236.30004882812,18.9000015258789,-954.900024414062,1.48987294527167,-0.0478517372482741,0.142691655533633,NLL
12.1666666666667,0.118432305753231,-1.45528185367584,9.53679180145264,0.137196004390717,-1.30336201190948,-3.84910988807678,-1233.90002441406,16.5,-962.100036621094,1.50590538776857,0.0127309770724008,0.150784590405188,NLL
12.2,0.60651695728302,-1.40922486782074,9.13842868804932,0.365855991840363,-0.525918006896973,-3.24697184562683,-1236.30004882812,15.3000001907349,-945.300048828125,1.5187703222922,0.0642825554395706,0.151985080862955,NLL
12.2333333333333,-0.490477234125137,-1.06828331947327,9.07981014251709,0.663114011287689,0.724089980125427,-2.34757590293884,-1250.70007324219,21.3000011444092,-959.700012207031,1.52912948050142,-0.0478658697602242,0.118066372916157,NLL
12.2666666666667,-0.570030272006989,-1.55876052379608,9.95010852813721,0.0762199983000755,1.29574000835419,-0.495429992675781,-1236.30004882812,11.7000007629395,-962.100036621094,1.53399081014079,-0.0581736447196363,0.153688445698834,NLL
12.3,0.415709376335144,-1.94516098499298,10.5949068069458,-1.01372599601746,-0.388722002506256,-0.320124000310898,-1236.30004882812,9.90000057220459,-962.100036621094,1.53533682849477,0.0334105102538157,0.181537571328515,NLL
12.3333333333333,0.230883181095123,-1.7166702747345,9.77485275268555,-0.983237981796265,-0.449698001146317,-0.25152599811554,-1236.30004882812,23.7000007629395,-959.700012207031,1.53628734502089,0.024673451160447,0.17591900481144,NLL
12.3666666666667,0.120226740837097,-2.11024832725525,10.3083963394165,-0.480185985565186,1.00610399246216,0.602137982845306,-1238.70007324219,17.1000003814697,-952.500061035156,1.53421684376154,0.0103253626895654,0.201303827811244,NLL
12.4,0.0071777156554162,-2.02650833129883,9.64505577087402,0.335367977619171,1.44817996025085,-0.205793991684914,-1241.10009765625,20.1000003814697,-954.900024414062,1.53636965197101,-0.0011448328863162,0.206281546580812,NLL
12.4333333333333,-0.335558205842972,-2.11622977256775,9.08459568023682,0.693601965904236,1.50915598869324,-0.846041977405548,-1226.70007324219,23.1000003814697,-954.900024414062,1.54175699812453,-0.0363810413698474,0.226666842079371,NLL
12.4666666666667,-1.43793570995331,-1.64668762683868,9.36452674865723,0.975615978240967,2.66770005226135,-1.95123195648193,-1214.70007324219,17.7000007629395,-976.500061035156,1.54781171860982,-0.148285908592449,0.175599267537955,NLL
12.5,-1.40264523029327,-1.57610678672791,9.05349159240723,1.08994603157043,1.76830399036407,-0.92988395690918,-1229.10009765625,16.5,-957.300048828125,1.55298334475636,-0.153936297168279,0.171023203164142,NLL
12.5333333333333,-1.13348090648651,-1.49894630908966,9.15218544006348,0.945127964019775,0.670735955238342,-0.46494197845459,-1233.90002441406,12.3000001907349,-957.300048828125,1.55443864553357,-0.124537865174217,0.161434965976738,NLL
12.5666666666667,-1.56653642654419,-1.29019439220428,9.61455059051514,1.30336201190948,1.33385002613068,0.167683988809586,-1207.5,17.7000007629395,-966.900024414062,1.5512659403234,-0.160785663116932,0.132462233601024,NLL
12.6,-1.07306849956512,-1.49595558643341,9.24429988861084,1.05945801734924,1.57013201713562,0.137196004390717,-1229.10009765625,12.3000001907349,-981.300048828125,1.55565492092169,-0.119506480830435,0.157035330776772,NLL
12.6333333333333,-1.48997414112091,-1.24652993679047,9.40400409698486,1.12043392658234,1.28811800479889,-0.541162014007568,-1217.10009765625,6.30000019073486,-962.100036621094,1.55584051919961,-0.156014302209209,0.131347958370488,NLL
12.6666666666667,-1.18013608455658,-1.44989860057831,9.71683216094971,0.990859985351562,0.6250039935112,0.152439996600151,-1214.70007324219,12.9000005722046,-971.700012207031,1.55812370829474,-0.12240309801445,0.145647566325921,NLL
12.7,-0.571226537227631,-1.46365582942963,9.80296516418457,0.846041977405548,-0.640248000621796,0.198172003030777,-1214.70007324219,14.7000007629395,-976.500061035156,1.55733521397575,-0.0605096465198428,0.146638975852654,NLL
12.7333333333333,-0.0974973067641258,-1.61917304992676,8.26334476470947,0.87652999162674,-1.2500079870224,-0.0457319989800453,-1209.90002441406,17.1000003814697,-981.300048828125,1.55827149504409,-0.0119311180726377,0.189739207204095,ST
12.7666666666667,-0.450401663780212,-1.55397546291351,8.87524509429932,0.586893975734711,-0.0762199983000755,-1.34909391403198,-1219.5,9.90000057220459,-976.500061035156,1.56316523529755,-0.0471317946731582,0.173458813864249,ST
12.8,-1.12570512294769,-1.6024249792099,10.018895149231,0.640248000621796,-0.0762199983000755,-1.31098401546478,-1217.10009765625,13.5000009536743,-971.700012207031,1.56739465531516,-0.106186153278452,0.158659833837253,ST
12.8333333333333,-1.08204066753387,-1.46664655208588,9.44587421417236,0.602137982845306,-0.434453994035721,-0.754577994346619,-1207.5,15.3000001907349,-974.100036621094,1.56981272994861,-0.111425844815544,0.153455190956791,ST
12.8666666666667,-0.736912131309509,-1.85962653160095,9.09895133972168,-0.175305992364883,-0.266770005226135,0.617381989955902,-1221.90002441406,14.7000007629395,-964.500061035156,1.57147929824826,-0.0809109913909891,0.198885158679288,ST
12.9,-0.812876284122467,-1.80399918556213,9.54875469207764,-0.487807989120483,-0.396344006061554,1.22714197635651,-1214.70007324219,11.1000003814697,-957.300048828125,1.565288138639,-0.0830427292572288,0.188086753349168,ST
12.9333333333333,-0.37025049328804,-1.78366231918335,9.64565372467041,-0.396344006061554,-0.754577994346619,2.02745199203491,-1214.70007324219,11.1000003814697,-974.100036621094,1.55634433141554,-0.0398653068314453,0.183657467079327,ST
12.9666666666667,-0.404942780733109,-1.89730954170227,9.78442287445068,0.0838419944047928,-0.92988395690918,2.44666194915771,-1209.90002441406,15.3000001907349,-969.300048828125,1.54625356313432,-0.0398213627353304,0.190751279504464,ST
13.0,-0.0448607243597507,-1.8446729183197,10.6313934326172,0.434453994035721,-1.08232402801514,1.89787793159485,-1219.5,14.1000003814697,-969.300048828125,1.53680747068223,-0.004494852116296,0.171878062191421,ST
13.0333333333333,0.0741697251796722,-1.22260427474976,10.2749004364014,1.64635193347931,-1.92074394226074,1.02897000312805,-1209.90002441406,8.10000038146973,-978.900024414062,1.53112288253803,0.0096899195422869,0.117792170867981,ST
13.0666666666667,-0.118432305753231,-0.291295617818832,8.31418704986572,3.11739802360535,-0.647870004177094,0.647870004177094,-1221.90002441406,13.5000009536743,-969.300048828125,1.52813938020131,-0.0120393711135647,0.0338962346130181,ST
13.1,-1.16817319393158,-0.0855344459414482,9.01102352142334,2.56099200248718,1.33385002613068,0.564027965068817,-1224.30004882812,10.5,-964.500061035156,1.52496289120993,-0.124012492206083,0.0066840663086281,ST
13.1333333333333,-1.59165847301483,0.18183545768261,9.84304046630859,1.82165801525116,0.37347799539566,1.44055795669556,-1217.10009765625,6.30000019073486,-962.100036621094,1.51646661146338,-0.158666429981746,-0.0202958840101111,ST
13.1666666666667,-1.72025918960571,-0.34811919927597,10.4322118759155,0.518296003341675,-0.495429992675781,3.16313004493713,-1217.10009765625,9.90000057220459,-959.700012207031,1.51197547554822,-0.162369237680288,0.0284047401672281,ST
13.2,-0.811680018901825,-0.227892473340034,10.9675493240356,0.0914639979600906,-1.60061991214752,3.55185198783875,-1224.30004882812,12.3000001907349,-969.300048828125,1.49536983034695,-0.0751993117246404,0.0204365788576525,ST
13.2333333333333,1.15501403808594,-0.978561878204346,9.66718673706055,-0.381099998950958,-2.89635992050171,2.74391984939575,-1221.90002441406,12.9000005722046,-962.100036621094,1.48098219466576,0.114162871651217,0.0983896855069979,ST
13.2666666666667,0.861325860023499,-0.926523447036743,9.31547832489014,0.304879993200302,-1.2347639799118,0.907018005847931,-1238.70007324219,10.5,-974.100036621094,1.47645336656781,0.0947385845670304,0.0987585140897265,ST
13.3,-0.145348742604256,-1.01385235786438,9.17910194396973,1.08994603157043,1.20427596569061,0.190549999475479,-1231.5,13.5000009536743,-969.300048828125,1.4757005002275,-0.0110325224919129,0.107545489426263,ST
13.3333333333333,0.247631192207336,-0.99889874458313,9.13424110412598,0.990859985351562,0.266770005226135,0.67835795879364,-1219.5,18.3000011444092,-971.700012207031,1.47305400742489,0.0240871780958145,0.107236739977517,ST
13.3666666666667,0.573020994663239,-0.730332553386688,9.13244724273682,1.02134799957275,-0.807931959629059,0.495429992675781,-1224.30004882812,12.9000005722046,-964.500061035156,1.47174901129647,0.0613910036003214,0.0798439999527272,ST
13.4,-0.123815596103668,-0.129797026515007,9.22216796875,1.06708002090454,0.899396002292633,0.487807989120483,-1233.90002441406,15.3000001907349,-976.500061035156,1.47135821803455,-0.0112656832148532,0.0155265871213062,ST
13.4333333333333,-0.717771589756012,-0.0508421510457993,10.8126306533813,0.617381989955902,1.59299790859222,0.0076219998300075,-1229.10009765625,15.9000005722046,-969.300048828125,1.471065825017,-0.065910404019534,0.0042750319440863,ST
13.4666666666667,-1.57849931716919,-0.770408153533936,11.785210609436,-0.602137982845306,1.32622802257538,0.190549999475479,-1219.5,12.9000005722046,-969.300048828125,1.4759909576854,-0.131001705953191,0.0625122661983996,ST
13.5,-0.75545459985733,-1.28122222423553,11.6027774810791,-1.6615959405899,-0.221037998795509,-0.228659987449646,-1205.10009765625,14.7000007629395,-971.700012207031,1.48092378389824,-0.0682616406232501,0.109862877981092,ST
13.5333333333333,-0.0771604403853416,-1.0054783821106,8.73288726806641,-1.08994603157043,-0.525918006896973,-0.0228659994900227,-1231.5,9.90000057220459,-969.300048828125,1.48088184181902,-0.0115246764439131,0.116129830983533,ST
13.5666666666667,-0.868503570556641,-1.0975923538208,8.49004173278809,-0.693601965904236,1.79117000102997,-0.472563982009888,-1219.5,13.5000009536743,-964.500061035156,1.48418626532042,-0.0984849720576812,0.129045349243297,ST
13.6,-1.2818204164505,-1.04615211486816,8.49961185455322,-0.259148001670837,2.36281991004944,0.442075997591019,-1205.10009765625,17.1000003814697,-964.500061035156,1.48276172998962,-0.149474437413869,0.123258310493601,ST
13.6333333333333,-1.60481762886047,-0.647190690040588,8.71135425567627,0.129574000835419,1.64635193347931,0.381099998950958,-1217.10009765625,12.9000005722046,-966.900024414062,1.47420422854946,-0.182703444735341,0.0765602291530862,ST
13.6666666666667,-1.40922486782074,-0.735715866088867,9.54097843170166,-0.0228659994900227,0.259148001670837,0.746955990791321,-1202.70007324219,14.1000003814697,-966.900024414062,1.4711671252277,-0.148526158934299,0.0767914951475007,ST
13.7,-0.836203873157501,-0.715977132320404,9.7778434753418,-0.167683988809586,-1.16616594791412,-0.0990860015153885,-1193.10009765625,14.1000003814697,-974.100036621094,1.47076466502522,-0.0870134861900506,0.0735925299522417,ST
13.7333333333333,-0.342735916376114,-0.977963745594025,9.35136699676514,-0.533540010452271,-1.76830399036407,-0.731711983680725,-1200.30004882812,18.3000011444092,-974.100036621094,1.47475386920006,-0.0365032391228801,0.103263729355594,ST
13.7666666666667,-0.560459971427917,-1.51031100749969,9.90584564208984,-0.46494197845459,-1.12043392658234,-0.579271972179413,-1202.70007324219,13.5000009536743,-971.700012207031,1.47843316756056,-0.0527499802756561,0.149179932713328,ST
13.8,-0.163891181349754,-1.58149003982544,10.4525480270386,-0.0838419944047928,-1.39482593536377,-1.06708002090454,-1233.90002441406,16.5,-976.500061035156,1.48207841902015,-0.0147757615086011,0.150282244953414,ST
13.8333333333333,-0.132787734270096,-1.2578946352005,9.57567119598389,0.754577994346619,-1.52439999580383,-1.37195992469788,-1207.5,9.90000057220459,-974.100036621094,1.4864954649294,-0.0110342766052387,0.130593025936045,ST
13.8666666666667,-0.26437920331955,-0.796128273010254,8.47987270355225,1.02897000312805,-0.510673999786377,-0.548784017562866,-1226.70007324219,12.3000001907349,-974.100036621094,1.48795516553246,-0.0291186414322447,0.0937385699415529,ST
13.9,-0.858335137367249,-0.666929423809052,8.85072135925293,0.579271972179413,0.602137982845306,-0.388722002506256,-1229.10009765625,13.5000009536743,-974.100036621094,1.48875546780672,-0.0932595195726277,0.0754499387946324,ST
13.9333333333333,-0.856540739536285,-0.824241042137146,9.3597412109375,-0.129574000835419,-0.0304879993200302,-0.350611984729767,-1217.10009765625,12.9000005722046,-976.500061035156,1.491194558661,-0.090953243949572,0.0873495148833939,ST
13.9666666666667,-1.36017715930939,-0.915158748626709,9.86158275604248,-0.0838419944047928,-0.121951997280121,-0.358233988285065,-1224.30004882812,3.30000019073486,-959.700012207031,1.49310836510761,-0.13346904176143,0.0924288835413271,ST
14.0,-1.19688403606415,-1.51689052581787,11.1027297973633,-0.274392008781433,-0.3125019967556,-0.160062000155449,-1233.90002441406,9.30000019073486,-959.700012207031,1.49853025793364,-0.107050842503811,0.134359421176434,ST
14.0333333333333,-0.680686712265015,-1.51090919971466,10.2623386383057,-0.327746003866196,-1.63872992992401,-0.548784017562866,-1219.5,17.7000007629395,-962.100036621094,1.50079783638474,-0.064517511877942,0.146242674679585,ST
14.0666666666667,-0.574217259883881,-1.70829629898071,9.4434814453125,-0.663114011287689,-1.03659200668335,-0.121951997280121,-1224.30004882812,10.5,-969.300048828125,1.50238285337145,-0.058345626381552,0.178059113123621,ST
14.1,-0.0538328662514687,-1.71547400951385,9.44108867645264,-0.419209986925125,-0.67835795879364,0.960371971130371,-1241.10009765625,8.70000076293945,-974.100036621094,1.49811538938637,-0.007994956451974,0.180301403318717,ST
14.1333333333333,0.433055520057678,-1.75315701961517,8.79868316650391,0.129574000835419,-0.579271972179413,1.09756803512573,-1219.5,13.5000009536743,-959.700012207031,1.49303139338758,0.0454075375228414,0.19554472279681,ST
14.1666666666667,0.0669920146465302,-1.61618232727051,9.23054218292236,0.724089980125427,0.358233988285065,0.503051996231079,-1224.30004882812,10.5,-966.900024414062,1.49182879238346,0.0087420109064365,0.173502509205413,ST
14.2,-0.330773055553436,-1.23038005828857,10.0565776824951,1.37958192825317,0.198172003030777,0.243903994560242,-1224.30004882812,11.1000003814697,-966.900024414062,1.49044005650391,-0.0309899904773821,0.121981395961042,ST
14.2333333333333,-0.10527316480875,-1.36496222019196,10.0583724975586,1.41769194602966,-0.213415995240211,0.419209986925125,-1224.30004882812,14.7000007629395,-964.500061035156,1.48896750083701,-0.0113632444622443,0.131764109071431,ST
14.2666666666667,-0.720762252807617,-0.904990315437317,10.5039882659912,1.18140995502472,0.274392008781433,-0.0533539988100529,-1231.5,8.10000038146973,-974.100036621094,1.48779106261391,-0.0662067523256007,0.0860027788503096,ST
14.3,-0.576011657714844,-0.443822085857391,9.4847526550293,0.899396002292633,0.541162014007568,0.0228659994900227,-1224.30004882812,7.50000047683716,-969.300048828125,1.48559040405263,-0.0617426684849996,0.0469839276029527,ST
14.3333333333333,-1.00368392467499,-0.102880589663982,8.90814304351807,1.05183601379395,1.62348592281342,0.853663980960846,-1214.70007324219,5.10000038146973,-964.500061035156,1.47934185590014,-0.112703865139376,0.0112097542664181,ST
14.3666666666667,-0.590965270996094,-0.313426911830902,9.11330604553223,0.754577994346619,1.41769194602966,1.44055795669556,-1214.70007324219,9.30000019073486,-974.100036621094,1.47550196650118,-0.069492105601321,0.0318211508762019,ST
14.4,-0.490477234125137,-0.361876487731934,8.76219654083252,0.182927995920181,0.945127964019775,0.503051996231079,-1200.30004882812,8.10000038146973,-976.500061035156,1.47421158944334,-0.058276905360006,0.0403582014716486,ST
14.4333333333333,-0.936093747615814,-0.234472051262856,9.05349159240723,0.320124000310898,1.08232402801514,0.297257989645004,-1212.30004882812,13.5000009536743,-974.100036621094,1.47213162953225,-0.102072583127861,0.0262054554279147,ST
14.4666666666667,-1.26806306838989,-0.433653652667999,10.1738138198853,0.739333987236023,0.777444005012512,0.685979962348938,-1202.70007324219,9.30000019073486,-959.700012207031,1.47142448784444,-0.123884874462991,0.0402599289387456,ST
14.5,-1.31053125858307,-0.257201462984085,10.4585294723511,0.899396002292633,-0.0152439996600151,0.503051996231079,-1217.10009765625,8.10000038146973,-976.500061035156,1.46784058569966,-0.124573291356922,0.0239592993238496,ST
14.5333333333333,-1.09639608860016,-0.236266478896141,10.5404758453369,0.670735955238342,-1.17378795146942,0.640248000621796,-1209.90002441406,14.7000007629395,-971.700012207031,1.46516711000326,-0.102987335607608,0.0212889302294254,ST
14.5666666666667,-0.503636360168457,-0.061608724296093,9.31787109375,-0.0228659994900227,-1.6615959405899,1.06708002090454,-1209.90002441406,4.5,-974.100036621094,1.45969609917079,-0.0542576152411071,0.0074254246013428,ST
14.6,-0.185424327850342,0.0125610027462244,8.87285327911377,-0.426831990480423,-0.891773998737335,0.990859985351562,-1212.30004882812,14.7000007629395,-969.300048828125,1.45522293114584,-0.021243884042897,-0.0002723679039915,ST
14.6333333333333,0.0669920146465302,-0.683677434921265,9.22934627532959,-1.15092194080353,-0.129574000835419,0.663114011287689,-1205.10009765625,11.1000003814697,-969.300048828125,1.45273236987791,0.0062599643871766,0.0729491733516137,ST
14.6666666666667,-0.21712589263916,-0.775193274021149,9.35076904296875,-1.17378795146942,-0.175305992364883,0.403965979814529,-1200.30004882812,5.70000028610229,-974.100036621094,1.45108239073797,-0.0211231900429071,0.0840336779374152,ST
14.7,-0.43425178527832,-1.11134958267212,10.2019262313843,-0.914639949798584,0.190549999475479,0.716467976570129,-1209.90002441406,11.7000007629395,-971.700012207031,1.4486759353688,-0.0418021798334202,0.108911291416893,ST
14.7333333333333,-0.534739792346954,-1.02641332149506,10.0123147964478,-0.693601965904236,-0.442075997591019,-0.701223969459534,-1202.70007324219,12.9000005722046,-959.700012207031,1.4511424464718,-0.0517283890731717,0.10366789861999,ST
14.7666666666667,-1.2297819852829,-1.02880585193634,10.7432460784912,-0.274392008781433,0.0533539988100529,-0.228659987449646,-1207.5,21.9000015258789,-964.500061035156,1.45143750510175,-0.110483066389208,0.096372165968666,ST
14.8,-0.385802209377289,-0.96061760187149,10.6254119873047,-0.0838419944047928,-1.15092194080353,0.25152599811554,-1205.10009765625,9.30000019073486,-969.300048828125,1.44955195736757,-0.0388128487099855,0.0906456734800599,ST
14.8333333333333,-0.0974973067641258,-0.334361910820007,8.60129547119141,0.419209986925125,-0.891773998737335,-0.259148001670837,-1214.70007324219,17.7000007629395,-974.100036621094,1.44924913260621,-0.0110307159793004,0.0404368840352675,ST
14.8666666666667,-0.413914948701859,-0.608311414718628,8.09407043457031,0.0914639979600906,1.2500079870224,-0.213415995240211,-1212.30004882812,11.7000007629395,-974.100036621094,1.45142335566859,-0.0505514841313934,0.0727862620676979,ST
14.9,-1.34283101558685,-0.897214472293854,9.99078178405762,-0.0762199983000755,1.19665396213531,-0.884151995182037,-1209.90002441406,12.3000001907349,-986.100036621094,1.45677448169366,-0.129896972516745,0.0888531547281631,ST
14.9333333333333,-1.42358028888702,-1.17116391658783,10.6912078857422,-0.449698001146317,-0.266770005226135,-0.739333987236023,-1212.30004882812,12.3000001907349,-976.500061035156,1.46196043008172,-0.130933032798022,0.108770370226157,ST
14.9666666666667,-0.973178625106812,-0.760239720344543,9.29753398895264,-0.609759986400604,-1.28811800479889,-0.586893975734711,-1212.30004882812,12.9000005722046,-964.500061035156,1.4606828118577,-0.103397121774886,0.0843123520829395,ST
15.0,-0.705808699131012,-1.27524077892303,9.64206504821777,-1.08232402801514,-0.670735955238342,-0.175305992364883,-1214.70007324219,15.9000005722046,-966.900024414062,1.46485599349289,-0.0725144171577632,0.131464712079063,ST
15.0333333333333,-0.546104550361633,-1.30754053592682,9.68333625793457,-1.06708002090454,-1.00610399246216,-0.320124000310898,-1205.10009765625,6.90000009536743,-976.500061035156,1.46560382191951,-0.0551372223177965,0.135818092693267,ST
15.0666666666667,-0.802707850933075,-1.38051402568817,8.84593677520752,-0.777444005012512,-0.632625997066498,-0.243903994560242,-1207.5,8.70000076293945,-974.100036621094,1.46731681229207,-0.086255079296776,0.15495278561648,ST
15.1,-0.635227859020233,-1.73102581501007,9.63548469543457,-1.06708002090454,-0.762199997901917,-0.434453994035721,-1214.70007324219,11.7000007629395,-962.100036621094,1.46999570712573,-0.064605743537527,0.178305801975667,ST
15.1333333333333,-0.155517175793648,-1.65207087993622,9.26583290100098,-1.04421401023865,-2.44666194915771,-0.525918006896973,-1205.10009765625,16.5,-966.900024414062,1.4701897487149,-0.0153376053853711,0.178271845662054,ST
15.1666666666667,-0.0406737215816975,-2.02770471572876,9.23592567443848,-0.945127964019775,-2.5152599811554,-0.411587983369827,-1226.70007324219,12.9000005722046,-962.100036621094,1.47001160631661,-0.0005412821766262,0.216027670913704,ST
15.2,0.0711790099740028,-2.08751893043518,9.76767444610596,-0.632625997066498,-2.30184388160706,0.121951997280121,-1224.30004882812,11.7000007629395,-954.900024414062,1.46731053897947,0.0105537804680217,0.211835374923064,ST
15.2333333333333,0.0538328662514687,-2.00198459625244,9.94352912902832,-0.419209986925125,-1.73019397258759,0.411587983369827,-1231.5,17.1000003814697,-959.700012207031,1.46430390708817,0.0082543981718994,0.20009889482127,ST
15.2666666666667,-0.358287632465363,-1.90209460258484,10.6242151260376,-0.160062000155449,-1.29574000835419,0.541162014007568,-1221.90002441406,7.50000047683716,-966.900024414062,1.46096059130588,-0.0287462564147063,0.178782449908342,ST
15.3,0.147143170237541,-1.95652568340302,9.67197227478027,-0.0990860015153885,-1.12805593013763,1.53964400291443,-1243.5,21.3000011444092,-971.700012207031,1.45414996777947,0.013586780113437,0.198517844377755,ST
15.3333333333333,0.260790348052979,-1.68915569782257,9.27001953125,0.114329993724823,-0.708845973014832,0.739333987236023,-1233.90002441406,12.9000005722046,-964.500061035156,1.45103683781308,0.0277379411416134,0.181195712785347,ST
15.3666666666667,0.0005981429712846,-1.70231485366821,9.42852783203125,0.777444005012512,-0.190549999475479,0.548784017562866,-1233.90002441406,10.5,-971.700012207031,1.4486002307481,0.0015683187919445,0.177465792334605,ST
15.4,0.091515876352787,-1.69513714313507,9.06066989898682,0.868907988071442,-0.37347799539566,-0.46494197845459,-1231.5,16.5,-971.700012207031,1.45011548696527,0.0101612364862889,0.183065404018713,ST
15.4333333333333,-0.136974737048149,-1.65386533737183,9.12407302856445,0.937505960464478,-0.457319974899292,-1.01372599601746,-1245.90002441406,12.9000005722046,-964.500061035156,1.45381640799279,-0.0122259360897723,0.178020768952858,ST
15.4666666666667,-0.165087461471558,-1.71726846694946,9.71862697601318,1.12805593013763,-0.419209986925125,-0.777444005012512,-1241.10009765625,15.3000001907349,-969.300048828125,1.45669344138992,-0.0155772197529964,0.173219904664961,ST
15.5,-0.061608724296093,-1.52945160865784,10.5500459671021,1.57013201713562,-0.663114011287689,-1.37195992469788,-1226.70007324219,15.3000001907349,-962.100036621094,1.46195817895006,-0.0047822089053409,0.142648224217008,ST
15.5333333333333,-0.0687864422798157,-1.63053774833679,9.82748889923096,1.86738991737366,-0.586893975734711,-1.48628997802734,-1224.30004882812,9.30000019073486,-971.700012207031,1.46815368326137,-0.0054540933423699,0.160356166907365,ST
15.5666666666667,0.188415035605431,-1.55576992034912,10.2258520126343,1.6768399477005,-0.221037998795509,-1.62348592281342,-1229.10009765625,8.70000076293945,-954.900024414062,1.47449304879623,0.0175354566910561,0.148766373970848,ST
15.6,0.419298231601715,-1.28361487388611,9.86935901641846,1.82927989959717,-0.495429992675781,-1.71494996547699,-1236.30004882812,8.10000038146973,-957.300048828125,1.48145995378954,0.041786434396245,0.12741267712336,ST
15.6333333333333,0.409727931022644,-1.16398620605469,8.45594692230225,2.27897787094116,0.830797970294952,-1.77592599391937,-1236.30004882812,10.5,-966.900024414062,1.48856938223708,0.0466539077804792,0.132378245678596,ST
15.6666666666667,-0.836203873157501,-0.961813926696777,9.16654109954834,2.14940404891968,2.75154185295105,-2.17227005958557,-1236.30004882812,9.30000019073486,-964.500061035156,1.49917781446948,-0.0886093641178124,0.102490203031336,ST
15.7,-1.13467717170715,-1.2238005399704,9.18568134307861,1.20427596569061,2.55336999893188,-0.434453994035721,-1221.90002441406,10.5,-964.500061035156,1.50545013245947,-0.123891559272845,0.128798097263523,ST
15.7333333333333,-0.30624920129776,-1.22080981731415,11.4717836380005,0.510673999786377,0.167683988809586,0.556405961513519,-1209.90002441406,5.10000038146973,-959.700012207031,1.50155984603249,-0.0316959970931997,0.106244158046197,ST
15.7666666666667,0.448009073734283,-0.616087257862091,8.70118618011475,0.701223969459534,-2.34757590293884,1.57775402069092,-1231.5,4.5,-962.100036621094,1.49426755233682,0.0509304681540091,0.0713861022431628,ST
15.8,0.275743901729584,-0.619077980518341,8.97633171081543,0.564027965068817,0.190549999475479,1.55488801002502,-1226.70007324219,3.90000009536743,-971.700012207031,1.48773531665123,0.0311380818303868,0.0681327112604545,ST
15.8333333333333,-0.230883181095123,-0.507225215435028,10.2013282775879,0.541162014007568,0.655492007732391,1.82165801525116,-1214.70007324219,9.30000019073486,-959.700012207031,1.48064850708743,-0.0205769605219251,0.0498743591307458,ST
15.8666666666667,-0.702219843864441,-0.294286340475082,10.2880592346191,0.556405961513519,0.868907988071442,2.21800184249878,-1221.90002441406,5.10000038146973,-971.700012207031,1.47103614812576,-0.0667837816927676,0.0287606801096993,ST
15.9,-0.352306216955185,-0.0047851437702775,9.97523021697998,0.815553963184357,0.693601965904236,3.13264203071594,-1229.10009765625,5.10000038146973,-969.300048828125,1.45712809102201,-0.0383718723099666,0.0006323866734569,ST
15.9333333333333,0.447410941123962,-0.146545022726059,8.88661003112793,0.289635986089706,-0.137196004390717,2.97257995605469,-1231.5,8.70000076293945,-974.100036621094,1.44506633797822,0.0450863091451812,0.0152104023021436,ST
15.9666666666667,-0.226696193218231,-0.163293033838272,9.46262168884277,-0.25152599811554,0.342989981174469,2.0655620098114,-1214.70007324219,2.10000014305115,-959.700012207031,1.43673419498343,-0.0203871657558062,0.0175084692742734,ST
16.0,-0.944467723369598,-0.1214230209589,10.3119850158691,-0.320124000310898,0.899396002292633,2.26373386383057,-1214.70007324219,14.1000003814697,-974.100036621094,1.42731159402064,-0.0885530060987115,0.0123580532012228,ST
16.0333333333333,-0.214135184884071,-0.450999796390533,10.6918058395386,-0.564027965068817,-0.289635986089706,2.53050398826599,-1219.5,2.10000014305115,-964.500061035156,1.41828727728312,-0.0234234284939955,0.0413305293396936,ST
16.0666666666667,-0.0508421510457993,-0.444420218467712,9.86457347869873,-0.891773998737335,-1.37958192825317,2.43141794204712,-1219.5,8.70000076293945,-971.700012207031,1.40796651733957,-0.0040528824201462,0.0462644255067023,ST
16.1,-0.0843381583690643,-0.330773055553436,9.07203483581543,-1.15092194080353,-0.426831990480423,2.46190595626831,-1219.5,13.5000009536743,-959.700012207031,1.39698366565681,-0.0085114238755309,0.0387634455418184,ST
16.1333333333333,-0.256005197763443,-0.0777585878968239,8.66529750823975,-0.846041977405548,0.564027965068817,2.79727387428284,-1224.30004882812,15.9000005722046,-966.900024414062,1.38517717734673,-0.0292605420200034,0.0120449532895811,ST
16.1666666666667,-0.343334078788757,-0.320006489753723,9.0911750793457,-0.823175966739655,0.457319974899292,3.85673189163208,-1226.70007324219,6.30000019073486,-966.900024414062,1.37033799605128,-0.0381614226581705,0.0349026571917198,ST
16.2,-1.2297819852829,-0.471934795379639,9.29095458984375,-1.53964400291443,-0.693601965904236,5.03051996231079,-1214.70007324219,17.7000007629395,-966.900024414062,1.3507854103055,-0.125050726982947,0.0513748030471528,ST
16.2333333333333,-1.01923561096191,-1.23815596103668,8.68563365936279,-3.33081388473511,0.205793991684914,5.70125579833984,-1226.70007324219,16.5,-962.100036621094,1.33735863412012,-0.117771389509742,0.140500154815264,ST
16.2666666666667,-1.26686680316925,-1.37991583347321,10.9771194458008,-3.60520601272583,1.27287399768829,5.25918006896973,-1217.10009765625,20.1000003814697,-964.500061035156,1.31432766677281,-0.11744850038986,0.130918690414471,ST
16.3,-0.592759668827057,-2.26098036766052,10.5500459671021,-3.05642199516296,-0.160062000155449,4.07776975631714,-1214.70007324219,17.7000007629395,-969.300048828125,1.30416861377317,-0.0597605972360089,0.210834851289232,ST
16.3333333333333,-0.361278355121613,-2.31421518325806,10.0374374389648,-2.24086785316467,-0.762199997901917,1.6692179441452,-1212.30004882812,27.3000011444092,-971.700012207031,1.29718258804628,-0.0358001067660274,0.229321622448363,ST
16.3666666666667,-0.57062840461731,-1.91345942020416,9.12048435211182,-0.548784017562866,-0.777444005012512,-0.449698001146317,-1224.30004882812,21.9000015258789,-964.500061035156,1.29728611131947,-0.0586168684928904,0.208732712632601,ST
16.4,-0.0813474431633949,-1.9008983373642,8.96197605133057,0.426831990480423,-1.2500079870224,-0.434453994035721,-1205.10009765625,21.3000011444092,-966.900024414062,1.29802991777189,-0.009140845719124,0.208292713619361,ST
16.4333333333333,-0.726743698120117,-1.46485209465027,9.04152870178223,0.990859985351562,-1.89025592803955,-0.899396002292633,-1219.5,21.3000011444092,-962.100036621094,1.29873656758223,-0.0727424311120465,0.161135219415468,ST
16.4666666666667,-0.887644171714783,-1.4080286026001,9.89926624298096,0.746955990791321,-1.15092194080353,-0.144817993044853,-1233.90002441406,12.3000001907349,-957.300048828125,1.29729821149714,-0.0856842060812542,0.141264588227933,ST
16.5,0.223107323050499,-1.54380702972412,10.0733261108398,0.167683988809586,-2.38568592071533,0.525918006896973,-1236.30004882812,19.5,-966.900024414062,1.29412926201111,0.0190951500890669,0.151152135397088,ST
16.5333333333333,0.285314202308655,-1.65147268772125,9.36392784118652,-0.846041977405548,-2.38568592071533,-0.922261953353882,-1236.30004882812,16.5,-957.300048828125,1.2956894536083,0.0334475339369588,0.174511291363978,ST
16.5666666666667,-0.178246602416039,-1.81356954574585,9.60258769989014,-0.868907988071442,-0.884151995182037,-1.13567793369293,-1248.30004882812,16.5,-964.500061035156,1.29942891684721,-0.0133353425199033,0.187362620945912,ST
16.6,-0.955234348773956,-1.69453907012939,9.72281360626221,-0.800309956073761,-0.121951997280121,0.0152439996600151,-1243.5,21.9000015258789,-964.500061035156,1.29837561312671,-0.0922159969335139,0.174609115946445,DLL
16.6333333333333,-0.464757084846497,-2.39795517921448,9.33820819854736,-1.44817996025085,-0.800309956073761,1.95123195648193,-1241.10009765625,15.3000001907349,-962.100036621094,1.29419465061661,-0.0496018866110712,0.250212990417462,DLL
16.6666666666667,-0.879270195960999,-2.04863977432251,9.6582145690918,-0.975615978240967,-0.87652999162674,2.4847719669342,-1231.5,24.9000015258789,-959.700012207031,1.28083369737781,-0.0859354529542414,0.21277078122148,DLL
16.7,-0.335558205842972,-2.15032386779785,8.89139556884766,-0.350611984729767,-0.87652999162674,3.84910988807678,-1243.5,17.1000003814697,-950.100036621094,1.26632242064011,-0.0397082009910283,0.236081245251909,DLL
16.7333333333333,-0.118432305753231,-2.23167133331299,9.37290000915527,-0.0762199983000755,-0.708845973014832,3.20123982429504,-1221.90002441406,21.3000011444092,-954.900024414062,1.25303942974255,-0.0140384466562103,0.233916759186617,DLL
16.7666666666667,-0.346922934055328,-2.2370548248291,9.30411434173584,-0.0914639979600906,-1.13567793369293,2.74391984939575,-1241.10009765625,19.5,-964.500061035156,1.2412481439557,-0.0341335833200539,0.235834594589261,DLL
16.8,-0.674107134342194,-2.62106251716614,9.70247745513916,-0.518296003341675,-0.754577994346619,1.95123195648193,-1241.10009765625,23.1000003814697,-950.100036621094,1.23409830636535,-0.0646079361378073,0.262789928351361,DLL
16.8333333333333,-0.296080768108368,-2.48827481269836,9.26643085479736,-0.564027965068817,-1.76830399036407,2.43903994560242,-1257.90002441406,21.3000011444092,-954.900024414062,1.22267508941815,-0.0311335233536766,0.263123456508623,DLL
16.8666666666667,-0.457579374313354,-3.88733124732971,8.5905294418335,-2.0579400062561,-2.78965187072754,3.41465592384338,-1241.10009765625,23.7000007629395,-964.500061035156,1.21050550135664,-0.0456251956302352,0.420055733803798,DLL
16.9,-0.584983825683594,-3.7132716178894,9.81552600860596,-1.91312193870544,-3.31556987762451,3.47563195228577,-1267.5,25.5000019073486,-964.500061035156,1.18784783716471,-0.0522149560664065,0.367036343271837,DLL
16.9333333333333,-0.452794224023819,-2.39915156364441,9.5505485534668,0.975615978240967,-3.58996200561523,6.29577207565308,-1257.90002441406,26.1000003814697,-947.700012207031,1.15223598621001,-0.043264648945001,0.24986924127357,DLL
16.9666666666667,0.179442897439003,-2.11084651947021,9.04033279418945,2.4923939704895,-3.57471799850464,8.07931995391846,-1250.70007324219,26.7000007629395,-942.900024414062,1.11692469800043,0.0182355436950796,0.226664674165693,DLL
17.0,-0.602329969406128,-1.24593186378479,9.87474250793457,4.06252574920654,-2.61434602737427,8.0640754699707,-1260.30004882812,32.1000022888184,-950.100036621094,1.07761785218413,-0.0548280095973361,0.122016776692583,DLL
17.0333333333333,-0.149535745382309,-1.0216281414032,10.3676118850708,2.9420919418335,-3.03355598449707,8.40706539154053,-1255.5,23.7000007629395,-940.500061035156,1.04201271745823,-0.0132003019418884,0.094560532301589,DLL
17.0666666666667,0.622666835784912,-0.57062840461731,9.30291748046875,1.6844619512558,-4.36740589141846,9.19213199615479,-1260.30004882812,18.9000015258789,-945.300048828125,1.00324007137178,0.0685628983114858,0.0611953360785074,DLL
17.1,0.160302311182022,-0.703416109085083,9.01281833648682,0.0533539988100529,-3.37654590606689,8.34608936309814,-1262.70007324219,27.3000011444092,-959.700012207031,0.967930227217912,0.0252972450457012,0.0772368264327848,DLL
17.1333333333333,1.68317437171936,-1.26447427272797,8.53430366516113,-1.84452390670776,-3.71191382408142,9.74091625213623,-1253.10009765625,32.7000007629395,-940.500061035156,0.920796181418521,0.186331563265671,0.148568260462945,DLL
17.1666666666667,1.03418922424316,-0.839194595813751,9.60737228393555,-3.01831197738647,-2.40092992782593,6.55491971969604,-1260.30004882812,35.1000022888184,-928.500061035156,0.903085345157755,0.114450033970195,0.0971352621554497,DLL
17.2,2.24243807792664,-1.81237316131592,8.73468208312988,-2.9420919418335,-3.07166600227356,7.47718191146851,-1262.70007324219,28.5000019073486,-945.300048828125,0.854958614040221,0.240906648290295,0.20570262682802,DLL
17.2333333333333,1.73760533332825,-2.24602675437927,8.43620872497559,-2.27897787094116,-1.6768399477005,5.75461006164551,-1262.70007324219,32.7000007629395,-926.100036621094,0.817939744500427,0.198482462229954,0.263964301226969,DLL
17.2666666666667,1.22439861297607,-2.22150301933289,9.64984035491943,-1.6615959405899,-1.19665396213531,5.53357172012329,-1245.90002441406,36.3000030517578,-938.100036621094,0.800850191505832,0.12691309540296,0.23231845550696,DLL
17.3,1.30275535583496,-2.11144471168518,10.6977872848511,-1.03659200668335,-0.800309956073761,4.88570165634155,-1265.10009765625,37.5,-928.500061035156,0.783858604549237,0.118929844420687,0.199231914867623,DLL
17.3333333333333,1.61618232727051,-2.39915156364441,10.6295986175537,-0.518296003341675,-0.236281991004944,5.32777786254883,-1253.10009765625,40.5,-930.900024414062,0.760060497155292,0.144004529757274,0.222671120948323,DLL
17.3666666666667,1.71607220172882,-2.38120722770691,9.45903301239014,-0.121951997280121,0.861285984516144,4.96954393386841,-1257.90002441406,39.9000015258789,-923.700012207031,0.737985622434839,0.168991949362108,0.246621735134107,DLL
17.4,0.853550016880035,-2.03069543838501,9.12048435211182,0.442075997591019,3.33081388473511,4.96192169189453,-1248.30004882812,39.9000015258789,-935.700012207031,0.724784251336211,0.0886699215741466,0.220682942153582,DLL
17.4333333333333,0.768015563488007,-2.29088759422302,9.17192459106445,0.617381989955902,4.61131000518799,5.19820404052734,-1236.30004882812,34.5,-926.100036621094,0.705805568822536,0.0719474692876146,0.243044377289106,DLL
17.4666666666667,-0.0891233012080193,-2.09589290618896,9.34418964385986,1.33385002613068,4.60368776321411,5.17533779144287,-1221.90002441406,39.3000030517578,-942.900024414062,0.690242796868831,-0.0136315907029366,0.219803193448508,DLL
17.5,-0.193798318505287,-2.61149215698242,9.80655384063721,1.35671591758728,3.01068997383118,4.76375007629395,-1224.30004882812,43.5,-947.700012207031,0.673479337090164,-0.0257626993718902,0.256234957087063,DLL
17.5333333333333,-0.664536833763123,-2.53672432899475,10.4884366989136,1.05945801734924,1.60061991214752,2.64483404159546,-1200.30004882812,42.3000030517578,-945.300048828125,0.663226971485662,-0.0635740887829027,0.236149804238419,DLL
17.5666666666667,-0.0137572884559631,-2.76940202713013,9.92737865447998,0.87652999162674,0.0457319989800453,2.75154185295105,-1195.5,39.9000015258789,-940.500061035156,0.653769639410079,-0.0063627277000688,0.268377185072691,DLL
