seconds,sensor_accX_m_s_,sensor_accY_m_s_,sensor_accZ_m_s_,sensor_gyroX___s_,sensor_gyroY___s_,sensor_gyroZ___s_,sensor_magX__T_,sensor_magY__T_,sensor_magZ__T_,sensor_yaw___,sensor_pitch___,sensor_roll___,label5
0.0,2.60909962654114,-1.40623414516449,9.33282470703125,0.129574000835419,-0.335367977619171,0.548784017562866,-1308.30004882812,14.1000003814697,-904.500061035156,-3.118036171121,0.270069814619983,0.14958150985246,ST
0.0333333333333333,2.65515661239624,-1.40743041038513,9.38067626953125,0.167683988809586,-0.358233988285065,0.724089980125427,-1322.70007324219,17.1000003814697,-916.500061035156,-3.12286406369973,0.273317890333342,0.14901468508167,ST
0.0666666666666667,2.59474420547485,-1.48698341846466,9.31428241729736,0.480185985565186,-0.327746003866196,0.891773998737335,-1315.5,11.7000007629395,-916.500061035156,-3.13172050313656,0.268829779783307,0.157811616333212,ST
0.1,2.6396050453186,-1.42058956623077,9.26284217834473,0.480185985565186,-0.396344006061554,0.365855991840363,-1313.10009765625,13.5000009536743,-921.300048828125,-3.13355457580427,0.27508190601974,0.151612910132854,ST
0.133333333333333,2.64857697486877,-1.3320643901825,9.29035663604736,0.335367977619171,-0.457319974899292,0.289635986089706,-1325.10009765625,10.5,-916.500061035156,-3.13377687226071,0.275761439230088,0.14209862214611,ST
0.166666666666667,2.64319372177124,-1.38111209869385,9.28437519073486,0.152439996600151,-0.274392008781433,0.403965979814529,-1322.70007324219,17.7000007629395,-906.900024414062,-3.13820352324912,0.274867677053344,0.147556734966186,ST
0.2,2.69164347648621,-1.33326065540314,9.31846904754639,0.121951997280121,-0.266770005226135,0.449698001146317,-1327.5,12.9000005722046,-914.100036621094,-3.13989757131581,0.278807676274183,0.142207196594239,ST
0.233333333333333,2.72214865684509,-1.37632691860199,9.30351543426514,-0.0076219998300075,-0.365855991840363,0.46494197845459,-1322.70007324219,6.30000019073486,-918.900024414062,3.13863426433327,0.282226683822648,0.147100753021902,ST
0.266666666666667,2.78375744819641,-1.44870233535767,9.2640380859375,-0.0228659994900227,-0.396344006061554,0.571649968624115,-1313.10009765625,15.9000005722046,-916.500061035156,3.13218714081073,0.289072800149274,0.155425347207211,ST
0.3,2.70181179046631,-1.37034559249878,9.3118896484375,-0.0838419944047928,-0.236281991004944,0.342989981174469,-1325.10009765625,12.3000001907349,-914.100036621094,3.13254782740704,0.279971560112826,0.146555655983977,ST
0.333333333333333,2.69343781471252,-1.45528185367584,9.22695350646973,-0.0533539988100529,-0.198172003030777,0.320124000310898,-1308.30004882812,14.7000007629395,-911.700012207031,3.12775680015165,0.280973112600514,0.156576084465679,ST
0.366666666666667,2.58038878440857,-1.39068245887756,9.26284217834473,-0.0533539988100529,0.25152599811554,0.190549999475479,-1315.5,21.3000011444092,-904.500061035156,3.1288874228467,0.268465850806141,0.149264583949091,ST
0.4,2.70779323577881,-1.48040390014648,9.31308650970459,0.0304879993200302,0.381099998950958,0.457319974899292,-1325.10009765625,13.5000009536743,-916.500061035156,3.1241667387124,0.278714505854405,0.157678343691148,ST
0.433333333333333,2.62584757804871,-1.41520631313324,9.47697734832764,0.0838419944047928,0.297257989645004,0.411587983369827,-1320.30004882812,13.5000009536743,-911.700012207031,3.12431972854687,0.266996874455106,0.148377665947106,ST
0.466666666666667,2.64020299911499,-1.51389980316162,9.36931133270264,-0.0076219998300075,0.0381099991500378,0.396344006061554,-1327.5,11.1000003814697,-911.700012207031,3.11882278514316,0.271098378078002,0.160249154700504,ST
0.5,2.68925070762634,-1.50492775440216,9.33461952209473,-0.0,-0.175305992364883,0.365855991840363,-1317.90002441406,15.9000005722046,-911.700012207031,3.11650704059243,0.277228699172838,0.160040232499947,ST
0.533333333333333,2.64379191398621,-1.53543305397034,9.28676795959473,0.0152439996600151,-0.358233988285065,0.137196004390717,-1332.30004882812,12.3000001907349,-906.900024414062,3.11425693427231,0.274428445213652,0.163874580498417,ST
0.566666666666667,2.59055709838867,-1.48100197315216,9.30351543426514,0.106707997620106,-0.434453994035721,0.0457319989800453,-1317.90002441406,8.70000076293945,-916.500061035156,3.11500871843975,0.269155515092516,0.157806171109828,ST
0.6,2.57620167732239,-1.41939330101013,9.26164531707764,0.198172003030777,-0.525918006896973,0.0609759986400604,-1322.70007324219,15.9000005722046,-914.100036621094,3.11539544171804,0.269208396098041,0.151866723291875,ST
0.633333333333333,2.62106251716614,-1.41759884357452,9.29155254364014,0.175305992364883,-0.564027965068817,0.129574000835419,-1313.10009765625,15.3000001907349,-918.900024414062,3.11392477226739,0.27285593474467,0.151206016999455,ST
0.666666666666667,2.66771769523621,-1.41700065135956,9.28138446807861,0.0990860015153885,-0.541162014007568,0.266770005226135,-1327.5,18.3000011444092,-909.300048828125,3.11143128270252,0.277659412414634,0.151497558888153,ST
0.7,2.7562427520752,-1.42537474632263,9.3118896484375,0.0457319989800453,-0.541162014007568,0.304879993200302,-1313.10009765625,12.9000005722046,-909.300048828125,3.10887903708325,0.285396633497679,0.152001345144377,ST
0.733333333333333,2.81486082077026,-1.45528185367584,9.25925350189209,0.160062000155449,-0.426831990480423,0.228659987449646,-1322.70007324219,8.10000038146973,-909.300048828125,3.10575755115542,0.292337308795069,0.155722972807597,ST
0.766666666666667,2.76760745048523,-1.38709354400635,9.27540302276611,0.152439996600151,-0.205793991684914,0.0228659994900227,-1313.10009765625,12.3000001907349,-911.700012207031,3.10728022662163,0.287366038933615,0.148298299769009,ST
0.8,2.78435564041138,-1.4080286026001,9.234130859375,0.198172003030777,0.175305992364883,0.266770005226135,-1325.10009765625,15.9000005722046,-909.300048828125,3.10447237199954,0.289312814618255,0.151075386213155,ST
0.833333333333333,2.7903368473053,-1.47023546695709,9.22157001495361,0.175305992364883,0.487807989120483,0.259148001670837,-1337.10009765625,12.9000005722046,-921.300048828125,3.10100284875736,0.289455616299357,0.157840568057614,ST
0.866666666666667,2.84596419334412,-1.50133883953094,9.31607723236084,0.114329993724823,0.617381989955902,0.0762199983000755,-1313.10009765625,17.1000003814697,-914.100036621094,3.10043339817652,0.291819859053525,0.159557533398497,ST
0.9,2.71855974197388,-1.45767438411713,9.26284217834473,0.228659987449646,0.762199997901917,-0.0762199983000755,-1317.90002441406,15.3000001907349,-918.900024414062,3.10231585579101,0.281026272662208,0.155639322650897,ST
0.933333333333333,2.49664878845215,-1.3458217382431,9.38187217712402,0.37347799539566,1.06708002090454,0.0457319989800453,-1320.30004882812,12.3000001907349,-911.700012207031,3.10602016337203,0.255933473840769,0.141897351971314,ST
0.966666666666667,2.39616084098816,-1.35718643665314,9.31069374084473,0.381099998950958,0.990859985351562,0.487807989120483,-1327.5,17.1000003814697,-923.700012207031,3.1027555379539,0.247632885969705,0.144203682436559,ST
1.0,2.39496445655823,-1.38171029090881,9.34598350524902,0.190549999475479,0.815553963184357,0.716467976570129,-1320.30004882812,11.7000007629395,-914.100036621094,3.0978716199752,0.246686886713847,0.14668491559187,ST
1.03333333333333,2.28670048713684,-1.41221559047699,9.33820819854736,0.114329993724823,0.693601965904236,0.617381989955902,-1317.90002441406,12.3000001907349,-926.100036621094,3.09376851896664,0.23632133377834,0.150064811929358,ST
1.06666666666667,2.1533145904541,-1.32369041442871,9.50508975982666,0.106707997620106,0.510673999786377,0.46494197845459,-1315.5,15.3000001907349,-921.300048828125,3.09384009564189,0.219929974466891,0.138480573496174,ST
1.1,2.15570735931396,-1.36735486984253,9.39622783660889,-0.106707997620106,0.0914639979600906,0.503051996231079,-1313.10009765625,16.5,-916.500061035156,3.08951426147031,0.222931304312557,0.14481885090587,ST
1.13333333333333,2.18681073188782,-1.38649535179138,9.40220928192139,-0.304879993200302,-0.419209986925125,0.25152599811554,-1308.30004882812,12.3000001907349,-921.300048828125,3.08740026289478,0.226790780248847,0.147049969840935,ST
1.16666666666667,2.29866337776184,-1.47860944271088,9.33761024475098,-0.3125019967556,-0.891773998737335,0.289635986089706,-1325.10009765625,9.90000057220459,-923.700012207031,3.08280523939665,0.239812051866315,0.157641156699927,ST
1.2,2.41410493850708,-1.50313329696655,9.40280723571777,-0.320124000310898,-0.899396002292633,0.160062000155449,-1308.30004882812,12.9000005722046,-921.300048828125,3.0810810464719,0.249676342645677,0.159191673277989,ST
1.23333333333333,2.40453481674194,-1.46485209465027,9.35495567321777,-0.190549999475479,-0.670735955238342,0.0838419944047928,-1322.70007324219,11.7000007629395,-923.700012207031,3.08102273376236,0.249815016116806,0.15577027489426,ST
1.26666666666667,2.39496445655823,-1.41400992870331,9.46920108795166,-0.0304879993200302,-0.46494197845459,0.144817993044853,-1315.5,17.7000007629395,-914.100036621094,3.08155389647436,0.245930991783623,0.148468258237056,ST
1.3,2.49425625801086,-1.49894630908966,9.26104736328125,-0.0381099991500378,-0.617381989955902,0.327746003866196,-1322.70007324219,14.1000003814697,-918.900024414062,3.07600423281899,0.260647256750468,0.160575549360726,ST
1.33333333333333,2.54150938987732,-1.50193703174591,9.38007831573486,-0.144817993044853,-0.594515979290009,0.144817993044853,-1327.5,16.5,-918.900024414062,3.07515657592802,0.262380246396441,0.159153553537944,ST
1.36666666666667,2.62943649291992,-1.55816245079041,9.26942157745361,-0.129574000835419,-0.480185985565186,0.213415995240211,-1305.90002441406,19.5,-906.900024414062,3.07000762893484,0.273534897323053,0.166908209451497,ST
1.4,2.56842589378357,-1.51270353794098,9.39682579040527,-0.0838419944047928,-0.327746003866196,0.25152599811554,-1310.70007324219,12.3000001907349,-923.700012207031,3.07009892083158,0.264169230635084,0.159971649762701,ST
1.43333333333333,2.69044709205627,-1.51150727272034,9.46441650390625,-0.0457319989800453,-0.289635986089706,0.396344006061554,-1325.10009765625,15.9000005722046,-916.500061035156,3.06785220064222,0.273938238053771,0.158676713512612,ST
1.46666666666667,2.7801685333252,-1.56294763088226,9.32026386260986,-0.0990860015153885,-0.396344006061554,0.46494197845459,-1322.70007324219,9.90000057220459,-923.700012207031,3.06268081286485,0.286506344779978,0.166492431976675,ST
1.5,2.67489528656006,-1.55277919769287,9.25087928771973,-0.213415995240211,-0.198172003030777,0.37347799539566,-1308.30004882812,11.7000007629395,-923.700012207031,3.06050739590722,0.278124697684718,0.166869813435828,ST
1.53333333333333,2.46434903144836,-1.56414389610291,9.28676795959473,-0.144817993044853,0.25152599811554,0.396344006061554,-1315.5,17.7000007629395,-906.900024414062,3.05833079555082,0.25555677020766,0.167270609457745,ST
1.56666666666667,2.28729867935181,-1.61678040027618,9.28078651428223,-0.144817993044853,0.0685980021953583,0.358233988285065,-1329.90002441406,12.3000001907349,-921.300048828125,3.05492266461007,0.238093943892087,0.17283289846781,ST
1.6,2.11383724212646,-1.59883618354797,9.25387001037598,-0.182927995920181,-0.236281991004944,0.37347799539566,-1320.30004882812,16.5,-916.500061035156,3.05281020250056,0.22184093918845,0.171577354545678,ST
1.63333333333333,2.09948182106018,-1.61378967761993,9.22755146026611,-0.236281991004944,-0.495429992675781,0.548784017562866,-1315.5,20.1000003814697,-914.100036621094,3.04878851557476,0.221172609224515,0.173768135832954,ST
1.66666666666667,2.07675242424011,-1.7405960559845,9.43989276885986,-0.297257989645004,-0.602137982845306,0.754577994346619,-1317.90002441406,12.3000001907349,-914.100036621094,3.04177015473756,0.21393655319836,0.183084051461335,ST
1.7,2.30823373794556,-1.85783207416534,9.39263916015625,0.0990860015153885,-0.815553963184357,1.43293595314026,-1327.5,17.1000003814697,-911.700012207031,3.02918906952302,0.237189123557444,0.195603719254785,ST
1.73333333333333,2.50083565711975,-2.0791449546814,9.09416580200195,-0.0685980021953583,-0.922261953353882,1.31860601902008,-1322.70007324219,17.1000003814697,-916.500061035156,3.01286173727514,0.262663563336487,0.22520838559547,ST
1.76666666666667,2.43264746665955,-2.04804158210754,9.08818435668945,-0.106707997620106,-0.647870004177094,1.07470202445984,-1320.30004882812,19.5,-911.700012207031,3.00623751454639,0.256176552063554,0.222409984755102,ST
1.8,2.27294325828552,-2.04744338989258,9.1749153137207,0.0533539988100529,-0.358233988285065,1.09756803512573,-1334.70007324219,9.90000057220459,-916.500061035156,2.99968160384256,0.237655064892271,0.219983909488437,ST
1.83333333333333,1.8685986995697,-1.97566628456116,9.29693603515625,0.289635986089706,-0.175305992364883,1.21951997280121,-1310.70007324219,13.5000009536743,-926.100036621094,2.99370932638887,0.19443253839078,0.209423904698434,ST
1.86666666666667,1.41879510879517,-1.78306424617767,9.305908203125,0.617381989955902,0.411587983369827,1.57775402069092,-1327.5,16.5,-909.300048828125,2.9874051304586,0.147982479374702,0.18887616497016,ST
1.9,1.36017715930939,-1.78605496883392,9.329833984375,0.952749967575073,0.724089980125427,2.21800184249878,-1313.10009765625,19.5,-911.700012207031,2.97261817353904,0.140312901575899,0.187994422633402,ST
1.93333333333333,1.42298209667206,-1.83211195468903,9.49372482299805,0.571649968624115,0.335367977619171,1.92836594581604,-1320.30004882812,17.7000007629395,-918.900024414062,2.95959566209456,0.144871512639726,0.190086748120484,ST
1.96666666666667,1.47143173217773,-1.71607220172882,9.61155986785889,0.449698001146317,-0.243903994560242,1.83690190315247,-1322.70007324219,10.5,-918.900024414062,2.94956168803803,0.149378837866549,0.176548697636385,ST
2.0,1.51629245281219,-1.82493424415588,9.13483905792236,0.228659987449646,-0.868907988071442,1.95123195648193,-1327.5,20.7000007629395,-911.700012207031,2.93312111296553,0.162026697875829,0.197119278719019,ST
2.03333333333333,1.67300593852997,-1.87517821788788,9.10254001617432,0.0609759986400604,-0.617381989955902,1.90549993515015,-1313.10009765625,20.1000003814697,-916.500061035156,2.91915362175774,0.178321241608589,0.203612690584505,ST
2.06666666666667,1.83390629291534,-1.85005617141724,8.82918834686279,0.198172003030777,-0.541162014007568,1.76830399036407,-1325.10009765625,10.5,-923.700012207031,2.90579358032993,0.200685931089401,0.20683133990272,ST
2.1,2.06060242652893,-2.07735061645508,8.77057075500488,-0.0457319989800453,-0.617381989955902,1.65397393703461,-1308.30004882812,18.3000011444092,-918.900024414062,2.88849045162848,0.224961485416771,0.233148664597937,ST
2.13333333333333,2.56902408599854,-2.19458651542664,8.97872447967529,-0.175305992364883,-0.419209986925125,0.83841997385025,-1329.90002441406,21.3000011444092,-914.100036621094,2.88140623349196,0.270893654997626,0.240376263637788,ST
2.16666666666667,2.99310731887817,-1.92362785339355,9.33043193817139,0.160062000155449,-0.960371971130371,0.0228659994900227,-1305.90002441406,17.1000003814697,-914.100036621094,2.89016740020064,0.305688027603529,0.203547702335601,ST
2.2,3.34720802307129,-2.00019001960754,9.41237735748291,0.221037998795509,-1.50153398513794,-0.46494197845459,-1320.30004882812,17.7000007629395,-918.900024414062,2.88891466448794,0.337101820097823,0.208852552430303,ST
2.23333333333333,3.28559923171997,-2.01933073997498,8.98590183258057,0.121951997280121,-1.64635193347931,-1.82927989959717,-1337.10009765625,15.9000005722046,-909.300048828125,2.89450418010225,0.346112580336028,0.219872435855536,ST
2.26666666666667,2.91774129867554,-1.75136256217957,8.92788219451904,0.0990860015153885,-0.922261953353882,-2.80489587783813,-1317.90002441406,17.7000007629395,-906.900024414062,2.91861771748795,0.313267350140349,0.192407136629829,ST
2.3,3.11692309379578,-1.66283750534058,9.64804649353027,-0.0381099991500378,-0.78506600856781,-3.14026403427124,-1327.5,20.1000003814697,-909.300048828125,2.94358106793507,0.310537441910773,0.169364279641794,ST
2.33333333333333,2.79452395439148,-1.28540921211243,10.8407430648804,0.106707997620106,-1.50915598869324,-3.73477983474731,-1332.30004882812,13.5000009536743,-916.500061035156,2.97945768965537,0.254692699702134,0.116850752317425,ST
2.36666666666667,3.03856635093689,-1.16936945915222,9.17670917510986,-0.0609759986400604,-2.080806016922,-2.52288198471069,-1332.30004882812,11.1000003814697,-902.100036621094,2.99154891359578,0.320926811875785,0.125485684876835,ST
2.4,3.03198671340942,-1.32488667964935,8.88960075378418,-0.548784017562866,-1.76830399036407,-2.28659987449646,-1341.90002441406,17.7000007629395,-909.300048828125,2.99812502978958,0.328909484355458,0.147485131039284,ST
2.43333333333333,2.37044048309326,-0.958225011825562,9.26822566986084,-0.335367977619171,-1.2423859834671,-2.24086785316467,-1337.10009765625,14.1000003814697,-902.100036621094,3.0241195369179,0.252634732970426,0.103181112400625,ST
2.46666666666667,2.68446564674377,-0.92173832654953,8.61624908447266,-0.205793991684914,-1.54726600646973,-1.265251994133,-1332.30004882812,14.1000003814697,-914.100036621094,3.03029110238251,0.302714603222907,0.106301322999954,ST
2.5,2.59055709838867,-0.720762252807617,8.85789966583252,-0.320124000310898,-2.10367202758789,-2.21800184249878,-1339.5,10.5,-902.100036621094,3.05052304483674,0.287797860707095,0.0810034358513928,ST
2.53333333333333,3.04275321960449,-0.720762252807617,8.81064605712891,0.342989981174469,-2.79727387428284,-0.365855991840363,-1337.10009765625,10.5,-902.100036621094,3.05069544398515,0.336057344775943,0.0809428635508356,ST
2.56666666666667,4.32158279418945,-1.39486944675446,8.53250980377197,-0.160062000155449,-3.59758400917053,-0.259148001670837,-1339.5,15.3000001907349,-904.500061035156,3.01807441133333,0.468176666003453,0.161543770349595,ST
2.6,4.62663602828979,-2.25798964500427,8.47747993469238,-1.53202199935913,-3.43752193450928,-0.907018005847931,-1361.10009765625,14.1000003814697,-899.700012207031,2.976931293161,0.491350643148841,0.262232067228699,ST
2.63333333333333,4.52435350418091,-1.99361050128937,9.43929386138916,-1.47104597091675,-2.9116039276123,-1.28811800479889,-1344.30004882812,6.90000009536743,-894.900024414062,3.00771384685869,0.444545313169065,0.210779003306288,ST
2.66666666666667,4.54050350189209,-1.99719941616058,9.04571628570557,-0.830797970294952,-2.94971394538879,-0.701223969459534,-1349.10009765625,16.5,-892.500061035156,3.0068983773296,0.460823444233286,0.218614219960524,ST
2.7,3.97884702682495,-1.59943425655365,9.10134315490723,-0.175305992364883,-1.59299790859222,-0.701223969459534,-1353.90002441406,12.3000001907349,-885.300048828125,3.02825553460714,0.410165669853155,0.174481482812832,ST
2.73333333333333,3.48119211196899,-1.11972367763519,9.10672664642334,0.571649968624115,-1.20427596569061,-0.0533539988100529,-1353.90002441406,12.9000005722046,-892.500061035156,3.04610286851193,0.365288367853615,0.122044564823613,ST
2.76666666666667,2.81127190589905,-1.38709354400635,10.1881694793701,0.282013982534409,-0.800309956073761,0.106707997620106,-1358.70007324219,11.7000007629395,-885.300048828125,3.04027930259257,0.269255710889964,0.134801405857068,ST
2.8,3.75873041152954,-2.10187435150146,9.18508338928223,-1.35671591758728,-2.87349390983582,0.106707997620106,-1368.30004882812,12.9000005722046,-887.700012207031,3.00941590290465,0.383571110606366,0.227136458205356,ST
2.83333333333333,3.68695330619812,-1.68915569782257,9.65701866149902,-1.48628997802734,-2.77440786361694,-0.0914639979600906,-1368.30004882812,10.5,-885.300048828125,3.02871396207681,0.364754048321966,0.176634921195309,ST
2.86666666666667,4.39874362945557,-1.6323322057724,8.71314907073975,-1.05945801734924,-1.97409796714783,1.12043392658234,-1370.70007324219,10.5,-894.900024414062,3.01851748744112,0.462421045406901,0.188164076912731,ST
2.9,4.77258253097534,-2.06060242652893,8.83696460723877,-1.2423859834671,-1.43293595314026,1.14329993724823,-1363.5,17.7000007629395,-890.100036621094,2.99407902256015,0.485894494709033,0.232030218350486,ST
2.93333333333333,4.75523662567139,-1.93259990215302,9.03494930267334,-0.922261953353882,-0.922261953353882,0.0304879993200302,-1373.10009765625,15.9000005722046,-875.700012207031,3.00440168243646,0.476991653710903,0.212774225278295,ST
2.96666666666667,4.42087459564209,-1.9768625497818,9.28497314453125,-0.25152599811554,-0.564027965068817,-0.297257989645004,-1377.90002441406,17.1000003814697,-875.700012207031,3.00725841749029,0.437389013108276,0.210106830917036,ST
3.0,4.03746509552002,-2.24183988571167,9.67735481262207,-0.381099998950958,-0.236281991004944,-0.83841997385025,-1373.10009765625,17.7000007629395,-875.700012207031,3.00567677751972,0.38739916620761,0.227550181031173,ST
3.03333333333333,3.61457800865173,-1.98643279075623,9.75272083282471,-0.0,-0.0533539988100529,-0.899396002292633,-1365.90002441406,14.1000003814697,-882.900024414062,3.02049811431482,0.349235108625545,0.2007021123387,ST
3.06666666666667,3.43453693389893,-1.78784930706024,9.02418327331543,0.274392008781433,-0.190549999475479,0.0381099991500378,-1368.30004882812,14.1000003814697,-866.100036621094,3.02134665037846,0.357522148649526,0.195222350486497,ST
3.1,3.17613911628723,-1.58687329292297,9.03076267242432,0.335367977619171,0.335367977619171,0.37347799539566,-1380.30004882812,12.9000005722046,-863.700012207031,3.02605038332009,0.333072915314712,0.173808043704337,ST
3.13333333333333,3.29457139968872,-1.41520631313324,9.55294132232666,0.6250039935112,0.46494197845459,0.762199997901917,-1368.30004882812,12.9000005722046,-880.500061035156,3.02946952770436,0.32783767807307,0.146724758181261,ST
3.16666666666667,3.16178369522095,-1.08263874053955,9.48295879364014,0.899396002292633,0.160062000155449,0.708845973014832,-1373.10009765625,15.3000001907349,-868.500061035156,3.03398733699971,0.319544402714823,0.112800303433573,ST
3.2,3.16357827186584,-0.830820560455322,9.05887508392334,1.01372599601746,0.449698001146317,0.510673999786377,-1361.10009765625,12.9000005722046,-880.500061035156,3.03635381552909,0.333645511832898,0.0902502612384502,ST
3.23333333333333,3.22159814834595,-0.662742435932159,9.16773700714111,1.15854394435883,0.564027965068817,0.182927995920181,-1373.10009765625,12.9000005722046,-880.500061035156,3.03960072456613,0.33607843195499,0.0704742045923624,ST
3.26666666666667,3.44590163230896,-0.771604418754578,8.52533149719238,0.396344006061554,-0.381099998950958,-0.426831990480423,-1373.10009765625,10.5,-873.300048828125,3.03447347064235,0.382853758770454,0.0890615304808178,ST
3.3,3.332852602005,-0.52337509393692,7.99597501754761,0.0381099991500378,-0.442075997591019,-0.434453994035721,-1361.10009765625,11.1000003814697,-880.500061035156,3.04607639534517,0.394905391085112,0.065151137067579,ST
3.33333333333333,3.56493210792542,-0.65137767791748,6.99229145050049,0.236281991004944,-0.0990860015153885,1.41769194602966,-1380.30004882812,9.90000057220459,-885.300048828125,3.02491473869526,0.469030951047624,0.0934646683652555,ST
3.36666666666667,2.60610890388489,-1.44690787792206,8.74245738983154,-0.327746003866196,1.73019397258759,1.73781597614288,-1373.10009765625,19.5,-885.300048828125,2.99059386440977,0.284868024298672,0.164533725735429,ST
3.4,2.71078395843506,-1.25610029697418,10.2085056304932,0.46494197845459,1.51677799224854,1.96647596359253,-1382.70007324219,12.9000005722046,-878.100036621094,2.9889018468019,0.254831400463801,0.122683062306025,ST
3.43333333333333,3.10914707183838,-1.67539846897125,10.1875715255737,0.602137982845306,-0.503051996231079,1.85976791381836,-1363.5,12.3000001907349,-878.100036621094,2.96421894494491,0.292573901982455,0.162646882796285,ST
3.46666666666667,3.19228911399841,-1.96250712871552,10.3514623641968,0.327746003866196,-1.60061991214752,1.33385002613068,-1373.10009765625,22.5,-882.900024414062,2.94674488550447,0.296468105457032,0.187342900365232,ST
3.5,2.70958757400513,-2.15690350532532,9.8316764831543,0.129574000835419,-1.07470202445984,0.99848198890686,-1370.70007324219,14.1000003814697,-875.700012207031,2.9312791589986,0.26481707816573,0.215959981331558,ST
3.53333333333333,2.25141024589539,-2.33814096450806,9.88311672210693,0.739333987236023,0.0533539988100529,1.47866797447205,-1361.10009765625,15.9000005722046,-875.700012207031,2.91770980454042,0.218054766260006,0.231388986154782,ST
3.56666666666667,2.84237551689148,-1.74538123607635,8.47209739685059,2.24848985671997,-0.434453994035721,1.74543797969818,-1382.70007324219,15.3000001907349,-875.700012207031,2.90996272674432,0.316743482755054,0.200541088261815,ST
3.6,3.19827055931091,-1.68377244472504,7.1884822845459,2.40092992782593,-0.777444005012512,1.85214591026306,-1365.90002441406,20.1000003814697,-878.100036621094,2.8832437921639,0.408258624800416,0.227023091127848,ST
3.63333333333333,3.64388704299927,-2.39496445655823,7.85600996017456,0.586893975734711,-0.922261953353882,1.72257196903229,-1356.30004882812,12.9000005722046,-878.100036621094,2.841440729472,0.418196185731494,0.295935863925858,ST
3.66666666666667,3.5433988571167,-3.02779960632324,8.12637042999268,-1.05183601379395,-0.792688012123108,0.342989981174469,-1370.70007324219,21.3000011444092,-878.100036621094,2.8161091971817,0.389350461862835,0.35816133555453,ST
3.7,3.77787089347839,-3.2347571849823,9.65283107757568,-0.983237981796265,-0.716467976570129,0.609759986400604,-1356.30004882812,22.5,-870.900024414062,2.82514566860582,0.356475959758532,0.325870703704948,ST
3.73333333333333,3.6492702960968,-2.70181179046631,10.2079076766968,-0.46494197845459,-1.00610399246216,-0.0609759986400604,-1377.90002441406,18.3000011444092,-878.100036621094,2.84707060290499,0.334636994375651,0.26016189784586,ST
3.76666666666667,4.15410280227661,-1.99361050128937,10.0141096115112,-0.571649968624115,-1.04421401023865,0.274392008781433,-1370.70007324219,11.7000007629395,-873.300048828125,2.86725320679728,0.387537007499562,0.198506494803359,ST
3.8,3.74198246002197,-1.92841291427612,9.67316818237305,-1.2347639799118,-0.731711983680725,-0.403965979814529,-1375.5,22.5,-870.900024414062,2.87160792145275,0.364237222526671,0.198759690933139,ST
3.83333333333333,4.09548473358154,-2.36266469955444,9.14680194854736,-1.95123195648193,-0.358233988285065,-1.48628997802734,-1368.30004882812,14.1000003814697,-878.100036621094,2.86364760946312,0.409844613383562,0.254574736745121,ST
3.86666666666667,3.86639618873596,-2.08632278442383,9.28617000579834,-1.04421401023865,0.350611984729767,-2.00458598136902,-1368.30004882812,22.5,-863.700012207031,2.89214979723602,0.386222656842877,0.221618289713005,ST
3.9,3.81316137313843,-2.48887300491333,8.49662113189697,-0.0914639979600906,0.716467976570129,-0.685979962348938,-1382.70007324219,14.7000007629395,-866.100036621094,2.87338609290328,0.405579486624072,0.283695580432978,ST
3.93333333333333,4.07096099853516,-2.25141024589539,8.59352016448975,0.160062000155449,1.10518991947174,-0.381099998950958,-1356.30004882812,14.7000007629395,-875.700012207031,2.8880565266575,0.427732189797891,0.25578532528975,ST
3.96666666666667,4.08471822738647,-2.15570735931396,8.38895511627197,0.419209986925125,1.16616594791412,0.67835795879364,-1375.5,21.3000011444092,-882.900024414062,2.88677949761359,0.438270027795613,0.251152943786075,ST
4.0,3.56852102279663,-2.06778025627136,7.79141044616699,0.228659987449646,2.4923939704895,0.358233988285065,-1358.70007324219,17.7000007629395,-875.700012207031,2.88482059309373,0.412578002273351,0.258733581595684,ST
4.03333333333333,3.17494297027588,-2.19159579277039,7.73697948455811,-0.190549999475479,3.69666981697083,-0.152439996600151,-1373.10009765625,14.7000007629395,-870.900024414062,2.88560470726877,0.370421526156579,0.275375782215326,ST
4.06666666666667,2.45717144012451,-2.48049879074097,8.83636569976807,-0.87652999162674,4.6494197845459,-1.84452390670776,-1351.5,11.7000007629395,-887.700012207031,2.90611444154711,0.256065440102541,0.273804083829305,ST
4.1,2.03189158439636,-2.23346590995789,8.97214412689209,-0.403965979814529,4.984787940979,-1.71494996547699,-1358.70007324219,21.3000011444092,-885.300048828125,2.932058217796,0.209100596940644,0.243914632396934,ST
4.13333333333333,2.1533145904541,-2.02052688598633,9.97164154052734,0.213415995240211,4.89332389831543,-1.46342396736145,-1349.10009765625,15.9000005722046,-897.300048828125,2.95611148546494,0.20081398343748,0.199242605489596,ST
4.16666666666667,3.5093047618866,-1.37632691860199,9.29215145111084,1.00610399246216,3.17075204849243,-0.78506600856781,-1332.30004882812,15.3000001907349,-897.300048828125,2.97667784086631,0.350408804248467,0.145225455435753,ST
4.2,3.05591249465942,-1.66881883144379,10.4752779006958,1.37195992469788,3.02593398094177,-0.762199997901917,-1351.5,14.7000007629395,-902.100036621094,2.97852547090292,0.276401346687259,0.154860111403079,ST
4.23333333333333,3.51767873764038,-0.901999592781067,8.70298004150391,1.81403601169586,2.00458598136902,-0.548784017562866,-1329.90002441406,6.30000019073486,-918.900024414062,2.99676489302539,0.377633188685999,0.100292411288457,ST
4.26666666666667,3.36575055122375,-1.69214642047882,8.37818813323975,0.777444005012512,2.52288198471069,-0.0228659994900227,-1332.30004882812,16.5,-914.100036621094,2.96243736781663,0.370909980334584,0.196573334905006,ST
4.3,2.85553455352783,-1.51389980316162,9.06366062164307,0.655492007732391,2.44666194915771,-0.434453994035721,-1332.30004882812,11.1000003814697,-921.300048828125,2.97685325204902,0.298103879759524,0.164298046763809,ST
4.33333333333333,2.5696222782135,-1.78186786174774,8.92848014831543,1.19665396213531,2.21800184249878,0.945127964019775,-1327.5,10.5,-914.100036621094,2.96306372423749,0.271299177956145,0.19476304412613,ST
4.36666666666667,2.56902408599854,-1.11075150966644,10.0685405731201,1.60824191570282,2.38568592071533,0.495429992675781,-1325.10009765625,13.5000009536743,-914.100036621094,2.98150053427384,0.244485843598297,0.108232956809864,ST
4.4,2.38718867301941,-1.07665729522705,9.86218166351318,1.63110792636871,1.6692179441452,0.282013982534409,-1308.30004882812,11.1000003814697,-918.900024414062,2.97898546358648,0.233325694912231,0.105962602094952,ST
4.43333333333333,2.08692073822021,-1.56115317344666,10.6666831970215,0.426831990480423,1.47866797447205,-0.922261953353882,-1320.30004882812,12.9000005722046,-921.300048828125,2.97741704125565,0.189439250342804,0.143737731510823,ST
4.46666666666667,2.05940628051758,-1.54978847503662,9.43989276885986,-0.602137982845306,-0.0685980021953583,-1.93598794937134,-1320.30004882812,10.5,-911.700012207031,2.98767920430606,0.212561497411527,0.162940371136433,ST
4.5,0.959421336650848,-1.50492775440216,9.36990928649902,0.0685980021953583,0.0533539988100529,-0.335367977619171,-1303.5,9.90000057220459,-918.900024414062,2.99036008012994,0.102124668406176,0.159118528535984,ST
4.53333333333333,2.25081205368042,-2.00078821182251,7.6149582862854,0.274392008781433,0.175305992364883,2.75916385650635,-1313.10009765625,7.50000047683716,-930.900024414062,2.95531853982704,0.274815913453485,0.256451525704777,ST
4.56666666666667,2.08273386955261,-2.06538772583008,9.329833984375,0.121951997280121,0.228659987449646,1.87501192092896,-1310.70007324219,6.90000009536743,-921.300048828125,2.95332653433852,0.214245400286564,0.218794558570303,ST
4.6,2.18082928657532,-1.8045973777771,9.65462589263916,1.62348592281342,-1.42531394958496,2.75916385650635,-1313.10009765625,9.90000057220459,-926.100036621094,2.940252946053,0.219981251955422,0.183544101288537,ST
4.63333333333333,2.59534239768982,-1.78545677661896,10.0021467208862,2.30946588516235,-2.40855193138123,3.18599581718445,-1322.70007324219,8.70000076293945,-923.700012207031,2.91544991083542,0.252974597412545,0.174293229363641,ST
4.66666666666667,3.25509405136108,-1.52287197113037,9.63847541809082,2.37044191360474,-2.83538389205933,2.9192259311676,-1334.70007324219,12.9000005722046,-911.700012207031,2.89413733811069,0.32553399153315,0.15465558372108,ST
4.7,3.38489103317261,-1.04136693477631,9.37888145446777,1.73781597614288,-2.31708788871765,2.09605002403259,-1317.90002441406,6.30000019073486,-918.900024414062,2.8912410371948,0.347743793870304,0.109582445392298,ST
4.73333333333333,2.97755575180054,-0.890036761760712,10.011118888855,1.12805593013763,-1.42531394958496,0.937505960464478,-1332.30004882812,13.5000009536743,-911.700012207031,2.889576867858,0.291053187499915,0.0875328611352994,ST
4.76666666666667,2.44640469551086,-0.933701157569885,9.72042179107666,0.670735955238342,-0.510673999786377,0.663114011287689,-1329.90002441406,12.9000005722046,-909.300048828125,2.88189022673316,0.246641895842276,0.0948423368452091,ST
4.8,1.92901110649109,-0.818259596824646,9.68871974945068,0.594515979290009,0.586893975734711,0.823175966739655,-1332.30004882812,6.90000009536743,-914.100036621094,2.87880240679234,0.19534210064772,0.0836254493806187,ST
4.83333333333333,1.93140363693237,-0.769810020923615,9.4853515625,0.541162014007568,1.27287399768829,0.975615978240967,-1329.90002441406,12.3000001907349,-921.300048828125,2.87336485867452,0.197850295865838,0.0803798779984849,ST
4.86666666666667,1.91226303577423,-0.855942606925964,9.86517238616943,0.480185985565186,0.945127964019775,0.693601965904236,-1339.5,14.1000003814697,-909.300048828125,2.86793189928078,0.189126979038661,0.0858459733111346,ST
4.9,1.84228038787842,-1.04794645309448,9.56789493560791,0.434453994035721,0.602137982845306,1.31860601902008,-1320.30004882812,9.90000057220459,-916.500061035156,2.85462432697604,0.187834029951608,0.108578541538569,ST
4.93333333333333,2.19219398498535,-1.09400343894958,9.14979267120361,0.282013982534409,0.579271972179413,1.92074394226074,-1320.30004882812,7.50000047683716,-909.300048828125,2.84065548721855,0.231611950320174,0.119126004031005,ST
4.96666666666667,2.03847122192383,-1.11134958267212,9.50090312957764,-0.137196004390717,1.2423859834671,1.47104597091675,-1329.90002441406,11.7000007629395,-916.500061035156,2.83312093819918,0.207802187880704,0.117194587403551,ST
5.0,2.42726421356201,-1.33864402770996,10.039231300354,-0.0152439996600151,0.571649968624115,2.44666194915771,-1317.90002441406,14.1000003814697,-899.700012207031,2.8133016679404,0.233505102775959,0.133455497190037,ST
5.03333333333333,2.66053986549377,-1.12211620807648,9.70965480804443,-0.0304879993200302,0.137196004390717,1.79879200458527,-1313.10009765625,17.7000007629395,-923.700012207031,2.80613587936018,0.264879238236358,0.116098927679028,ST
5.06666666666667,2.58995914459229,-1.22858572006226,9.42613506317139,-0.0990860015153885,0.0838419944047928,2.080806016922,-1322.70007324219,15.3000001907349,-921.300048828125,2.78994991227049,0.26538118350165,0.130575017612925,ST
5.1,2.46853613853455,-1.37752330303192,8.56779956817627,-0.350611984729767,0.952749967575073,1.86738991737366,-1334.70007324219,6.30000019073486,-928.500061035156,2.77218224994632,0.274870255513458,0.160487549786341,ST
5.13333333333333,1.49954438209534,-0.96360832452774,9.00444412231445,0.259148001670837,2.56099200248718,1.55488801002502,-1313.10009765625,12.3000001907349,-923.700012207031,2.77574178451504,0.160774071233571,0.107177996658496,ST
5.16666666666667,1.07785367965698,-1.08443319797516,9.22515869140625,0.87652999162674,3.45276594161987,2.36281991004944,-1305.90002441406,16.5,-926.100036621094,2.76160037044025,0.109693600038559,0.115763658378711,ST
5.2,0.887644171714783,-1.04076874256134,9.74315071105957,0.830797970294952,3.3460578918457,1.76830399036407,-1301.10009765625,17.1000003814697,-926.100036621094,2.75332045959332,0.0845200816859534,0.105306964886114,ST
5.23333333333333,1.02043187618256,-1.12450873851776,9.97104358673096,0.708845973014832,2.14178204536438,1.97409796714783,-1310.70007324219,11.7000007629395,-930.900024414062,2.74077093601816,0.0971382189988799,0.111303758980521,ST
5.26666666666667,1.72145545482635,-1.00248765945435,9.52841758728027,0.106707997620106,1.27287399768829,1.89025592803955,-1293.90002441406,15.9000005722046,-935.700012207031,2.72957318491315,0.174643797436327,0.105213756125232,ST
5.3,1.89790761470795,-1.06828331947327,9.08997917175293,-0.487807989120483,0.708845973014832,1.15854394435883,-1291.5,8.70000076293945,-928.500061035156,2.72074070548646,0.202752458512482,0.118104715285476,ST
5.33333333333333,1.44152450561523,-1.08742392063141,8.93087291717529,-0.769822001457214,1.2347639799118,0.350611984729767,-1291.5,15.9000005722046,-933.300048828125,2.71951904785558,0.157139047726646,0.122517100700467,ST
5.36666666666667,1.28241848945618,-1.4241783618927,8.87285327911377,-0.724089980125427,1.39482593536377,0.739333987236023,-1305.90002441406,12.9000005722046,-930.900024414062,2.7113526997088,0.139363068392223,0.160078219821227,ST
5.4,0.949252903461456,-1.46305775642395,9.63787746429443,-1.04421401023865,1.265251994133,-0.0228659994900227,-1281.90002441406,12.9000005722046,-935.700012207031,2.71449698711603,0.0952221682188031,0.152495206677136,ST
5.43333333333333,1.43853390216827,-1.45887064933777,9.64326095581055,-0.754577994346619,0.37347799539566,0.182927995920181,-1286.70007324219,18.3000011444092,-933.300048828125,2.71446474879604,0.145130971206331,0.151507275929803,ST
5.46666666666667,2.0911078453064,-2.13895916938782,9.51765060424805,-1.31860601902008,-1.03659200668335,-0.983237981796265,-1277.10009765625,18.3000011444092,-938.100036621094,2.70818685664795,0.212473557543353,0.222209097615528,ST
5.5,1.81356954574585,-1.95413303375244,10.1433086395264,-1.6615959405899,-1.36433792114258,-2.77440786361694,-1296.30004882812,16.5,-928.500061035156,2.73160130643654,0.177434261910582,0.19274668591367,ST
5.53333333333333,1.50313329696655,-2.09050965309143,9.5984001159668,-1.40244793891907,-1.77592599391937,-2.39330792427063,-1286.70007324219,16.5,-923.700012207031,2.74148290579606,0.156021689233586,0.216066181306155,ST
5.56666666666667,1.30335354804993,-1.74478304386139,9.90165901184082,-1.27287399768829,-1.38720393180847,-1.6692179441452,-1296.30004882812,19.5,-926.100036621094,2.75690487433163,0.13211267620022,0.176797298723633,ST
5.6,1.12630319595337,-1.32727921009064,10.0464096069336,-0.663114011287689,-0.975615978240967,0.0533539988100529,-1284.30004882812,12.9000005722046,-921.300048828125,2.76151819525155,0.112607698385088,0.133086642886032,ST
5.63333333333333,1.54560148715973,-1.33565330505371,9.48295879364014,-0.365855991840363,-0.403965979814529,0.907018005847931,-1293.90002441406,16.5,-928.500061035156,2.7548399387108,0.159906152451112,0.140735715763165,ST
5.66666666666667,2.12161302566528,-1.70889449119568,9.03435134887695,-0.853663980960846,-0.350611984729767,0.236281991004944,-1303.5,16.5,-940.500061035156,2.74506957336766,0.226480472471338,0.187963389946572,ST
5.7,2.01454544067383,-1.91166496276855,9.7838249206543,-1.80641400814056,0.160062000155449,-3.20123982429504,-1305.90002441406,14.7000007629395,-926.100036621094,2.76562254771745,0.200525766987935,0.194892065489366,ST
5.73333333333333,1.07904994487762,-1.39187872409821,9.32564735412598,-1.50153398513794,-0.228659987449646,-5.19820404052734,-1289.10009765625,14.1000003814697,-928.500061035156,2.80595199416587,0.116757639776862,0.150238118150039,ST
5.76666666666667,1.05871307849884,-1.10297560691833,9.32923603057861,-0.899396002292633,0.426831990480423,-4.24545383453369,-1298.70007324219,12.9000005722046,-930.900024414062,2.83703420060986,0.112430419474379,0.118796963318058,ST
5.8,1.51270353794098,-1.27165198326111,9.97582817077637,-0.647870004177094,-0.571649968624115,-4.01679372787476,-1293.90002441406,17.7000007629395,-923.700012207031,2.86339374917194,0.150888062990972,0.126831954569906,ST
5.83333333333333,1.75375521183014,-1.32488667964935,8.86268424987793,-0.533540010452271,-1.43293595314026,-3.01831197738647,-1289.10009765625,18.3000011444092,-938.100036621094,2.87822043422593,0.196036851592297,0.148147617816524,ST
5.86666666666667,1.85783207416534,-1.08204066753387,8.87703990936279,-1.02134799957275,-0.746955990791321,-2.41617393493652,-1303.5,22.5,-926.100036621094,2.89939700966395,0.206539181882914,0.122503328326839,ST
5.9,2.23825097084045,-1.56474196910858,9.01879978179932,-1.38720393180847,-0.0990860015153885,-1.65397393703461,-1308.30004882812,14.7000007629395,-930.900024414062,2.90125710411859,0.24023045427449,0.17314383391047,ST
5.93333333333333,2.32318735122681,-2.26636362075806,9.66778469085693,-2.080806016922,0.480185985565186,-1.34909391403198,-1296.30004882812,16.5,-928.500061035156,2.89921211792138,0.229679521695468,0.232581877794462,ST
5.96666666666667,2.17424964904785,-2.58936095237732,9.99257659912109,-2.19513607025146,1.05945801734924,-1.31860601902008,-1289.10009765625,15.3000001907349,-930.900024414062,2.90650242561635,0.206672518015816,0.256519377629286,ST
6.0,1.82254159450531,-2.984135389328,10.2677221298218,-1.92836594581604,1.77592599391937,-0.213415995240211,-1298.70007324219,15.9000005722046,-938.100036621094,2.90775593526646,0.166378874316852,0.285695263323514,ST
6.03333333333333,0.756052732467651,-2.84895491600037,9.45006084442139,-1.16616594791412,2.24848985671997,0.594515979290009,-1289.10009765625,17.1000003814697,-935.700012207031,2.90798964525112,0.0730883533441774,0.294769105328107,ST
6.06666666666667,0.40853163599968,-2.78435564041138,9.81433010101318,-0.846041977405548,2.96495795249939,1.32622802257538,-1291.5,18.3000011444092,-938.100036621094,2.90629913412535,0.0348842679713555,0.278151517853214,ST
6.1,0.763230443000793,-2.7562427520752,9.86098480224609,-0.152439996600151,1.60824191570282,1.31860601902008,-1281.90002441406,18.3000011444092,-945.300048828125,2.9010442679251,0.0707637995151349,0.272967789223979,ST
6.13333333333333,0.860129594802856,-2.563640832901,9.10553073883057,0.3125019967556,0.87652999162674,0.564027965068817,-1293.90002441406,16.5,-945.300048828125,2.89874078244226,0.0887797044214357,0.273936360089871,ST
6.16666666666667,0.671714544296265,-2.17783856391907,8.52832221984863,0.945127964019775,0.708845973014832,0.6250039935112,-1281.90002441406,18.9000015258789,-945.300048828125,2.89764275005245,0.0748696020906832,0.24874070205705,ST
6.2,0.730332553386688,-2.2591860294342,8.33213138580322,0.777444005012512,0.945127964019775,0.87652999162674,-1281.90002441406,15.9000005722046,-938.100036621094,2.89228338179618,0.0823151444320721,0.263323796450399,ST
6.23333333333333,0.724351167678833,-2.32677626609802,8.56540775299072,0.716467976570129,1.00610399246216,1.73781597614288,-1296.30004882812,14.1000003814697,-926.100036621094,2.88291458190254,0.0789833473367783,0.264181748609783,ST
6.26666666666667,0.51739364862442,-2.59713673591614,9.70785999298096,0.571649968624115,1.2500079870224,2.44666194915771,-1279.5,17.7000007629395,-935.700012207031,2.87003041733411,0.0486065389606406,0.260632978948269,ST
6.3,0.92472904920578,-2.52057456970215,10.0691385269165,0.967993974685669,0.602137982845306,2.79727387428284,-1274.70007324219,6.90000009536743,-945.300048828125,2.85447757869834,0.0861860482152059,0.244178379513283,ST
6.33333333333333,1.96968483924866,-2.40154409408569,10.3430881500244,1.2500079870224,-1.05183601379395,2.72867584228516,-1279.5,16.5,-950.100036621094,2.83740128287831,0.182930110060349,0.227087907877144,ST
6.36666666666667,1.60481762886047,-2.17843675613403,9.75750637054443,1.39482593536377,-2.0731840133667,0.815553963184357,-1274.70007324219,13.5000009536743,-957.300048828125,2.82973974234276,0.162635943449568,0.217696808664427,ST
6.4,1.74538123607635,-1.98045134544373,9.08100700378418,1.44817996025085,-1.87501192092896,0.144817993044853,-1286.70007324219,16.5,-942.900024414062,2.82563909354406,0.18845217212126,0.212440982374497,ST
6.43333333333333,1.84168219566345,-1.7483719587326,9.449462890625,1.75305998325348,-1.2500079870224,-0.304879993200302,-1284.30004882812,18.9000015258789,-945.300048828125,2.83001333518118,0.191554163783561,0.180268249122699,ST
6.46666666666667,2.26756000518799,-1.74717557430267,8.34110355377197,1.45580196380615,-1.2347639799118,-0.243903994560242,-1289.10009765625,12.9000005722046,-940.500061035156,2.82244094842129,0.2615199352996,0.203695128363443,ST
6.5,1.36556041240692,-1.47143173217773,9.02478122711182,1.27287399768829,-0.487807989120483,-0.0838419944047928,-1298.70007324219,15.3000001907349,-938.100036621094,2.82997152025719,0.150484590870012,0.15993475882428,ST
6.53333333333333,1.24652993679047,-1.67300593852997,8.82619762420654,0.78506600856781,-0.0609759986400604,1.12805593013763,-1281.90002441406,12.3000001907349,-938.100036621094,2.81755158331107,0.137701992471558,0.186066351991378,ST
6.56666666666667,1.05452609062195,-2.09290218353271,9.73716926574707,0.388722002506256,-0.0990860015153885,1.33385002613068,-1279.5,12.3000001907349,-938.100036621094,2.80589757812429,0.105570553739384,0.210982668529346,ST
6.6,0.944467723369598,-2.15809988975525,9.94472503662109,0.594515979290009,-0.556405961513519,1.54726600646973,-1279.5,19.5,-945.300048828125,2.79506621624363,0.0930795984092629,0.212902274229692,ST
6.63333333333333,1.07426476478577,-2.42008638381958,9.66898155212402,0.617381989955902,-0.632625997066498,1.6844619512558,-1293.90002441406,13.5000009536743,-938.100036621094,2.7795585330663,0.107602073650184,0.244235518497765,ST
6.66666666666667,1.36017715930939,-2.53433179855347,9.52303409576416,0.541162014007568,-0.335367977619171,1.70732796192169,-1286.70007324219,12.3000001907349,-942.900024414062,2.76531653542544,0.136745932395423,0.25945339050676,ST
6.7,0.693247675895691,-2.03727507591248,9.56550216674805,0.815553963184357,0.632625997066498,0.586893975734711,-1277.10009765625,20.1000003814697,-942.900024414062,2.7672541221068,0.0701678021755732,0.209005686345277,ST
6.73333333333333,0.601133704185486,-1.88773918151855,9.36153602600098,1.52439999580383,0.358233988285065,1.62348592281342,-1279.5,11.1000003814697,-940.500061035156,2.75784129039301,0.0617981262496159,0.196637688756544,ST
6.76666666666667,0.849961161613464,-1.79622340202332,9.5152587890625,1.265251994133,-1.05183601379395,1.41769194602966,-1279.5,20.1000003814697,-938.100036621094,2.7480452001026,0.0885689394543193,0.184758090941536,ST
6.8,0.641807436943054,-1.05033910274506,9.36392784118652,1.47104597091675,-2.01220798492432,1.29574000835419,-1286.70007324219,17.7000007629395,-940.500061035156,2.74353413829512,0.0714528713203563,0.110246157336174,ST
6.83333333333333,0.885251581668854,-1.1538177728653,9.11689472198486,1.45580196380615,-2.16464805603027,2.02745199203491,-1284.30004882812,14.7000007629395,-933.300048828125,2.72721695806056,0.0990112114013191,0.123572309817003,ST
6.86666666666667,1.1675751209259,-1.34283101558685,9.33761024475098,0.967993974685669,-2.20275783538818,2.64483404159546,-1291.5,20.1000003814697,-942.900024414062,2.70609277601668,0.125967655070904,0.141557046065097,ST
6.9,1.87517821788788,-1.56294763088226,9.54277324676514,0.114329993724823,-2.42379593849182,2.45428395271301,-1301.10009765625,22.5,-933.300048828125,2.68345730998812,0.194515232069408,0.162936534411898,ST
6.93333333333333,1.90628159046173,-1.28600740432739,10.2276468276978,0.236281991004944,-2.24848985671997,2.13416004180908,-1308.30004882812,15.3000001907349,-928.500061035156,2.67378286360539,0.186345107661909,0.125735551111719,ST
6.96666666666667,3.18152236938477,-1.63472473621368,9.65283107757568,0.182927995920181,-2.44666194915771,2.75154185295105,-1303.5,16.5,-918.900024414062,2.643900526776,0.316013769839729,0.168635274998993,ST
7.0,3.16357827186584,-1.53304040431976,8.94642448425293,-0.342989981174469,-1.76068198680878,1.14329993724823,-1301.10009765625,11.7000007629395,-921.300048828125,2.63526376643133,0.337787481640411,0.171147584519021,ST
7.03333333333333,2.60192203521729,-1.14245307445526,9.61873722076416,0.0152439996600151,0.152439996600151,1.2423859834671,-1310.70007324219,15.3000001907349,-938.100036621094,2.6431941505181,0.262826694261993,0.119399072419314,ST
7.06666666666667,2.43025493621826,-1.08263874053955,9.48654747009277,0.426831990480423,1.05945801734924,1.11281192302704,-1296.30004882812,13.5000009536743,-938.100036621094,2.63799857920014,0.24736819719186,0.113396863675245,ST
7.1,1.99002170562744,-0.871494293212891,9.4375,0.670735955238342,1.84452390670776,1.07470202445984,-1303.5,9.90000057220459,-933.300048828125,2.63648014222707,0.204119201117007,0.0915097610669798,ST
7.13333333333333,2.15092206001282,-1.34103655815125,9.00444412231445,-0.266770005226135,2.43903994560242,1.02897000312805,-1296.30004882812,19.5,-930.900024414062,2.62047484492937,0.227259376431627,0.147872994966293,ST
7.16666666666667,1.86979496479034,-1.44989860057831,9.65641975402832,-1.2423859834671,2.4847719669342,0.0457319989800453,-1291.5,19.5,-921.300048828125,2.62380960464281,0.185159479123367,0.151076882579885,ST
7.2,1.70410931110382,-1.41879510879517,9.65522384643555,-1.34909391403198,2.01982998847961,-0.685979962348938,-1296.30004882812,18.9000015258789,-935.700012207031,2.63193178306323,0.169758741143181,0.148001495294163,ST
7.23333333333333,1.25011885166168,-1.47741317749023,9.19585037231445,-1.00610399246216,2.69818782806396,-0.92988395690918,-1289.10009765625,17.1000003814697,-945.300048828125,2.63935750258951,0.129532196011233,0.160589384500526,ST
7.26666666666667,1.19030451774597,-1.84885990619659,8.692214012146,-1.02134799957275,3.33843588829041,-0.663114011287689,-1281.90002441406,21.3000011444092,-930.900024414062,2.64198770707759,0.12771184556535,0.210444081302589,ST
7.3,-0.157909750938416,-1.75136256217957,10.146897315979,-0.716467976570129,4.10063600540161,-1.60061991214752,-1269.90002441406,23.1000003814697,-940.500061035156,2.65966771100224,-0.0205864611174346,0.172562237194828,ST
7.33333333333333,-0.376830071210861,-2.07376170158386,10.4358005523682,-0.495429992675781,3.39178991317749,-0.899396002292633,-1274.70007324219,19.5,-942.900024414062,2.67083903691355,-0.0407527251719208,0.196951606731556,ST
7.36666666666667,0.372643083333969,-2.16168880462646,9.75092697143555,-0.342989981174469,1.75305998325348,0.350611984729767,-1260.30004882812,20.7000007629395,-938.100036621094,2.67112590415122,0.0332563526827539,0.218493845426465,ST
7.4,0.811680018901825,-2.2191104888916,9.02657604217529,-1.52439999580383,0.426831990480423,-0.541162014007568,-1262.70007324219,21.9000015258789,-935.700012207031,2.67458468081914,0.0861360566709304,0.243410130163849,NLL
7.43333333333333,0.730332553386688,-2.23406410217285,8.4057035446167,-2.21800184249878,-0.106707997620106,-0.83841997385025,-1253.10009765625,18.3000011444092,-945.300048828125,2.67902892516286,0.0843552560162876,0.263283615047981,NLL
7.46666666666667,-0.176452174782753,-2.22628808021545,8.71255016326904,-1.6920839548111,0.495429992675781,-0.434453994035721,-1272.30004882812,17.7000007629395,-935.700012207031,2.683193940434,-0.0194938788074888,0.253219072059937,NLL
7.5,-0.116637878119946,-2.47092866897583,9.521240234375,-0.716467976570129,0.388722002506256,1.89025592803955,-1262.70007324219,20.1000003814697,-950.100036621094,2.672187374456,-0.0134206328721275,0.255101550185597,NLL
7.53333333333333,-0.282921612262726,-2.52595782279968,9.69290637969971,0.0533539988100529,-1.12805593013763,3.39941191673279,-1265.10009765625,21.9000015258789,-942.900024414062,2.64954347224312,-0.0276512907372198,0.254672482687723,NLL
7.56666666666667,0.607115089893341,-2.81246829032898,8.88481616973877,-0.282013982534409,-2.36281991004944,4.49697971343994,-1269.90002441406,23.7000007629395,-947.700012207031,2.61608030715636,0.0656574326349351,0.307046970711519,NLL
7.6,-0.57361912727356,-1.66523003578186,9.62711143493652,0.815553963184357,-1.08232402801514,4.5808219909668,-1269.90002441406,26.1000003814697,-938.100036621094,2.58609164466157,-0.0569202911016839,0.17087021895373,NLL
7.63333333333333,0.590367138385773,-2.49545240402222,9.07203483581543,0.891773998737335,-1.06708002090454,8.39944362640381,-1269.90002441406,20.7000007629395,-945.300048828125,2.53249445876502,0.0592375933193212,0.266466293406615,NLL
7.66666666666667,-0.228490620851517,-2.00676965713501,9.49970626831055,0.87652999162674,1.05945801734924,7.23327779769897,-1262.70007324219,14.7000007629395,-950.100036621094,2.49023823719337,-0.0269125388981238,0.207119747130873,NLL
7.7,1.20286548137665,-4.05481100082397,9.59182071685791,-1.08232402801514,0.0990860015153885,8.82627582550049,-1269.90002441406,26.7000007629395,-952.500061035156,2.42443456668117,0.108055794426963,0.402074999923764,NLL
7.73333333333333,0.939084470272064,-3.73181390762329,10.4968109130859,0.236281991004944,-0.0990860015153885,5.98326969146729,-1255.5,24.9000015258789,-940.500061035156,2.39324533042004,0.0810060871426874,0.342602632839415,NLL
7.76666666666667,1.08084440231323,-3.93757510185242,9.521240234375,0.670735955238342,-0.960371971130371,3.84148788452148,-1253.10009765625,29.1000003814697,-940.500061035156,2.36130146313673,0.10335986370169,0.391307763447922,NLL
7.8,0.0885251611471176,-2.2370548248291,8.78432750701904,1.82927989959717,-0.144817993044853,2.02745199203491,-1248.30004882812,23.1000003814697,-950.100036621094,2.35573758829636,0.0099452818100108,0.247489934963473,NLL
7.83333333333333,-0.449803501367569,-1.672407746315,8.52652835845947,2.0731840133667,0.304879993200302,3.58996200561523,-1260.30004882812,23.7000007629395,-950.100036621094,2.33312637866137,-0.0526769639544392,0.190471364726302,NLL
7.86666666666667,-0.690257012844086,-1.69095015525818,8.11739826202393,0.899396002292633,2.05031800270081,7.4924259185791,-1248.30004882812,35.1000022888184,-945.300048828125,2.28664772621291,-0.0889183342768528,0.202653012719074,NLL
7.9,-1.37572884559631,-1.70949256420135,9.14799880981445,-0.449698001146317,1.98171997070312,6.57778596878052,-1236.30004882812,22.5,-952.500061035156,2.24460339110767,-0.151621563222743,0.184123771546057,NLL
7.93333333333333,-0.544908225536346,-2.50681710243225,9.10433387756348,-1.2500079870224,0.533540010452271,8.0640754699707,-1238.70007324219,24.3000011444092,-959.700012207031,2.20444981049003,-0.0633124971965851,0.268921871104264,NLL
7.96666666666667,-0.974374890327454,-2.76521492004395,10.0517930984497,-1.47104597091675,-1.03659200668335,4.17685604095459,-1245.90002441406,28.5000019073486,-940.500061035156,2.17403913105306,-0.0931736119525021,0.270319317333051,NLL
8.0,-0.214135184884071,-3.54220271110535,10.0314559936523,-1.2500079870224,-2.67532205581665,5.09911775588989,-1233.90002441406,37.5,-942.900024414062,2.14169155120844,-0.0195721090406764,0.340527382103815,NLL
8.03333333333333,0.0741697251796722,-2.89800262451172,10.2814798355103,-0.602137982845306,-2.75916385650635,1.01372599601746,-1236.30004882812,29.1000003814697,-942.900024414062,2.12955786384278,0.0108171218760262,0.276383780057458,NLL
8.06666666666667,0.607115089893341,-3.02421092987061,9.61813926696777,0.907018005847931,-2.08842802047729,2.24848985671997,-1253.10009765625,27.9000015258789,-947.700012207031,2.11084423162107,0.0618270717775186,0.303014238577964,NLL
8.1,-0.0293090064078569,-2.56543517112732,9.56071758270264,1.18903195858002,-0.541162014007568,-0.967993974685669,-1243.5,32.7000007629395,-935.700012207031,2.11731465195795,-0.0010562249891044,0.260454730513794,NLL
8.13333333333333,-0.320604622364044,-2.2412416934967,9.36093711853027,1.95123195648193,-0.37347799539566,1.49391198158264,-1233.90002441406,27.3000011444092,-957.300048828125,2.10652247818965,-0.0330258442683748,0.231723383295722,NLL
8.16666666666667,0.30325847864151,-2.91594696044922,9.40878868103027,1.60824191570282,-0.381099998950958,0.282013982534409,-1245.90002441406,29.1000003814697,-938.100036621094,2.1039153452664,0.0307055364924923,0.29716371779788,NLL
8.2,-0.177050322294235,-2.27832651138306,9.1749153137207,2.00458598136902,-0.548784017562866,0.632625997066498,-1262.70007324219,33.3000030517578,-940.500061035156,2.09959573920155,-0.0174692332951073,0.240580013778975,NLL
8.23333333333333,0.860129594802856,-3.15101718902588,8.99846267700195,1.2576299905777,-1.08232402801514,1.15092194080353,-1248.30004882812,35.1000022888184,-935.700012207031,2.08673274980188,0.0897779486582572,0.333687334964458,NLL
8.26666666666667,-0.559861838817596,-1.62575256824493,9.86218166351318,2.94971394538879,-0.0152439996600151,-0.403965979814529,-1243.5,23.7000007629395,-947.700012207031,2.09263777858932,-0.0540345158701497,0.16042448133893,NLL
8.3,-0.208153754472733,-1.74298858642578,8.67845630645752,3.07928800582886,0.0990860015153885,1.22714197635651,-1257.90002441406,30.9000015258789,-954.900024414062,2.08699543397262,-0.0244539806635572,0.192381537413711,NLL
8.33333333333333,-0.0879270136356354,-1.54978847503662,9.40639591217041,1.87501192092896,0.739333987236023,0.350611984729767,-1260.30004882812,26.7000007629395,-942.900024414062,2.08520080208935,-0.0107645590334397,0.160410156737912,NLL
8.36666666666667,-0.450401663780212,-1.39905643463135,9.98121166229248,1.28811800479889,-0.693601965904236,0.564027965068817,-1250.70007324219,26.7000007629395,-945.300048828125,2.08034664714086,-0.0433528545951101,0.13713838002097,NLL
8.4,0.294286340475082,-1.65685606002808,9.40938663482666,0.586893975734711,-1.50153398513794,0.754577994346619,-1253.10009765625,23.7000007629395,-957.300048828125,2.07423517269972,0.0322146962985996,0.172882311255017,NLL
8.43333333333333,-0.100488021969795,-1.07187223434448,8.71135425567627,0.381099998950958,-1.14329993724823,2.4923939704895,-1255.5,21.3000011444092,-952.500061035156,2.05817345094619,-0.0094966021908647,0.122353106507079,NLL
8.46666666666667,-0.084936298429966,-1.5683308839798,9.23772048950195,-0.3125019967556,0.541162014007568,2.03507399559021,-1250.70007324219,29.7000007629395,-952.500061035156,2.04640548129203,-0.0105690357333546,0.168115970316585,NLL
8.5,-0.36725977063179,-0.986935913562775,9.51705265045166,0.297257989645004,0.190549999475479,3.49849796295166,-1229.10009765625,26.7000007629395,-950.100036621094,2.02299959024815,-0.0389969613807092,0.103386052564018,NLL
8.53333333333333,-0.528160214424133,-1.10835897922516,10.2533664703369,0.114329993724823,-0.388722002506256,1.32622802257538,-1245.90002441406,25.5000019073486,-945.300048828125,2.01460153285637,-0.0505974383657969,0.107312085927237,NLL
8.56666666666667,-0.141759887337685,-0.866111040115356,9.73118782043457,0.846041977405548,-1.39482593536377,1.77592599391937,-1248.30004882812,22.5,-954.900024414062,2.00099027981932,-0.0126387250035835,0.0873944869416077,NLL
8.6,0.506028950214386,-1.02521705627441,9.02179050445557,-0.274392008781433,-2.28659987449646,1.32622802257538,-1245.90002441406,24.3000011444092,-945.300048828125,1.99026964643796,0.0586340689300961,0.113510565018242,NLL
8.63333333333333,0.0831418707966805,-0.720762252807617,9.78322601318359,-1.12043392658234,-2.10367202758789,-0.556405961513519,-1245.90002441406,24.9000015258789,-947.700012207031,1.99415677013498,0.0127787083501727,0.0759497802466774,NLL
8.66666666666667,1.79682147502899,-1.55756425857544,8.73707485198975,-1.48628997802734,-2.65245604515076,2.10367202758789,-1255.5,27.3000011444092,-954.900024414062,1.96903434193714,0.201345556532351,0.178572221021992,NLL
8.7,1.02043187618256,-1.57849931716919,10.4555387496948,-1.58537602424622,-0.731711983680725,-2.22562384605408,-1255.5,29.7000007629395,-938.100036621094,1.98728794352733,0.0993275957715794,0.152543688309947,NLL
8.73333333333333,0.976169347763062,-1.73162388801575,10.2737035751343,-0.937505960464478,-0.899396002292633,-1.51677799224854,-1274.70007324219,28.5000019073486,-933.300048828125,1.99484688238394,0.0954588531480488,0.168196757990546,NLL
8.76666666666667,1.53304040431976,-1.53064787387848,9.71085071563721,-1.05945801734924,-1.03659200668335,-1.76830399036407,-1257.90002441406,27.3000011444092,-954.900024414062,2.0069862982018,0.156218398095733,0.157888976044244,NLL
8.8,1.02521705627441,-1.27643704414368,10.058970451355,-0.937505960464478,-0.525918006896973,-1.92074394226074,-1265.10009765625,32.1000022888184,-945.300048828125,2.02383027727349,0.102583689894252,0.127783847769568,NLL
8.83333333333333,1.52885341644287,-2.179034948349,9.51406192779541,-1.22714197635651,0.137196004390717,-2.23324584960938,-1257.90002441406,26.1000003814697,-940.500061035156,2.02711515024662,0.155533835756462,0.225821139090112,NLL
8.86666666666667,0.875681281089783,-1.99660122394562,9.58165264129639,0.160062000155449,1.71494996547699,-3.14026403427124,-1277.10009765625,32.1000022888184,-933.300048828125,2.05115717199284,0.0882561188006402,0.204867258212947,NLL
8.9,0.985739588737488,-2.5456964969635,8.8937873840332,-0.434453994035721,1.99696397781372,-3.55947399139404,-1267.5,28.5000019073486,-938.100036621094,2.07233993347628,0.104394529434222,0.278352150521195,NLL
8.93333333333333,0.55866551399231,-2.40274024009705,9.21499061584473,-0.861285984516144,3.00306797027588,-3.91770792007446,-1260.30004882812,34.5,-957.300048828125,2.10329823844224,0.055871597893281,0.256373339959819,NLL
8.96666666666667,0.223705470561981,-2.09948182106018,9.47757530212402,-0.442075997591019,3.13264203071594,-3.58234000205994,-1260.30004882812,36.3000030517578,-942.900024414062,2.1313712253495,0.0195276672302482,0.219077186455008,NLL
9.0,-0.57660984992981,-1.99241423606873,9.79040431976318,0.205793991684914,3.98630595207214,-3.97106194496155,-1248.30004882812,20.7000007629395,-959.700012207031,2.16439067058591,-0.062562545932805,0.201010247398573,NLL
9.03333333333333,-0.547300815582275,-2.47511553764343,10.1116065979004,0.175305992364883,3.17837381362915,-1.97409796714783,-1236.30004882812,26.7000007629395,-940.500061035156,2.18348833338457,-0.0571738578086012,0.239544195957239,NLL
9.06666666666667,0.161498606204987,-2.80887937545776,9.68871974945068,-0.274392008781433,1.37195992469788,-2.85824990272522,-1248.30004882812,27.9000015258789,-952.500061035156,2.20416188141692,0.0141974144106496,0.282072494592513,NLL
9.1,-0.549095273017883,-1.93858134746552,9.11569881439209,1.15092194080353,1.53202199935913,-2.75916385650635,-1243.5,20.7000007629395,-952.500061035156,2.22433611524186,-0.059995343423357,0.208300938486621,NLL
9.13333333333333,-0.346922934055328,-2.56005191802979,9.20362567901611,0.724089980125427,1.76068198680878,-2.68294382095337,-1229.10009765625,26.7000007629395,-954.900024414062,2.24856255330306,-0.0381893152982005,0.269784692643676,NLL
9.16666666666667,-0.803305983543396,-2.06538772583008,9.53559494018555,0.609759986400604,1.17378795146942,-3.10215401649475,-1236.30004882812,21.3000011444092,-962.100036621094,2.2662073284744,-0.0824408296234391,0.213399002246415,NLL
9.2,-0.788950562477112,-2.15809988975525,9.11270809173584,0.739333987236023,0.396344006061554,-1.6768399477005,-1233.90002441406,25.5000019073486,-969.300048828125,2.2789619831702,-0.0840340993736702,0.231280110237065,NLL
9.23333333333333,-0.397765070199966,-2.49485445022583,9.36572265625,0.297257989645004,0.586893975734711,-1.62348592281342,-1243.5,24.3000011444092,-954.900024414062,2.29271474011199,-0.041598232717604,0.259735803947289,NLL
9.26666666666667,-1.25550210475922,-1.96131074428558,9.85859203338623,0.632625997066498,0.46494197845459,-1.86738991737366,-1245.90002441406,26.1000003814697,-966.900024414062,2.30002528149076,-0.12339927739304,0.196469437058374,NLL
9.3,0.0831418707966805,-2.33814096450806,9.26702880859375,-0.152439996600151,-0.891773998737335,-0.594515979290009,-1231.5,25.5000019073486,-947.700012207031,2.30544820497147,0.0094660191883006,0.247040215215271,NLL
9.33333333333333,-0.506028950214386,-1.71906292438507,9.36632061004639,0.121951997280121,-0.975615978240967,-2.01220798492432,-1245.90002441406,23.1000003814697,-947.700012207031,2.31576758982803,-0.0501461265064582,0.182135019976559,NLL
9.36666666666667,0.170470744371414,-2.42188096046448,9.02478122711182,0.160062000155449,-1.32622802257538,-0.579271972179413,-1229.10009765625,17.7000007629395,-945.300048828125,2.31861069813978,0.0201134656055577,0.261197595557413,NLL
9.4,0.243444189429283,-2.27473783493042,9.186279296875,0.0838419944047928,-1.12043392658234,-1.16616594791412,-1231.5,23.7000007629395,-957.300048828125,2.3246261767283,0.0280242702684622,0.24274576269565,NLL
9.43333333333333,-0.0538328662514687,-2.03009724617004,9.43092060089111,0.495429992675781,-0.617381989955902,-0.914639949798584,-1238.70007324219,13.5000009536743,-952.500061035156,2.32979311014896,-0.0037961295680548,0.211548645655693,NLL
9.46666666666667,0.172863319516182,-2.4356381893158,9.58404445648193,0.282013982534409,-0.807931959629059,0.3125019967556,-1231.5,23.1000003814697,-947.700012207031,2.32617608638934,0.0185162230317405,0.248067105135641,NLL
9.5,-0.434849947690964,-2.58816456794739,9.84961986541748,-0.320124000310898,-0.396344006061554,-0.297257989645004,-1248.30004882812,27.9000015258789,-959.700012207031,2.32751740897069,-0.0414267797829573,0.257461359630287,NLL
9.53333333333333,-0.214135184884071,-2.72932648658752,9.88132190704346,-0.411587983369827,-0.724089980125427,0.106707997620106,-1241.10009765625,18.9000015258789,-971.700012207031,2.32586033703658,-0.0199070720542549,0.270087728596064,NLL
9.56666666666667,-0.217724040150642,-2.22389554977417,9.69649600982666,-0.114329993724823,-0.769822001457214,-0.144817993044853,-1250.70007324219,23.1000003814697,-952.500061035156,2.32470281545549,-0.0205093953570259,0.226192559278079,NLL
9.6,-0.169872596859932,-1.83510267734528,9.210205078125,0.670735955238342,-0.411587983369827,1.61586391925812,-1255.5,21.9000015258789,-964.500061035156,2.31364572869716,-0.0179667973984845,0.195822796615176,NLL
9.63333333333333,0.111852735280991,-1.94516098499298,8.80167388916016,0.792688012123108,0.655492007732391,2.18751406669617,-1255.5,25.5000019073486,-962.100036621094,2.29986785278018,0.0102652394873434,0.216001624864225,NLL
9.66666666666667,-0.285912334918976,-2.68805456161499,8.54507064819336,0.0990860015153885,1.74543797969818,1.2500079870224,-1245.90002441406,24.9000015258789,-945.300048828125,2.29603748369575,-0.0351249478352839,0.303906330332861,NLL
9.7,-0.431859225034714,-2.91355443000793,9.60139083862305,0.213415995240211,1.48628997802734,0.182927995920181,-1241.10009765625,21.3000011444092,-957.300048828125,2.29735682523269,-0.0454614028968704,0.294385547297511,NLL
9.73333333333333,-0.674107134342194,-2.71915793418884,9.87833118438721,0.99848198890686,-0.46494197845459,0.0762199983000755,-1253.10009765625,27.3000011444092,-954.900024414062,2.2949194756572,-0.06478190297733,0.267089011410535,ST
9.76666666666667,-0.237462759017944,-2.87467503547668,9.28736591339111,0.990859985351562,-1.44817996025085,0.564027965068817,-1241.10009765625,15.3000001907349,-964.500061035156,2.29044363448091,-0.0228106192289589,0.298019807168555,ST
9.8,-0.46236452460289,-2.34292602539062,8.91831207275391,1.03659200668335,-0.487807989120483,1.01372599601746,-1245.90002441406,27.9000015258789,-959.700012207031,2.28156882792543,-0.0495293741994728,0.255319110243579,ST
9.83333333333333,-0.403746515512466,-2.01753616333008,9.20721435546875,1.45580196380615,0.289635986089706,1.30336201190948,-1238.70007324219,24.3000011444092,-962.100036621094,2.27218287427447,-0.0438487228716686,0.213518602864643,ST
9.86666666666667,-0.574217259883881,-1.6903520822525,9.67077541351318,1.50153398513794,0.358233988285065,0.647870004177094,-1243.5,22.5,-957.300048828125,2.26669803037188,-0.059099424900509,0.170739824680096,ST
9.9,-0.37025049328804,-1.50552582740784,9.51585674285889,1.00610399246216,-0.548784017562866,0.67835795879364,-1226.70007324219,18.9000015258789,-954.900024414062,2.26129705487491,-0.037871628710383,0.155266160810797,ST
9.93333333333333,-0.0753660127520561,-1.84826183319092,9.65881252288818,0.259148001670837,-1.12805593013763,0.571649968624115,-1238.70007324219,23.7000007629395,-952.500061035156,2.25720942777501,-0.0063047208062231,0.188199570120281,ST
9.96666666666667,0.560459971427917,-2.13417410850525,9.39503192901611,0.205793991684914,-1.89025592803955,0.807931959629059,-1243.5,29.1000003814697,-966.900024414062,2.24869011317607,0.0601941853280572,0.222702794927426,ST
10.0,0.277538329362869,-1.92243146896362,9.11390399932861,0.609759986400604,-0.884151995182037,0.114329993724823,-1245.90002441406,19.5,-942.900024414062,2.24737730210141,0.0316096397181762,0.207033069982946,ST
10.0333333333333,0.273351341485977,-2.37462759017944,9.26044940948486,0.67835795879364,0.46494197845459,1.10518991947174,-1233.90002441406,20.7000007629395,-950.100036621094,2.23970889125524,0.0273707062896728,0.249436825921593,ST
10.0666666666667,-0.160302311182022,-2.39077734947205,10.0452127456665,0.548784017562866,0.152439996600151,0.83841997385025,-1241.10009765625,18.9000015258789,-950.100036621094,2.23458612175991,-0.0157405912143507,0.232824828799692,ST
10.1,-0.0484495796263218,-2.75085949897766,9.6103630065918,0.114329993724823,-0.594515979290009,1.72257196903229,-1238.70007324219,18.3000011444092,-969.300048828125,2.22353413796028,-0.0048021039577943,0.27800951755333,ST
10.1333333333333,-0.0053832866251468,-2.81844973564148,9.53140830993652,0.0457319989800453,-0.967993974685669,1.91312193870544,-1250.70007324219,22.5,-959.700012207031,2.2101975675657,7.4095800023509e-05,0.287312766854379,ST
10.1666666666667,-0.163293033838272,-2.42846035957336,8.68383979797363,1.02897000312805,0.0,1.62348592281342,-1250.70007324219,21.9000015258789,-945.300048828125,2.20023666057001,-0.0186374978818262,0.271043619126687,ST
10.2,-0.869101762771606,-1.68616509437561,9.64864444732666,2.33233189582825,0.846041977405548,1.63872992992401,-1250.70007324219,22.5,-962.100036621094,2.18669484846138,-0.0895810051396065,0.169974364141979,ST
10.2333333333333,-0.309838056564331,-1.08981645107269,9.6283073425293,2.080806016922,-0.503051996231079,1.82927989959717,-1250.70007324219,25.5000019073486,-952.500061035156,2.1717645657036,-0.0321626664849231,0.109705175607407,ST
10.2666666666667,-0.254808902740479,-0.437840640544891,9.4787712097168,1.20427596569061,-1.90549993515015,1.79117000102997,-1238.70007324219,15.3000001907349,-957.300048828125,2.1580751214413,-0.0237802323635908,0.0447794137917557,ST
10.3,0.494066089391708,-0.337950766086578,9.15457820892334,0.137196004390717,-2.58385801315308,2.04269599914551,-1245.90002441406,19.5,-947.700012207031,2.14460946807483,0.0572522997640864,0.0369547325245411,ST
10.3333333333333,0.0843381583690643,-0.358885794878006,9.56370830535889,-0.25152599811554,-1.35671591758728,0.78506600856781,-1253.10009765625,22.5,-938.100036621094,2.13931896668012,0.0116896154207267,0.0379555169214626,ST
10.3666666666667,0.136376604437828,-1.06648886203766,9.68871974945068,-0.670735955238342,-0.823175966739655,0.632625997066498,-1243.5,25.5000019073486,-950.100036621094,2.13353018707017,0.0152736450547465,0.11028569832413,ST
10.4,-0.366063505411148,-1.1938933134079,10.1953468322754,-0.495429992675781,-0.282013982534409,-0.0914639979600906,-1255.5,20.7000007629395,-954.900024414062,2.13390011383627,-0.0345228621434769,0.11735171657099,ST
10.4333333333333,-0.424083352088928,-1.13886415958405,10.5464572906494,-0.213415995240211,-0.342989981174469,0.480185985565186,-1253.10009765625,20.1000003814697,-942.900024414062,2.12993998634139,-0.0394164312965466,0.107975577250455,ST
10.4666666666667,0.82065212726593,-1.24892246723175,9.65402793884277,-0.419209986925125,-1.47104597091675,0.754577994346619,-1265.10009765625,17.7000007629395,-954.900024414062,2.12370784844448,0.0849410044451696,0.129251269306201,ST
10.5,1.23695969581604,-0.912168025970459,9.11270809173584,-1.15854394435883,-1.88263392448425,-1.34909391403198,-1257.90002441406,27.3000011444092,-959.700012207031,2.13478853608145,0.13711895528113,0.101858483513409,ST
10.5333333333333,0.678892254829407,-0.790146887302399,9.53619384765625,-0.914639949798584,-0.99848198890686,-1.63872992992401,-1248.30004882812,21.9000015258789,-952.500061035156,2.1469012279307,0.0735957206348282,0.0842730699384518,ST
10.5666666666667,1.17654716968536,-1.69872605800629,9.16594314575195,-1.41006994247437,-0.647870004177094,-1.74543797969818,-1260.30004882812,23.1000003814697,-962.100036621094,2.14813640186611,0.126549870248661,0.184120405711404,ST
10.6,0.327184200286865,-1.85424315929413,10.0344467163086,-1.33385002613068,-0.342989981174469,-2.04269599914551,-1260.30004882812,18.9000015258789,-950.100036621094,2.16086961457814,0.0344369440794574,0.184912832422621,ST
10.6333333333333,0.36725977063179,-2.01035857200623,9.48176193237305,-1.41006994247437,-0.586893975734711,-1.77592599391937,-1272.30004882812,19.5,-945.300048828125,2.17145931407216,0.0394836391164168,0.211084850866778,ST
10.6666666666667,0.0771604403853416,-1.76511991024017,9.87474250793457,-1.02134799957275,0.342989981174469,-0.975615978240967,-1248.30004882812,24.3000011444092,-935.700012207031,2.17939233637878,0.0076445997934167,0.178889243591236,ST
10.7,0.87986832857132,-1.63592100143433,8.52234077453613,-0.640248000621796,0.129574000835419,-0.0609759986400604,-1262.70007324219,18.3000011444092,-950.100036621094,2.17960071862551,0.0997028879863728,0.190609870856776,ST
10.7333333333333,0.325987905263901,-2.10546326637268,9.59122276306152,-0.663114011287689,1.34909391403198,-0.937505960464478,-1260.30004882812,21.9000015258789,-950.100036621094,2.18566095304174,0.0320726403683877,0.216852087194373,ST
10.7666666666667,0.0233275759965181,-2.49904131889343,10.1331396102905,-0.449698001146317,1.41769194602966,-1.45580196380615,-1257.90002441406,25.5000019073486,-954.900024414062,2.19734224978799,0.0006739786960671,0.242384818214406,ST
10.8,-0.304454773664474,-2.86151599884033,10.5045871734619,-0.274392008781433,1.10518991947174,-2.47714996337891,-1257.90002441406,27.3000011444092,-954.900024414062,2.21459751208789,-0.0283266421414418,0.266261551332625,ST
10.8333333333333,0.0203368607908487,-2.33574819564819,9.99676322937012,0.0304879993200302,-0.259148001670837,-2.08842802047729,-1265.10009765625,28.5000019073486,-952.500061035156,2.22659414267848,0.0028725157564337,0.229925031271521,ST
10.8666666666667,0.100488021969795,-2.15032386779785,8.84473991394043,-0.0533539988100529,-0.716467976570129,-1.28811800479889,-1257.90002441406,20.1000003814697,-957.300048828125,2.23340213411089,0.0126634079358726,0.23845654781088,ST
10.9,0.0693845823407173,-2.28191542625427,9.15517616271973,-0.236281991004944,0.632625997066498,-0.92988395690918,-1253.10009765625,25.5000019073486,-957.300048828125,2.24003683270027,0.0067479663081096,0.244594795716308,ST
10.9333333333333,0.377428203821182,-2.00557327270508,8.95719146728516,0.762199997901917,0.37347799539566,-0.0609759986400604,-1260.30004882812,15.9000005722046,-942.900024414062,2.24145243924157,0.0402338141747652,0.219123235978611,ST
10.9666666666667,0.39836323261261,-1.70949256420135,8.73109340667725,1.265251994133,0.144817993044853,-0.243903994560242,-1245.90002441406,21.9000015258789,-942.900024414062,2.24397102142434,0.044526348410953,0.191460890924734,ST
11.0,-0.0538328662514687,-2.01753616333008,9.35136699676514,0.419209986925125,0.0381099991500378,-0.472563982009888,-1255.5,20.7000007629395,-950.100036621094,2.24662169855636,-0.0050013518152188,0.211551653450865,ST
11.0333333333333,-0.114245310425758,-2.00377893447876,9.60019493103027,-0.213415995240211,-0.495429992675781,-0.228659987449646,-1250.70007324219,22.5,-957.300048828125,2.24736100843087,-0.0106614158523853,0.206199265976286,ST
11.0666666666667,-0.0119628589600325,-2.27593398094177,9.5804557800293,-0.724089980125427,-1.265251994133,1.52439999580383,-1248.30004882812,18.9000015258789,-945.300048828125,2.23593879137492,0.0002061126787704,0.234206749006901,ST
11.1,0.221312895417213,-2.41530132293701,9.75032901763916,-0.884151995182037,-1.18903195858002,2.31708788871765,-1257.90002441406,24.9000015258789,-952.500061035156,2.21985895221903,0.0227874049836396,0.244340205084086,ST
11.1333333333333,-0.10826388001442,-2.16826820373535,10.1564674377441,-0.274392008781433,-0.556405961513519,2.5000159740448,-1253.10009765625,20.7000007629395,-945.300048828125,2.20383689835097,-0.0099930415417446,0.211180374328547,ST
11.1666666666667,0.676499724388123,-2.55646300315857,9.41776084899902,-0.46494197845459,-0.221037998795509,2.43903994560242,-1255.5,24.3000011444092,-954.900024414062,2.18664992931888,0.0676648187144921,0.265575824417304,ST
11.2,0.549095273017883,-2.04206013679504,9.32863807678223,-0.434453994035721,0.137196004390717,0.693601965904236,-1245.90002441406,24.9000015258789,-957.300048828125,2.18543080271808,0.0570198418626898,0.216689346854668,ST
11.2333333333333,0.028710862621665,-1.97626435756683,9.03016471862793,-0.0076219998300075,0.777444005012512,-0.0304879993200302,-1257.90002441406,24.9000015258789,-950.100036621094,2.18670958136004,0.0024662254863247,0.215481714785225,ST
11.2666666666667,-0.216527760028839,-2.16647386550903,9.26762676239014,0.350611984729767,1.38720393180847,0.0838419944047928,-1262.70007324219,26.1000003814697,-945.300048828125,2.18834378136531,-0.02480089148601,0.22887609070059,ST
11.3,-0.232677608728409,-2.24243807792664,9.52961349487305,0.388722002506256,0.899396002292633,-0.282013982534409,-1260.30004882812,23.7000007629395,-966.900024414062,2.19157617427828,-0.025174626010669,0.23043451240769,ST
11.3333333333333,-0.53533798456192,-2.09469676017761,10.0063333511353,0.472563982009888,0.0838419944047928,-0.83841997385025,-1257.90002441406,21.9000015258789,-957.300048828125,2.19606534899863,-0.0518299259096523,0.205910076018378,ST
11.3666666666667,-0.178844749927521,-2.36386108398438,9.87593841552734,0.503051996231079,-1.22714197635651,-0.381099998950958,-1248.30004882812,20.7000007629395,-959.700012207031,2.1977508950781,-0.0156420680426603,0.23385276126036,ST
11.4,0.291295617818832,-2.07017278671265,9.2879638671875,0.99848198890686,-2.0731840133667,-0.411587983369827,-1238.70007324219,24.9000015258789,-945.300048828125,2.19741543419956,0.0336799874145285,0.217762656553709,ST
11.4333333333333,0.280529052019119,-2.05880808830261,8.83516979217529,1.56251001358032,-1.36433792114258,-0.259148001670837,-1257.90002441406,18.9000015258789,-945.300048828125,2.1964865218859,0.0333395315273426,0.226111709299766,ST
11.4666666666667,0.540721237659454,-2.28012108802795,9.29574012756348,1.05183601379395,-0.868907988071442,-0.495429992675781,-1253.10009765625,20.1000003814697,-959.700012207031,2.19734597823766,0.05780902022532,0.23852114953381,ST
11.5,1.14125680923462,-1.95353496074677,9.17431735992432,0.861285984516144,-1.85214591026306,-0.480185985565186,-1262.70007324219,27.9000015258789,-950.100036621094,2.19991903538883,0.123596748103446,0.208653740590788,ST
11.5333333333333,0.753062009811401,-2.1269965171814,8.83277702331543,0.716467976570129,-1.12805593013763,-0.731711983680725,-1262.70007324219,21.9000015258789,-947.700012207031,2.19965962841063,0.0853835145580265,0.234669465985855,ST
11.5666666666667,0.971982300281525,-2.58995914459229,10.3586397171021,0.182927995920181,-1.02897000312805,0.426831990480423,-1257.90002441406,16.5,-974.100036621094,2.19423340469497,0.0922821150246381,0.244704804871127,ST
11.6,1.78545677661896,-2.37702012062073,9.77305793762207,0.198172003030777,-2.46190595626831,0.853663980960846,-1265.10009765625,18.3000011444092,-952.500061035156,2.18598632511783,0.178441619637334,0.238753232826612,ST
11.6333333333333,0.934897482395172,-2.18262362480164,9.23831844329834,0.701223969459534,-0.426831990480423,0.937505960464478,-1274.70007324219,23.7000007629395,-933.300048828125,2.18015976041672,0.0994946792093039,0.231060020078186,ST
11.6666666666667,0.134582161903381,-2.73171901702881,10.5548305511475,1.18140995502472,1.99696397781372,1.12043392658234,-1267.5,17.7000007629395,-945.300048828125,2.17477711250229,0.0092789845309288,0.251033094140845,ST
11.7,-0.0352904349565506,-2.8082811832428,10.5075778961182,1.00610399246216,1.49391198158264,0.647870004177094,-1267.5,16.5,-952.500061035156,2.17312078094263,-0.0059205181700874,0.259327182119415,ST
11.7333333333333,0.367857933044434,-1.87099123001099,9.18927001953125,1.55488801002502,0.243903994560242,0.525918006896973,-1265.10009765625,11.7000007629395,-945.300048828125,2.17071176334637,0.0382163103242918,0.1987123695228,ST
11.7666666666667,-0.291295617818832,-1.32847559452057,8.47149848937988,2.62196803092957,1.34909391403198,0.937505960464478,-1257.90002441406,17.1000003814697,-950.100036621094,2.16657568778429,-0.0356233868784356,0.151519039050032,ST
11.8,-0.223107323050499,-1.28002595901489,9.57387638092041,2.98782396316528,1.65397393703461,1.82165801525116,-1248.30004882812,22.5,-971.700012207031,2.15635635645176,-0.0264795028395936,0.127913686217014,ST
11.8333333333333,1.06708705425262,-0.893027484416962,8.37639427185059,1.77592599391937,-2.11891603469849,1.37958192825317,-1267.5,14.7000007629395,-950.100036621094,2.14647598829634,0.127518846927951,0.103749780797852,ST
11.8666666666667,-0.274547636508942,-0.203368604183197,9.50389385223389,1.265251994133,-1.52439999580383,0.449698001146317,-1265.10009765625,14.7000007629395,-945.300048828125,2.14723477319657,-0.024881208764677,0.0199135880946162,ST
11.9,-0.0657957270741463,-0.778183996677399,11.2714061737061,1.07470202445984,-0.685979962348938,1.88263392448425,-1260.30004882812,19.5,-940.500061035156,2.13585402130349,-0.0050837309231282,0.0664599495680721,ST
11.9333333333333,0.917551338672638,-1.17654716968536,9.78621673583984,0.0838419944047928,-2.080806016922,0.967993974685669,-1255.5,15.9000005722046,-950.100036621094,2.12550315459829,0.095343459083167,0.119228838425674,ST
11.9666666666667,1.21482837200165,-1.22140789031982,9.14620399475098,-0.891773998737335,-2.40092992782593,0.0838419944047928,-1260.30004882812,11.7000007629395,-940.500061035156,2.12200064707481,0.134550446319228,0.134221369378498,ST
12.0,0.701023578643799,-0.979758203029633,9.5445671081543,-0.670735955238342,-1.15092194080353,0.342989981174469,-1272.30004882812,14.7000007629395,-954.900024414062,2.12260881768243,0.0755977918887375,0.103899493167774,ST
12.0333333333333,0.741099119186401,-0.951645493507385,9.14321327209473,-0.0838419944047928,-0.434453994035721,1.56251001358032,-1250.70007324219,15.3000001907349,-950.100036621094,2.11223055699941,0.0808609519390646,0.10407862864151,ST
12.0666666666667,1.46365582942963,-1.25909090042114,8.584547996521,-0.716467976570129,-0.480185985565186,0.670735955238342,-1269.90002441406,18.3000011444092,-950.100036621094,2.10267803749416,0.167138216658115,0.146773358413879,ST
12.1,0.149535745382309,-1.17295837402344,9.86636829376221,-0.457319974899292,0.0381099991500378,-0.381099998950958,-1260.30004882812,20.1000003814697,-940.500061035156,2.10778115902192,0.0169246468276111,0.119450689968798,ST
12.1333333333333,0.0059814294800162,-1.46365582942963,10.2713108062744,-0.205793991684914,0.160062000155449,-0.175305992364883,-1272.30004882812,22.5,-952.500061035156,2.1088314493061,0.0005453397061814,0.141630913285603,ST
12.1666666666667,0.840988993644714,-1.69095015525818,9.95429515838623,-0.289635986089706,-0.762199997901917,-1.00610399246216,-1277.10009765625,17.1000003814697,-935.700012207031,2.11399295573093,0.0841806432881646,0.168479586136557,ST
12.2,1.19508969783783,-1.51868498325348,9.65163516998291,-0.975615978240967,-1.57013201713562,-1.60061991214752,-1277.10009765625,18.3000011444092,-950.100036621094,2.12418877497267,0.124362045395887,0.157622250263398,ST
12.2333333333333,1.38111209869385,-1.14484560489655,8.6383810043335,-0.815553963184357,-1.28811800479889,-1.28811800479889,-1265.10009765625,17.7000007629395,-945.300048828125,2.13528160764369,0.159285543315899,0.133183631991322,ST
12.2666666666667,0.476719945669174,-1.15022897720337,9.09835243225098,-0.243903994560242,0.6250039935112,-0.365855991840363,-1269.90002441406,23.7000007629395,-945.300048828125,2.13920092553625,0.0517344535700947,0.126190499334232,ST
12.3,0.729734420776367,-1.5563679933548,9.74315071105957,-0.724089980125427,0.25152599811554,-0.221037998795509,-1265.10009765625,15.9000005722046,-940.500061035156,2.1391237570904,0.0732273235271804,0.159285966600242,ST
12.3333333333333,0.692051410675049,-1.33266258239746,9.74374866485596,-0.899396002292633,-0.403965979814529,-0.358233988285065,-1277.10009765625,20.7000007629395,-947.700012207031,2.14303380850982,0.0710619868921392,0.137685991242445,ST
12.3666666666667,1.3960657119751,-1.84407472610474,9.4787712097168,-1.37958192825317,-0.556405961513519,-0.647870004177094,-1262.70007324219,24.3000011444092,-938.100036621094,2.14174493045249,0.144100569029185,0.19392415556275,ST
12.4,1.36974740028381,-1.86560797691345,9.48415470123291,-1.63872992992401,-0.510673999786377,-1.2500079870224,-1267.5,14.7000007629395,-950.100036621094,2.1498786640149,0.142097398945654,0.196770988382454,ST
12.4333333333333,1.02581524848938,-1.55995690822601,9.14919471740723,-0.6250039935112,0.259148001670837,-0.846041977405548,-1281.90002441406,22.5,-947.700012207031,2.15922815744352,0.1102795043597,0.17012509781234,ST
12.4666666666667,0.429466664791107,-1.80758810043335,9.45364952087402,-0.243903994560242,1.72257196903229,-0.442075997591019,-1267.5,21.3000011444092,-945.300048828125,2.16261601809122,0.042618918628248,0.189057557094715,ST
12.5,0.150732025504112,-1.55935871601105,9.58284854888916,0.320124000310898,2.28659987449646,0.335367977619171,-1265.10009765625,21.9000015258789,-947.700012207031,2.16367867143953,0.0118129170087676,0.161043501487933,ST
12.5333333333333,-0.30923992395401,-1.33744764328003,10.2988252639771,0.579271972179413,2.57623600959778,0.495429992675781,-1272.30004882812,15.9000005722046,-945.300048828125,2.16252250595715,-0.0337753616565322,0.128524314162802,ST
12.5666666666667,0.661546111106873,-2.03428435325623,10.6044769287109,-0.266770005226135,0.701223969459534,1.00610399246216,-1260.30004882812,23.1000003814697,-950.100036621094,2.15581855936851,0.058968722512803,0.189623648417119,ST
12.6,1.97506809234619,-2.27294325828552,9.05947303771973,-2.21800184249878,-2.90398192405701,0.0685980021953583,-1257.90002441406,27.3000011444092,-950.100036621094,2.14541225003554,0.211914603511584,0.249437811330512,ST
12.6333333333333,2.07376170158386,-2.34531855583191,7.98580694198608,-3.03355598449707,-2.02745199203491,-1.6692179441452,-1269.90002441406,17.1000003814697,-952.500061035156,2.14714871763015,0.247961115382041,0.289993216644121,ST
12.6666666666667,0.815867006778717,-2.28251361846924,9.04990291595459,-1.30336201190948,1.00610399246216,-1.41769194602966,-1277.10009765625,16.5,-945.300048828125,2.16592664971032,0.0875264180548239,0.249426507831391,ST
12.7,0.215331465005875,-3.2126259803772,9.74315071105957,-0.259148001670837,2.5076379776001,-0.846041977405548,-1267.5,19.5,-950.100036621094,2.17216407011333,0.0181425211572829,0.318051319675879,ST
12.7333333333333,0.034094151109457,-2.79093503952026,10.2097024917603,0.548784017562866,1.37958192825317,-1.06708002090454,-1248.30004882812,24.9000015258789,-945.300048828125,2.18263553686187,0.0014959199975331,0.266203098831926,ST
12.7666666666667,0.628648281097412,-2.40632915496826,8.9057502746582,1.19665396213531,-1.00610399246216,-0.198172003030777,-1257.90002441406,26.7000007629395,-952.500061035156,2.18195370597546,0.0689901812429702,0.261872076865449,ST
12.8,0.74947315454483,-2.42726421356201,8.98470592498779,0.937505960464478,-0.830797970294952,0.175305992364883,-1269.90002441406,20.1000003814697,-959.700012207031,2.17903016175858,0.081522497687254,0.262269744898622,ST
12.8333333333333,0.44023323059082,-2.26038217544556,9.41237735748291,0.792688012123108,0.114329993724823,0.0,-1265.10009765625,18.9000015258789,-954.900024414062,2.18068487081875,0.0456284767639958,0.23459047897854,ST
12.8666666666667,-0.617881715297699,-2.26995253562927,10.4914274215698,1.34147191047668,0.937505960464478,0.480185985565186,-1257.90002441406,19.5,-954.900024414062,2.17910230130871,-0.0579940616980682,0.211006912822473,ST
12.9,-0.106469452381134,-2.82981443405151,11.1164875030518,0.769822001457214,-0.236281991004944,1.2500079870224,-1255.5,19.5,-952.500061035156,2.17240452101909,-0.0100061942165431,0.247445193916248,ST
12.9333333333333,0.607713282108307,-2.23406410217285,9.86816310882568,0.510673999786377,-2.46190595626831,1.22714197635651,-1265.10009765625,15.3000001907349,-954.900024414062,2.16081545130222,0.0631641348727767,0.22212012690507,ST
12.9666666666667,0.676499724388123,-1.84168219566345,8.07612609863281,0.884151995182037,-2.17227005958557,1.53964400291443,-1267.5,12.9000005722046,-952.500061035156,2.14740349382201,0.0843700031032919,0.222943757215531,ST
13.0,0.222509190440178,-1.92960917949677,8.68862438201904,0.754577994346619,0.236281991004944,1.6615959405899,-1260.30004882812,18.9000015258789,-959.700012207031,2.13726053502805,0.0245904508894384,0.217355064320983,ST
13.0333333333333,0.267968058586121,-1.90149652957916,8.83696460723877,0.868907988071442,-0.0990860015153885,2.43141794204712,-1267.5,17.7000007629395,-952.500061035156,2.12116894763794,0.0288794748607914,0.210606516638513,ST
13.0666666666667,0.180639177560806,-1.68078172206879,9.24190711975098,1.27287399768829,-1.13567793369293,2.52288198471069,-1260.30004882812,23.1000003814697,-947.700012207031,2.10370603921218,0.0204665522925215,0.178061372477879,ST
13.1,0.602928102016449,-1.90209460258484,10.1833839416504,0.967993974685669,-1.31098401546478,2.22562384605408,-1269.90002441406,24.3000011444092,-954.900024414062,2.08784794377741,0.0592001748369439,0.183146422008198,ST
13.1333333333333,1.13826608657837,-1.7926344871521,10.4938201904297,0.762199997901917,-2.13416004180908,0.990859985351562,-1262.70007324219,21.3000011444092,-945.300048828125,2.07909770590362,0.109583835863674,0.168210592762622,ST
13.1666666666667,1.48698341846466,-1.7483719587326,9.56071758270264,0.548784017562866,-1.81403601169586,0.525918006896973,-1267.5,17.1000003814697,-947.700012207031,2.07162647978637,0.154299865090299,0.180015791706664,ST
13.2,1.43494498729706,-1.5623494386673,9.30471229553223,0.426831990480423,-0.487807989120483,-0.0076219998300075,-1277.10009765625,17.7000007629395,-950.100036621094,2.07291354197665,0.15180413493241,0.165807880336535,ST
13.2333333333333,2.24363422393799,-1.80280292034149,8.73587799072266,-0.243903994560242,-0.762199997901917,-0.350611984729767,-1274.70007324219,14.1000003814697,-947.700012207031,2.06706945756036,0.246846994609718,0.203454289124016,ST
13.2666666666667,1.71427774429321,-1.1496307849884,8.18020343780518,0.167683988809586,-0.381099998950958,-1.265251994133,-1269.90002441406,21.3000011444092,-942.900024414062,2.08853564101855,0.206102310762867,0.139671513634518,ST
13.3,1.03897428512573,-1.22080981731415,8.54088306427002,0.884151995182037,0.67835795879364,-0.487807989120483,-1272.30004882812,24.9000015258789,-947.700012207031,2.09126278515479,0.11985967764325,0.140301621752726,ST
13.3333333333333,0.53533798456192,-1.5683308839798,10.1080179214478,1.45580196380615,1.16616594791412,-0.274392008781433,-1260.30004882812,17.7000007629395,-947.700012207031,2.09249570470084,0.0511970272848593,0.151213324759144,ST
13.3666666666667,0.723154842853546,-1.54739582538605,9.44049072265625,1.03659200668335,0.0228659994900227,-0.800309956073761,-1265.10009765625,21.9000015258789,-945.300048828125,2.09647743307058,0.0753337741964444,0.160439422843414,ST
13.4,-0.226098045706749,-0.988730311393738,10.186972618103,1.11281192302704,0.602137982845306,-0.800309956073761,-1272.30004882812,13.5000009536743,-950.100036621094,2.10365588569858,-0.0217931364057085,0.0956414305348539,ST
13.4333333333333,0.327782362699509,-1.33445692062378,10.2222633361816,0.586893975734711,0.632625997066498,0.868907988071442,-1255.5,18.3000011444092,-950.100036621094,2.0980124553853,0.0301110952266574,0.128579248747687,ST
13.4666666666667,0.768015563488007,-1.40563595294952,9.67496299743652,0.388722002506256,0.891773998737335,1.43293595314026,-1272.30004882812,18.3000011444092,-942.900024414062,2.08861693767086,0.0760191209063176,0.143607187738699,ST
13.5,0.638816714286804,-1.79442894458771,9.88431262969971,-0.198172003030777,1.6844619512558,1.33385002613068,-1248.30004882812,17.1000003814697,-940.500061035156,2.07914864789018,0.0603149797331575,0.179772366651494,ST
13.5333333333333,0.537730515003204,-1.84945809841156,10.0661478042603,-0.144817993044853,1.47104597091675,1.42531394958496,-1257.90002441406,19.5,-954.900024414062,2.07101481047721,0.0495836821621072,0.182041618919524,ST
13.5666666666667,0.832016885280609,-1.80998063087463,9.33162879943848,-0.0,0.564027965068817,1.91312193870544,-1255.5,15.9000005722046,-957.300048828125,2.0591604237327,0.0852651299064699,0.191721681104134,ST
13.6,0.708201289176941,-1.47502052783966,8.80645942687988,0.167683988809586,0.106707997620106,1.38720393180847,-1245.90002441406,21.3000011444092,-959.700012207031,2.05265305270382,0.0786426518279941,0.16616198733949,ST
13.6333333333333,0.339745193719864,-1.13288283348083,8.76937389373779,0.259148001670837,0.0914639979600906,1.45580196380615,-1265.10009765625,17.7000007629395,-947.700012207031,2.04545156352512,0.0383368492090974,0.128515787980032,ST
13.6666666666667,0.791941285133362,-1.20824885368347,8.87524509429932,-0.129574000835419,-0.259148001670837,1.37195992469788,-1257.90002441406,21.3000011444092,-954.900024414062,2.03572195937811,0.0878732323007413,0.135677648377188,ST
13.7,0.601731836795807,-1.1316864490509,8.9715461730957,-0.327746003866196,-0.495429992675781,0.586893975734711,-1245.90002441406,20.1000003814697,-942.900024414062,2.032524845656,0.0674268417146436,0.126244581506286,ST
13.7333333333333,0.0029907147400081,-1.24174475669861,10.2264499664307,-0.297257989645004,0.0304879993200302,0.548784017562866,-1245.90002441406,20.7000007629395,-959.700012207031,2.02908859622314,0.0007100763981559,0.121398625018166,ST
13.7666666666667,0.312230616807938,-1.39307498931885,10.3030128479004,-0.480185985565186,-0.411587983369827,0.228659987449646,-1262.70007324219,16.5,-959.700012207031,2.02716733161012,0.0303147347807694,0.135078558305066,ST
13.8,0.729136288166046,-1.85484135150909,10.2180767059326,-1.54726600646973,-0.990859985351562,-1.00610399246216,-1262.70007324219,21.9000015258789,-964.500061035156,2.03060876908638,0.071598383664521,0.181595367483164,ST
13.8333333333333,0.761435985565186,-1.67719292640686,9.74015998840332,-1.61586391925812,-1.2576299905777,-1.70732796192169,-1257.90002441406,22.5,-947.700012207031,2.04126055397098,0.0794691131005484,0.173241904957427,ST
13.8666666666667,0.68965882062912,-1.39247679710388,8.72271919250488,-0.899396002292633,-0.160062000155449,-1.41006994247437,-1260.30004882812,21.9000015258789,-954.900024414062,2.05138751518133,0.0785982231435833,0.159849546490312,ST
13.9,0.349913626909256,-1.6024249792099,9.08339881896973,-1.12043392658234,0.754577994346619,-1.2576299905777,-1257.90002441406,18.9000015258789,-950.100036621094,2.05943467131553,0.0375132382614897,0.176273791033243,ST
13.9333333333333,0.144152462482452,-1.51748871803284,9.07861423492432,-1.37958192825317,0.830797970294952,-1.02897000312805,-1265.10009765625,23.1000003814697,-959.700012207031,2.06714466619394,0.0148123393928943,0.168095532632391,ST
13.9666666666667,0.206359326839447,-1.90209460258484,9.96446418762207,-1.44817996025085,0.25152599811554,-0.228659987449646,-1262.70007324219,25.5000019073486,-947.700012207031,2.0688078393644,0.0199455780840497,0.190966753989158,ST
14.0,0.837400138378143,-2.47990083694458,9.89268684387207,-2.24848985671997,-1.03659200668335,-0.975615978240967,-1250.70007324219,24.3000011444092,-945.300048828125,2.07126143378298,0.0833071355540974,0.248729690791926,ST
14.0333333333333,1.36077523231506,-2.27533578872681,9.30650615692139,-2.76678586006165,-2.5152599811554,-2.43141794204712,-1272.30004882812,29.7000007629395,-947.700012207031,2.08623739494475,0.145911444792763,0.244204836194261,ST
14.0666666666667,1.19209897518158,-2.7921314239502,8.65692329406738,-2.0731840133667,-1.18140995502472,-1.65397393703461,-1257.90002441406,18.9000015258789,-950.100036621094,2.08601439574259,0.133318874856038,0.314462159559759,ST
14.1,0.602928102016449,-3.15041899681091,9.53140830993652,-1.34147191047668,0.868907988071442,-0.922261953353882,-1265.10009765625,30.3000011444092,-952.500061035156,2.09421203257757,0.0595194485083243,0.321400551488707,ST
14.1333333333333,0.693247675895691,-3.22339248657227,9.53978252410889,-1.31860601902008,0.182927995920181,-1.01372599601746,-1265.10009765625,22.5,-950.100036621094,2.10121002363265,0.0689210786041244,0.327966782023318,ST
14.1666666666667,0.696836590766907,-3.32148790359497,9.20542049407959,-0.487807989120483,-0.106707997620106,0.716467976570129,-1262.70007324219,23.1000003814697,-947.700012207031,2.09521251101857,0.0708217664118327,0.347077338230926,ST
14.2,0.0610105842351913,-3.51349186897278,9.377685546875,0.0304879993200302,1.05945801734924,0.937505960464478,-1262.70007324219,18.9000015258789,-945.300048828125,2.09154304970675,0.0046055937321718,0.358294393143959,ST
14.2333333333333,0.0963010191917419,-3.53861379623413,9.77066516876221,0.533540010452271,0.87652999162674,1.50153398513794,-1260.30004882812,23.7000007629395,-952.500061035156,2.0845540319838,0.0069079419672038,0.346697910626683,ST
14.2666666666667,-0.226098045706749,-2.984135389328,9.37828350067139,1.14329993724823,-0.556405961513519,1.60824191570282,-1260.30004882812,21.9000015258789,-950.100036621094,2.07356673876747,-0.022534341741315,0.306504740831863,ST
14.3,-0.223705470561981,-2.83699202537537,9.51705265045166,1.39482593536377,-0.571649968624115,2.24848985671997,-1257.90002441406,23.7000007629395,-942.900024414062,2.05777167790573,-0.0226796289354116,0.287351032627376,ST
14.3333333333333,0.399559497833252,-2.78196287155151,9.17192459106445,1.41769194602966,-0.937505960464478,2.63721203804016,-1265.10009765625,28.5000019073486,-950.100036621094,2.03980002293771,0.0411179815940669,0.292144807529265,ST
14.3666666666667,0.0897214487195015,-2.49305987358093,8.82021617889404,1.6692179441452,-0.78506600856781,2.12653803825378,-1260.30004882812,27.3000011444092,-945.300048828125,2.02577826993133,0.0104817499495713,0.272839579271216,ST
14.4,0.236266478896141,-2.68147492408752,8.69879341125488,1.62348592281342,-0.708845973014832,2.41617393493652,-1267.5,21.9000015258789,-930.900024414062,2.00868910764575,0.0257483695479431,0.296049610057128,ST
14.4333333333333,-0.0269164331257343,-2.44879722595215,9.28557109832764,1.59299790859222,-0.99848198890686,2.23324584960938,-1267.5,23.1000003814697,-947.700012207031,1.99380054917368,-0.0017719439451935,0.255567638395265,ST
14.4666666666667,0.412718653678894,-2.42786240577698,9.54277324676514,1.6768399477005,-1.92074394226074,2.22562384605408,-1272.30004882812,18.9000015258789,-947.700012207031,1.97699477416752,0.0436301836077237,0.246508199946119,ST
14.5,0.569432079792023,-2.58397769927979,9.42134952545166,1.65397393703461,-2.67532205581665,2.33995389938354,-1279.5,24.9000015258789,-945.300048828125,1.95677372912055,0.0614450520882539,0.264885086524057,ST
14.5333333333333,0.885251581668854,-2.70540070533752,9.11809158325195,2.02745199203491,-2.34757590293884,2.76678586006165,-1274.70007324219,18.9000015258789,-947.700012207031,1.93184777356281,0.0950914711481101,0.28525818883843,ST
14.5666666666667,1.23157632350922,-2.8202440738678,9.98838901519775,1.85214591026306,-1.53202199935913,1.62348592281342,-1272.30004882812,23.7000007629395,-933.300048828125,1.91942452543011,0.119617027930888,0.272523745136967,ST
14.6,1.24234294891357,-2.21432518959045,10.2443943023682,2.88873791694641,-2.14940404891968,1.6844619512558,-1262.70007324219,25.5000019073486,-938.100036621094,1.91148886330567,0.121014768605244,0.20906198543499,ST
14.6333333333333,1.82014906406403,-1.79203629493713,9.43510723114014,3.11739802360535,-2.37044191360474,1.58537602424622,-1269.90002441406,21.3000011444092,-940.500061035156,1.89863721173684,0.190253785530672,0.183147426747971,ST
14.6666666666667,1.48518896102905,-0.659751713275909,8.26155090332031,3.23172783851624,-1.09756803512573,1.03659200668335,-1284.30004882812,17.1000003814697,-940.500061035156,1.90696471197073,0.179188826293559,0.0753542394077432,ST
14.7,1.1418548822403,-0.736912131309509,8.41407680511475,2.67532205581665,0.320124000310898,1.92836594581604,-1269.90002441406,15.9000005722046,-947.700012207031,1.8909765130612,0.134013598677106,0.0830629020782424,ST
14.7333333333333,0.919943869113922,-0.66034984588623,9.73298263549805,1.85214591026306,0.381099998950958,1.59299790859222,-1279.5,20.1000003814697,-940.500061035156,1.88195961818335,0.093674704920768,0.0649952865251924,ST
14.7666666666667,0.898410737514496,-0.818857729434967,9.89926624298096,1.05945801734924,-0.92988395690918,1.29574000835419,-1265.10009765625,17.7000007629395,-928.500061035156,1.87128612987228,0.0916634769926614,0.0807077061235587,ST
14.8,1.00846910476685,-0.876279473304749,9.81552600860596,1.01372599601746,-0.952749967575073,1.31860601902008,-1260.30004882812,17.7000007629395,-942.900024414062,1.86119095458403,0.103293164863321,0.0874376059811355,ST
14.8333333333333,1.4241783618927,-1.11493849754333,10.0607643127441,0.434453994035721,-0.952749967575073,0.830797970294952,-1279.5,17.1000003814697,-938.100036621094,1.85174551720311,0.140994338738705,0.109674087808404,ST
14.8666666666667,1.60960268974304,-0.720164120197296,9.5146598815918,0.205793991684914,-1.50153398513794,0.274392008781433,-1272.30004882812,21.9000015258789,-945.300048828125,1.85427933836869,0.169341442234619,0.0757232359695909,ST
14.9,1.68078172206879,-0.619676113128662,9.1922607421875,0.0838419944047928,-1.05945801734924,0.472563982009888,-1289.10009765625,19.5,-945.300048828125,1.85202833406942,0.182125251088027,0.0674121375802073,ST
14.9333333333333,1.70351123809814,-0.681284844875336,9.45963096618652,-0.381099998950958,-0.0381099991500378,-0.114329993724823,-1274.70007324219,22.5,-954.900024414062,1.85228016662695,0.177847438355715,0.0724733695601,ST
14.9666666666667,1.69394087791443,-0.64838695526123,9.02777194976807,-0.182927995920181,0.3125019967556,0.0609759986400604,-1281.90002441406,23.1000003814697,-950.100036621094,1.85233103234595,0.184381778770226,0.0720354718685769,ST
15.0,1.72085738182068,-1.29497957229614,9.28377723693848,-0.907018005847931,1.02134799957275,-0.609759986400604,-1279.5,19.5,-947.700012207031,1.84575145562903,0.179999301482407,0.139110918947849,ST
15.0333333333333,1.41640257835388,-1.31890523433685,9.95967864990234,-1.09756803512573,0.716467976570129,-0.960371971130371,-1269.90002441406,14.7000007629395,-947.700012207031,1.85472739186478,0.13940258596556,0.133365029002195,ST
15.0666666666667,1.66822075843811,-1.39726197719574,9.72281360626221,-1.39482593536377,0.525918006896973,-1.82165801525116,-1269.90002441406,19.5,-942.900024414062,1.86657430084509,0.167481649381541,0.14450024004133,ST
15.1,0.536534249782562,-0.627451956272125,9.78322601318359,-0.320124000310898,2.03507399559021,-1.97409796714783,-1279.5,22.5,-938.100036621094,1.88981225281608,0.0523879221992837,0.0650944435514888,ST
15.1333333333333,0.910971760749817,-1.27823150157928,9.67556095123291,-0.457319974899292,2.65245604515076,-0.6250039935112,-1274.70007324219,17.7000007629395,-950.100036621094,1.89140337412308,0.0882448261166913,0.131304581223692,ST
15.1666666666667,1.27703523635864,-1.5743123292923,10.2701148986816,-2.36281991004944,1.36433792114258,-2.33233189582825,-1267.5,14.7000007629395,-945.300048828125,1.90635724062013,0.120172412669958,0.155409317195585,ST
15.2,1.79502701759338,-1.64369690418243,9.04751014709473,-3.01068997383118,-0.228659987449646,-2.41617393493652,-1262.70007324219,20.1000003814697,-947.700012207031,1.91981153746225,0.193034068846103,0.183835021927565,ST
15.2333333333333,1.15142524242401,-1.4941611289978,7.81713056564331,-2.89635992050171,1.37195992469788,-3.23934984207153,-1272.30004882812,23.1000003814697,-942.900024414062,1.9441310921316,0.142856036688454,0.192958722968149,ST
15.2666666666667,-0.254210770130157,-1.70231485366821,8.83516979217529,-2.11891603469849,3.98630595207214,-2.83538389205933,-1257.90002441406,22.5,-957.300048828125,1.96673836654678,-0.03194703676133,0.19417442125383,ST
15.3,-0.677097856998444,-2.35728144645691,9.991379737854,-2.19513607025146,3.71191382408142,-1.12805593013763,-1248.30004882812,26.1000003814697,-950.100036621094,1.98018931365016,-0.0712243748037844,0.235252422703908,NLL
15.3333333333333,-1.19269704818726,-1.72683870792389,10.4854459762573,-2.5152599811554,1.37195992469788,0.266770005226135,-1267.5,22.5,-952.500061035156,1.97233090231145,-0.113689518387273,0.168437723494537,NLL
15.3666666666667,-0.862522184848785,-2.01334929466248,9.2760009765625,-3.07166600227356,-1.22714197635651,5.38113164901733,-1248.30004882812,27.3000011444092,-950.100036621094,1.93733895890486,-0.090711101102023,0.217845132812815,NLL
15.4,-1.24174475669861,-2.63840866088867,9.2167854309082,-2.62959003448486,-1.07470202445984,10.7775077819824,-1250.70007324219,24.9000015258789,-945.300048828125,1.86866766968368,-0.131862521532699,0.280489539787662,NLL
15.4333333333333,-0.683677434921265,-3.11871743202209,9.47578048706055,-2.00458598136902,-1.42531394958496,12.515323638916,-1248.30004882812,26.1000003814697,-945.300048828125,1.79104830486869,-0.0734835983768766,0.319409623881376,NLL
15.4666666666667,-0.285314202308655,-3.63192415237427,9.29932880401611,-1.98934197425842,-1.82927989959717,9.22262001037598,-1243.5,31.5000019073486,-954.900024414062,1.7310651835768,-0.0318192645023092,0.374783118000095,NLL
15.5,1.39845824241638,-4.3640513420105,8.34110355377197,-1.18903195858002,-2.85062789916992,9.32170581817627,-1245.90002441406,34.5,-938.100036621094,1.6649536811746,0.142220488562792,0.48498059556948,NLL
15.5333333333333,0.937888205051422,-3.48597717285156,8.82500171661377,-0.114329993724823,-1.82165801525116,2.33995389938354,-1257.90002441406,31.5000019073486,-940.500061035156,1.65992297898237,0.10046309046675,0.378219736846013,NLL
15.5666666666667,0.686069965362549,-3.79402089118958,9.21499061584473,0.853663980960846,-1.21189796924591,1.38720393180847,-1255.5,35.1000022888184,-938.100036621094,1.64651872997465,0.0700018948437443,0.389216624196504,NLL
15.6,0.0263182912021875,-3.07505297660828,10.2563571929932,0.868907988071442,-1.02134799957275,-0.807931959629059,-1238.70007324219,33.3000030517578,-928.500061035156,1.65295957848885,0.0053700378975149,0.290981849180011,NLL
15.6333333333333,1.39367318153381,-4.13137340545654,9.42374229431152,-0.243903994560242,-2.16464805603027,2.02745199203491,-1253.10009765625,30.9000015258789,-940.500061035156,1.62764398992639,0.135080416308055,0.412681807039064,NLL
15.6666666666667,0.899607002735138,-3.25629043579102,9.77365589141846,-0.403965979814529,-1.77592599391937,-0.495429992675781,-1260.30004882812,33.3000030517578,-940.500061035156,1.63712486490661,0.0908655498395288,0.323422510491193,NLL
15.7,0.738108456134796,-3.44231271743774,8.95659255981445,0.640248000621796,-0.815553963184357,1.93598794937134,-1265.10009765625,31.5000019073486,-940.500061035156,1.62000225346454,0.0770732387208899,0.365575569539895,NLL
15.7333333333333,-0.346922934055328,-2.72932648658752,8.96257400512695,1.92074394226074,1.48628997802734,2.04269599914551,-1265.10009765625,30.3000011444092,-930.900024414062,1.61174948412416,-0.0393224681733931,0.292922061041884,NLL
15.7666666666667,-0.376830071210861,-2.72394299507141,8.97692966461182,2.40092992782593,1.41769194602966,4.1997218132019,-1260.30004882812,35.1000022888184,-935.700012207031,1.58938680915573,-0.0445518953699922,0.290172038384558,NLL
15.8,-0.342137783765793,-2.36984252929688,9.08160495758057,1.77592599391937,0.403965979814529,4.93905591964722,-1243.5,36.3000030517578,-942.900024414062,1.55870484276603,-0.0393506375074756,0.252299834194042,NLL
15.8333333333333,0.516795516014099,-2.82323479652405,9.08280086517334,0.37347799539566,-0.937505960464478,6.32626008987427,-1250.70007324219,37.5,-947.700012207031,1.51821759850309,0.0514790359888478,0.300635308773158,NLL
15.8666666666667,-1.2118376493454,-1.87697267532349,9.66778469085693,1.04421401023865,0.571649968624115,5.16771602630615,-1257.90002441406,30.3000011444092,-945.300048828125,1.48356580536889,-0.123024302002309,0.190324967978604,NLL
15.9,-1.35359752178192,-2.82383298873901,10.1313457489014,1.15092194080353,0.480185985565186,7.5762677192688,-1231.5,28.5000019073486,-950.100036621094,1.4462001885255,-0.132185722567178,0.267475513214617,NLL
15.9333333333333,-1.19628596305847,-2.48528409004211,9.59062480926514,0.274392008781433,-2.88873791694641,8.46804141998291,-1233.90002441406,39.3000030517578,-942.900024414062,1.38481769647117,-0.11907821537681,0.251349379036436,NLL
15.9666666666667,-0.751865744590759,-2.52476143836975,8.78731822967529,-0.342989981174469,-3.08691000938416,8.32322406768799,-1245.90002441406,41.7000007629395,-930.900024414062,1.33149357868965,-0.081309518636309,0.278757587135607,NLL
16.0,-0.727940022945404,-2.56304264068604,8.65811920166016,-0.426831990480423,-2.96495795249939,8.96347141265869,-1233.90002441406,30.9000015258789,-935.700012207031,1.27228993295448,-0.0799182262084517,0.287129262203249,NLL
16.0333333333333,0.498851239681244,-3.18570947647095,8.0713415145874,-1.86738991737366,-4.35216188430786,8.91773986816406,-1243.5,43.5,-942.900024414062,1.21099273368035,0.0571069272776267,0.378924036197784,NLL
16.0666666666667,0.381615221500397,-2.89561009407043,9.02298641204834,-1.85976791381836,-3.46800994873047,6.18906402587891,-1243.5,47.7000007629395,-923.700012207031,1.1665453087162,0.042742846384411,0.31477415490046,NLL
16.1,0.215331465005875,-2.73530769348145,10.3281345367432,-0.0457319989800453,-3.20886182785034,5.81558609008789,-1233.90002441406,47.7000007629395,-938.100036621094,1.12735841653142,0.0231675930000366,0.259920219439448,NLL
16.1333333333333,0.726145565509796,-2.80708503723145,9.93635082244873,-0.266770005226135,-4.10825777053833,3.53660798072815,-1221.90002441406,48.9000015258789,-940.500061035156,1.09640702986433,0.0749754980752134,0.276230514580726,NLL
16.1666666666667,0.400157660245895,-3.00148153305054,9.07143592834473,-0.708845973014832,-3.94819593429565,3.01068997383118,-1248.30004882812,41.1000022888184,-930.900024414062,1.06583951541333,0.0469559711676751,0.320783002861977,NLL
16.2,0.439635097980499,-3.13486742973328,8.82440280914307,-0.525918006896973,-3.14788603782654,3.04879999160767,-1238.70007324219,51.3000030517578,-928.500061035156,1.03865646022108,0.0502768258691852,0.342415060755781,NLL
16.2333333333333,1.15860295295715,-3.11453056335449,8.00853633880615,-0.121951997280121,-2.83538389205933,4.29880809783936,-1248.30004882812,45.9000015258789,-918.900024414062,1.00436050842623,0.134875237880178,0.371905632145887,NLL
16.2666666666667,1.00428199768066,-2.85972166061401,8.67486763000488,0.480185985565186,-1.47104597091675,3.40703392028809,-1260.30004882812,46.5,-923.700012207031,0.986476249195599,0.110325884369882,0.318870889045885,NLL
16.3,1.22559499740601,-2.8160572052002,9.60976505279541,0.945127964019775,-1.2423859834671,3.74240183830261,-1253.10009765625,58.5000038146973,-928.500061035156,0.964920449851109,0.121878312635333,0.284671056519093,NLL
16.3333333333333,1.06230187416077,-2.18860507011414,9.73417854309082,1.60061991214752,-0.800309956073761,3.81862187385559,-1243.5,44.1000022888184,-918.900024414062,0.946605383637838,0.106157929164369,0.219892795078549,NLL
16.3666666666667,0.692051410675049,-2.24841952323914,10.0176982879639,1.86738991737366,-0.442075997591019,5.0152759552002,-1250.70007324219,48.9000015258789,-923.700012207031,0.914286095378134,0.0666494142467043,0.218145643050165,NLL
16.4,0.782370984554291,-2.39496445655823,9.47637939453125,0.6250039935112,-0.533540010452271,5.73174381256104,-1245.90002441406,46.5,-933.300048828125,0.875912196532785,0.078203161409506,0.246873155245352,NLL
16.4333333333333,1.50133883953094,-2.82921624183655,9.90524768829346,-0.289635986089706,-0.37347799539566,5.64027976989746,-1236.30004882812,49.5000038146973,-923.700012207031,0.837737774494696,0.141860715486704,0.279666709527473,NLL
16.4666666666667,1.66822075843811,-2.65216588973999,9.60797023773193,0.487807989120483,0.282013982534409,3.75764584541321,-1226.70007324219,44.1000022888184,-930.900024414062,0.816602736196271,0.163343333593688,0.269617945034225,NLL
16.5,1.22499680519104,-2.6336236000061,9.08638954162598,0.632625997066498,0.716467976570129,0.548784017562866,-1226.70007324219,47.7000007629395,-923.700012207031,0.812331516955436,0.127744211332342,0.280943778912336,NLL
16.5333333333333,1.12331247329712,-2.88962864875793,8.78731822967529,0.777444005012512,1.02897000312805,-0.0609759986400604,-1236.30004882812,45.3000030517578,-938.100036621094,0.80975600931705,0.119275389790837,0.31583399510625,NLL
16.5666666666667,0.539524972438812,-2.55825757980347,9.30291748046875,1.12043392658234,1.38720393180847,-1.19665396213531,-1221.90002441406,49.5000038146973,-923.700012207031,0.824048460889677,0.0545606425437931,0.266620216548464,NLL
16.6,0.433055520057678,-3.12589526176453,8.65692329406738,-0.304879993200302,0.640248000621796,-1.45580196380615,-1231.5,49.5000038146973,-930.900024414062,0.830146484018178,0.0469123172274283,0.345933583579233,NLL
16.6333333333333,0.107665732502937,-2.57500553131104,8.70776557922363,-0.37347799539566,1.39482593536377,-2.63721203804016,-1224.30004882812,48.3000030517578,-928.500061035156,0.850443999867029,0.011287294508525,0.288811548916597,NLL
16.6666666666667,-0.728538155555725,-2.44102144241333,9.66599082946777,1.39482593536377,1.87501192092896,-0.533540010452271,-1236.30004882812,48.9000015258789,-930.900024414062,0.855803724699627,-0.0748282655368599,0.24558828716166,NLL
16.7,-0.400755792856216,-3.10795092582703,9.40041446685791,0.259148001670837,1.08994603157043,-0.487807989120483,-1221.90002441406,47.7000007629395,-916.500061035156,0.865109876890474,-0.0424053609037582,0.318017603864116,NLL
16.7333333333333,-0.365465342998505,-2.65635299682617,10.6900110244751,-0.0381099991500378,0.144817993044853,-1.57775402069092,-1221.90002441406,41.1000022888184,-933.300048828125,0.872228099465558,-0.0328556082356951,0.244620525817802,NLL
16.7666666666667,-0.344530344009399,-2.46315264701843,9.78023529052734,1.12043392658234,0.106707997620106,-1.30336201190948,-1231.5,41.1000022888184,-940.500061035156,0.880642660007447,-0.0337652710197148,0.244836848896225,NLL
16.8,-0.0520384386181831,-2.40752553939819,8.61325836181641,1.50915598869324,1.19665396213531,-1.05945801734924,-1221.90002441406,39.9000015258789,-935.700012207031,0.890003856457382,-0.0076156304342509,0.269684080984434,NLL
16.8333333333333,-0.0251220054924488,-1.99480676651001,8.75920581817627,0.983237981796265,1.44055795669556,-0.480185985565186,-1229.10009765625,47.7000007629395,-935.700012207031,0.894828232667883,-0.0050919550944307,0.222789923748169,NLL
16.8666666666667,-0.127404451370239,-1.87458002567291,9.11988544464111,1.03659200668335,1.50153398513794,-0.602137982845306,-1217.10009765625,38.7000007629395,-928.500061035156,0.900374526645779,-0.0159056233036188,0.201206751886712,NLL
16.9,0.303856641054153,-2.43743252754211,8.82440280914307,0.205793991684914,0.548784017562866,-0.701223969459534,-1229.10009765625,45.3000030517578,-926.100036621094,0.905124916199064,0.0320716671108541,0.268387621531142,NLL
16.9333333333333,-0.0358885787427425,-2.30105590820312,9.21439266204834,-0.198172003030777,0.579271972179413,-1.40244793891907,-1207.5,38.7000007629395,-926.100036621094,0.915840593799128,-0.0038959326958284,0.245244180709111,NLL
16.9666666666667,-0.350511789321899,-2.39317011833191,10.2868623733521,-0.228659987449646,0.3125019967556,-2.38568592071533,-1231.5,41.7000007629395,-940.500061035156,0.930671115986853,-0.0324041128482765,0.229303983385353,NLL
17.0,-0.320604622364044,-2.28370976448059,10.1008405685425,0.403965979814529,-0.160062000155449,-1.58537602424622,-1217.10009765625,46.5,-942.900024414062,0.940078583622961,-0.0300954377117014,0.221819889325699,NLL
17.0333333333333,0.605320692062378,-2.68984889984131,9.01580905914307,-0.190549999475479,-0.800309956073761,-2.11129403114319,-1226.70007324219,42.9000015258789,-933.300048828125,0.950438346556973,0.0654403764367431,0.289242304520718,NLL
17.0666666666667,0.223107323050499,-2.07974314689636,8.73707485198975,0.739333987236023,0.442075997591019,-3.08691000938416,-1221.90002441406,47.1000022888184,-942.900024414062,0.973068324851756,0.0257569174041015,0.232838478626862,NLL
17.1,0.458775669336319,-2.23884916305542,8.46850776672363,0.823175966739655,1.71494996547699,-2.62196803092957,-1233.90002441406,42.3000030517578,-940.500061035156,0.990698853935654,0.0502832599938621,0.25647480556089,NLL
17.1333333333333,-0.211742609739304,-2.16767001152039,8.84055328369141,0.114329993724823,2.16464805603027,-4.32929611206055,-1217.10009765625,37.5,-935.700012207031,1.02083576868331,-0.0241972709047836,0.240620310613087,NLL
17.1666666666667,-0.66932201385498,-2.15092206001282,9.43211650848389,0.205793991684914,1.86738991737366,-3.49087595939636,-1217.10009765625,39.9000015258789,-935.700012207031,1.04652130571007,-0.0705481522001392,0.224430992672688,NLL
17.2,-0.651975810527802,-2.79392576217651,10.1373271942139,-0.739333987236023,1.03659200668335,-3.84910988807678,-1224.30004882812,35.7000007629395,-940.500061035156,1.07519041124013,-0.0619775549184718,0.270175464982269,NLL
17.2333333333333,-0.735117733478546,-2.66053986549377,11.051887512207,0.213415995240211,0.0838419944047928,-3.63569402694702,-1224.30004882812,35.1000022888184,-945.300048828125,1.09696029676079,-0.0632143995860913,0.236553889363707,NLL
17.2666666666667,0.178844749927521,-3.27842164039612,9.77485275268555,0.190549999475479,-0.701223969459534,-3.37654590606689,-1245.90002441406,33.3000030517578,-945.300048828125,1.11795122142197,0.0193204382703587,0.32212774878659,NLL
17.3,-0.21712589263916,-2.43862891197205,9.15218544006348,1.41769194602966,1.02897000312805,-4.93143367767334,-1212.30004882812,41.1000022888184,-938.100036621094,1.15173599374576,-0.022068002274306,0.258670476699752,NLL
17.3333333333333,-0.326586067676544,-2.30943012237549,8.680251121521,1.82165801525116,1.2347639799118,-4.76375007629395,-1236.30004882812,38.7000007629395,-938.100036621094,1.18321036439238,-0.0361369153436249,0.257175333083373,NLL
17.3666666666667,-0.567039549350739,-1.82732677459717,8.89318943023682,2.31708788871765,0.815553963184357,-3.62807202339172,-1236.30004882812,36.3000030517578,-933.300048828125,1.20471599916114,-0.0621750111037514,0.199718402229225,NLL
17.4,-0.166283741593361,-2.10366892814636,8.55344486236572,1.81403601169586,0.777444005012512,-3.16313004493713,-1236.30004882812,37.5,-942.900024414062,1.22722702168739,-0.0194362933352154,0.237644070745874,NLL
17.4333333333333,-0.658555388450623,-2.14972591400146,9.19405555725098,1.42531394958496,1.35671591758728,-2.98020195960999,-1233.90002441406,32.1000022888184,-950.100036621094,1.24760164753212,-0.0701361861230627,0.227706093540489,NLL
17.4666666666667,-0.940280735492706,-2.095294713974,9.79937648773193,0.556405961513519,1.00610399246216,-3.64331603050232,-1229.10009765625,28.5000019073486,-952.500061035156,1.27322510669942,-0.0937955317142407,0.210399516301296,NLL
17.5,-1.10776078701019,-1.97865700721741,9.87354564666748,0.746955990791321,0.0076219998300075,-2.09605002403259,-1221.90002441406,38.7000007629395,-947.700012207031,1.28612869160524,-0.108730212579034,0.196984822092064,NLL
17.5333333333333,-0.92771977186203,-2.05462121963501,9.85919094085693,0.884151995182037,-0.129574000835419,-0.907018005847931,-1233.90002441406,29.7000007629395,-950.100036621094,1.29334565688997,-0.0914456080155924,0.203999578471556,NLL
17.5666666666667,-1.02701151371002,-1.76930689811707,9.48774337768555,0.92988395690918,-1.08232402801514,-1.16616594791412,-1255.5,30.3000011444092,-950.100036621094,1.2978486878168,-0.103632424278197,0.183171736023959,NLL
17.6,-0.372044920921326,-2.03727507591248,9.00324821472168,0.457319974899292,-1.60061991214752,-0.37347799539566,-1243.5,29.1000003814697,-950.100036621094,1.30089499192024,-0.0382254993561741,0.221267968089056,NLL
17.6333333333333,-0.538328647613525,-1.84287846088409,8.74784088134766,0.0762199983000755,-1.64635193347931,-1.2423859834671,-1243.5,24.9000015258789,-954.900024414062,1.30611445469224,-0.0567212183963882,0.207703319229492,NLL
17.6666666666667,-0.284716039896011,-2.07675242424011,8.96855545043945,0.114329993724823,-1.84452390670776,-0.533540010452271,-1250.70007324219,35.1000022888184,-935.700012207031,1.30774921663902,-0.0277870702987373,0.227209647452492,NLL
