seconds,sensor_accX_m_s_,sensor_accY_m_s_,sensor_accZ_m_s_,sensor_gyroX___s_,sensor_gyroY___s_,sensor_gyroZ___s_,sensor_magX__T_,sensor_magY__T_,sensor_magZ__T_,sensor_yaw___,sensor_pitch___,sensor_roll___,label4
0.0,3.64627957344055,-2.83519768714905,8.70776557922363,0.914639949798584,-0.335367977619171,0.221037998795509,-1341.90002441406,21.9000015258789,-894.900024414062,2.26355263268977,0.379313909125421,0.313496988598753,ST
0.0333333333333333,3.58347463607788,-2.71317648887634,8.67726039886475,0.92988395690918,-0.304879993200302,0.221037998795509,-1351.5,21.9000015258789,-885.300048828125,2.26449399894033,0.37593255604522,0.301912687988761,ST
0.0666666666666667,3.55655813217163,-2.58218312263489,8.65393257141113,0.983237981796265,-0.320124000310898,0.259148001670837,-1346.70007324219,17.7000007629395,-899.700012207031,2.26577364115366,0.375582373892068,0.288855192176754,ST
0.1,3.59005403518677,-2.5175838470459,8.53849124908447,1.08232402801514,-0.25152599811554,0.342989981174469,-1346.70007324219,26.1000003814697,-899.700012207031,2.26263764339946,0.383467299748745,0.285176890657027,ST
0.133333333333333,3.5631377696991,-2.45717144012451,8.58335208892822,1.06708002090454,-0.243903994560242,0.358233988285065,-1341.90002441406,23.1000003814697,-897.300048828125,2.2613640689741,0.380043577759219,0.277428208758138,ST
0.166666666666667,3.61158728599548,-2.45118999481201,8.64555835723877,1.05945801734924,-0.175305992364883,0.419209986925125,-1351.5,23.1000003814697,-894.900024414062,2.25812263477545,0.382178002557373,0.274810181547211,ST
0.2,3.61098909378052,-2.38539409637451,8.70896148681641,1.02897000312805,-0.106707997620106,0.419209986925125,-1341.90002441406,24.3000011444092,-880.500061035156,2.25730183448523,0.380455021628764,0.266094022517246,ST
0.233333333333333,3.66362571716309,-2.36326289176941,8.73946666717529,1.01372599601746,-0.160062000155449,0.411587983369827,-1346.70007324219,21.3000011444092,-894.900024414062,2.25400122029671,0.384544445101604,0.262690965660384,ST
0.266666666666667,3.6731960773468,-2.35429072380066,8.71853160858154,0.853663980960846,-0.182927995920181,0.365855991840363,-1339.5,17.7000007629395,-892.500061035156,2.25024980182624,0.386407150400692,0.262540221995934,ST
0.3,3.60799837112427,-2.22628808021545,8.75741100311279,0.762199997901917,-0.144817993044853,0.304879993200302,-1346.70007324219,21.9000015258789,-892.500061035156,2.25245531470569,0.380162966685035,0.248193752733791,ST
0.333333333333333,3.5571563243866,-2.31301879882812,8.67606353759766,0.609759986400604,-0.0609759986400604,0.411587983369827,-1337.10009765625,15.9000005722046,-894.900024414062,2.24513510474479,0.377194995014107,0.259445811234212,ST
0.366666666666667,3.54997849464417,-2.27473783493042,8.70357799530029,0.426831990480423,-0.0228659994900227,0.457319974899292,-1344.30004882812,23.7000007629395,-904.500061035156,2.24367933951517,0.375737912100904,0.255317503311629,ST
0.4,3.58766150474548,-2.28191542625427,8.69939136505127,0.274392008781433,-0.327746003866196,0.510673999786377,-1341.90002441406,17.1000003814697,-902.100036621094,2.23956176268317,0.379827475593685,0.256433322496015,ST
0.433333333333333,3.53801560401917,-2.29746723175049,8.692214012146,0.198172003030777,-0.335367977619171,0.480185985565186,-1344.30004882812,20.1000003814697,-892.500061035156,2.23581485589617,0.375382929281516,0.258382353380841,ST
0.466666666666667,3.61218547821045,-2.30285048484802,8.76458930969238,0.25152599811554,-0.259148001670837,0.586893975734711,-1344.30004882812,24.9000015258789,-890.100036621094,2.23279880353537,0.379368565779428,0.256977992126749,ST
0.5,3.61697053909302,-2.32737421989441,8.71434497833252,0.167683988809586,-0.297257989645004,0.533540010452271,-1339.5,20.1000003814697,-887.700012207031,2.22813595795157,0.38157154824359,0.26099198979644,ST
0.533333333333333,3.54579162597656,-2.30225229263306,8.74664497375488,0.152439996600151,-0.3125019967556,0.556405961513519,-1349.10009765625,18.9000015258789,-902.100036621094,2.2261077633771,0.374109994999042,0.257629272043525,ST
0.566666666666667,3.60500764846802,-2.36087036132812,8.69998931884766,0.0152439996600151,-0.327746003866196,0.419209986925125,-1358.70007324219,16.5,-899.700012207031,2.22072595033216,0.380666301246326,0.265160438429887,ST
0.6,3.58646535873413,-2.39735698699951,8.79329967498779,0.0304879993200302,-0.259148001670837,0.342989981174469,-1339.5,20.1000003814697,-897.300048828125,2.21811961419401,0.375269199607832,0.266365126899418,ST
0.633333333333333,3.54459524154663,-2.34771108627319,8.77774810791016,0.259148001670837,-0.198172003030777,0.434453994035721,-1332.30004882812,23.1000003814697,-887.700012207031,2.21710882334423,0.372159778367608,0.261335471188399,ST
0.666666666666667,3.50392150878906,-2.30285048484802,8.72032642364502,0.282013982534409,-0.182927995920181,0.365855991840363,-1341.90002441406,23.1000003814697,-897.300048828125,2.21562148153626,0.370719254039837,0.258024677488349,ST
0.7,3.50272512435913,-2.24064350128174,8.57557582855225,0.175305992364883,-0.426831990480423,0.472563982009888,-1351.5,17.1000003814697,-890.100036621094,2.2131339517231,0.376751679164356,0.255695128482678,ST
0.733333333333333,3.56553030014038,-2.29328012466431,8.88122653961182,0.0609759986400604,-0.525918006896973,0.556405961513519,-1346.70007324219,15.9000005722046,-894.900024414062,2.21072304061784,0.371534178312113,0.253118650697697,ST
0.766666666666667,3.67439222335815,-2.34711313247681,8.75561714172363,-0.0533539988100529,-0.739333987236023,0.46494197845459,-1353.90002441406,23.1000003814697,-892.500061035156,2.20439379314842,0.385748871476237,0.262201927100597,ST
0.8,3.74138426780701,-2.36744999885559,8.74724292755127,-0.0533539988100529,-0.777444005012512,0.403965979814529,-1353.90002441406,17.7000007629395,-882.900024414062,2.20068384943533,0.392486220510775,0.264767577130386,ST
0.833333333333333,3.73600101470947,-2.36326289176941,8.67726039886475,-0.0838419944047928,-0.701223969459534,0.381099998950958,-1344.30004882812,18.3000011444092,-904.500061035156,2.19758109518774,0.394672520055883,0.266403668585298,ST
0.866666666666667,3.67199969291687,-2.34771108627319,8.67905426025391,-0.121951997280121,-0.396344006061554,0.213415995240211,-1341.90002441406,15.3000001907349,-894.900024414062,2.19700068682062,0.388478064715187,0.264663428461858,ST
0.9,3.65644788742065,-2.38599228858948,8.65094184875488,-0.0914639979600906,-0.342989981174469,0.358233988285065,-1344.30004882812,27.3000011444092,-892.500061035156,2.19327431844107,0.387355824990612,0.269453190603964,ST
0.933333333333333,3.71745848655701,-2.4535825252533,8.71673774719238,-0.129574000835419,-0.342989981174469,0.205793991684914,-1346.70007324219,23.7000007629395,-878.100036621094,2.19015855510105,0.389949435701528,0.274668871229951,ST
0.966666666666667,3.71386981010437,-2.43204927444458,8.7221212387085,-0.0762199983000755,-0.403965979814529,0.0990860015153885,-1351.5,17.1000003814697,-892.500061035156,2.1902385142776,0.389862904690766,0.272276042270969,ST
1.0,3.67379403114319,-2.43922710418701,8.620436668396,-0.129574000835419,-0.25152599811554,-0.0838419944047928,-1344.30004882812,20.1000003814697,-892.500061035156,2.1891889430309,0.389628020990885,0.275867130565753,ST
1.03333333333333,3.6193630695343,-2.41889023780823,8.63419342041016,-0.182927995920181,-0.144817993044853,-0.205793991684914,-1358.70007324219,23.7000007629395,-885.300048828125,2.19126752577797,0.384122070881044,0.273416414005248,ST
1.06666666666667,3.62833523750305,-2.51818180084229,8.64496040344238,-0.289635986089706,-0.358233988285065,-0.182927995920181,-1349.10009765625,25.5000019073486,-892.500061035156,2.18837845858877,0.383753892958132,0.283613210656441,ST
1.1,3.74916005134583,-2.74308371543884,8.42663860321045,-0.792688012123108,-0.594515979290009,-0.350611984729767,-1344.30004882812,18.9000015258789,-897.300048828125,2.17867003701584,0.400930049680516,0.315094257042757,ST
1.13333333333333,3.332852602005,-2.7741870880127,8.47149848937988,-1.31098401546478,-0.205793991684914,-1.02134799957275,-1349.10009765625,23.1000003814697,-894.900024414062,2.18482048351411,0.359564255922001,0.318091444493729,ST
1.16666666666667,2.60192203521729,-2.12580013275146,9.0074348449707,-0.571649968624115,0.6250039935112,-0.868907988071442,-1351.5,20.1000003814697,-880.500061035156,2.21680318977439,0.275743551290879,0.234540199992928,ST
1.2,2.8381884098053,-2.59115529060364,8.67486763000488,-0.442075997591019,-0.0076219998300075,0.0990860015153885,-1339.5,22.5,-887.700012207031,2.20128914523929,0.302996321659799,0.289533752572574,ST
1.23333333333333,2.59893131256104,-2.8142626285553,8.64196968078613,-1.07470202445984,-0.259148001670837,-0.861285984516144,-1341.90002441406,20.7000007629395,-887.700012207031,2.1993327301447,0.279905074979526,0.315771351171232,ST
1.26666666666667,2.45238614082336,-2.76282238960266,8.82739353179932,-1.31098401546478,-0.190549999475479,-0.990859985351562,-1341.90002441406,21.3000011444092,-894.900024414062,2.20830081862424,0.260551243166967,0.305481602584992,ST
1.3,2.54509830474854,-2.99968695640564,8.87105846405029,-1.37958192825317,-0.236281991004944,-1.18140995502472,-1339.5,21.3000011444092,-887.700012207031,2.21029910476128,0.266317358916971,0.327578593337841,ST
1.33333333333333,2.83280515670776,-3.06787538528442,8.87165641784668,-1.28811800479889,-0.952749967575073,-1.29574000835419,-1344.30004882812,21.9000015258789,-880.500061035156,2.21537807284837,0.294872773584558,0.334573997466444,ST
1.36666666666667,3.20425200462341,-3.02600526809692,8.64196968078613,-1.34909391403198,-2.08842802047729,-1.87501192092896,-1346.70007324219,24.3000011444092,-899.700012207031,2.22172038370345,0.339888684500094,0.338404643284168,ST
1.4,3.45367741584778,-2.92252659797668,8.51695823669434,-1.02897000312805,-2.26373386383057,-1.85214591026306,-1353.90002441406,22.5,-873.300048828125,2.23076897077743,0.370190122842344,0.331853517890006,ST
1.43333333333333,3.85682582855225,-2.93807816505432,8.64854907989502,-0.846041977405548,-2.29422187805176,-1.79879200458527,-1351.5,10.5,-863.700012207031,2.23875936662087,0.403634032676165,0.328327287711528,ST
1.46666666666667,4.55545663833618,-2.72334504127502,8.54925727844238,-0.541162014007568,-2.98020195960999,-1.63110792636871,-1361.10009765625,21.3000011444092,-885.300048828125,2.25131411172476,0.474128302633617,0.309184518558864,ST
1.5,4.754638671875,-2.73351335525513,8.21549415588379,-0.708845973014832,-2.53812599182129,-1.81403601169586,-1368.30004882812,20.1000003814697,-892.500061035156,2.25213411821084,0.506785391955354,0.32132945416166,ST
1.53333333333333,4.70917940139771,-2.59952926635742,8.13175392150879,-0.449698001146317,-1.86738991737366,-1.40244793891907,-1361.10009765625,22.5,-870.900024414062,2.26231704727879,0.507899943003612,0.309772542538677,ST
1.56666666666667,4.54110145568848,-2.68326926231384,7.84584140777588,-0.609759986400604,-1.08232402801514,-1.53964400291443,-1375.5,18.3000011444092,-878.100036621094,2.2601056294283,0.503767420203752,0.329172827434833,ST
1.6,3.70609378814697,-2.57141661643982,8.52533149719238,-0.724089980125427,-0.243903994560242,-2.12653803825378,-1365.90002441406,27.3000011444092,-870.900024414062,2.28642178997579,0.398823575698212,0.293681076311671,ST
1.63333333333333,3.13068032264709,-2.38898301124573,8.53131294250488,-0.457319974899292,0.0457319989800453,-1.97409796714783,-1365.90002441406,12.3000001907349,-870.900024414062,2.30395304588806,0.342120473773071,0.27318608120936,ST
1.66666666666667,2.95123744010925,-2.35488891601562,8.66709136962891,-0.411587983369827,0.137196004390717,-1.89025592803955,-1365.90002441406,17.1000003814697,-866.100036621094,2.31636871776232,0.318771567488121,0.265162217888832,ST
1.7,3.23057007789612,-2.35548710823059,8.79329967498779,-0.449698001146317,-0.518296003341675,-2.00458598136902,-1385.10009765625,12.3000001907349,-861.300048828125,2.32713940023933,0.342139111748219,0.261504134622113,ST
1.73333333333333,3.62953162193298,-2.25978422164917,8.51396751403809,-0.403965979814529,-1.41006994247437,-2.21800184249878,-1375.5,21.3000011444092,-882.900024414062,2.33799470322323,0.393129445969362,0.258925976791791,ST
1.76666666666667,4.35268640518188,-2.37402939796448,8.38297367095947,-0.518296003341675,-2.21037983894348,-1.87501192092896,-1368.30004882812,21.3000011444092,-854.100036621094,2.33801633483526,0.465873335777366,0.27536692164127,ST
1.8,4.87067842483521,-2.35787963867188,8.28128910064697,-0.617381989955902,-2.27135586738586,-1.6615959405899,-1370.70007324219,14.7000007629395,-854.100036621094,2.34302846812734,0.517943758984189,0.277445959623511,ST
1.83333333333333,5.40661430358887,-2.56423902511597,8.65871810913086,-0.693601965904236,-1.97409796714783,-1.27287399768829,-1380.30004882812,14.7000007629395,-868.500061035156,2.34281580904346,0.542945625332139,0.288235069547524,ST
1.86666666666667,5.67577886581421,-2.66771769523621,8.38835716247559,-0.411587983369827,-1.74543797969818,-0.586893975734711,-1377.90002441406,20.7000007629395,-866.100036621094,2.33364432622774,0.575030200649325,0.308032915648547,ST
1.9,5.55196285247803,-2.65096974372864,8.71075630187988,-0.175305992364883,-1.12043392658234,-0.685979962348938,-1368.30004882812,15.3000001907349,-854.100036621094,2.34212747361854,0.550470274465881,0.295717562785347,ST
1.93333333333333,5.29835033416748,-2.63003468513489,8.80406665802002,0.114329993724823,-0.0685980021953583,-0.274392008781433,-1382.70007324219,22.5,-858.900024414062,2.34587430533451,0.523953958870839,0.28998361998119,ST
1.96666666666667,5.24810647964478,-2.73530769348145,8.22805500030518,0.129574000835419,0.457319974899292,0.0914639979600906,-1373.10009765625,17.1000003814697,-854.100036621094,2.33059512830023,0.542946390728938,0.31981244830129,ST
2.0,5.11771106719971,-2.63302540779114,8.79090690612793,0.0609759986400604,0.846041977405548,-0.541162014007568,-1368.30004882812,15.3000001907349,-868.500061035156,2.34894020005061,0.508135160406533,0.290619616904804,ST
2.03333333333333,4.93587589263916,-2.53492999076843,8.47987270355225,0.480185985565186,1.05945801734924,-0.144817993044853,-1382.70007324219,11.7000007629395,-851.700012207031,2.35039590162116,0.507054453653471,0.289250808236137,ST
2.06666666666667,4.95501613616943,-2.2831118106842,8.36263656616211,1.02134799957275,1.12043392658234,-0.152439996600151,-1373.10009765625,16.5,-870.900024414062,2.36170866918743,0.517177996166801,0.264979817415553,ST
2.1,4.87307071685791,-1.62395811080933,7.86677646636963,1.85976791381836,1.38720393180847,0.175305992364883,-1370.70007324219,18.3000011444092,-866.100036621094,2.38921815625677,0.542189876702806,0.202000889776198,ST
2.13333333333333,4.40771532058716,-1.60362136363983,7.87096357345581,1.99696397781372,2.04269599914551,0.358233988285065,-1380.30004882812,15.9000005722046,-868.500061035156,2.38658588516332,0.499440885810496,0.197580992243488,ST
2.16666666666667,4.23365592956543,-1.62276184558868,8.13893127441406,1.89025592803955,2.4923939704895,0.724089980125427,-1365.90002441406,12.9000005722046,-868.500061035156,2.38279081214848,0.468086000529708,0.193811510479284,ST
2.2,3.9297993183136,-1.67539846897125,8.644362449646,1.74543797969818,2.43141794204712,0.632625997066498,-1361.10009765625,12.9000005722046,-870.900024414062,2.38044822680202,0.416832920756247,0.188669481187181,ST
2.23333333333333,3.41061115264893,-1.78426051139832,9.38845252990723,1.31098401546478,2.46190595626831,0.114329993724823,-1356.30004882812,11.7000007629395,-873.300048828125,2.38091420069542,0.340669192189143,0.185403929716521,ST
2.26666666666667,3.66362571716309,-1.7423905134201,9.44288349151611,1.18140995502472,1.35671591758728,0.243903994560242,-1380.30004882812,11.1000003814697,-880.500061035156,2.38048791407231,0.361500963532314,0.180536214674331,ST
2.3,3.76830077171326,-1.65984678268433,8.9835090637207,0.701223969459534,0.0304879993200302,0.228659987449646,-1353.90002441406,11.7000007629395,-887.700012207031,2.37768762972251,0.390294720310476,0.181606825879414,ST
2.33333333333333,3.70190691947937,-1.40144896507263,9.79279708862305,0.419209986925125,-0.777444005012512,0.3125019967556,-1356.30004882812,6.30000019073486,-885.300048828125,2.38907014136375,0.360190281634749,0.14276555368191,ST
2.36666666666667,3.77368402481079,-1.28600740432739,8.91233062744141,0.480185985565186,-1.15092194080353,1.72257196903229,-1375.5,13.5000009536743,-890.100036621094,2.3778676054385,0.397716707633047,0.14381012786237,ST
2.4,3.63431668281555,-1.66463184356689,8.87823581695557,-0.282013982534409,0.0609759986400604,1.65397393703461,-1356.30004882812,15.9000005722046,-887.700012207031,2.35467190154048,0.38233352701969,0.185807788969856,ST
2.43333333333333,3.63012957572937,-1.82433605194092,8.84892749786377,-0.541162014007568,0.121951997280121,1.2423859834671,-1358.70007324219,9.90000057220459,-890.100036621094,2.34297932514832,0.381424699480006,0.204570873034075,ST
2.46666666666667,3.42137789726257,-1.81476581096649,8.54686450958252,-0.327746003866196,0.0914639979600906,1.12805593013763,-1375.5,17.7000007629395,-890.100036621094,2.33593968828605,0.372840344258208,0.210414202503896,ST
2.5,3.52605271339417,-1.89372062683105,8.2621488571167,-0.342989981174469,0.228659987449646,1.43293595314026,-1363.5,9.90000057220459,-878.100036621094,2.32376546536405,0.392839991742262,0.226537658415922,ST
2.53333333333333,3.56373572349548,-1.9206371307373,9.13842868804932,-0.289635986089706,-0.0762199983000755,1.18903195858002,-1361.10009765625,6.30000019073486,-878.100036621094,2.3248702375074,0.364864966575727,0.20882259628391,ST
2.56666666666667,3.46264958381653,-1.95114243030548,8.68982124328613,-0.205793991684914,-0.213415995240211,1.18903195858002,-1361.10009765625,13.5000009536743,-873.300048828125,2.31443179732542,0.370595373257283,0.221771240973884,ST
2.6,3.31730103492737,-2.32378554344177,8.76458930969238,-0.365855991840363,0.442075997591019,1.22714197635651,-1368.30004882812,14.7000007629395,-882.900024414062,2.29654882596702,0.350016614709566,0.259451894870007,ST
2.63333333333333,3.01224803924561,-2.42128276824951,8.79868316650391,-0.106707997620106,0.602137982845306,1.06708002090454,-1361.10009765625,20.7000007629395,-890.100036621094,2.28933072986996,0.318204309483508,0.268968489293461,ST
2.66666666666667,3.71446776390076,-3.01643490791321,7.51147937774658,-0.282013982534409,-0.106707997620106,1.82927989959717,-1351.5,17.1000003814697,-894.900024414062,2.24086996507592,0.426253130815111,0.380440967126794,ST
2.7,4.08591461181641,-3.44291090965271,8.07313537597656,-0.320124000310898,-0.419209986925125,1.05183601379395,-1353.90002441406,17.7000007629395,-878.100036621094,2.22591226749607,0.435491692873686,0.404151168250808,ST
2.73333333333333,4.26117038726807,-3.78445053100586,9.03554725646973,-0.182927995920181,-0.884151995182037,0.663114011287689,-1365.90002441406,16.5,-887.700012207031,2.22436328711414,0.411931538899093,0.397865510806612,ST
2.76666666666667,3.68515872955322,-3.99320244789124,8.84294605255127,-0.579271972179413,-0.358233988285065,0.137196004390717,-1373.10009765625,18.9000015258789,-875.700012207031,2.21403322970708,0.364771643592251,0.424621862464058,ST
2.8,3.15699863433838,-3.59902620315552,9.43630313873291,-0.297257989645004,0.655492007732391,0.0381099991500378,-1363.5,21.3000011444092,-880.500061035156,2.23489560100223,0.303191208896588,0.36599750087216,ST
2.83333333333333,3.68635511398315,-3.83290004730225,8.82559967041016,-0.0914639979600906,-0.144817993044853,0.945127964019775,-1361.10009765625,18.3000011444092,-878.100036621094,2.2160137821583,0.364161054493696,0.409544042121748,ST
2.86666666666667,3.82811498641968,-3.48358464241028,9.06904411315918,0.342989981174469,-1.43293595314026,0.990859985351562,-1356.30004882812,11.1000003814697,-882.900024414062,2.22273982508673,0.37683482786165,0.367901374165452,ST
2.9,3.49494934082031,-3.08821225166321,8.43919944763184,0.586893975734711,-1.64635193347931,1.37195992469788,-1377.90002441406,18.3000011444092,-887.700012207031,2.21865656070883,0.372890496157874,0.351501246662246,ST
2.93333333333333,3.05950140953064,-2.77239274978638,8.09885597229004,0.731711983680725,-0.640248000621796,1.79879200458527,-1349.10009765625,15.3000001907349,-882.900024414062,2.21549139254989,0.34409711545074,0.330328537677076,ST
2.96666666666667,2.95542430877686,-2.62345504760742,8.06954669952393,0.594515979290009,0.457319974899292,1.31098401546478,-1363.5,23.1000003814697,-885.300048828125,2.21438208273941,0.333973588544157,0.314404755611364,ST
3.0,2.84656238555908,-2.82562732696533,8.54746341705322,0.487807989120483,0.221037998795509,0.221037998795509,-1365.90002441406,21.9000015258789,-868.500061035156,2.21164919602416,0.306532597710793,0.31838970521504,ST
3.03333333333333,2.98353719711304,-2.77957034111023,8.70716762542725,0.548784017562866,-0.602137982845306,-0.716467976570129,-1358.70007324219,16.5,-875.700012207031,2.21639495860514,0.316619015075164,0.308049825875058,ST
3.06666666666667,3.20784068107605,-2.87527322769165,8.96018123626709,0.663114011287689,-0.830797970294952,-0.160062000155449,-1356.30004882812,21.9000015258789,-875.700012207031,2.21438162995555,0.329637850693008,0.309379421827278,ST
3.1,3.80598378181458,-2.77059817314148,9.53439903259277,0.762199997901917,-1.01372599601746,0.0,-1361.10009765625,19.5,-882.900024414062,2.22079224195116,0.366715539224143,0.282424457948755,ST
3.13333333333333,4.14034557342529,-2.73650407791138,9.36153602600098,0.754577994346619,-1.44055795669556,0.87652999162674,-1356.30004882812,20.7000007629395,-894.900024414062,2.21276731563246,0.402439149685754,0.28394750881561,ST
3.16666666666667,4.36764001846313,-2.75923347473145,8.24899005889893,0.342989981174469,-0.6250039935112,1.39482593536377,-1375.5,20.7000007629395,-873.300048828125,2.18815889004361,0.464314363262682,0.322669787408164,ST
3.2,3.68037366867065,-2.58756637573242,8.67845630645752,0.358233988285065,0.952749967575073,1.01372599601746,-1353.90002441406,12.3000001907349,-873.300048828125,2.19736918870257,0.385820733579908,0.29041218609932,ST
3.23333333333333,3.13606357574463,-3.05411791801453,8.53789234161377,0.365855991840363,1.02134799957275,0.777444005012512,-1356.30004882812,20.1000003814697,-868.500061035156,2.17628329463025,0.331841701132335,0.342202705984327,ST
3.26666666666667,2.97456502914429,-3.05052924156189,8.01870441436768,0.533540010452271,1.44055795669556,1.28049600124359,-1361.10009765625,15.3000001907349,-866.100036621094,2.16507942379408,0.330628570922793,0.362568493597039,ST
3.3,2.82084226608276,-3.14443755149841,9.10074520111084,0.983237981796265,1.44055795669556,1.28811800479889,-1363.5,23.1000003814697,-897.300048828125,2.16915085394332,0.283200890592043,0.332183791012232,ST
3.33333333333333,2.62465143203735,-2.96918177604675,8.79808521270752,1.82165801525116,0.853663980960846,1.79879200458527,-1358.70007324219,18.9000015258789,-885.300048828125,2.16189239458051,0.273335716649653,0.323251217489522,ST
3.36666666666667,2.90518045425415,-2.34113168716431,9.31607723236084,2.69056582450867,0.3125019967556,3.05642199516296,-1361.10009765625,16.5,-894.900024414062,2.16451014227336,0.291474686980604,0.244679034220803,ST
3.4,3.29516959190369,-2.13297772407532,8.64196968078613,2.12653803825378,-0.266770005226135,3.49087595939636,-1356.30004882812,17.1000003814697,-863.700012207031,2.14528806400484,0.351856538303308,0.240559058790676,ST
3.43333333333333,3.89032196998596,-1.87637448310852,8.42544174194336,1.79879200458527,-0.320124000310898,4.15398979187012,-1365.90002441406,14.1000003814697,-892.500061035156,2.12982374223052,0.420465382188802,0.219755957185109,ST
3.46666666666667,4.57041025161743,-1.87218749523163,8.91233062744141,1.39482593536377,-0.525918006896973,3.07166600227356,-1358.70007324219,17.7000007629395,-885.300048828125,2.11731959810202,0.463717087518359,0.207660840095986,ST
3.5,4.76002168655396,-1.53423666954041,8.05279922485352,1.29574000835419,-0.655492007732391,2.01220798492432,-1361.10009765625,23.7000007629395,-875.700012207031,2.11249467902404,0.525405156025027,0.188475740129254,ST
3.53333333333333,5.38089418411255,-2.09649109840393,7.85182285308838,0.152439996600151,-0.198172003030777,1.34909391403198,-1363.5,17.7000007629395,-890.100036621094,2.06805529726244,0.583201031342129,0.260385372609843,ST
3.56666666666667,4.97056818008423,-2.11981868743896,8.02887344360352,-0.0381099991500378,0.868907988071442,0.0076219998300075,-1356.30004882812,17.1000003814697,-894.900024414062,2.07050656470404,0.538608860191647,0.25801448544323,ST
3.6,4.47769832611084,-2.13776302337646,9.41297626495361,0.297257989645004,1.76830399036407,-0.266770005226135,-1353.90002441406,19.5,-885.300048828125,2.08937229336926,0.433981861411658,0.223083843147566,ST
3.63333333333333,4.44480037689209,-2.17484784126282,8.86986255645752,0.434453994035721,1.70732796192169,-0.213415995240211,-1351.5,23.1000003814697,-887.700012207031,2.0845339892594,0.449701656014221,0.238735552996327,ST
3.66666666666667,3.78803944587708,-2.22688627243042,8.80765533447266,-0.160062000155449,3.10977602005005,-0.586893975734711,-1346.70007324219,12.3000001907349,-899.700012207031,2.08788548164789,0.39165360125253,0.246739373081565,ST
3.7,3.08581948280334,-2.58278131484985,9.63967227935791,-0.396344006061554,3.03355598449707,-0.693601965904236,-1329.90002441406,17.1000003814697,-892.500061035156,2.09137990349692,0.29682147242852,0.261428383944937,ST
3.73333333333333,3.45726633071899,-1.9248241186142,8.06894874572754,0.236281991004944,1.54726600646973,-0.0533539988100529,-1337.10009765625,9.90000057220459,-892.500061035156,2.10240459803049,0.390553120913482,0.23399940164801,ST
3.76666666666667,2.71616721153259,-2.16408133506775,9.20063495635986,0.0457319989800453,2.4923939704895,-0.152439996600151,-1329.90002441406,18.9000015258789,-899.700012207031,2.10733034934455,0.277727432929647,0.230633988540158,ST
3.8,2.82981443405151,-2.03667688369751,8.54447269439697,-0.152439996600151,2.4923939704895,-0.716467976570129,-1339.5,15.3000001907349,-906.900024414062,2.11304351995359,0.306901462637522,0.233482875734695,ST
3.83333333333333,2.551677942276,-2.05462121963501,9.09177303314209,0.0838419944047928,2.45428395271301,-0.777444005012512,-1341.90002441406,15.3000001907349,-904.500061035156,2.1227292606208,0.264515798290776,0.221808457683042,ST
3.86666666666667,2.8782639503479,-2.22808265686035,8.25676536560059,0.175305992364883,2.01220798492432,-0.556405961513519,-1339.5,17.1000003814697,-911.700012207031,2.11614165068669,0.319952224354131,0.261529261169953,ST
3.9,3.35976910591125,-2.38898301124573,9.16235446929932,-0.259148001670837,1.86738991737366,-1.53202199935913,-1339.5,11.7000007629395,-906.900024414062,2.12842624345631,0.337987066057837,0.254517676355412,ST
3.93333333333333,3.49375319480896,-2.05701375007629,9.31966590881348,-0.190549999475479,1.85976791381836,-1.41006994247437,-1310.70007324219,20.1000003814697,-909.300048828125,2.15090433953525,0.348104817450369,0.217133111976046,ST
3.96666666666667,3.45547199249268,-2.03308796882629,9.04033279418945,0.259148001670837,1.53202199935913,-0.663114011287689,-1329.90002441406,17.7000007629395,-918.900024414062,2.15459045755556,0.35446736959785,0.22006978737936,ST
4.0,2.68925070762634,-2.21073651313782,9.35794639587402,-0.121951997280121,2.33233189582825,-1.00610399246216,-1332.30004882812,18.3000011444092,-911.700012207031,2.1588368076766,0.271469910783141,0.2311504868271,ST
4.03333333333333,1.99061977863312,-2.30404663085938,9.97044563293457,0.167683988809586,2.02745199203491,-0.731711983680725,-1317.90002441406,16.5,-916.500061035156,2.16599989534875,0.190674281932665,0.226503752996036,ST
4.06666666666667,1.15022897720337,-1.93020737171173,9.71085071563721,0.655492007732391,2.14940404891968,-0.541162014007568,-1332.30004882812,14.7000007629395,-914.100036621094,2.17548084217097,0.113790381850752,0.195520265135294,ST
4.1,1.34283101558685,-1.88115966320038,9.09177303314209,0.746955990791321,1.37958192825317,1.08994603157043,-1322.70007324219,9.90000057220459,-916.500061035156,2.16984035064203,0.140253121070446,0.202739655271371,ST
4.13333333333333,1.47621691226959,-1.57550859451294,9.72460842132568,0.899396002292633,1.59299790859222,1.19665396213531,-1313.10009765625,22.5,-930.900024414062,2.17012097730295,0.145563673877396,0.160066837396942,ST
4.16666666666667,2.06419134140015,-1.87278568744659,9.13543796539307,0.571649968624115,0.708845973014832,0.990859985351562,-1298.70007324219,21.3000011444092,-926.100036621094,2.15753640826158,0.21501191552398,0.200754523958897,ST
4.2,1.8105788230896,-1.55158281326294,9.36512470245361,0.975615978240967,0.510673999786377,0.564027965068817,-1315.5,12.3000001907349,-906.900024414062,2.16160533542395,0.188178330292793,0.163674223013377,ST
4.23333333333333,2.05761170387268,-1.94934797286987,9.39084434509277,0.419209986925125,0.685979962348938,-0.304879993200302,-1291.5,17.1000003814697,-921.300048828125,2.15563780882915,0.209666821817836,0.202683184005049,ST
4.26666666666667,1.48518896102905,-1.67898726463318,9.23831844329834,0.891773998737335,0.800309956073761,-0.106707997620106,-1298.70007324219,15.9000005722046,-921.300048828125,2.16054569131371,0.156653640357002,0.178658963781472,ST
4.3,1.82613050937653,-1.65565979480743,9.03973484039307,1.37195992469788,1.30336201190948,0.746955990791321,-1308.30004882812,9.90000057220459,-933.300048828125,2.15629572710709,0.193013886067566,0.178914062059524,ST
4.33333333333333,1.87637448310852,-1.85843026638031,9.28736591339111,1.42531394958496,0.724089980125427,1.31860601902008,-1305.90002441406,15.3000001907349,-923.700012207031,2.14589749077333,0.193870875107266,0.194952756630425,ST
4.36666666666667,2.02291941642761,-1.90209460258484,9.54755783081055,0.990859985351562,0.663114011287689,0.914639949798584,-1289.10009765625,15.3000001907349,-928.500061035156,2.14032437038709,0.203284848498544,0.195190328935989,ST
4.4,1.64788389205933,-1.62336003780365,10.4567356109619,1.40244793891907,1.07470202445984,0.640248000621796,-1293.90002441406,18.3000011444092,-928.500061035156,2.14404455913374,0.15337447175738,0.152476515956013,ST
4.43333333333333,1.87517821788788,-1.55935871601105,9.96865081787109,0.975615978240967,0.548784017562866,-0.121951997280121,-1291.5,10.5,-933.300048828125,2.14406954812524,0.182136812452083,0.15337834297422,ST
4.46666666666667,1.37871956825256,-1.12450873851776,9.6043815612793,0.617381989955902,0.388722002506256,-0.426831990480423,-1284.30004882812,11.7000007629395,-930.900024414062,2.15197411711123,0.142158402439581,0.116384189159625,ST
4.5,0.954038023948669,-1.0856294631958,9.27899169921875,0.739333987236023,0.518296003341675,0.975615978240967,-1284.30004882812,15.9000005722046,-923.700012207031,2.14697659053718,0.101800816205951,0.115376312945928,ST
4.53333333333333,0.776987731456757,-1.08862018585205,9.02777194976807,1.13567793369293,0.434453994035721,3.53660798072815,-1284.30004882812,12.9000005722046,-935.700012207031,2.12828458602309,0.0842495472294626,0.118458219469024,ST
4.56666666666667,1.80399918556213,-1.64788389205933,8.46970462799072,0.144817993044853,-0.205793991684914,4.33691787719727,-1296.30004882812,11.1000003814697,-938.100036621094,2.09570615787156,0.201783819650228,0.191284261964618,ST
4.6,1.34641981124878,-1.34761607646942,9.24429988861084,0.0228659994900227,0.243903994560242,4.04728174209595,-1291.5,16.5,-928.500061035156,2.08305098353435,0.143291383838561,0.146981347055693,ST
4.63333333333333,2.04684519767761,-1.61079907417297,8.88062858581543,0.114329993724823,-0.0838419944047928,4.51222372055054,-1293.90002441406,17.7000007629395,-928.500061035156,2.05427786572722,0.219636549577957,0.17997923558711,ST
4.66666666666667,1.65745413303375,-1.80698990821838,9.65641975402832,-0.0076219998300075,0.25152599811554,3.39178991317749,-1289.10009765625,14.7000007629395,-926.100036621094,2.03587626606279,0.166898155581712,0.185854694835223,ST
4.7,1.6544634103775,-1.68197798728943,10.0703353881836,0.266770005226135,0.792688012123108,3.55947399139404,-1286.70007324219,18.9000015258789,-928.500061035156,2.02153536944967,0.158480714785539,0.166515804917152,ST
4.73333333333333,2.46913409233093,-2.16946458816528,9.56071758270264,0.129574000835419,0.388722002506256,6.37961387634277,-1279.5,14.7000007629395,-940.500061035156,1.97676758849694,0.241876690646206,0.224241981599046,ST
4.76666666666667,2.43324565887451,-1.97865700721741,9.82330226898193,1.02897000312805,0.830797970294952,1.98934197425842,-1286.70007324219,23.1000003814697,-942.900024414062,1.97208711131947,0.236222643099676,0.198268934322974,ST
4.8,1.74119424819946,-1.81715834140778,9.55952072143555,0.403965979814529,1.55488801002502,0.0152439996600151,-1284.30004882812,19.5,-935.700012207031,1.97534146204775,0.176074681361146,0.187359522986272,ST
4.83333333333333,1.26447427272797,-2.00976037979126,9.15278339385986,0.137196004390717,2.33233189582825,-0.518296003341675,-1281.90002441406,18.3000011444092,-942.900024414062,1.97606927816291,0.131585605920326,0.214906157396085,ST
4.86666666666667,0.442027658224106,-1.64190244674683,8.94702243804932,-0.182927995920181,2.5152599811554,-1.53964400291443,-1289.10009765625,16.5,-942.900024414062,1.98933215566734,0.0471008873776533,0.182529674532421,ST
4.9,-0.388194799423218,-1.71487593650818,9.92977142333984,0.167683988809586,2.15702605247498,-1.02134799957275,-1277.10009765625,15.9000005722046,-935.700012207031,1.99654168249407,-0.0394850426114257,0.171119539381503,ST
4.93333333333333,-0.126208171248436,-2.05820989608765,9.51765060424805,0.175305992364883,0.0228659994900227,-0.365855991840363,-1277.10009765625,17.1000003814697,-940.500061035156,1.99951702019107,-0.0135940071653819,0.211545937157963,ST
4.96666666666667,-0.154320880770683,-2.96379852294922,9.78502082824707,-0.853663980960846,-1.20427596569061,-0.754577994346619,-1262.70007324219,14.7000007629395,-947.700012207031,2.00266089776828,-0.0127332147876497,0.293314011571173,ST
5.0,0.388194799423218,-3.07924008369446,10.4776706695557,-1.16616594791412,-4.22258806228638,-1.6768399477005,-1272.30004882812,21.3000011444092,-938.100036621094,2.00496384544684,0.0418996678640406,0.287998148194274,ST
5.03333333333333,1.55158281326294,-3.34122657775879,8.6623067855835,-1.12805593013763,-5.5030837059021,-1.45580196380615,-1274.70007324219,21.9000015258789,-935.700012207031,1.99473624596226,0.171812747582093,0.36801470930023,ST
5.06666666666667,1.4660484790802,-2.92790985107422,9.12646579742432,-0.25152599811554,-3.84910988807678,-1.11281192302704,-1293.90002441406,18.9000015258789,-945.300048828125,2.00311791360637,0.159131423541867,0.312464900022029,ST
5.1,1.81177508831024,-2.51100420951843,8.87105846405029,1.01372599601746,-1.78354799747467,0.205793991684914,-1286.70007324219,22.5,-930.900024414062,2.00467106742028,0.196347446862585,0.274906239201325,ST
5.13333333333333,1.64967834949493,-1.59704172611237,9.0313606262207,1.92836594581604,-0.746955990791321,0.25152599811554,-1296.30004882812,19.5,-926.100036621094,2.01957057095646,0.179655636455205,0.174579528811176,ST
5.16666666666667,2.31660771369934,-1.22559499740601,9.32863807678223,2.20275783538818,-0.602137982845306,0.327746003866196,-1298.70007324219,16.5,-928.500061035156,2.02420931693501,0.24140401321503,0.127711676621402,ST
5.2,2.02650833129883,-0.684873700141907,9.45424747467041,1.92836594581604,-0.411587983369827,-0.830797970294952,-1298.70007324219,14.7000007629395,-921.300048828125,2.03904633796002,0.212161169781044,0.0700428357778091,ST
5.23333333333333,2.00258255004883,-0.997702479362488,9.87414455413818,1.42531394958496,-0.0381099991500378,-0.182927995920181,-1305.90002441406,15.3000001907349,-930.900024414062,2.03287049538016,0.199563259423142,0.0973877034811446,ST
5.26666666666667,1.64967834949493,-1.38051402568817,10.0625591278076,0.670735955238342,0.46494197845459,0.724089980125427,-1298.70007324219,14.7000007629395,-933.300048828125,2.02226113498622,0.161124826224239,0.13433763251383,ST
5.3,1.81297135353088,-2.18561434745789,10.6068696975708,-0.228659987449646,1.05945801734924,2.33233189582825,-1301.10009765625,14.7000007629395,-942.900024414062,1.99931309691301,0.163225439362744,0.203114349748983,ST
5.33333333333333,1.77827906608582,-2.34591674804688,9.88730335235596,-0.190549999475479,1.34147191047668,2.70580983161926,-1296.30004882812,15.9000005722046,-930.900024414062,1.98179064447905,0.169745429174024,0.233343870031286,ST
5.36666666666667,0.775193274021149,-2.09409856796265,9.0911750793457,0.510673999786377,2.89635992050171,2.03507399559021,-1291.5,18.9000015258789,-940.500061035156,1.97494442274011,0.0788433751302493,0.225843891757107,ST
5.4,0.302660346031189,-1.43733751773834,9.1982421875,1.17378795146942,3.46038794517517,1.02134799957275,-1284.30004882812,23.1000003814697,-947.700012207031,1.97640387126694,0.0276811624601577,0.154966294028273,ST
5.43333333333333,0.126806303858757,-0.830820560455322,8.24300861358643,1.77592599391937,2.25611186027527,0.960371971130371,-1286.70007324219,19.5,-940.500061035156,1.97376582558207,0.0116618840324012,0.098935177248512,ST
5.46666666666667,0.433055520057678,-1.06230187416077,8.1251745223999,1.2576299905777,0.579271972179413,2.62196803092957,-1274.70007324219,19.5,-947.700012207031,1.95786185678707,0.0506048468599194,0.127566792949154,ST
5.5,0.421092659235001,-1.49595558643341,9.01521110534668,-0.0381099991500378,-0.160062000155449,2.12653803825378,-1281.90002441406,22.5,-945.300048828125,1.94511676376707,0.0458630524206251,0.163668279430977,ST
5.53333333333333,0.785361707210541,-2.67310094833374,9.94293022155762,-0.571649968624115,-1.64635193347931,2.45428395271301,-1265.10009765625,14.1000003814697,-933.300048828125,1.92500963764455,0.0769780979111547,0.261258604285511,ST
5.56666666666667,1.97805881500244,-2.77299070358276,10.314377784729,-0.160062000155449,-3.14026403427124,1.79879200458527,-1277.10009765625,13.5000009536743,-940.500061035156,1.91056344630712,0.185602195094955,0.263680979846067,ST
5.6,1.85125243663788,-1.53842377662659,10.2198705673218,1.37958192825317,-1.60061991214752,1.28811800479889,-1291.5,15.3000001907349,-930.900024414062,1.92124505563179,0.17977612266172,0.149576510286583,ST
5.63333333333333,1.01744115352631,-1.2578946352005,9.6342887878418,1.82165801525116,0.221037998795509,0.419209986925125,-1277.10009765625,18.9000015258789,-935.700012207031,1.92121683531372,0.105924376906168,0.127348449149648,ST
5.66666666666667,0.658555388450623,-1.41042113304138,9.74315071105957,1.54726600646973,0.0914639979600906,1.07470202445984,-1269.90002441406,20.1000003814697,-935.700012207031,1.91379049342886,0.0673153357133309,0.140864480555802,ST
5.7,0.893027484416962,-1.50373148918152,8.57378101348877,0.914639949798584,-0.960371971130371,1.70732796192169,-1281.90002441406,18.9000015258789,-940.500061035156,1.90032146007435,0.102734886525423,0.17178061217012,ST
5.73333333333333,0.805100440979004,-2.131183385849,8.61983871459961,1.02134799957275,-1.01372599601746,2.42379593849182,-1281.90002441406,23.1000003814697,-940.500061035156,1.87992998554023,0.091489952352451,0.239138594032297,ST
5.76666666666667,1.47382426261902,-2.20834374427795,8.54148197174072,0.861285984516144,-0.571649968624115,2.05031800270081,-1279.5,14.1000003814697,-935.700012207031,1.86677726431881,0.163588223318263,0.251734174715101,ST
5.8,1.88534665107727,-2.20894193649292,9.48594951629639,1.19665396213531,-1.09756803512573,2.01982998847961,-1284.30004882812,16.5,-940.500061035156,1.85850486230956,0.191489727689251,0.228101826201429,ST
5.83333333333333,2.07555603981018,-2.14494061470032,10.2778902053833,0.99848198890686,-1.28049600124359,0.266770005226135,-1274.70007324219,14.7000007629395,-935.700012207031,1.85920171483717,0.197123878691499,0.204749477619715,ST
5.86666666666667,2.20654940605164,-0.983945190906525,10.1462993621826,1.81403601169586,-1.21189796924591,-1.6920839548111,-1277.10009765625,12.3000001907349,-935.700012207031,1.88749164768973,0.215166738856877,0.0955887945133725,ST
5.9,1.56175124645233,-0.232677608728409,9.26044940948486,2.9116039276123,-0.0076219998300075,-0.922261953353882,-1289.10009765625,17.7000007629395,-945.300048828125,1.9035124650566,0.168400955927172,0.021811101297555,ST
5.93333333333333,0.976169347763062,0.294286340475082,9.63548469543457,3.52898597717285,1.18140995502472,0.320124000310898,-1277.10009765625,12.3000001907349,-935.700012207031,1.90717300761961,0.100770083048832,-0.0350423127692893,ST
5.96666666666667,1.3841028213501,0.528160214424133,9.7598991394043,3.63569402694702,0.426831990480423,1.55488801002502,-1293.90002441406,11.1000003814697,-940.500061035156,1.89958959641723,0.139016342970117,-0.0593536182755384,ST
6.0,1.63592100143433,1.04256319999695,9.76528167724609,2.40092992782593,-0.960371971130371,0.320124000310898,-1289.10009765625,14.1000003814697,-935.700012207031,1.90402284517572,0.166035267688697,-0.109090895823655,ST
6.03333333333333,1.92123520374298,1.25430583953857,9.84304046630859,1.28049600124359,-1.40244793891907,-0.0685980021953583,-1284.30004882812,5.10000038146973,-940.500061035156,1.90749385681172,0.19291642178409,-0.128519743462538,ST
6.06666666666667,2.24602675437927,1.02701151371002,9.41835880279541,0.221037998795509,-1.05945801734924,-0.228659987449646,-1281.90002441406,6.30000019073486,-933.300048828125,1.90502038755662,0.233432284100968,-0.109672984864673,ST
6.1,1.7866530418396,0.379222631454468,9.449462890625,-1.04421401023865,0.266770005226135,-1.48628997802734,-1286.70007324219,15.3000001907349,-945.300048828125,1.89914029011911,0.187436985588357,-0.0406979274442421,ST
6.13333333333333,1.81177508831024,-0.262584775686264,9.49432373046875,-1.50915598869324,0.586893975734711,-1.44055795669556,-1281.90002441406,8.70000076293945,-938.100036621094,1.89516748694188,0.187528980514858,0.0278818151599651,ST
6.16666666666667,1.33505511283875,-0.504832684993744,9.44707012176514,-1.85214591026306,0.640248000621796,-2.5076379776001,-1298.70007324219,11.7000007629395,-933.300048828125,1.90643384169448,0.14018189513362,0.0554755477387547,ST
6.2,0.757847130298615,-0.717771589756012,10.0960550308228,-2.10367202758789,1.05183601379395,-2.72105383872986,-1286.70007324219,10.5,-938.100036621094,1.920338762998,0.0748412288727703,0.0738094808154184,ST
6.23333333333333,1.4941611289978,-1.14245307445526,10.3951263427734,-1.88263392448425,0.342989981174469,-2.27897787094116,-1284.30004882812,12.3000001907349,-933.300048828125,1.9304947858929,0.140543713374815,0.111503246061064,ST
6.26666666666667,1.69693160057068,-1.12032175064087,9.85799407958984,-1.76830399036407,-0.304879993200302,-3.26983785629272,-1279.5,9.90000057220459,-940.500061035156,1.94782778958745,0.169761068359498,0.115197875519421,ST
6.3,1.2818204164505,-1.17893981933594,9.23173904418945,-1.61586391925812,0.0228659994900227,-3.33843588829041,-1284.30004882812,14.7000007629395,-930.900024414062,1.96399241164715,0.138447878564209,0.128638901674539,ST
6.33333333333333,0.678892254829407,-1.13527536392212,9.34119892120361,-0.541162014007568,0.647870004177094,-1.07470202445984,-1286.70007324219,11.1000003814697,-945.300048828125,1.97125579735067,0.0725235113957006,0.121873644930599,ST
6.36666666666667,0.896616339683533,-1.42358028888702,9.30830097198486,-0.617381989955902,0.609759986400604,-0.647870004177094,-1286.70007324219,13.5000009536743,-940.500061035156,1.97280570181093,0.0934610357567621,0.1518797783279,ST
6.4,0.679490387439728,-1.12749946117401,9.22157001495361,-0.37347799539566,0.411587983369827,0.236281991004944,-1267.5,6.90000009536743,-942.900024414062,1.97441570824217,0.0728237316979199,0.123142068964941,ST
6.43333333333333,1.49535739421844,-1.46365582942963,9.18747615814209,-1.07470202445984,-0.358233988285065,-0.129574000835419,-1289.10009765625,7.50000047683716,-945.300048828125,1.9714296418576,0.15764499145974,0.158833469422702,ST
6.46666666666667,1.66702449321747,-1.52227389812469,9.07861423492432,-1.05945801734924,-1.15854394435883,-0.541162014007568,-1284.30004882812,12.9000005722046,-933.300048828125,1.97288485466951,0.180875843688013,0.167709610498967,ST
6.5,1.48518896102905,-1.67121148109436,9.20841121673584,-0.830797970294952,-0.114329993724823,-1.07470202445984,-1296.30004882812,12.3000001907349,-933.300048828125,1.97694190206623,0.158458522801525,0.180383032771243,ST
6.53333333333333,1.48279643058777,-1.64608943462372,9.59720420837402,-0.586893975734711,0.0076219998300075,-1.15854394435883,-1274.70007324219,7.50000047683716,-947.700012207031,1.98512321523202,0.151595883664234,0.170785969981702,ST
6.56666666666667,1.31770896911621,-1.57251787185669,10.3054056167603,-0.198172003030777,-0.731711983680725,0.0762199983000755,-1272.30004882812,11.1000003814697,-942.900024414062,1.98685323989954,0.12764754980107,0.152326335097397,ST
6.6,1.14125680923462,-1.92542219161987,11.1344318389893,-0.106707997620106,-0.342989981174469,1.37195992469788,-1279.5,11.1000003814697,-942.900024414062,1.97749402869294,0.101573260581747,0.1711506453538,ST
6.63333333333333,1.12630319595337,-1.75136256217957,9.88730335235596,0.259148001670837,0.746955990791321,1.79879200458527,-1279.5,8.10000038146973,-942.900024414062,1.96768419334906,0.109721912144107,0.175102964810882,ST
6.66666666666667,1.23875403404236,-1.85543954372406,9.45843505859375,0.114329993724823,1.22714197635651,1.72257196903229,-1284.30004882812,9.30000019073486,-938.100036621094,1.95724201010757,0.124864123834528,0.193486598327643,ST
6.7,1.57072341442108,-1.66762256622314,8.89139556884766,0.175305992364883,0.411587983369827,0.807931959629059,-1279.5,15.3000001907349,-940.500061035156,1.95437568116233,0.169993474061031,0.185477264629706,ST
6.73333333333333,1.1478363275528,-1.40503787994385,8.68683052062988,0.541162014007568,0.746955990791321,0.609759986400604,-1272.30004882812,14.1000003814697,-940.500061035156,1.95530259938066,0.129384376897582,0.160226162997096,ST
6.76666666666667,1.3440272808075,-1.81775653362274,8.73288726806641,0.25152599811554,1.2576299905777,1.02134799957275,-1272.30004882812,12.3000001907349,-938.100036621094,1.9452047938594,0.146567638075081,0.203750363104957,ST
6.8,1.01923561096191,-1.10536825656891,10.134934425354,0.602137982845306,0.571649968624115,0.907018005847931,-1269.90002441406,14.1000003814697,-947.700012207031,1.9521225986035,0.0997842784058763,0.110339142637812,ST
6.83333333333333,1.06648886203766,-1.12091994285583,8.82799243927002,0.579271972179413,0.190549999475479,2.01220798492432,-1262.70007324219,3.30000019073486,-947.700012207031,1.93966375705759,0.118067736654164,0.125324102953831,ST
6.86666666666667,1.07306849956512,-1.71068894863129,9.08638954162598,-0.632625997066498,1.52439999580383,2.11891603469849,-1265.10009765625,20.7000007629395,-947.700012207031,1.92361430504719,0.112422991353085,0.185860704756476,ST
6.9,0.473729223012924,-1.32847559452057,10.3347139358521,-0.67835795879364,0.754577994346619,0.106707997620106,-1265.10009765625,14.1000003814697,-947.700012207031,1.92825555287455,0.045963808424806,0.130570401442431,ST
6.93333333333333,0.573020994663239,-1.59704172611237,9.93575286865234,-0.403965979814529,0.0533539988100529,0.411587983369827,-1260.30004882812,8.10000038146973,-935.700012207031,1.92483147191775,0.0563850614700556,0.159312961399526,ST
6.96666666666667,0.902597725391388,-1.43195426464081,9.3477783203125,-0.442075997591019,-0.762199997901917,0.152439996600151,-1262.70007324219,15.3000001907349,-945.300048828125,1.92404878820726,0.0956001745868538,0.152955498036755,ST
7.0,0.712388277053833,-1.48399269580841,9.10194206237793,-0.358233988285065,-0.632625997066498,0.480185985565186,-1272.30004882812,16.5,-942.900024414062,1.92044371232961,0.078527312592651,0.162070739520004,ST
7.03333333333333,0.587974548339844,-1.48877787590027,9.60079288482666,-0.221037998795509,0.37347799539566,0.746955990791321,-1269.90002441406,6.90000009536743,-942.900024414062,1.91752772423707,0.06011439613802,0.15451332877111,ST
7.06666666666667,1.04017066955566,-1.57550859451294,9.91421985626221,-0.106707997620106,-0.0533539988100529,0.480185985565186,-1284.30004882812,18.3000011444092,-942.900024414062,1.91482097580292,0.102035809730306,0.157774804587029,ST
7.1,1.31232571601868,-1.64848208427429,9.74255275726318,0.297257989645004,-0.114329993724823,-0.0381099991500378,-1265.10009765625,12.9000005722046,-940.500061035156,1.91367479549011,0.131425312352964,0.16683940162368,ST
7.13333333333333,1.1556122303009,-1.67779099941254,9.56610012054443,0.602137982845306,-0.0609759986400604,-0.655492007732391,-1272.30004882812,14.1000003814697,-950.100036621094,1.91605292076742,0.118993585499321,0.172323189791611,ST
7.16666666666667,0.698032855987549,-1.68676316738129,9.24190711975098,0.518296003341675,0.571649968624115,-0.701223969459534,-1262.70007324219,20.7000007629395,-942.900024414062,1.91957234492707,0.0742231181026108,0.179385743273473,ST
7.2,0.388194799423218,-1.80639171600342,9.20242977142334,0.259148001670837,1.04421401023865,0.0076219998300075,-1269.90002441406,11.7000007629395,-950.100036621094,1.91975271174638,0.0402966159183208,0.193075342466503,ST
7.23333333333333,0.421690791845322,-1.79502701759338,9.08040809631348,0.152439996600151,0.990859985351562,0.228659987449646,-1253.10009765625,11.1000003814697,-935.700012207031,1.91946697233496,0.0436704835852365,0.194858043871341,ST
7.26666666666667,0.545506417751312,-1.86381351947784,9.39503192901611,-0.259148001670837,0.335367977619171,0.403965979814529,-1257.90002441406,15.3000001907349,-954.900024414062,1.91775257426573,0.0558400414494788,0.196284300288433,ST
7.3,0.74050098657608,-2.08572459220886,9.02836990356445,-0.861285984516144,-0.6250039935112,0.419209986925125,-1265.10009765625,9.30000019073486,-947.700012207031,1.91312772174541,0.0799702155276347,0.227733171407208,ST
7.33333333333333,0.0921140164136887,-2.08751893043518,9.39503192901611,-0.472563982009888,0.0533539988100529,0.381099998950958,-1260.30004882812,16.5,-945.300048828125,1.91170497553591,0.0112550323256082,0.21970459126822,ST
7.36666666666667,0.420494496822357,-2.48528409004211,9.77365589141846,-0.304879993200302,0.182927995920181,0.899396002292633,-1257.90002441406,14.7000007629395,-950.100036621094,1.90670574083105,0.0401706138612828,0.248779359121723,ST
7.4,0.418700069189072,-2.19279217720032,10.2533664703369,0.3125019967556,-0.731711983680725,0.746955990791321,-1267.5,24.3000011444092,-942.900024414062,1.90314235141028,0.0408703157959853,0.210898867569438,ST
7.43333333333333,0.727940022945404,-2.1592960357666,9.77365589141846,1.05945801734924,-1.18140995502472,1.47866797447205,-1267.5,17.1000003814697,-957.300048828125,1.8937489049552,0.0731589681229536,0.215663365858706,ST
7.46666666666667,0.840390861034393,-1.98104953765869,8.97633171081543,1.28811800479889,-0.67835795879364,0.92988395690918,-1277.10009765625,19.5,-954.900024414062,1.88759539128822,0.0915327802243635,0.215145251285178,ST
7.5,0.931906759738922,-1.73222208023071,8.34887981414795,1.32622802257538,0.25152599811554,1.34147191047668,-1265.10009765625,17.7000007629395,-947.700012207031,1.88160936232802,0.107510374960069,0.202840958248098,ST
7.53333333333333,0.294286340475082,-1.9128612279892,10.2449932098389,1.44817996025085,1.28811800479889,1.73019397258759,-1253.10009765625,12.3000001907349,-964.500061035156,1.87502600110944,0.027693904241415,0.182712833494194,ST
7.56666666666667,1.10417187213898,-1.61797678470612,10.6038789749146,1.63872992992401,-0.342989981174469,1.77592599391937,-1257.90002441406,10.5,-954.900024414062,1.86713150289289,0.100656030999458,0.149779684347167,ST
7.6,1.58149003982544,-1.1095552444458,10.474081993103,2.12653803825378,-1.08232402801514,1.62348592281342,-1262.70007324219,21.3000011444092,-947.700012207031,1.86189013700587,0.149581343747071,0.103260436798053,ST
7.63333333333333,1.84945809841156,-0.351708054542542,8.61146450042725,2.56861400604248,-0.564027965068817,0.541162014007568,-1257.90002441406,16.5,-945.300048828125,1.86806594645834,0.210623386368121,0.0383767628109456,ST
7.66666666666667,1.04076874256134,-0.561058104038239,9.28437519073486,2.18751406669617,1.70732796192169,0.449698001146317,-1265.10009765625,13.5000009536743,-954.900024414062,1.86175354671318,0.11119696147229,0.0561329282801755,ST
7.7,0.844577848911285,-0.83261501789093,9.45604228973389,1.41006994247437,1.41769194602966,0.0838419944047928,-1265.10009765625,15.9000005722046,-952.500061035156,1.85837396537119,0.0869410556460146,0.0845649509133665,ST
7.73333333333333,0.653770267963409,-1.02402079105377,9.69111251831055,0.472563982009888,0.564027965068817,-0.503051996231079,-1253.10009765625,15.9000005722046,-950.100036621094,1.85958922519296,0.0666650404220949,0.103845273737943,ST
7.76666666666667,0.888242304325104,-0.901401460170746,9.54337120056152,-0.0304879993200302,-0.609759986400604,-0.990859985351562,-1241.10009765625,8.10000038146973,-952.500061035156,1.86573978748288,0.0931994328095736,0.0942314988257578,ST
7.8,0.614890992641449,-0.601731836795807,9.36033916473389,0.259148001670837,0.0457319989800453,-0.868907988071442,-1255.5,9.30000019073486,-957.300048828125,1.87292591982356,0.0659829437056696,0.0641919051657843,ST
7.83333333333333,0.662144243717194,-0.662144243717194,9.47757530212402,0.419209986925125,0.533540010452271,-0.480185985565186,-1257.90002441406,14.1000003814697,-935.700012207031,1.87513028878053,0.0686360115202748,0.068827853965059,ST
7.86666666666667,0.180041030049324,-0.778183996677399,9.59361553192139,0.320124000310898,1.55488801002502,-0.564027965068817,-1267.5,14.1000003814697,-942.900024414062,1.87812190211955,0.0175063686703567,0.0800397857952267,ST
7.9,-0.223107323050499,-0.664536833763123,10.5261201858521,0.274392008781433,1.38720393180847,-0.777444005012512,-1255.5,8.70000076293945,-954.900024414062,1.88260598561022,-0.0223632384400739,0.0630730071801743,ST
7.93333333333333,0.0490477234125137,-0.631639003753662,10.1923561096191,-0.0914639979600906,0.106707997620106,-0.6250039935112,-1267.5,12.9000005722046,-945.300048828125,1.88596147421024,0.0040417154976185,0.0620747080668585,ST
7.96666666666667,0.343932211399078,-0.566441416740417,9.00564098358154,-0.846041977405548,-0.457319974899292,-0.449698001146317,-1257.90002441406,8.10000038146973,-950.100036621094,1.88821207796059,0.0379936255315491,0.0642074716796366,ST
8.0,0.254210770130157,-0.61249840259552,9.09835243225098,-1.51677799224854,0.175305992364883,-0.632625997066498,-1253.10009765625,11.1000003814697,-945.300048828125,1.89160728376529,0.0279229096835019,0.0696800335152665,ST
8.03333333333333,0.654966533184052,-1.25968909263611,8.88481616973877,-2.31708788871765,0.495429992675781,-0.381099998950958,-1253.10009765625,6.30000019073486,-966.900024414062,1.89095371075053,0.0708894041784437,0.142781711019662,ST
8.06666666666667,1.04435765743256,-1.67779099941254,9.33342266082764,-2.95733594894409,0.182927995920181,-1.06708002090454,-1253.10009765625,9.90000057220459,-947.700012207031,1.89453167887603,0.108645303633382,0.181731816700972,ST
8.1,1.12151801586151,-1.7806715965271,9.87833118438721,-3.05642199516296,-0.990859985351562,-2.30184388160706,-1262.70007324219,8.70000076293945,-954.900024414062,1.90686549727941,0.113566208029747,0.183223602763343,ST
8.13333333333333,1.14484560489655,-1.79383075237274,9.55533409118652,-2.080806016922,-0.92988395690918,-1.83690190315247,-1253.10009765625,11.7000007629395,-952.500061035156,1.91705574439876,0.119319074017496,0.188773503286481,ST
8.16666666666667,0.940878868103027,-1.7286331653595,10.0924663543701,-0.952749967575073,0.503051996231079,-1.75305998325348,-1243.5,9.30000019073486,-942.900024414062,1.92933598544331,0.0918728105745913,0.171365482584698,ST
8.2,0.839792728424072,-1.67121148109436,10.3275365829468,-0.198172003030777,0.78506600856781,-1.28811800479889,-1253.10009765625,14.1000003814697,-962.100036621094,1.93754517282133,0.0794574481749474,0.160872488380213,ST
8.23333333333333,0.483897656202316,-1.56534016132355,9.76288986206055,-0.388722002506256,1.59299790859222,-1.18140995502472,-1243.5,13.5000009536743,-966.900024414062,1.94509129404385,0.0473814836684996,0.159572897429084,ST
8.26666666666667,0.296080768108368,-1.85962653160095,9.17072772979736,-1.14329993724823,1.92074394226074,-0.37347799539566,-1250.70007324219,11.7000007629395,-950.100036621094,1.94748198310903,0.0289865624159789,0.200866129663385,ST
8.3,-0.48449581861496,-1.90508532524109,9.38486289978027,-0.594515979290009,3.07166600227356,0.350611984729767,-1245.90002441406,13.5000009536743,-957.300048828125,1.94879760592469,-0.053615115586933,0.201324143892634,ST
8.33333333333333,-0.827829897403717,-1.85843026638031,9.67197227478027,0.243903994560242,3.50611996650696,1.34909391403198,-1238.70007324219,14.1000003814697,-966.900024414062,1.94448960188252,-0.0895511940865971,0.189555677862955,ST
8.36666666666667,-0.265575468540192,-2.48887300491333,9.23054218292236,0.25152599811554,2.46952795982361,1.55488801002502,-1231.5,18.3000011444092,-954.900024414062,1.94417614520248,-0.0341867049466355,0.260882254951768,ST
8.4,-0.227892473340034,-2.4517879486084,9.52004337310791,0.480185985565186,1.20427596569061,0.724089980125427,-1224.30004882812,15.3000001907349,-964.500061035156,1.94190369101296,-0.0257639390453976,0.25146857507171,ST
8.43333333333333,0.681882977485657,-3.06667900085449,9.49791240692139,-0.167683988809586,-2.0579400062561,-0.571649968624115,-1226.70007324219,11.7000007629395,-957.300048828125,1.94040825924291,0.0692674173455481,0.310947198863113,ST
8.46666666666667,-0.277538329362869,-1.79682147502899,9.68094444274902,0.609759986400604,-2.98782396316528,-1.35671591758728,-1226.70007324219,10.5,-966.900024414062,1.94722839639859,-0.0209568942542536,0.184796844666973,ST
8.5,0.358885794878006,-1.71966099739075,9.04152870178223,1.56251001358032,-2.09605002403259,1.00610399246216,-1236.30004882812,17.1000003814697,-954.900024414062,1.93992352174653,0.04052659610538,0.18529488299535,ST
8.53333333333333,-0.52038437128067,-1.41042113304138,9.42075157165527,2.5152599811554,0.129574000835419,0.403965979814529,-1226.70007324219,10.5,-954.900024414062,1.93802924138184,-0.0523085153598206,0.145314828638553,ST
8.56666666666667,0.0113647161051631,-2.04385447502136,10.2515726089478,2.38568592071533,0.0762199983000755,0.952749967575073,-1231.5,9.30000019073486,-962.100036621094,1.93466712267494,-0.0007974927406742,0.191331243041742,ST
8.6,0.0089721446856856,-1.31172752380371,9.75331974029541,1.44817996025085,0.259148001670837,-0.579271972179413,-1245.90002441406,9.90000057220459,-959.700012207031,1.93792600932639,0.0005682460074919,0.132590629523513,ST
8.63333333333333,-0.416905641555786,-0.817063271999359,9.32325458526611,1.01372599601746,-0.198172003030777,0.25152599811554,-1238.70007324219,14.1000003814697,-962.100036621094,1.93571107451987,-0.0429953281567902,0.0869061533785896,ST
8.66666666666667,0.0442625805735588,-1.25849282741547,8.93446159362793,0.0609759986400604,-0.358233988285065,1.63872992992401,-1245.90002441406,7.50000047683716,-945.300048828125,1.92806392629328,0.0038326665143583,0.13839114319137,ST
8.7,-0.0275145769119263,-1.50971281528473,9.62053108215332,-0.6250039935112,-1.11281192302704,1.34147191047668,-1243.5,14.1000003814697,-962.100036621094,1.92029813075879,-0.0011282337575494,0.156246757208127,ST
8.73333333333333,0.0155517170205712,-1.66762256622314,9.79698371887207,-0.365855991840363,-1.98934197425842,1.2347639799118,-1260.30004882812,18.3000011444092,-952.500061035156,1.91227330339492,0.0044719261433384,0.168897670245652,ST
8.76666666666667,0.10826388001442,-1.81297135353088,9.60318565368652,-0.0990860015153885,-3.25459384918213,1.12043392658234,-1238.70007324219,17.7000007629395,-952.500061035156,1.9033513981741,0.0159804609543854,0.186322767867281,ST
8.8,-0.24882747232914,-1.92243146896362,9.12586688995361,0.0457319989800453,-2.54574799537659,1.15092194080353,-1255.5,8.10000038146973,-966.900024414062,1.89493229474355,-0.0216804884493439,0.20691407872661,ST
8.83333333333333,-0.423485219478607,-2.27952289581299,9.56011867523193,0.884151995182037,-0.472563982009888,2.32470989227295,-1248.30004882812,11.1000003814697,-966.900024414062,1.88251211692085,-0.042798460827759,0.231897745322849,ST
8.86666666666667,-0.941477060317993,-3.35917091369629,9.84842395782471,2.04269599914551,1.47866797447205,4.1311240196228,-1257.90002441406,12.3000001907349,-969.300048828125,1.87028665619949,-0.0938561702642919,0.322675746399335,ST
8.9,-2.13477230072021,-2.03727507591248,10.0260725021362,4.12350177764893,-0.769822001457214,4.76375007629395,-1253.10009765625,12.9000005722046,-947.700012207031,1.82961544496885,-0.203461720200545,0.194771819925584,ST
8.93333333333333,1.68915569782257,-1.77887713909149,9.88072395324707,3.94819593429565,-3.82624387741089,6.02900171279907,-1248.30004882812,12.3000001907349,-940.500061035156,1.79047602010292,0.164549354330352,0.173260008819472,ST
8.96666666666667,2.31421518325806,-0.161498606204987,9.05109977722168,4.75612783432007,-5.60216999053955,2.12653803825378,-1265.10009765625,11.7000007629395,-942.900024414062,1.80477591693315,0.258022401609016,0.0139847184917375,ST
9.0,0.916953146457672,0.692051410675049,9.51286602020264,4.58844375610352,-0.350611984729767,-0.0304879993200302,-1262.70007324219,12.9000005722046,-945.300048828125,1.8179759954587,0.100875577239489,-0.0780979292337488,ST
9.03333333333333,1.38769173622131,0.61847984790802,10.9143152236938,3.47563195228577,0.0381099991500378,0.434453994035721,-1257.90002441406,14.1000003814697,-947.700012207031,1.81190468579463,0.125561464665737,-0.0630037077472139,ST
9.06666666666667,2.41589951515198,0.485692083835602,9.23951435089111,1.51677799224854,-1.2423859834671,-0.0381099991500378,-1269.90002441406,8.10000038146973,-959.700012207031,1.80936166368445,0.253971956384828,-0.0554362074974154,ST
9.1,1.15142524242401,0.43425178527832,10.3837623596191,0.106707997620106,0.487807989120483,0.129574000835419,-1253.10009765625,5.10000038146973,-954.900024414062,1.80600993109618,0.112108106841071,-0.0421836787589134,ST
9.13333333333333,2.60192203521729,-0.679490387439728,9.74494552612305,-1.44817996025085,-1.28811800479889,0.106707997620106,-1265.10009765625,5.10000038146973,-950.100036621094,1.78608196789408,0.259837297207725,0.0700991717255494,ST
9.16666666666667,1.04316139221191,-0.198583468794823,9.7718620300293,-0.579271972179413,-0.320124000310898,-1.20427596569061,-1257.90002441406,5.10000038146973,-942.900024414062,1.80212868696453,0.109705233648533,0.0219474604851044,ST
9.2,0.83560574054718,-0.619077980518341,9.30889892578125,-0.175305992364883,0.655492007732391,-0.632625997066498,-1269.90002441406,3.90000009536743,-940.500061035156,1.80134416523299,0.0888406937379073,0.0653920306198012,ST
9.23333333333333,0.266771763563156,-0.99889874458313,10.2958345413208,0.266770005226135,-0.586893975734711,-1.48628997802734,-1248.30004882812,3.90000009536743,-954.900024414062,1.80692483813701,0.0287281290102316,0.0953315917333601,ST
9.26666666666667,-0.300865918397903,-0.565245091915131,9.75750637054443,0.92988395690918,-1.46342396736145,-0.777444005012512,-1265.10009765625,15.9000005722046,-942.900024414062,1.81050813136097,-0.0265932332277461,0.057332497374285,ST
9.3,0.221911042928696,-0.839792728424072,8.52413558959961,0.693601965904236,-1.87501192092896,0.746955990791321,-1274.70007324219,11.7000007629395,-959.700012207031,1.80547421581244,0.0278860383074718,0.0962078475626706,ST
9.33333333333333,0.190209463238716,-0.888242304325104,9.25566387176514,0.297257989645004,-1.62348592281342,1.15854394435883,-1274.70007324219,5.10000038146973,-942.900024414062,1.79868090815233,0.023212568034842,0.0952367272240907,ST
9.36666666666667,0.932504892349243,-0.659153580665588,10.2264499664307,0.571649968624115,-1.85976791381836,0.975615978240967,-1267.5,5.10000038146973,-945.300048828125,1.79450520409669,0.0919488203383329,0.0644005124368305,ST
9.4,1.44989860057831,-0.0131591456010938,9.32145977020264,0.480185985565186,-2.37806391716003,-0.0381099991500378,-1269.90002441406,10.5,-942.900024414062,1.80182902096862,0.156881942364133,0.0020984239572474,ST
9.43333333333333,2.11443543434143,0.14355431497097,8.91891002655029,-0.861285984516144,-2.24848985671997,-0.708845973014832,-1269.90002441406,9.90000057220459,-942.900024414062,1.80967751922746,0.234481535683689,-0.0144160461396168,ST
9.46666666666667,2.10008001327515,0.110058307647705,9.61215782165527,-2.34757590293884,-0.861285984516144,-2.33233189582825,-1272.30004882812,12.3000001907349,-942.900024414062,1.82371974422502,0.21692749808411,-0.0083872480582784,ST
9.5,1.68556690216064,-0.251220047473907,9.51824951171875,-3.46800994873047,0.899396002292633,-4.15398979187012,-1284.30004882812,3.90000009536743,-954.900024414062,1.84297170659105,0.174623107127434,0.0304211279431379,ST
9.53333333333333,0.52935653924942,-0.251220047473907,10.780330657959,-2.35519790649414,1.37195992469788,-3.07166600227356,-1260.30004882812,7.50000047683716,-950.100036621094,1.86148497698061,0.0494620587394242,0.0271581756849588,ST
9.56666666666667,0.981552600860596,-0.421690791845322,9.76946926116943,-2.11891603469849,0.746955990791321,-1.70732796192169,-1257.90002441406,7.50000047683716,-945.300048828125,1.86997287812538,0.0975258082197744,0.0460237376747364,ST
9.6,1.36675667762756,-0.392979919910431,9.50927734375,-1.80641400814056,0.289635986089706,-0.746955990791321,-1269.90002441406,5.10000038146973,-947.700012207031,1.87526968474667,0.140968151943969,0.0443233927891177,ST
9.63333333333333,1.71068894863129,-0.886447906494141,9.06007194519043,-2.22562384605408,0.205793991684914,-0.350611984729767,-1277.10009765625,8.70000076293945,-957.300048828125,1.87012946950579,0.184245024519014,0.0997378291375948,ST
9.66666666666667,1.37991583347321,-1.22738933563232,9.56789493560791,-2.40855193138123,1.35671591758728,-0.320124000310898,-1272.30004882812,17.7000007629395,-940.500061035156,1.86948614819825,0.141021055688865,0.130799422035352,ST
9.7,3.00028514862061,-1.85783207416534,8.89079666137695,-3.15550804138184,0.655492007732391,-0.403965979814529,-1269.90002441406,9.90000057220459,-945.300048828125,1.85865629938433,0.313203384001872,0.208961606214605,ST
9.73333333333333,1.84646737575531,-1.35898077487946,9.4847526550293,-2.59148001670837,0.975615978240967,-3.39178991317749,-1272.30004882812,11.7000007629395,-947.700012207031,1.89491706441675,0.192979636156728,0.147253037022628,ST
9.76666666666667,1.40922486782074,-1.66523003578186,9.3896484375,-2.32470989227295,1.09756803512573,-3.55185198783875,-1269.90002441406,5.70000028610229,-947.700012207031,1.91054039666502,0.147192607971502,0.177747815245168,ST
9.8,-0.01914057508111,-1.69573533535004,9.41417217254639,-2.46952795982361,1.6920839548111,-3.38416790962219,-1253.10009765625,11.7000007629395,-947.700012207031,1.9296033596951,0.0002867485708772,0.182319816348534,ST
9.83333333333333,-0.122619308531284,-1.45348739624023,9.70427131652832,-1.73019397258759,2.56099200248718,-0.243903994560242,-1253.10009765625,11.7000007629395,-947.700012207031,1.93264850845241,-0.0163802337320414,0.152542255382295,ST
9.86666666666667,-0.52337509393692,-2.44999361038208,10.1768045425415,-1.34909391403198,2.0731840133667,1.19665396213531,-1255.5,7.50000047683716,-954.900024414062,1.93143903460728,-0.0529362113781671,0.236197344896649,ST
9.9,-0.731528878211975,-2.5797905921936,10.0410261154175,-0.746955990791321,1.44055795669556,1.73781597614288,-1257.90002441406,14.7000007629395,-959.700012207031,1.92486837309184,-0.073206112735264,0.25228313668018,ST
9.93333333333333,0.193200185894966,-2.31122446060181,9.36093711853027,0.907018005847931,0.0838419944047928,2.75154185295105,-1262.70007324219,11.1000003814697,-957.300048828125,1.91085763296173,0.0162391740684817,0.240837032090924,ST
9.96666666666667,1.84168219566345,-2.85134744644165,8.05698585510254,0.731711983680725,-2.02745199203491,1.6920839548111,-1255.5,17.7000007629395,-959.700012207031,1.88675158933614,0.211014696389808,0.337830187810942,ST
10.0,0.697434723377228,-1.81356954574585,8.94104099273682,1.16616594791412,-1.63872992992401,-0.937505960464478,-1250.70007324219,11.7000007629395,-954.900024414062,1.90869609069023,0.0830420184999317,0.201762564374792,ST
10.0333333333333,0.979160070419312,-1.90388906002045,8.0115270614624,1.31860601902008,-1.44055795669556,-0.746955990791321,-1250.70007324219,14.7000007629395,-962.100036621094,1.9072047768983,0.120060320561154,0.230136011866163,ST
10.0666666666667,-0.147741317749023,-1.5444051027298,10.0386333465576,1.10518991947174,-0.899396002292633,-1.15092194080353,-1257.90002441406,11.1000003814697,-952.500061035156,1.9163776438029,-0.0090601488295655,0.152883364472821,ST
10.1,0.854746282100677,-1.68915569782257,10.7749471664429,1.18140995502472,-2.98020195960999,-0.426831990480423,-1257.90002441406,11.1000003814697,-954.900024414062,1.91586037433742,0.0809424940860786,0.153430892751954,ST
10.1333333333333,1.19808042049408,-1.36556041240692,9.4913330078125,1.18140995502472,-4.37502813339233,0.365855991840363,-1265.10009765625,12.3000001907349,-954.900024414062,1.91079015460209,0.130851347408186,0.141276227303723,ST
10.1666666666667,1.76571810245514,-1.7364090681076,9.78203010559082,-0.594515979290009,-1.82927989959717,-0.861285984516144,-1272.30004882812,14.1000003814697,-938.100036621094,1.90897976297162,0.178291124439357,0.175819251785822,ST
10.2,2.57440733909607,-1.72683870792389,9.22515869140625,-0.708845973014832,-0.823175966739655,0.0533539988100529,-1269.90002441406,10.5,-945.300048828125,1.90654958573696,0.267222675887733,0.186162291426777,ST
10.2333333333333,2.48887300491333,-1.85424315929413,9.99915599822998,-0.724089980125427,0.777444005012512,-1.22714197635651,-1274.70007324219,15.9000005722046,-938.100036621094,1.91476844185718,0.239842743484646,0.184096479163715,ST
10.2666666666667,1.734614610672,-1.54799401760101,9.17850399017334,0.205793991684914,3.18599581718445,-1.63872992992401,-1277.10009765625,6.30000019073486,-945.300048828125,1.92920610057888,0.180887496923711,0.166506657026824,ST
10.3,1.24054849147797,-1.65924859046936,9.99556732177734,0.25152599811554,4.73326206207275,-1.63872992992401,-1277.10009765625,12.3000001907349,-945.300048828125,1.94247476524984,0.115527663135027,0.163617017045778,ST
10.3333333333333,1.84347665309906,-1.35180306434631,11.1918535232544,-0.213415995240211,1.35671591758728,-3.46800994873047,-1253.10009765625,12.3000001907349,-947.700012207031,1.96704537473884,0.159273588537332,0.12079967161467,ST
10.3666666666667,0.761435985565186,-0.820053994655609,8.62103462219238,-0.510673999786377,-0.480185985565186,-4.16161203384399,-1262.70007324219,6.30000019073486,-962.100036621094,1.99153490186882,0.0911558523291223,0.0957276967887547,ST
10.4,0.297875195741653,-1.17893981933594,8.03485488891602,-1.98934197425842,1.16616594791412,-3.26983785629272,-1250.70007324219,11.1000003814697,-954.900024414062,2.00634208306287,0.0369814587237255,0.147464812146299,ST
10.4333333333333,-0.159106031060219,-1.78844749927521,10.1582622528076,-2.88873791694641,2.9192259311676,-1.89025592803955,-1262.70007324219,8.70000076293945,-959.700012207031,2.01823540327453,-0.0183152471965376,0.178500573281802,ST
10.4666666666667,0.548497080802917,-2.13955736160278,10.4537448883057,-2.4847719669342,0.129574000835419,-0.647870004177094,-1255.5,14.7000007629395,-954.900024414062,2.02160619562371,0.0494638589699185,0.205416217311624,ST
10.5,-0.133385881781578,-2.00557327270508,8.3757963180542,-1.87501192092896,-0.320124000310898,0.0228659994900227,-1267.5,6.30000019073486,-940.500061035156,2.02059203343239,-0.0131982307673904,0.237402458235847,DLL
10.5333333333333,-0.0777585878968239,-2.87347888946533,9.61096096038818,-1.85214591026306,2.57623600959778,2.61434602737427,-1255.5,13.5000009536743,-947.700012207031,2.0115004964108,-0.0133550972532624,0.292373660372441,DLL
10.5666666666667,1.10596632957458,-3.23356080055237,10.3012180328369,-1.09756803512573,-0.167683988809586,2.4847719669342,-1243.5,18.3000011444092,-947.700012207031,1.99874686689218,0.0979336228072518,0.306072939035304,DLL
10.6,0.453392386436462,-3.2927770614624,9.12287616729736,-0.160062000155449,-2.82013988494873,2.27897787094116,-1241.10009765625,17.1000003814697,-964.500061035156,1.97989692012828,0.0513188245730716,0.345858364140222,DLL
10.6333333333333,0.0651975870132446,-3.18929839134216,9.24370193481445,1.22714197635651,-0.602137982845306,2.74391984939575,-1253.10009765625,10.5,-969.300048828125,1.96574514872438,0.0073270129187271,0.330576172818981,DLL
10.6666666666667,0.366063505411148,-3.12589526176453,9.81492805480957,2.28659987449646,-0.846041977405548,2.53050398826599,-1257.90002441406,18.9000015258789,-952.500061035156,1.95214063734657,0.0348257110964852,0.305195364098925,DLL
10.7,0.15312460064888,-2.68386745452881,9.31069374084473,3.27745985984802,-3.12502002716064,3.50611996650696,-1231.5,11.7000007629395,-950.100036621094,1.92985255483992,0.0197309858225052,0.275795725729156,DLL
10.7333333333333,-0.747678697109222,-1.98703098297119,9.35914325714111,3.76526784896851,-2.9268479347229,5.0000319480896,-1267.5,15.9000005722046,-947.700012207031,1.89762900459833,-0.0731045007566127,0.203320965431114,DLL
10.7666666666667,-0.0837400183081627,-1.7124832868576,8.39852523803711,3.97106194496155,-2.47714996337891,7.52291393280029,-1269.90002441406,12.9000005722046,-942.900024414062,1.85708634918398,-0.0098334529080397,0.194252466167984,DLL
10.8,1.61917304992676,-2.00676965713501,8.52293872833252,2.54574799537659,-4.24545383453369,6.19668579101562,-1265.10009765625,9.90000057220459,-942.900024414062,1.81668815076097,0.182275058639049,0.227876801347982,DLL
10.8333333333333,1.41819703578949,-1.04974091053009,9.21558856964111,2.69056582450867,-5.10673999786377,5.37350988388062,-1267.5,12.9000005722046,-959.700012207031,1.80280447165651,0.160054238183949,0.113590143223596,DLL
10.8666666666667,2.33395385742188,-1.53662931919098,9.77006721496582,1.97409796714783,-4.84759187698364,4.06252574920654,-1279.5,16.5,-935.700012207031,1.76894331142284,0.236913876088283,0.153372247560437,DLL
10.9,2.70839142799377,-0.724351167678833,10.342490196228,2.40855193138123,-4.42838191986084,1.91312193870544,-1291.5,14.7000007629395,-940.500061035156,1.77422989739241,0.262452871603536,0.0685554345029475,DLL
10.9333333333333,4.28330183029175,-1.55158281326294,9.1509895324707,1.06708002090454,-4.74850606918335,1.57775402069092,-1284.30004882812,14.1000003814697,-940.500061035156,1.72850767990237,0.435296017139642,0.165029361071019,DLL
10.9666666666667,3.28141236305237,-0.803305983543396,9.23951435089111,0.670735955238342,-2.75154185295105,-0.266770005226135,-1284.30004882812,15.3000001907349,-942.900024414062,1.75662300524994,0.347378326642159,0.0876352374702616,DLL
11.0,2.5815851688385,-1.11912548542023,9.79160022735596,0.693601965904236,0.243903994560242,0.990859985351562,-1286.70007324219,8.10000038146973,-942.900024414062,1.74325648821393,0.257759688998561,0.112464831181646,DLL
11.0333333333333,2.46913409233093,-1.17116391658783,9.26344013214111,1.05945801734924,1.02134799957275,1.02134799957275,-1281.90002441406,13.5000009536743,-923.700012207031,1.73389936130851,0.256558059669613,0.124104438193064,DLL
11.0666666666667,2.30105590820312,-1.33864402770996,10.2001323699951,1.05183601379395,0.533540010452271,-0.602137982845306,-1272.30004882812,15.3000001907349,-930.900024414062,1.73501764059069,0.220276559832052,0.128279208359591,DLL
11.1,1.92602038383484,-0.943869590759277,9.06545448303223,0.884151995182037,-0.640248000621796,-1.91312193870544,-1284.30004882812,9.30000019073486,-938.100036621094,1.74888059320565,0.209999905559382,0.10224171290316,DLL
11.1333333333333,1.3781213760376,-0.608909547328949,8.88242340087891,0.541162014007568,0.6250039935112,-0.884151995182037,-1293.90002441406,5.70000028610229,-933.300048828125,1.75962089466034,0.153780947934853,0.0679635240642254,DLL
11.1666666666667,1.28600740432739,-0.572422802448273,9.22755146026611,0.0990860015153885,1.76068198680878,-0.37347799539566,-1286.70007324219,15.3000001907349,-947.700012207031,1.76307162057274,0.135570595145952,0.0617961515248337,DLL
11.2,1.338045835495,-0.735117733478546,9.16115760803223,-0.190549999475479,2.02745199203491,-0.0685980021953583,-1286.70007324219,3.90000009536743,-938.100036621094,1.76184543963093,0.140905649312128,0.079841840298198,DLL
11.2333333333333,1.08084440231323,-0.997104346752167,8.89199352264404,-0.861285984516144,2.05031800270081,-0.800309956073761,-1279.5,13.5000009536743,-947.700012207031,1.76341945651635,0.117465660214536,0.112058239074827,DLL
11.2666666666667,0.584983825683594,-1.59345293045044,10.2120952606201,-1.90549993515015,2.27135586738586,-1.49391198158264,-1279.5,8.70000076293945,-942.900024414062,1.7702165969433,0.0543581119582653,0.156977993789293,DLL
11.3,1.08144247531891,-1.8787670135498,10.5829439163208,-2.14178204536438,-0.87652999162674,-1.52439999580383,-1286.70007324219,8.70000076293945,-942.900024414062,1.77695185760952,0.101257015773241,0.178744043698154,DLL
11.3333333333333,1.42178583145142,-1.94635725021362,9.14859676361084,-2.30946588516235,-2.56099200248718,-0.914639949798584,-1272.30004882812,12.9000005722046,-930.900024414062,1.77624547098187,0.154077269330613,0.212609282288403,DLL
11.3666666666667,1.46126329898834,-1.97925508022308,8.99188327789307,-1.89787793159485,-0.548784017562866,1.22714197635651,-1291.5,14.1000003814697,-933.300048828125,1.76922541702287,0.157806531702025,0.220217501275228,DLL
11.4,1.95114243030548,-2.13895916938782,8.94104099273682,-1.37195992469788,0.92988395690918,2.39330792427063,-1272.30004882812,15.9000005722046,-935.700012207031,1.75581437109751,0.205696418944384,0.237647806198831,DLL
11.4333333333333,2.27413964271545,-1.98762905597687,9.2281494140625,-1.15092194080353,1.2423859834671,1.01372599601746,-1279.5,11.1000003814697,-957.300048828125,1.75843880793587,0.233142806901025,0.2150921847012,DLL
11.4666666666667,2.32139277458191,-2.07974314689636,8.72511196136475,-0.914639949798584,0.952749967575073,0.480185985565186,-1277.10009765625,16.5,-947.700012207031,1.75348534789598,0.251060692699754,0.235274328443377,DLL
11.5,1.16398620605469,-2.15750169754028,8.98709774017334,-0.480185985565186,2.60672402381897,-0.167683988809586,-1274.70007324219,20.1000003814697,-938.100036621094,1.75765671178604,0.124464842986631,0.236247226621872,DLL
11.5333333333333,0.585581958293915,-2.32916879653931,10.2396097183228,0.167683988809586,3.10977602005005,0.419209986925125,-1265.10009765625,16.5,-945.300048828125,1.76021460494905,0.0522691388654236,0.223691971292387,DLL
11.5666666666667,0.14355431497097,-2.39197373390198,11.2438917160034,1.49391198158264,2.29422187805176,0.564027965068817,-1274.70007324219,15.9000005722046,-945.300048828125,1.76018949442025,0.0095592964693655,0.20745953398798,DLL
11.6,0.541319370269775,-2.23645663261414,10.6307954788208,1.78354799747467,0.503051996231079,-0.114329993724823,-1262.70007324219,11.7000007629395,-950.100036621094,1.76105688009177,0.0478959981884785,0.20431031766131,DLL
11.6333333333333,0.496458679437637,-1.68317437171936,9.75571155548096,1.18903195858002,-1.35671591758728,-0.701223969459534,-1269.90002441406,13.5000009536743,-947.700012207031,1.76492772617038,0.0525504410914339,0.169470133043295,DLL
11.6666666666667,0.427074074745178,-0.946860313415527,8.29564476013184,1.05183601379395,-0.914639949798584,0.282013982534409,-1279.5,11.7000007629395,-952.500061035156,1.76534552868213,0.0526324854530442,0.112885029935153,DLL
11.7,0.800913453102112,-1.19449150562286,8.47448921203613,0.92988395690918,0.449698001146317,0.937505960464478,-1269.90002441406,10.5,-947.700012207031,1.75819909369271,0.0915975422318884,0.138076961108967,DLL
11.7333333333333,-0.0687864422798157,-0.949252903461456,9.30291748046875,1.04421401023865,1.21951997280121,1.12043392658234,-1262.70007324219,15.3000001907349,-950.100036621094,1.75426974040148,-0.0075785908618182,0.100656079295658,DLL
11.7666666666667,-0.232677608728409,-0.886447906494141,9.87892913818359,1.18140995502472,0.289635986089706,3.02593398094177,-1253.10009765625,17.1000003814697,-947.700012207031,1.73869435764968,-0.0239690599771179,0.0876745790030138,DLL
11.8,0.131591454148293,-1.99540495872498,10.1235694885254,-0.0152439996600151,-1.17378795146942,7.61437797546387,-1272.30004882812,14.7000007629395,-947.700012207031,1.69571921939644,0.0116609380585331,0.192837873586422,DLL
11.8333333333333,1.13527536392212,-2.81486082077026,9.91780853271484,-1.22714197635651,-2.14178204536438,9.52750015258789,-1257.90002441406,16.5,-947.700012207031,1.64068002143999,0.106202042873042,0.277970848966168,DLL
11.8666666666667,1.76332545280457,-3.08522152900696,9.59600734710693,-1.44817996025085,-0.99848198890686,7.44669389724731,-1279.5,20.7000007629395,-938.100036621094,1.59651487850205,0.169516229496799,0.314964109548829,DLL
11.9,2.43683457374573,-3.27602910995483,9.10014724731445,-1.32622802257538,-0.945127964019775,5.61741399765015,-1274.70007324219,22.5,-957.300048828125,1.56175633317158,0.243240491438606,0.349393783177757,DLL
11.9333333333333,2.12938904762268,-2.59833312034607,9.11629676818848,-0.457319974899292,-0.922261953353882,1.61586391925812,-1255.5,15.3000001907349,-942.900024414062,1.56847207318397,0.222172835524046,0.280618892987252,DLL
11.9666666666667,1.56713461875916,-2.41470313072205,7.86199140548706,0.762199997901917,-0.67835795879364,1.13567793369293,-1274.70007324219,19.5,-945.300048828125,1.55742277638324,0.189534103385326,0.296759100667746,DLL
12.0,0.217724040150642,-1.67599666118622,8.86208629608154,1.76068198680878,1.39482593536377,-0.129574000835419,-1260.30004882812,24.9000015258789,-945.300048828125,1.57084328778476,0.026360546945772,0.186872552265013,DLL
12.0333333333333,-0.625657558441162,-1.50432956218719,9.69948673248291,2.75916385650635,1.6768399477005,1.34909391403198,-1272.30004882812,17.1000003814697,-940.500061035156,1.56484970634234,-0.0649775903978577,0.149730700025513,DLL
12.0666666666667,-1.13407909870148,-0.933103024959564,10.9729328155518,2.66007804870605,1.89025592803955,2.68294382095337,-1262.70007324219,21.3000011444092,-940.500061035156,1.54643598066471,-0.105567125656259,0.08099917403538,DLL
12.1,-0.401353925466537,-0.759043455123901,11.0991411209106,2.36281991004944,0.67835795879364,4.61131000518799,-1265.10009765625,21.3000011444092,-942.900024414062,1.52097448016594,-0.0391685309983794,0.064161373946336,DLL
12.1333333333333,1.72803509235382,-1.20226740837097,9.85859203338623,1.265251994133,-1.88263392448425,5.33540010452271,-1257.90002441406,16.5,-959.700012207031,1.48740595501565,0.169365562297247,0.119253961770263,DLL
12.1666666666667,1.29797029495239,-1.0455539226532,8.51695823669434,0.388722002506256,-0.777444005012512,2.60672402381897,-1255.5,20.7000007629395,-952.500061035156,1.47289789938526,0.151419384450263,0.122113928096247,DLL
12.2,0.772202551364899,-0.998300611972809,9.20601844787598,0.350611984729767,0.449698001146317,1.53964400291443,-1257.90002441406,25.5000019073486,-945.300048828125,1.46673143258337,0.0840082772067005,0.108031711151388,DLL
12.2333333333333,1.15321969985962,-1.21423017978668,8.99188327789307,0.37347799539566,-0.564027965068817,1.13567793369293,-1257.90002441406,13.5000009536743,-957.300048828125,1.45771578704226,0.125964140006974,0.133125142674303,DLL
12.2666666666667,1.08144247531891,-1.07904994487762,8.3937406539917,0.175305992364883,-2.36281991004944,-0.0457319989800453,-1267.5,15.3000001907349,-957.300048828125,1.45691128305714,0.131074669108317,0.127736843550824,DLL
12.3,0.605320692062378,-1.04435765743256,8.46790981292725,-0.0762199983000755,-2.12653803825378,-0.868907988071442,-1262.70007324219,15.3000001907349,-950.100036621094,1.46063412652924,0.0760376162970723,0.122878582713891,DLL
12.3333333333333,0.674705266952515,-1.03000223636627,9.79279708862305,-0.274392008781433,-2.9268479347229,0.358233988285065,-1272.30004882812,16.5,-945.300048828125,1.45849477147208,0.0734965666382552,0.105834942776737,DLL
12.3666666666667,1.10835897922516,-1.26507234573364,9.6821403503418,-0.487807989120483,-3.75002384185791,1.37958192825317,-1260.30004882812,20.1000003814697,-940.500061035156,1.44697521053153,0.117965959980496,0.130456207136611,DLL
12.4,0.513804793357849,-0.97258049249649,10.5267181396484,-0.403965979814529,-2.46952795982361,2.30184388160706,-1269.90002441406,17.1000003814697,-938.100036621094,1.43707369037467,0.0542442008095813,0.0941096310421707,DLL
12.4333333333333,0.0358885787427425,-0.971982300281525,10.7534141540527,-0.762199997901917,-2.33995389938354,4.61131000518799,-1286.70007324219,20.1000003814697,-938.100036621094,1.41230132640353,0.007943281004831,0.0916428490509116,DLL
12.4666666666667,1.05033910274506,-1.67300593852997,9.80356311798096,-1.65397393703461,-3.7881338596344,8.7957878112793,-1281.90002441406,23.7000007629395,-940.500061035156,1.3604997850597,0.106486858213679,0.171276894362751,DLL
12.5,0.497056812047958,-1.1675751209259,9.38605976104736,-0.92988395690918,-3.13264203071594,8.38420009613037,-1279.5,19.5,-926.100036621094,1.31646428924122,0.057061813746515,0.127224126048561,DLL
12.5333333333333,0.604124426841736,-1.83809340000153,8.43381595611572,-0.259148001670837,-2.40092992782593,10.6936655044556,-1279.5,29.7000007629395,-945.300048828125,1.25430585236656,0.0698010232741202,0.213941597554815,DLL
12.5666666666667,0.522178828716278,-1.69513714313507,8.59710884094238,-0.175305992364883,-2.12653803825378,12.2180652618408,-1284.30004882812,31.5000019073486,-933.300048828125,1.18733587535983,0.0591935093326616,0.19664043172211,DLL
12.6,0.194396466016769,-1.67300593852997,9.0373420715332,-0.221037998795509,-1.96647596359253,12.3171520233154,-1284.30004882812,29.7000007629395,-928.500061035156,1.12315791061281,0.0216035166634441,0.184312903334972,DLL
12.6333333333333,0.415709376335144,-1.76272737979889,8.52772426605225,-0.0304879993200302,-3.00306797027588,16.9970588684082,-1267.5,29.7000007629395,-923.700012207031,1.03291282535388,0.0461835473660338,0.204650853572267,DLL
12.6666666666667,1.87816894054413,-3.8879292011261,8.78911304473877,-3.56709599494934,-2.77440786361694,15.4421720504761,-1267.5,33.9000015258789,-914.100036621094,0.928859670482382,0.183489506454792,0.421958586254725,DLL
12.7,1.89372062683105,-3.96927666664124,10.0446147918701,-4.86283588409424,-2.01220798492432,9.97719764709473,-1265.10009765625,44.7000007629395,-926.100036621094,0.886702094453442,0.170516586406872,0.388645217699522,DLL
12.7333333333333,1.69394087791443,-4.11641979217529,9.90106105804443,-3.55185198783875,-1.31860601902008,8.17078399658203,-1269.90002441406,46.5,-928.500061035156,0.843909444738868,0.153594041697696,0.402119110514733,DLL
12.7666666666667,1.41341185569763,-4.19537496566772,9.07562351226807,-1.79117000102997,-0.365855991840363,6.10522174835205,-1269.90002441406,46.5,-914.100036621094,0.810919129707761,0.136999538089091,0.436558936931379,DLL
12.8,0.894223749637604,-3.5332305431366,9.521240234375,-0.320124000310898,0.586893975734711,4.54271173477173,-1262.70007324219,46.5,-906.900024414062,0.799107188421964,0.0854785895204306,0.358689450836269,DLL
12.8333333333333,0.74947315454483,-3.08581948280334,9.47817325592041,0.769822001457214,0.25152599811554,4.88570165634155,-1253.10009765625,41.7000007629395,-916.500061035156,0.778732401470117,0.0723269423026864,0.315201289016072,DLL
12.8666666666667,0.186022460460663,-2.89321756362915,9.93934154510498,0.960371971130371,0.525918006896973,3.65093803405762,-1248.30004882812,43.5,-923.700012207031,0.762671389579488,0.0168411594338025,0.282617137467623,DLL
12.9,0.894821882247925,-3.63790559768677,9.10612869262695,-0.160062000155449,-0.807931959629059,3.90246391296387,-1250.70007324219,39.9000015258789,-914.100036621094,0.737322775715974,0.087857479129686,0.378222818682673,DLL
12.9333333333333,0.657957255840302,-3.08522152900696,9.41058349609375,0.144817993044853,-0.426831990480423,2.29422187805176,-1250.70007324219,47.7000007629395,-916.500061035156,0.729941039395489,0.0663754283888552,0.31848984515011,DLL
12.9666666666667,1.26507234573364,-3.54579162597656,8.62223052978516,-0.137196004390717,-0.701223969459534,2.18751406669617,-1250.70007324219,44.7000007629395,-921.300048828125,0.710817133005793,0.13295241590452,0.38917240396291,DLL
13.0,1.08862018585205,-3.36814308166504,8.28727054595947,0.0381099991500378,0.0762199983000755,1.75305998325348,-1253.10009765625,47.7000007629395,-914.100036621094,0.702195136553841,0.120057999686579,0.386354845626986,DLL
13.0333333333333,0.677695989608765,-2.98951864242554,8.95838737487793,0.78506600856781,0.830797970294952,1.50153398513794,-1250.70007324219,47.1000022888184,-926.100036621094,0.701516929843744,0.0703337092287652,0.322041874197189,DLL
13.0666666666667,0.45937380194664,-2.83998274803162,9.18388748168945,1.31860601902008,1.18903195858002,1.58537602424622,-1231.5,51.9000015258789,-918.900024414062,0.696548146650196,0.0456392603403159,0.298364090738787,DLL
13.1,-0.0526365824043751,-2.59594058990479,9.46321964263916,1.42531394958496,1.61586391925812,0.426831990480423,-1250.70007324219,43.5,-930.900024414062,0.697265878541017,-0.0074393964798214,0.265762737804604,DLL
13.1333333333333,-0.068188302218914,-2.55107975006104,9.27360820770264,1.31860601902008,1.35671591758728,0.907018005847931,-1221.90002441406,54.3000030517578,-923.700012207031,0.694643215145422,-0.0097264093817292,0.266129911850942,DLL
13.1666666666667,0.0281127188354731,-2.63182902336121,9.49851036071777,0.304879993200302,0.868907988071442,0.0304879993200302,-1241.10009765625,46.5,-918.900024414062,0.695704706876394,0.0010740573113742,0.269666063433033,DLL
13.2,-0.295482635498047,-2.58397769927979,10.1301488876343,-0.434453994035721,0.221037998795509,-0.320124000310898,-1236.30004882812,45.3000030517578,-918.900024414062,0.697470917736027,-0.0279582980051086,0.250872120553316,DLL
13.2333333333333,0.421690791845322,-3.14982080459595,9.35196495056152,-0.564027965068817,-0.830797970294952,0.632625997066498,-1221.90002441406,51.3000030517578,-921.300048828125,0.692612647730201,0.041778734339449,0.323863363751649,DLL
13.2666666666667,0.240453481674194,-2.87706780433655,8.71434497833252,-0.0685980021953583,-0.0914639979600906,0.190549999475479,-1224.30004882812,43.5,-916.500061035156,0.691633901220833,0.0265644949186595,0.319115777602692,DLL
13.3,0.0891233012080193,-2.96140575408936,8.34768295288086,0.205793991684914,0.541162014007568,0.243903994560242,-1224.30004882812,48.9000015258789,-926.100036621094,0.69094920375892,0.0093927809824022,0.340104694795481,DLL
13.3333333333333,-0.742295444011688,-2.78256106376648,8.86746978759766,0.914639949798584,1.30336201190948,1.2423859834671,-1236.30004882812,46.5,-921.300048828125,0.685485806911641,-0.0808697527680117,0.303045038895733,DLL
13.3666666666667,-0.568235814571381,-3.27722525596619,9.329833984375,0.350611984729767,0.701223969459534,1.6920839548111,-1226.70007324219,48.3000030517578,-918.900024414062,0.680806110013557,-0.0601061929617087,0.336116045064909,DLL
13.4,-0.485692083835602,-3.40762042999268,10.0894756317139,0.114329993724823,-0.121951997280121,1.2500079870224,-1221.90002441406,49.5000038146973,-923.700012207031,0.67395265968692,-0.0464556853759076,0.325701048978606,DLL
13.4333333333333,-0.410326063632965,-3.33644151687622,10.0200910568237,0.137196004390717,-0.37347799539566,1.14329993724823,-1212.30004882812,43.5,-914.100036621094,0.666807250952118,-0.0389643313033219,0.321177769583503,DLL
13.4666666666667,-0.187816888093948,-3.53203415870667,10.04700756073,-0.0304879993200302,-0.411587983369827,1.18140995502472,-1229.10009765625,44.7000007629395,-911.700012207031,0.660789772435006,-0.0182169269381554,0.337606284278648,DLL
13.5,0.0167480036616325,-3.308926820755,9.51884746551514,0.0381099991500378,-0.518296003341675,0.967993974685669,-1217.10009765625,51.3000030517578,-933.300048828125,0.655142458246086,0.0014123161832123,0.334569654695931,DLL
13.5333333333333,0.2105463296175,-3.06907153129578,9.0732307434082,1.12805593013763,-0.0533539988100529,1.34909391403198,-1207.5,48.3000030517578,-923.700012207031,0.648457455375231,0.0207727157912856,0.324529294323171,DLL
13.5666666666667,-0.0167480036616325,-2.45118999481201,8.43919944763184,2.46952795982361,0.746955990791321,1.34909391403198,-1217.10009765625,50.1000022888184,-916.500061035156,0.643221091219106,-0.0031484001957518,0.279616527724583,DLL
13.6,-0.257201462984085,-1.76631617546082,8.50499534606934,2.75916385650635,1.15092194080353,1.45580196380615,-1214.70007324219,48.3000030517578,-926.100036621094,0.636186206383104,-0.0313082281925923,0.202059214198292,DLL
13.6333333333333,0.314025074243546,-2.10845398902893,8.75621509552002,1.2500079870224,-0.518296003341675,1.18903195858002,-1224.30004882812,50.7000007629395,-928.500061035156,0.628618167699595,0.0342133502804219,0.233679933232492,DLL
13.6666666666667,0.307445496320724,-2.05880808830261,9.18927001953125,0.144817993044853,-1.50915598869324,-0.403965979814529,-1205.10009765625,43.5,-921.300048828125,0.629370326960867,0.0353368285210972,0.220428560884317,DLL
13.7,0.722556710243225,-2.4595639705658,8.79629039764404,-0.419209986925125,-1.88263392448425,-0.3125019967556,-1212.30004882812,46.5,-933.300048828125,0.625534649732621,0.0812836001777791,0.272307609898011,DLL
13.7333333333333,0.659751713275909,-2.38718867301941,9.39263916015625,-0.3125019967556,-1.07470202445984,-0.945127964019775,-1224.30004882812,45.9000015258789,-928.500061035156,0.63099295250526,0.070398837605854,0.249763250969582,DLL
13.7666666666667,0.35410064458847,-2.49485445022583,9.64326095581055,-0.365855991840363,-0.899396002292633,-1.29574000835419,-1226.70007324219,38.7000007629395,-923.700012207031,0.636533865739837,0.0383002235507569,0.25364769390835,DLL
13.8,0.155517175793648,-2.07555603981018,9.17431735992432,-0.25152599811554,-0.449698001146317,-0.442075997591019,-1224.30004882812,45.3000030517578,-930.900024414062,0.639098630225369,0.0180363236548812,0.223752960254301,DLL
13.8333333333333,0.427074074745178,-2.27234506607056,8.6623067855835,-0.571649968624115,-0.137196004390717,0.289635986089706,-1224.30004882812,44.1000022888184,-918.900024414062,0.636463131051763,0.0470502922697432,0.256762501426449,DLL
13.8666666666667,0.105871304869652,-2.2771303653717,9.09476375579834,-1.16616594791412,0.213415995240211,-0.609759986400604,-1231.5,42.9000015258789,-921.300048828125,0.640415139691517,0.0119347302093843,0.2475486218367,DLL
13.9,0.324791640043259,-3.04514575004578,9.23592567443848,-1.60824191570282,-0.0838419944047928,0.0381099991500378,-1214.70007324219,49.5000038146973,-921.300048828125,0.638711968818644,0.0329150379648682,0.319280163091024,DLL
13.9333333333333,0.16269488632679,-4.84376192092896,9.60916709899902,-3.32319188117981,-1.02897000312805,-1.28049600124359,-1221.90002441406,50.7000007629395,-918.900024414062,0.639516184343856,0.0179940722608121,0.469889514162262,DLL
13.9666666666667,-0.726145565509796,-3.74975824356079,9.88371467590332,-1.22714197635651,-0.731711983680725,0.266770005226135,-1226.70007324219,49.5000038146973,-916.500061035156,0.633936738454034,-0.0655504656749222,0.367205238245479,DLL
14.0,-0.507225215435028,-4.04583883285522,9.66599082946777,0.144817993044853,0.106707997620106,0.807931959629059,-1229.10009765625,50.1000022888184,-914.100036621094,0.631719066454409,-0.0494234251431051,0.395493683814067,DLL
14.0333333333333,-0.718967854976654,-3.17793369293213,9.70965480804443,1.62348592281342,0.503051996231079,-0.685979962348938,-1238.70007324219,47.1000022888184,-926.100036621094,0.631705922485131,-0.0701400321703191,0.315797833046983,DLL
14.0666666666667,-0.0957028716802597,-2.60790324211121,8.3399076461792,2.55336999893188,-0.205793991684914,0.160062000155449,-1229.10009765625,47.1000022888184,-921.300048828125,0.630277206235613,-0.0121045409684226,0.299014239095288,DLL
14.1,0.128002598881721,-2.18681073188782,7.80038261413574,3.05642199516296,0.716467976570129,1.29574000835419,-1233.90002441406,47.1000022888184,-921.300048828125,0.624770654341585,0.0132791944073622,0.268858657556119,DLL
14.1333333333333,-0.852951884269714,-1.5563679933548,8.95898532867432,3.11739802360535,1.43293595314026,1.20427596569061,-1224.30004882812,46.5,-933.300048828125,0.617092659041391,-0.0933859302869071,0.16922502896112,DLL
14.1666666666667,-1.03538548946381,-1.62694883346558,10.9155111312866,2.00458598136902,0.693601965904236,2.27135586738586,-1221.90002441406,50.1000022888184,-930.900024414062,0.604413868149776,-0.0952752261056307,0.144700436975512,DLL
14.2,-0.0879270136356354,-1.79383075237274,10.0051374435425,1.92074394226074,-1.22714197635651,3.99392795562744,-1231.5,44.7000007629395,-938.100036621094,0.584171014722595,-0.0098080049118041,0.173245603374012,DLL
14.2333333333333,0.62147057056427,-1.63891172409058,10.0075302124023,0.746955990791321,-1.54726600646973,3.04117798805237,-1219.5,44.1000022888184,-926.100036621094,0.567456691319275,0.061032283079331,0.161662163889307,DLL
14.2666666666667,1.45827257633209,-2.19458651542664,8.51456546783447,-0.411587983369827,-1.50915598869324,2.39330792427063,-1231.5,40.5,-928.500061035156,0.544003468430149,0.163040686437866,0.251161356273012,DLL
14.3,1.21602463722229,-2.37941265106201,7.5192551612854,-0.983237981796265,-0.609759986400604,0.457319974899292,-1214.70007324219,45.9000015258789,-918.900024414062,0.532882001506646,0.154017001099045,0.306801008969276,DLL
14.3333333333333,0.263781040906906,-2.67968058586121,8.17422199249268,-1.33385002613068,0.670735955238342,1.16616594791412,-1226.70007324219,50.1000022888184,-928.500061035156,0.527287145500546,0.0314968530850346,0.318918143193603,DLL
14.3666666666667,-0.256005197763443,-2.8680956363678,8.74664497375488,-1.59299790859222,0.541162014007568,1.45580196380615,-1221.90002441406,43.5,-921.300048828125,0.520523597844376,-0.0282370019844339,0.31957536880912,DLL
14.4,-0.160302311182022,-3.02959418296814,10.2294406890869,-1.62348592281342,-0.907018005847931,1.44055795669556,-1212.30004882812,39.9000015258789,-914.100036621094,0.511240041009508,-0.0146180880598949,0.291506255428281,DLL
14.4333333333333,0.485692083835602,-3.06847333908081,10.5033903121948,-1.08994603157043,-1.6692179441452,0.739333987236023,-1219.5,44.7000007629395,-928.500061035156,0.505338720485922,0.0451150209330937,0.286361538498168,DLL
14.4666666666667,0.320604622364044,-3.05651068687439,10.222861289978,-0.434453994035721,-0.335367977619171,-0.83841997385025,-1226.70007324219,48.9000015258789,-921.300048828125,0.509354027083005,0.0312391333462516,0.291170276448328,DLL
14.5,0.220714762806892,-3.11453056335449,9.45424747467041,-0.411587983369827,0.335367977619171,-1.18140995502472,-1217.10009765625,50.1000022888184,-926.100036621094,0.515042920435254,0.0224990344045994,0.318148402787765,DLL
14.5333333333333,-0.0795530155301094,-2.74188733100891,8.69460582733154,0.586893975734711,0.922261953353882,-0.282013982534409,-1217.10009765625,44.7000007629395,-911.700012207031,0.518147077101488,-0.0094377657805485,0.304749754302776,DLL
14.5666666666667,-0.757847130298615,-2.80529046058655,8.82679557800293,0.403965979814529,1.28811800479889,0.67835795879364,-1205.10009765625,54.9000015258789,-911.700012207031,0.516962297202353,-0.0825955385979933,0.306933373786999,DLL
14.6,-0.955832481384277,-3.1528115272522,9.19644832611084,-0.221037998795509,0.762199997901917,1.75305998325348,-1202.70007324219,45.9000015258789,-933.300048828125,0.511603439427099,-0.0997679125573405,0.329774732641099,DLL
14.6333333333333,-0.072973445057869,-3.34062838554382,9.51346397399902,-0.236281991004944,-0.693601965904236,3.75002384185791,-1217.10009765625,50.1000022888184,-930.900024414062,0.492468852649571,-0.010750902050677,0.337768969380039,DLL
14.6666666666667,0.211742609739304,-3.38249850273132,10.1486921310425,0.556405961513519,-0.129574000835419,2.82013988494873,-1200.30004882812,51.9000015258789,-916.500061035156,0.477581559090398,0.0178427181016612,0.321170281100779,DLL
14.7,0.528160214424133,-3.52007126808167,9.60378360748291,0.99848198890686,-0.259148001670837,1.6615959405899,-1205.10009765625,47.7000007629395,-923.700012207031,0.467869198861978,0.0501262505946033,0.348939682171666,DLL
14.7333333333333,-0.336754500865936,-2.76042985916138,9.28497314453125,2.05031800270081,0.861285984516144,-0.731711983680725,-1200.30004882812,47.7000007629395,-928.500061035156,0.473416144272434,-0.0334887273800226,0.287171627794963,DLL
14.7666666666667,-1.07187223434448,-2.32797241210938,8.86388111114502,2.43903994560242,1.60824191570282,-0.533540010452271,-1207.5,50.1000022888184,-926.100036621094,0.477047833805193,-0.116880430778843,0.253579227864899,DLL
14.8,-1.12690138816833,-2.03667688369751,9.21439266204834,0.967993974685669,0.708845973014832,-0.0076219998300075,-1212.30004882812,47.1000022888184,-918.900024414062,0.474230374513645,-0.11999329018825,0.21665918699547,DLL
14.8333333333333,-0.358885794878006,-2.16228675842285,8.99068737030029,0.327746003866196,0.0914639979600906,1.04421401023865,-1205.10009765625,48.9000015258789,-926.100036621094,0.470204675142776,-0.0408233486902588,0.235033951541598,DLL
14.8666666666667,-0.407933503389359,-2.35369253158569,9.12885761260986,-0.0228659994900227,-0.129574000835419,0.342989981174469,-1205.10009765625,48.9000015258789,-928.500061035156,0.469020052079229,-0.0431096488048416,0.251875609616946,DLL
14.9,-0.501243829727173,-2.55646300315857,9.29633808135986,-0.579271972179413,-0.67835795879364,0.381099998950958,-1212.30004882812,52.5000038146973,-928.500061035156,0.466851521081238,-0.0507617691030591,0.268851156430416,DLL
14.9333333333333,-0.419896364212036,-2.52535963058472,9.69589710235596,-0.525918006896973,-0.975615978240967,0.0762199983000755,-1207.5,44.7000007629395,-923.700012207031,0.464467769181987,-0.0405564256201178,0.256048105109563,DLL
14.9666666666667,0.25839775800705,-3.02002382278442,9.08459568023682,-0.411587983369827,-1.81403601169586,0.0685980021953583,-1221.90002441406,44.1000022888184,-923.700012207031,0.461756572972206,0.0280316606064299,0.319892445344825,DLL
15.0,0.375633776187897,-2.8100757598877,8.89797496795654,-0.365855991840363,-1.2500079870224,-0.716467976570129,-1202.70007324219,46.5,-928.500061035156,0.46399510815701,0.0424280128544814,0.306755545149582,DLL
15.0333333333333,0.215331465005875,-2.68446564674377,8.87464714050293,-0.0685980021953583,-0.0457319989800453,-1.03659200668335,-1207.5,53.1000022888184,-923.700012207031,0.469645551317245,0.0242646785491948,0.294120272306161,DLL
15.0666666666667,0.240453481674194,-2.37163686752319,9.43032169342041,0.800309956073761,0.213415995240211,0.0762199983000755,-1209.90002441406,48.9000015258789,-926.100036621094,0.470602939271907,0.0243280008637406,0.245869108803573,DLL
15.1,0.379820793867111,-2.22628808021545,9.17730808258057,1.62348592281342,0.152439996600151,-1.80641400814056,-1200.30004882812,47.7000007629395,-921.300048828125,0.480469427172941,0.0403384793867764,0.235256967546676,DLL
15.1333333333333,-0.474327385425568,-2.00497531890869,8.81483268737793,1.55488801002502,0.762199997901917,-1.78354799747467,-1219.5,46.5,-928.500061035156,0.491089280045858,-0.0510975814159948,0.221379996034719,DLL
15.1666666666667,-0.571226537227631,-2.54330396652222,9.78801155090332,-0.693601965904236,0.0914639979600906,-0.388722002506256,-1209.90002441406,43.5,-923.700012207031,0.494925847901086,-0.0563138170870023,0.254851499433793,DLL
15.2,-0.311632484197617,-2.59653854370117,10.75221824646,-0.655492007732391,-0.830797970294952,0.0457319989800453,-1212.30004882812,51.3000030517578,-921.300048828125,0.492766353542767,-0.0273878633101632,0.238430485841778,DLL
15.2333333333333,0.193200185894966,-2.64259552955627,9.93036937713623,0.586893975734711,-0.342989981174469,-0.0914639979600906,-1202.70007324219,42.3000030517578,-928.500061035156,0.492860309373111,0.0181433924177589,0.25849877875216,DLL
15.2666666666667,0.294884473085403,-2.68506383895874,8.92190074920654,0.342989981174469,0.266770005226135,-0.952749967575073,-1207.5,41.1000022888184,-933.300048828125,0.497289035924079,0.0313441115788632,0.290888841144563,DLL
15.3,-0.150732025504112,-2.10366892814636,8.53789234161377,0.724089980125427,0.87652999162674,-0.746955990791321,-1221.90002441406,47.1000022888184,-928.500061035156,0.502548261002379,-0.016958172612441,0.241712349834363,DLL
15.3333333333333,-0.214135184884071,-2.52476143836975,8.13833332061768,0.434453994035721,1.15092194080353,-0.365855991840363,-1221.90002441406,44.7000007629395,-930.900024414062,0.507771848526617,-0.0267060323176653,0.299173834393179,DLL
15.3666666666667,-0.117834165692329,-2.76461672782898,7.94991827011108,-0.213415995240211,1.20427596569061,-1.38720393180847,-1207.5,42.9000015258789,-930.900024414062,0.517284578041043,-0.0155129761627224,0.334114977275682,DLL
15.4,-0.344530344009399,-2.68506383895874,10.0559797286987,-0.442075997591019,0.442075997591019,-1.16616594791412,-1214.70007324219,42.9000015258789,-923.700012207031,0.521966447844508,-0.0328120302935379,0.263731240283709,DLL
15.4333333333333,-0.47851437330246,-3.21142959594727,10.4758758544922,-1.02134799957275,-0.190549999475479,-1.09756803512573,-1221.90002441406,48.9000015258789,-930.900024414062,0.528231512290907,-0.0424972950465516,0.298344442123826,DLL
15.4666666666667,-0.548497080802917,-3.14503574371338,10.4423799514771,-0.274392008781433,0.167683988809586,0.121951997280121,-1224.30004882812,43.5,-933.300048828125,0.527570450133927,-0.0503736826662371,0.293157081965036,DLL
15.5,-0.470738530158997,-2.80110359191895,9.44288349151611,0.259148001670837,0.533540010452271,-0.297257989645004,-1212.30004882812,50.1000022888184,-921.300048828125,0.529650019001592,-0.0485524703380488,0.288094553809537,DLL
15.5333333333333,-0.47851437330246,-2.36924433708191,8.33153343200684,0.564027965068817,0.87652999162674,0.487807989120483,-1219.5,42.9000015258789,-921.300048828125,0.528019061127418,-0.0566655328394901,0.276377856089164,DLL
15.5666666666667,-1.36017715930939,-1.89611327648163,8.12756633758545,1.08994603157043,2.5076379776001,1.28811800479889,-1217.10009765625,45.3000030517578,-923.700012207031,0.519942222159747,-0.164062334832487,0.228136289163727,DLL
15.6,-1.21662282943726,-2.13836121559143,8.0713415145874,0.724089980125427,1.63110792636871,2.26373386383057,-1200.30004882812,51.9000015258789,-930.900024414062,0.514999159976579,-0.148723598760047,0.256729828676828,DLL
15.6333333333333,-1.57730305194855,-1.87697267532349,9.5206413269043,0.914639949798584,0.541162014007568,2.09605002403259,-1195.5,40.5,-940.500061035156,0.495526925915077,-0.162494687115022,0.193830114546971,DLL
15.6666666666667,-1.21961355209351,-2.64678263664246,10.0464096069336,-0.411587983369827,-1.12043392658234,2.35519790649414,-1209.90002441406,47.7000007629395,-935.700012207031,0.4908074542211,-0.117259332707756,0.25604557158999,DLL
15.7,-0.241051614284515,-3.34062838554382,9.09416580200195,-3.11739802360535,-3.03355598449707,0.480185985565186,-1195.5,47.7000007629395,-926.100036621094,0.489507131569269,-0.0228452121383141,0.354639894880668,DLL
15.7333333333333,-0.376830071210861,-3.13606357574463,9.06366062164307,-2.11891603469849,-2.14178204536438,1.21951997280121,-1209.90002441406,50.1000022888184,-923.700012207031,0.478346275923765,-0.0361693069127464,0.337066164218698,DLL
15.7666666666667,-0.382213354110718,-3.44709801673889,8.93805027008057,-0.663114011287689,-0.403965979814529,0.846041977405548,-1200.30004882812,44.7000007629395,-930.900024414062,0.474561588032137,-0.0396500393916428,0.368306571671293,DLL
15.8,-0.583787560462952,-3.06787538528442,8.43262004852295,0.6250039935112,0.129574000835419,0.945127964019775,-1200.30004882812,46.5,-928.500061035156,0.46908156816475,-0.0652041464615327,0.348166304257904,DLL
15.8333333333333,-0.901999592781067,-2.66532516479492,8.60428619384766,0.617381989955902,0.243903994560242,0.983237981796265,-1195.5,51.9000015258789,-923.700012207031,0.460994495633451,-0.0997626654981531,0.300503380983692,DLL
15.8666666666667,-0.833213150501251,-2.70360612869263,8.92010593414307,-0.282013982534409,-0.160062000155449,1.60824191570282,-1207.5,46.5,-926.100036621094,0.451873742720166,-0.0899435556686026,0.294672698901692,DLL
15.9,-1.03658175468445,-2.45836758613586,10.018895149231,0.144817993044853,-0.556405961513519,1.6768399477005,-1209.90002441406,47.1000022888184,-926.100036621094,0.43781152050289,-0.0996490973477047,0.241546088714309,DLL
15.9333333333333,-0.377428203821182,-3.07266044616699,9.44766807556152,0.0914639979600906,-0.777444005012512,1.71494996547699,-1200.30004882812,48.3000030517578,-938.100036621094,0.433084989116495,-0.0392811840270389,0.312162583553049,DLL
15.9666666666667,-0.37623193860054,-2.98054647445679,9.42852783203125,-0.198172003030777,-0.99848198890686,0.579271972179413,-1212.30004882812,50.1000022888184,-930.900024414062,0.428406939946237,-0.0367447462267047,0.30662503159765,DLL
16.0,-0.762034118175507,-2.85553455352783,9.27360820770264,0.129574000835419,-0.990859985351562,0.663114011287689,-1209.90002441406,42.9000015258789,-926.100036621094,0.42319881261203,-0.0759648199261256,0.298588651727686,DLL
16.0333333333333,-0.772202551364899,-2.81366443634033,9.5032958984375,0.411587983369827,-0.815553963184357,1.16616594791412,-1205.10009765625,45.3000030517578,-926.100036621094,0.415513543068845,-0.0769425043628118,0.287266339559439,DLL
16.0666666666667,-0.504832684993744,-2.97576117515564,9.00982761383057,-0.0076219998300075,-0.67835795879364,0.609759986400604,-1200.30004882812,48.3000030517578,-921.300048828125,0.413439458295966,-0.0530299304011759,0.318075683045409,DLL
16.1,-0.453392386436462,-2.99729442596436,8.66888618469238,0.198172003030777,-0.327746003866196,1.02897000312805,-1207.5,44.1000022888184,-933.300048828125,0.408121700458789,-0.0494980237454816,0.332187876354262,DLL
16.1333333333333,-0.448607236146927,-2.95602250099182,9.39323711395264,0.716467976570129,-0.518296003341675,0.861285984516144,-1202.70007324219,46.5,-926.100036621094,0.401448618157791,-0.0451935504258718,0.304071947523445,DLL
16.1666666666667,-0.474327385425568,-2.54390215873718,9.21199989318848,1.20427596569061,-0.503051996231079,0.221037998795509,-1202.70007324219,54.9000015258789,-923.700012207031,0.39819601063987,-0.0487629282530665,0.268177393240459,DLL
16.2,-0.675303399562836,-2.63182902336121,9.22515869140625,1.18140995502472,0.350611984729767,-0.266770005226135,-1221.90002441406,44.7000007629395,-923.700012207031,0.401058609553417,-0.0703442837875924,0.27574694003393,DLL
16.2333333333333,-0.316417634487152,-2.93568563461304,9.54396915435791,-0.419209986925125,-0.746955990791321,0.396344006061554,-1200.30004882812,45.9000015258789,-933.300048828125,0.399044386926352,-0.0317151304512489,0.298471212741477,DLL
16.2666666666667,-0.469542235136032,-2.96200394630432,9.98061370849609,-0.746955990791321,-1.01372599601746,-0.0914639979600906,-1197.90002441406,45.9000015258789,-918.900024414062,0.397514292774277,-0.0430140584811885,0.290021493434805,DLL
16.3,-0.0418700091540813,-2.94884490966797,9.12168025970459,-0.236281991004944,-0.846041977405548,0.78506600856781,-1205.10009765625,55.5000038146973,-926.100036621094,0.392825999508863,-0.0044601081024835,0.312446254493782,DLL
16.3333333333333,0.559263706207275,-3.12469887733459,9.03315544128418,0.167683988809586,-0.274392008781433,0.846041977405548,-1197.90002441406,42.9000015258789,-921.300048828125,0.38766512720883,0.0567038126970145,0.332262268689527,DLL
16.3666666666667,0.43724250793457,-2.56902408599854,9.19704627990723,1.03659200668335,-0.243903994560242,-0.46494197845459,-1212.30004882812,44.1000022888184,-916.500061035156,0.392447141374504,0.0466696781753973,0.2722234960505,DLL
16.4,0.0370848625898361,-2.39735698699951,8.93206882476807,1.02897000312805,-0.365855991840363,-1.04421401023865,-1207.5,48.3000030517578,-923.700012207031,0.397522169410087,0.0060855703874453,0.260689289939553,DLL
16.4333333333333,-0.616685390472412,-1.74777376651764,9.42792987823486,0.990859985351562,-0.0076219998300075,-1.53964400291443,-1195.5,48.3000030517578,-928.500061035156,0.404076472369116,-0.0624571818254092,0.183152505848542,DLL
16.4666666666667,-0.256603330373764,-2.34172964096069,9.21857929229736,0.739333987236023,-0.144817993044853,-0.37347799539566,-1217.10009765625,49.5000038146973,-928.500061035156,0.408754329015227,-0.0275530009493365,0.245736174843222,DLL
16.5,-0.891233026981354,-2.15869808197021,10.0099229812622,0.37347799539566,0.426831990480423,-0.78506600856781,-1209.90002441406,43.5,-916.500061035156,0.411467477017314,-0.0856270826069156,0.212797520958794,DLL
16.5333333333333,-0.946860313415527,-2.04146194458008,9.91840648651123,0.716467976570129,0.487807989120483,0.914639949798584,-1205.10009765625,50.1000022888184,-930.900024414062,0.406720455380603,-0.0941510287854962,0.20191419432015,DLL
16.5666666666667,-0.494664251804352,-2.21073651313782,9.69589710235596,0.114329993724823,0.365855991840363,0.884151995182037,-1209.90002441406,54.3000030517578,-923.700012207031,0.403904788119018,-0.0514475410951168,0.223506765628739,DLL
16.6,0.245836764574051,-2.42546963691711,8.68144702911377,-0.0609759986400604,-0.0990860015153885,1.60061991214752,-1214.70007324219,43.5,-926.100036621094,0.396388165119525,0.0245628303073815,0.271257551656423,DLL
16.6333333333333,-0.142956167459488,-2.76581311225891,8.73886871337891,0.0152439996600151,0.922261953353882,-0.289635986089706,-1195.5,41.7000007629395,-928.500061035156,0.399244962658478,-0.0161183306482498,0.305775782232929,DLL
16.6666666666667,-0.91874760389328,-2.4476010799408,8.74066352844238,-0.121951997280121,1.08994603157043,-0.960371971130371,-1209.90002441406,45.9000015258789,-928.500061035156,0.404430347286227,-0.100902844782795,0.273959131702849,DLL
16.7,-1.22439861297607,-2.47930264472961,8.49901390075684,-0.274392008781433,0.83841997385025,0.762199997901917,-1200.30004882812,42.9000015258789,-940.500061035156,0.402869329782592,-0.138161569962742,0.283920883762676,DLL
16.7333333333333,-0.874485015869141,-3.14324140548706,9.12407302856445,-1.08994603157043,0.907018005847931,1.01372599601746,-1197.90002441406,44.1000022888184,-926.100036621094,0.404342238153647,-0.0936891298959421,0.332208789436837,DLL
16.7666666666667,-0.365465342998505,-3.1988685131073,9.23592567443848,-1.47104597091675,-1.12805593013763,0.320124000310898,-1205.10009765625,47.1000022888184,-918.900024414062,0.400679761988247,-0.0372768081521757,0.335836679762534,DLL
16.8,-0.374437510967255,-2.83101058006287,8.85431003570557,0.221037998795509,-0.243903994560242,1.53202199935913,-1200.30004882812,47.7000007629395,-916.500061035156,0.39177233182417,-0.0405813045553316,0.309696695221555,DLL
16.8333333333333,-0.95762687921524,-2.8621141910553,9.70247745513916,0.396344006061554,1.09756803512573,0.426831990480423,-1200.30004882812,50.1000022888184,-933.300048828125,0.389875633880039,-0.095277425118487,0.286634242859452,DLL
16.8666666666667,-1.22021162509918,-2.36206650733948,10.4561376571655,0.0381099991500378,-0.182927995920181,1.01372599601746,-1185.90002441406,51.9000015258789,-933.300048828125,0.377860581893227,-0.113005727276352,0.223443830522071,DLL
16.9,-0.358287632465363,-2.64319372177124,9.63548469543457,0.602137982845306,-0.762199997901917,2.01982998847961,-1200.30004882812,45.9000015258789,-916.500061035156,0.369770376228526,-0.0373212744009683,0.265501293777385,DLL
16.9333333333333,-0.053234726190567,-2.52655601501465,8.61923980712891,0.853663980960846,-0.556405961513519,0.884151995182037,-1200.30004882812,52.5000038146973,-928.500061035156,0.364714209718592,-0.006084900118196,0.283262210682985,DLL
16.9666666666667,-0.605320692062378,-2.131183385849,8.9296760559082,0.304879993200302,-0.495429992675781,0.762199997901917,-1200.30004882812,51.3000030517578,-926.100036621094,0.358635232895176,-0.0637066668932617,0.235011854372572,DLL
17.0,-0.221312895417213,-2.77119636535645,8.85311412811279,-0.510673999786377,-1.07470202445984,2.01982998847961,-1195.5,53.7000007629395,-933.300048828125,0.349197763538569,-0.0239411118778993,0.30271161084551,DLL
17.0333333333333,-0.2105463296175,-3.10137128829956,8.85371208190918,-0.594515979290009,-0.602137982845306,1.34909391403198,-1193.10009765625,47.7000007629395,-918.900024414062,0.341836289401475,-0.0222571855546548,0.337183778173553,DLL
17.0666666666667,-1.19150078296661,-2.5235652923584,9.95549201965332,1.57013201713562,0.442075997591019,-1.02897000312805,-1193.10009765625,47.7000007629395,-930.900024414062,0.342547186030032,-0.113864152319551,0.247631190817824,DLL
17.1,-1.74597930908203,-2.51459312438965,9.68333625793457,1.98171997070312,0.480185985565186,-0.975615978240967,-1188.30004882812,50.7000007629395,-933.300048828125,0.350467327038893,-0.171939292597451,0.250855625570083,DLL
17.1333333333333,-1.47023546695709,-2.49246168136597,9.20841121673584,0.510673999786377,-0.708845973014832,0.0076219998300075,-1200.30004882812,50.7000007629395,-923.700012207031,0.351874598623777,-0.152202973244198,0.263098196485996,DLL
17.1666666666667,-0.901401460170746,-2.85852527618408,9.34718036651611,-2.10367202758789,-1.53964400291443,0.25152599811554,-1205.10009765625,46.5,-923.700012207031,0.351579299347088,-0.0912267436292248,0.299330696923061,DLL
17.2,-0.437840640544891,-3.09239912033081,9.5505485534668,-1.63872992992401,-1.10518991947174,0.807931959629059,-1190.70007324219,50.1000022888184,-923.700012207031,0.346258395256324,-0.0433553152794214,0.315515534453919,DLL
17.2333333333333,-0.569432079792023,-3.25329971313477,8.95838737487793,0.243903994560242,0.266770005226135,-0.487807989120483,-1197.90002441406,51.3000030517578,-921.300048828125,0.350978432385092,-0.059484499073498,0.347303632280959,DLL
17.2666666666667,-1.39128053188324,-2.984135389328,8.79808521270752,1.12805593013763,0.198172003030777,-0.830797970294952,-1205.10009765625,42.3000030517578,-926.100036621094,0.353842597765769,-0.14608719711268,0.325847576261216,DLL
17.3,-1.33744764328003,-2.75863528251648,9.34060096740723,0.78506600856781,-0.663114011287689,0.259148001670837,-1205.10009765625,50.7000007629395,-926.100036621094,0.346441343886491,-0.135680833823077,0.286420738160832,DLL
17.3333333333333,-0.620274245738983,-3.23236465454102,8.84533786773682,0.708845973014832,-1.56251001358032,0.800309956073761,-1195.5,50.1000022888184,-926.100036621094,0.346358954176473,-0.0656408055340654,0.347263538864585,DLL
17.3666666666667,-0.705808699131012,-2.85912346839905,9.55772686004639,0.411587983369827,-0.975615978240967,-0.381099998950958,-1202.70007324219,44.1000022888184,-928.500061035156,0.343108257666392,-0.0687366110523267,0.291321434765076,DLL
17.4,-0.139965459704399,-2.89740467071533,9.53439903259277,0.510673999786377,-1.78354799747467,0.830797970294952,-1205.10009765625,51.9000015258789,-938.100036621094,0.336506676505181,-0.0130433341282084,0.294015042271855,DLL
17.4333333333333,-0.0203368607908487,-2.67310094833374,9.65103721618652,1.06708002090454,-1.12805593013763,0.937505960464478,-1209.90002441406,49.5000038146973,-923.700012207031,0.330085141513321,-0.0009108980131022,0.269033451488579,DLL
17.4666666666667,0.205163031816483,-2.35907578468323,9.60139083862305,1.6692179441452,-0.922261953353882,1.21951997280121,-1202.70007324219,54.9000015258789,-923.700012207031,0.322964370468129,0.0211849618780071,0.238905082517157,DLL
17.5,0.0275145769119263,-2.26875638961792,9.43989276885986,1.92074394226074,-0.586893975734711,0.388722002506256,-1214.70007324219,48.3000030517578,-935.700012207031,0.320118194216648,0.0040365149535548,0.232648296544217,DLL
17.5333333333333,0.278136491775513,-2.41589951515198,9.01640701293945,1.47866797447205,-1.13567793369293,0.78506600856781,-1202.70007324219,45.9000015258789,-923.700012207031,0.313922489672963,0.030707612789761,0.258633823541726,DLL
17.5666666666667,0.471336662769318,-2.38180541992188,9.49432373046875,0.693601965904236,-1.18140995502472,0.396344006061554,-1224.30004882812,44.7000007629395,-926.100036621094,0.310487136443205,0.0496001550021805,0.244892220012285,DLL
17.6,0.619077980518341,-2.66891384124756,9.22575759887695,0.25152599811554,-0.945127964019775,0.693601965904236,-1217.10009765625,47.1000022888184,-926.100036621094,0.303618688164557,0.0651902671405246,0.28027490924631,DLL
