seconds,sensor_accX_m_s_,sensor_accY_m_s_,sensor_accZ_m_s_,sensor_gyroX____s_,sensor_gyroY____s_,sensor_gyroZ____s_,sensor_magX___T_,sensor_magY___T_,sensor_magZ___T_,sensor_yaw____,sensor_pitch____,sensor_roll____,label5
0.0,0.879270196,-1.459468842,9.461425781,0.251525998,-0.251525998,0.449698001,-1229.100098,-11.10000038,-878.1000366,-1.02796085,0.091700736,0.152258745,ST
0.0333333333333333,0.870896161,-1.418197036,9.456640244,0.243903995,-0.259148002,0.335367978,-1231.5,-10.5,-885.3000488,-1.029153554,0.091217097,0.148727962,ST
0.0666666666666667,0.836802006,-1.425374746,9.428527832,0.213415995,-0.182927996,0.342989981,-1233.900024,-10.5,-880.500061,-1.030643219,0.088018315,0.149649804,ST
0.1,0.778782129,-1.421785831,9.433911324,0.190549999,-0.259148002,0.342989981,-1226.700073,-8.100000381,-882.9000244,-1.032095592,0.082233998,0.14933033,ST
0.133333333333333,0.803904176,-1.454683661,9.4375,0.167683989,-0.274392009,0.388722003,-1231.5,-9.900000572,-880.500061,-1.033864508,0.084168066,0.152399476,ST
0.166666666666667,0.846372306,-1.451094866,9.503295898,0.350611985,-0.388722003,0.259148002,-1231.5,-10.5,-873.3000488,-1.036191301,0.088412214,0.150961778,ST
0.2,0.940280735,-1.43793571,9.384264946,0.342989981,-0.320124,0.327746004,-1229.100098,-11.10000038,-873.3000488,-1.037629926,0.098211057,0.151460234,ST
0.233333333333333,0.923532724,-1.402047157,9.424340248,0.259148002,-0.236281991,0.289635986,-1231.5,-9.300000191,-875.7000122,-1.038453053,0.097072291,0.147665377,ST
0.266666666666667,0.900803328,-1.440926433,9.387853622,0.266770005,0.022865999,0.289635986,-1236.300049,-9.300000191,-878.1000366,-1.039881513,0.094683003,0.151499984,ST
0.3,0.887046039,-1.471431732,9.446472168,0.266770005,0.015244,0.205793992,-1231.5,-8.700000763,-880.500061,-1.040955547,0.092591799,0.153912568,ST
0.333333333333333,0.80031532,-1.428365469,9.472789764,0.282013983,-0.015244,0.068598002,-1229.100098,-6.900000095,-880.500061,-1.040915584,0.08405274,0.149533901,ST
0.366666666666667,0.75306201,-1.403243423,9.428527832,0.350611985,-0.076219998,0.137196004,-1231.5,-10.5,-882.9000244,-1.041377038,0.079319187,0.147333187,ST
0.4,0.770408154,-1.467842817,9.436303139,0.205793992,-0.190549999,0.236281991,-1233.900024,-10.5,-880.500061,-1.04282122,0.080634112,0.153391078,ST
0.433333333333333,0.791343153,-1.504329562,9.492528915,0.121951997,-0.312501997,0.350611985,-1229.100098,-9.300000191,-878.1000366,-1.044483297,0.082418264,0.156684317,ST
0.466666666666667,0.821848452,-1.535433054,9.560717583,0.182927996,-0.259148002,0.388722003,-1233.900024,-9.300000191,-885.3000488,-1.046172919,0.084775648,0.158773875,ST
0.5,0.827829897,-1.518684983,9.498510361,0.342989981,-0.053353999,0.40396598,-1233.900024,-10.5,-875.7000122,-1.047662048,0.085742788,0.158070474,ST
0.533333333333333,0.733323276,-1.472627997,9.508678436,0.434453994,0.030487999,0.396344006,-1229.100098,-10.5,-878.1000366,-1.0487368,0.076796843,0.153409458,ST
0.566666666666667,0.650779545,-1.405635953,9.282580376,0.449698001,0.091463998,0.457319975,-1226.700073,-10.5,-875.7000122,-1.05010358,0.069640956,0.149903654,ST
0.6,0.614890993,-1.3697474,9.432116508,0.327746004,-0.053353999,0.327746004,-1233.900024,-10.5,-882.9000244,-1.05094347,0.06490559,0.144242516,ST
0.633333333333333,0.803904176,-1.403841496,9.299926758,0.228659987,-0.358233988,0.175305992,-1236.300049,-9.300000191,-882.9000244,-1.052249322,0.084530436,0.149127442,ST
0.666666666666667,0.835605741,-1.449300408,9.340600967,0.083841994,-0.670735955,-0.038109999,-1233.900024,-12.30000019,-887.7000122,-1.052861562,0.088904699,0.153374899,ST
0.7,0.89661634,-1.549190283,9.433911324,0.121951997,-0.602137983,-0.114329994,-1233.900024,-9.900000572,-880.500061,-1.053600617,0.094068325,0.16171674,ST
0.733333333333333,0.888242304,-1.55098474,9.515258789,0.167683989,-0.487807989,-0.022865999,-1231.5,-8.700000763,-885.3000488,-1.053825366,0.092822338,0.161326989,ST
0.766666666666667,0.82603544,-1.568928957,9.522436142,0.304879993,-0.411587983,0.221037999,-1231.5,-9.300000191,-875.7000122,-1.055019162,0.086645156,0.162672247,ST
0.8,0.789548695,-1.499544382,9.543969154,0.472563982,-0.327746004,0.503051996,-1233.900024,-10.5,-880.500061,-1.056463673,0.082394319,0.155785205,ST
0.833333333333333,0.862522185,-1.44272089,9.396227837,0.556405962,-0.327746004,0.693601966,-1236.300049,-11.10000038,-880.500061,-1.059064109,0.090282833,0.151791127,ST
0.866666666666667,0.910971761,-1.399654508,9.440490723,0.548784018,-0.373477995,0.739333987,-1233.900024,-11.10000038,-882.9000244,-1.061489433,0.095136512,0.146851957,ST
0.9,0.982150733,-1.386495352,9.336413383,0.525918007,-0.434453994,0.647870004,-1229.100098,-9.900000572,-880.500061,-1.064073372,0.103440224,0.146654006,ST
0.933333333333333,1.003683925,-1.408028603,9.342992783,0.396344006,-0.358233988,0.487807989,-1236.300049,-12.30000019,-880.500061,-1.066278125,0.106061757,0.148774852,ST
0.966666666666667,0.958225012,-1.439730167,9.444677353,0.320124,-0.327746004,0.327746004,-1229.100098,-11.10000038,-882.9000244,-1.06786256,0.100951968,0.150600214,ST
1.0,0.93669188,-1.456478119,9.434509277,0.327746004,-0.29725799,0.190549999,-1231.5,-11.10000038,-880.500061,-1.068961663,0.098513214,0.152452849,ST
1.03333333333333,1.018039346,-1.509114742,9.583446503,0.266770005,-0.464941978,0.068598002,-1229.100098,-9.900000572,-878.1000366,-1.069878427,0.104821886,0.155499443,ST
1.06666666666667,1.061105609,-1.500142574,9.4375,0.53354001,-0.556405962,0.068598002,-1233.900024,-12.30000019,-878.1000366,-1.070729084,0.110921862,0.156623263,ST
1.1,0.985739589,-1.437337518,9.448864937,0.503051996,-0.396344006,0.106707998,-1233.900024,-10.5,-878.1000366,-1.070866535,0.104048798,0.150650455,ST
1.13333333333333,0.954038024,-1.394869447,9.448266029,0.609759986,-0.121951997,0.335367978,-1236.300049,-11.10000038,-880.500061,-1.071889832,0.100015951,0.145954013,ST
1.16666666666667,0.968393445,-1.371541858,9.378881454,0.678357959,-0.015244,0.472563982,-1231.5,-12.30000019,-880.500061,-1.073681704,0.101591652,0.144246677,ST
1.2,0.962412059,-1.316512704,9.424939156,0.678357959,-0.030487999,0.503051996,-1229.100098,-11.70000076,-885.3000488,-1.075043057,0.100798527,0.138283878,ST
1.23333333333333,0.952841759,-1.332662582,9.481761932,0.655492008,-0.144817993,0.434453994,-1236.300049,-11.10000038,-880.500061,-1.077059115,0.099424735,0.138552093,ST
1.26666666666667,0.958225012,-1.357186437,9.462621689,0.762199998,-0.137196004,0.434453994,-1231.5,-11.10000038,-878.1000366,-1.079219929,0.099989666,0.141002881,ST
1.3,0.910373628,-1.356588244,9.476379395,0.785066009,-0.068598002,0.381099999,-1233.900024,-12.30000019,-878.1000366,-1.080899629,0.095226823,0.140892637,ST
1.33333333333333,0.848764896,-1.380514026,9.487145424,0.846041977,0.152439997,0.358233988,-1233.900024,-12.90000057,-878.1000366,-1.082626334,0.088450228,0.14292569,ST
1.36666666666667,0.835007608,-1.40743041,9.487145424,0.838419974,0.213415995,0.373477995,-1236.300049,-11.70000076,-880.500061,-1.084279129,0.086567519,0.145599391,ST
1.4,0.71777159,-1.326082945,9.500305176,0.83079797,0.160062,0.282013983,-1229.100098,-10.5,-878.1000366,-1.084779801,0.075448795,0.138024831,ST
1.43333333333333,0.64719069,-1.285409212,9.417760849,0.990859985,0.190549999,0.373477995,-1229.100098,-11.10000038,-880.500061,-1.085944544,0.06827984,0.134329651,ST
1.46666666666667,0.699229121,-1.227987528,9.58045578,1.028970003,-0.060975999,0.243903995,-1236.300049,-12.90000057,-880.500061,-1.086506951,0.071952718,0.126495682,ST
1.5,0.772202551,-1.095199823,9.505687714,1.272873998,-0.457319975,0.266770005,-1233.900024,-12.30000019,-880.500061,-1.086978208,0.080424182,0.113795318,ST
1.53333333333333,0.812876284,-0.897812605,9.536791801,1.42531395,-0.800309956,0.320124,-1229.100098,-12.90000057,-880.500061,-1.087080119,0.085491153,0.093459147,ST
1.56666666666667,0.925327182,-0.765024841,9.543371201,1.478667974,-0.876529992,0.510674,-1233.900024,-14.70000076,-878.1000366,-1.08836426,0.096875076,0.078711453,ST
1.6,1.003085732,-0.638218522,9.526622772,1.349093914,-0.884151995,0.503051996,-1236.300049,-12.90000057,-878.1000366,-1.089487825,0.105314044,0.065914249,ST
1.63333333333333,0.974973023,-0.551487803,9.526622772,1.036592007,-0.541162014,0.503051996,-1229.100098,-15.30000019,-875.7000122,-1.090771127,0.102944876,0.056998685,ST
1.66666666666667,0.995309889,-0.526365817,9.576867104,0.685979962,-0.350611985,0.487807989,-1226.700073,-14.70000076,-878.1000366,-1.092456503,0.103873953,0.054090933,ST
1.7,1.054526091,-0.532945395,9.412377357,0.53354001,-0.320124,0.556405962,-1236.300049,-15.90000057,-878.1000366,-1.094785543,0.111172081,0.055590976,ST
1.73333333333333,1.024618864,-0.563450694,9.649242401,0.342989981,-0.29725799,0.556405962,-1231.5,-14.10000038,-878.1000366,-1.097297355,0.106424263,0.057681767,ST
1.76666666666667,1.052133441,-0.424681515,9.464416504,0.449698001,-0.396344006,0.792688012,-1231.5,-14.10000038,-882.9000244,-1.099162716,0.110898427,0.045139067,ST
1.8,1.111349583,-0.283519775,9.551146507,0.510674,-0.609759986,0.990859985,-1241.100098,-13.50000095,-880.500061,-1.101174431,0.116260232,0.030450468,ST
1.83333333333333,1.513899803,-0.059814297,10.01111889,0.655492008,-1.394825935,1.333850026,-1236.300049,-14.10000038,-880.500061,-1.103085258,0.149211574,0.007466562,ST
1.86666666666667,1.547994018,0.027514577,10.93046474,1.028970003,-3.971061945,1.653973937,-1248.300049,-15.30000019,-873.3000488,-1.108275204,0.147730609,-0.003104802,ST
1.9,1.213033915,-0.013159146,10.23841286,1.379581928,-7.888769627,2.416173935,-1250.700073,-14.70000076,-866.1000366,-1.117482666,0.133154861,-0.000774588,ST
1.93333333333333,1.856037617,0.323595345,8.412282944,0.647870004,-4.13112402,3.224105835,-1265.100098,-13.50000095,-861.3000488,-1.122592843,0.216098006,-0.035019149,ST
1.96666666666667,2.043854475,0.391783655,9.145008087,-0.487807989,1.34147191,4.009171963,-1262.700073,-14.10000038,-863.7000122,-1.134863643,0.217482328,-0.03991057,ST
2.0,1.763923645,0.267369896,9.106128693,-1.326228023,4.016793728,4.718018055,-1255.5,-13.50000095,-863.7000122,-1.153011541,0.187477629,-0.026702972,ST
2.03333333333333,0.963608325,0.007775859,9.234729767,-2.111294031,5.099117756,4.695151806,-1253.100098,-11.10000038,-873.3000488,-1.172286331,0.103473314,0.001072397,ST
2.06666666666667,-0.122619309,-0.551487803,9.6558218,-2.858249903,5.099117756,4.298808098,-1241.100098,-10.5,-875.7000122,-1.188749669,-0.010528523,0.05659068,ST
2.1,-0.752463877,-0.922934592,9.905845642,-2.942091942,4.184477806,3.376545906,-1236.300049,-7.500000477,-875.7000122,-1.19810133,-0.076680326,0.093969803,ST
2.13333333333333,-0.927719772,-1.370943666,9.869359016,-2.538125992,2.46952796,2.812517881,-1233.900024,-5.700000286,-882.9000244,-1.20418909,-0.096162563,0.138419879,ST
2.16666666666667,-1.15561223,-1.429561734,9.428527832,-2.134160042,0.442075998,2.439039946,-1236.300049,-6.300000191,-882.9000244,-1.211562268,-0.119650297,0.152338322,ST
2.2,-0.843979716,-1.47083354,9.038537979,-2.248489857,-1.935987949,2.736297846,-1231.5,-4.5,-887.7000122,-1.221510678,-0.092081936,0.163606331,ST
2.23333333333333,-0.452196091,-1.668818831,8.789710999,-2.446661949,-4.093013763,2.98020196,-1233.900024,-3.300000191,-890.1000366,-1.232901946,-0.048748328,0.189006961,ST
2.26666666666667,-0.17286332,-1.857832074,8.603090286,-2.911603928,-5.70887804,2.835383892,-1243.5,-1.5,-880.500061,-1.245955993,-0.014353186,0.215029716,ST
2.3,-0.042468149,-2.006171465,8.449367523,-3.170752048,-6.135709763,2.820139885,-1248.300049,-1.5,-875.7000122,-1.260152563,0.002697299,0.236507442,ST
2.33333333333333,0.157909751,-2.610893965,8.917713165,-3.727157831,-5.586925983,2.553369999,-1257.900024,-0.300000012,-870.9000244,-1.27419317,0.023118904,0.286471103,ST
2.36666666666667,0.326586068,-2.896806479,9.439293861,-3.673803806,-5.182960033,1.699705958,-1265.100098,1.5,-863.7000122,-1.285121986,0.039226687,0.302752854,ST
2.4,0.552684128,-3.0170331,9.660009384,-2.675322056,-5.807963848,0.861285985,-1269.900024,2.700000048,-861.3000488,-1.294230155,0.061916201,0.307282461,ST
2.43333333333333,1.25191319,-3.227579355,9.025977135,-2.164648056,-6.128087997,-0.945127964,-1277.100098,2.700000048,-856.500061,-1.300744148,0.133392594,0.343785619,ST
2.46666666666667,1.595845461,-3.590652227,8.525331497,-1.547266006,-5.625035763,-2.538125992,-1293.900024,3.900000095,-846.9000244,-1.307056102,0.178590403,0.39765092,ST
2.5,1.070675969,-3.496743917,8.26095295,0.320124,-4.93905592,-4.329296112,-1291.5,3.300000191,-839.7000122,-1.300381453,0.13409948,0.399194041,ST
2.53333333333333,1.125106931,-3.329263687,7.572490215,0.663114011,-4.047281742,-5.061007977,-1303.5,1.5,-846.9000244,-1.291046143,0.144421003,0.41140224,ST
2.56666666666667,0.61429286,-2.976359367,8.335720062,1.143299937,-3.460387945,-5.175337791,-1305.900024,0.300000012,-839.7000122,-1.271038928,0.08311951,0.345663481,ST
2.6,0.616087258,-2.859123468,7.655033588,2.141782045,-4.184477806,-4.336917877,-1310.700073,-1.5,-837.3000488,-1.262899487,0.084584187,0.352696127,ST
2.63333333333333,1.759138465,-2.924919128,8.191568375,2.027451992,-3.78813386,-4.245453835,-1317.900024,-3.300000191,-834.9000244,-1.252843408,0.197088885,0.33985994,ST
2.66666666666667,2.01215291,-2.792729616,8.006741524,2.713431835,-4.740883827,-4.53508997,-1325.100098,-4.5,-832.500061,-1.243713961,0.239201141,0.33065729,ST
2.7,2.260980368,-2.516985655,7.289568424,3.208861828,-4.367405891,-4.733262062,-1327.5,-5.100000381,-825.3000488,-1.234689207,0.290854332,0.325709484,ST
2.73333333333333,3.740786076,-2.29686904,8.180203438,2.949713945,-4.405515671,-3.506119967,-1334.700073,-6.300000191,-820.500061,-1.213228052,0.411810501,0.272511857,ST
2.76666666666667,4.596728802,-2.330364943,8.440993309,3.475631952,-6.211929798,-2.416173935,-1337.100098,-6.300000191,-815.7000122,-1.212786503,0.489754621,0.263269559,ST
2.8,6.174031734,-1.953534961,8.561220169,3.925329924,-4.634175777,-0.457319975,-1344.300049,-10.5,-808.500061,-1.200875823,0.61180328,0.221421357,ST
2.83333333333333,6.731501102,-1.713679671,9.122278214,4.42838192,-3.376545906,0.190549999,-1351.5,-12.30000019,-810.9000244,-1.18974673,0.631264554,0.182861093,ST
2.86666666666667,7.527030945,-1.113742232,9.308898926,4.298808098,-2.713431835,1.676839948,-1351.5,-11.10000038,-803.7000122,-1.166631713,0.67636483,0.120700947,ST
2.9,8.585743904,-1.285409212,9.678551674,3.201239824,-0.564027965,2.759163857,-1358.700073,-12.30000019,-798.9000244,-1.186965164,0.717549707,0.129709636,ST
2.93333333333333,8.894984245,-1.76511991,9.040930748,2.57623601,1.699705958,2.667700052,-1353.900024,-12.90000057,-803.7000122,-1.239047669,0.76101786,0.187565921,ST
2.96666666666667,8.543275833,-1.347018003,10.28028297,2.035073996,3.056421995,2.179892063,-1353.900024,-12.30000019,-808.500061,-1.212687464,0.690449175,0.134259528,ST
3.0,7.982217789,-0.738706589,10.09725189,2.096050024,3.140264034,2.827761889,-1346.700073,-11.10000038,-808.500061,-1.188908833,0.664423417,0.078362818,ST
3.03333333333333,7.649650574,-0.310436189,9.48236084,1.112811923,3.932951927,2.484771967,-1341.900024,-9.900000572,-815.7000122,-1.172600991,0.671022829,0.03740338,ST
3.06666666666667,7.490544319,0.189013183,9.394433975,0.335367978,4.336917877,1.219519973,-1334.700073,-11.10000038,-810.9000244,-1.144396352,0.665904392,-0.015060531,ST
3.1,5.639291763,1.481001973,8.432620049,-0.091463998,5.625035763,-0.846041977,-1332.300049,-10.5,-818.1000366,-1.057190486,0.579972611,-0.162410801,ST
3.13333333333333,5.238536358,1.460067034,7.471404076,-0.685979962,5.693634033,-1.875011921,-1322.700073,-12.30000019,-822.9000244,-1.038043167,0.591337546,-0.190143639,ST
3.16666666666667,3.084623337,1.709492564,8.459535599,-1.684461951,5.541193962,-2.515259981,-1317.900024,-11.10000038,-834.9000244,-1.027937439,0.356195825,-0.197102628,ST
3.2,3.25688839,1.243539214,8.353664398,-2.035073996,6.089977741,-2.888737917,-1308.300049,-11.70000076,-834.9000244,-1.03596399,0.356738389,-0.150166549,ST
3.23333333333333,1.877570748,0.9719823,8.075528145,-2.568614006,5.53357172,-4.542711735,-1305.900024,-12.30000019,-849.3000488,-1.028085304,0.225036136,-0.119014029,ST
3.26666666666667,1.279427767,0.930710435,8.05878067,-2.690565825,5.274424076,-4.176856041,-1291.5,-12.90000057,-846.9000244,-1.014441414,0.151838571,-0.111840697,ST
3.3,1.178341627,-0.300267786,8.880628586,-3.315569878,5.30491209,-3.224105835,-1286.700073,-13.50000095,-856.500061,-1.021358704,0.125337986,0.02520396,ST
3.33333333333333,1.361971498,-1.833906293,9.398022652,-3.285081863,4.359784126,-3.368923903,-1272.300049,-12.30000019,-856.500061,-1.025705747,0.134257085,0.186639763,ST
3.36666666666667,1.561751246,-3.338834047,10.16902828,-3.711913824,4.169233799,-4.093013763,-1279.5,-11.10000038,-866.1000366,-1.023614895,0.139532415,0.310114892,ST
3.4,1.525862694,-3.897499561,10.04640961,-3.010689974,4.512223721,-3.879597902,-1267.5,-10.5,-861.3000488,-1.010359174,0.135946356,0.370072268,ST
3.43333333333333,1.661043048,-3.852040768,9.210803986,-2.36281991,4.565577984,-2.972579956,-1260.300049,-11.10000038,-868.500061,-0.997707864,0.157353725,0.396388373,ST
3.46666666666667,1.335055113,-3.020023823,8.603090286,-1.257629991,5.160093784,-1.608241916,-1255.5,-12.30000019,-875.7000122,-0.976246756,0.139127467,0.342554859,ST
3.5,0.126806304,-0.93669188,7.777653217,0.304879993,6.143332005,0.678357959,-1250.700073,-11.70000076,-880.500061,-0.957987559,0.017739107,0.139409197,ST
3.53333333333333,-0.325987905,-0.495262384,7.988797665,0.007622,7.461937904,3.132642031,-1231.5,-9.900000572,-887.7000122,-0.968201721,-0.04917185,0.067078105,ST
3.56666666666667,-1.553975463,-0.332567483,9.212597847,0.221037999,8.529017448,3.666181803,-1219.5,-10.5,-882.9000244,-0.982415101,-0.170073448,0.037803072,ST
3.6,-0.398961365,-0.087927014,7.492338657,0.556405962,9.466524124,2.987823963,-1207.5,-9.900000572,-894.9000244,-0.994821156,-0.078903431,0.012765401,ST
3.63333333333333,-4.127186298,-0.923532724,10.81322861,-0.182927996,11.27293777,2.271355867,-1193.100098,-9.300000191,-899.7000122,-0.986593395,-0.355325783,0.077739116,ST
3.66666666666667,-3.357376575,-2.793925762,10.65591717,-0.868907988,8.46804142,1.097568035,-1173.900024,-9.900000572,-902.1000366,-0.931434457,-0.314740079,0.243782435,ST
3.7,-2.926713467,-3.0170331,10.85928535,-1.486289978,4.085391998,-2.431417942,-1169.100098,-8.700000763,-904.500061,-0.913375643,-0.264787149,0.272460129,ST
3.73333333333333,-2.769999981,-2.171857119,8.683241844,-0.144817993,1.150921941,-2.964957952,-1164.300049,-7.500000477,-909.3000488,-0.909448991,-0.297526322,0.249330778,ST
3.76666666666667,-2.918937683,-1.537227392,8.162259102,1.036592007,1.669217944,-1.105189919,-1164.300049,-9.900000572,-904.500061,-0.921753663,-0.33722826,0.190089357,ST
3.8,-3.02660346,-1.197482228,7.842850685,0.907018006,1.23476398,-0.243903995,-1154.700073,-9.300000191,-906.9000244,-0.931660609,-0.363871784,0.153856804,ST
3.83333333333333,-3.267655134,-1.266866803,9.085193634,0.182927996,0.335367978,0.068598002,-1157.100098,-9.900000572,-904.500061,-0.936545775,-0.344251497,0.139284162,ST
3.86666666666667,-2.842973471,-1.440926433,8.31418705,0.091463998,-1.303362012,-0.922261953,-1157.100098,-8.100000381,-906.9000244,-0.923960199,-0.323973252,0.169631879,ST
3.9,-2.814860821,-1.558162451,8.552845955,-0.815553963,-2.690565825,-1.928365946,-1164.300049,-10.5,-904.500061,-0.916523085,-0.309364309,0.181271258,ST
3.93333333333333,-2.415301323,-2.184418201,8.530117035,-1.532021999,-4.984787941,-3.102154016,-1169.100098,-8.700000763,-904.500061,-0.891720408,-0.261219427,0.249720275,ST
3.96666666666667,-2.174249649,-2.256195307,8.418264389,-1.463423967,-6.455833912,-3.429899931,-1171.5,-6.900000095,-904.500061,-0.883755858,-0.234459915,0.26384424,ST
4.0,-1.958320141,-2.320196629,8.11859417,-0.998481989,-8.353712082,-4.192100048,-1188.300049,-9.900000572,-902.1000366,-0.874708883,-0.213577088,0.27950618,ST
4.03333333333333,-1.868000507,-2.333355665,8.093472481,-1.021348,-7.911635876,-4.451247692,-1197.900024,-8.700000763,-899.7000122,-0.867706192,-0.203785724,0.282893747,ST
4.06666666666667,-1.486983418,-2.793925762,8.7765522,-2.141782045,-6.547297955,-3.894841909,-1214.700073,-8.100000381,-899.7000122,-0.858103724,-0.152245097,0.309774371,ST
4.1,-0.533543527,-3.228177547,9.85799408,-2.606724024,-4.184477806,-2.500015974,-1214.700073,-7.500000477,-894.9000244,-0.854156034,-0.05295184,0.320128444,ST
4.13333333333333,0.401353925,-3.484781027,10.51954079,-1.42531395,-1.158543944,-0.327746004,-1224.300049,-8.100000381,-899.7000122,-0.854330912,0.030047436,0.322181459,ST
4.16666666666667,0.876279473,-3.185111284,10.78691006,-0.350611985,0.571649969,0.72408998,-1219.5,-8.700000763,-892.500061,-0.854456464,0.072242183,0.290909046,ST
4.2,1.553377271,-3.252701521,10.94003487,0.53354001,0.838419974,1.417691946,-1217.100098,-9.300000191,-897.3000488,-0.858259733,0.127648157,0.288534559,ST
4.23333333333333,2.533135414,-3.484182835,10.6200285,1.661595941,-0.594515979,1.478667974,-1219.5,-6.900000095,-897.3000488,-0.869458393,0.216503536,0.312835863,ST
4.26666666666667,2.861515999,-3.381900311,10.06913853,2.57623601,-0.304879993,2.042695999,-1219.5,-8.700000763,-892.500061,-0.880042794,0.258370991,0.319735429,ST
4.3,2.813664436,-3.198868513,9.232336998,3.27745986,1.23476398,2.865871906,-1217.100098,-8.700000763,-897.3000488,-0.894018581,0.275473773,0.328302947,ST
4.33333333333333,2.052228451,-2.799309015,8.649147034,3.38416791,3.056421995,3.300325871,-1205.100098,-8.700000763,-894.9000244,-0.899619,0.220631625,0.309830092,ST
4.36666666666667,0.308641762,-2.189801455,8.442788124,2.942091942,3.589962006,3.155508041,-1202.700073,-9.900000572,-894.9000244,-0.900508078,0.045404311,0.254361124,ST
4.4,-0.694444001,-2.127594471,8.346487045,2.423795938,3.285081863,3.064043999,-1202.700073,-9.900000572,-897.3000488,-0.908709727,-0.078978981,0.245716274,ST
4.43333333333333,-1.0425632,-2.206549406,9.119885445,1.532021999,1.913121939,1.935987949,-1197.900024,-9.900000572,-894.9000244,-0.914067858,-0.111463665,0.235470276,ST
4.46666666666667,-1.194491506,-2.23346591,9.608569145,1.55488801,0.983237982,1.577754021,-1193.100098,-10.5,-897.3000488,-0.919004957,-0.121769186,0.226310959,ST
4.5,-1.319503427,-2.073761702,9.972837448,1.875011921,0.365855992,1.135677934,-1188.300049,-11.10000038,-897.3000488,-0.924551965,-0.129124804,0.203758751,ST
4.53333333333333,-1.368551135,-1.260885358,9.12945652,2.964957952,0.815553963,1.646351933,-1193.100098,-12.30000019,-904.500061,-0.937453568,-0.147603706,0.137656216,ST
4.56666666666667,-1.620369315,-0.385204077,9.107922554,3.315569878,1.844523907,2.881115913,-1193.100098,-12.30000019,-902.1000366,-0.960538542,-0.177056104,0.043376375,ST
4.6,-2.133575916,0.296080768,8.731093407,3.422277927,2.57623601,4.093013763,-1185.900024,-13.50000095,-904.500061,-0.9877653,-0.237863193,-0.033757427,ST
4.63333333333333,-2.374029398,0.391185492,8.377590179,2.248489857,2.942091942,4.291185856,-1183.5,-14.70000076,-902.1000366,-1.005308716,-0.277080216,-0.051149374,ST
4.66666666666667,-2.829216242,0.302062213,9.12945652,1.04421401,2.858249903,3.795755863,-1178.700073,-14.10000038,-902.1000366,-1.014530935,-0.303157313,-0.037978792,ST
4.7,-3.176737309,-0.004187001,9.256860733,1.051836014,1.989341974,3.368923903,-1173.900024,-15.30000019,-906.9000244,-1.014758028,-0.331215489,-0.006545535,ST
4.73333333333333,-3.026005268,-0.074169725,9.56191349,0.739333987,1.608241916,2.713431835,-1173.900024,-13.50000095,-902.1000366,-1.020221612,-0.310813358,0.00415604,ST
4.76666666666667,-3.394461393,-0.665733099,8.955994606,0.137196004,1.509155989,1.23476398,-1171.5,-13.50000095,-911.7000122,-1.003033784,-0.360508029,0.068392763,ST
4.8,-4.398743629,-0.567039549,8.403310776,0.304879993,1.707327962,0.365855992,-1166.700073,-14.10000038,-909.3000488,-1.004106723,-0.476514272,0.066763991,ST
4.83333333333333,-4.228272438,-1.205258131,8.425441742,-0.060975999,2.294221878,1.364337921,-1164.300049,-12.30000019,-902.1000366,-0.976802775,-0.466452516,0.134584329,ST
4.86666666666667,-3.895705223,-1.223202348,8.504995346,-0.312501997,2.096050024,1.250007987,-1164.300049,-12.90000057,-909.3000488,-0.977040489,-0.432925218,0.141907882,ST
4.9,-2.726933718,-1.373934388,8.758607864,-0.327746004,1.74543798,0.960371971,-1157.100098,-13.50000095,-904.500061,-0.975236593,-0.309853705,0.154970463,ST
4.93333333333333,-1.876374483,-0.954038024,9.351366997,-0.739333987,1.653973937,-0.381099999,-1157.100098,-12.90000057,-914.1000366,-0.986060236,-0.209784032,0.107758361,ST
4.96666666666667,-0.608311415,-0.61668539,10.10981274,-0.952749968,2.111294031,-0.945127964,-1152.300049,-12.90000057,-909.3000488,-0.988519506,-0.07678813,0.06680034,ST
5.0,0.144152462,-0.276940197,11.03633595,-1.44817996,2.035073996,-1.067080021,-1142.700073,-11.70000076,-909.3000488,-0.985524415,0.004170848,0.030079858,ST
5.03333333333333,0.439635098,-0.24822934,11.07701015,-2.134160042,1.714949965,-0.83079797,-1133.100098,-11.10000038,-911.7000122,-0.981859665,0.034671594,0.026335488,ST
5.06666666666667,0.532347262,-0.745286167,10.75221825,-2.591480017,1.592997909,-0.777444005,-1140.300049,-10.5,-906.9000244,-0.980251613,0.045578384,0.069376096,ST
5.1,-0.276940197,-1.161593676,9.871153831,-1.547266006,2.804895878,-0.983237982,-1128.300049,-9.900000572,-909.3000488,-0.976377772,-0.025463626,0.115295532,ST
5.13333333333333,-1.624556303,-1.269857526,8.866871834,-0.571649969,3.719535828,-0.853663981,-1133.100098,-9.300000191,-911.7000122,-0.969500646,-0.171078408,0.140997676,ST
5.16666666666667,-3.126493216,-1.229183793,8.449965477,-0.487807989,3.27745986,-0.381099999,-1125.900024,-9.900000572,-921.3000488,-0.965869705,-0.342419161,0.145463765,ST
5.2,-3.658242464,-1.466048479,8.308205605,-0.777444005,2.843005896,0.190549999,-1118.700073,-9.300000191,-916.500061,-0.955775856,-0.407595862,0.173393524,ST
5.23333333333333,-3.823329926,-1.76033473,7.963077545,-1.006103992,3.231727839,0.076219998,-1111.5,-9.900000572,-916.500061,-0.937769837,-0.441206202,0.216273481,ST
5.26666666666667,-4.538708687,-2.031891584,8.494228363,-0.945127964,3.536607981,-0.152439997,-1111.5,-7.500000477,-914.1000366,-0.92780918,-0.481216858,0.235387515,ST
5.3,-4.817443371,-2.366851807,8.533107758,-0.990859985,2.957335949,-0.701223969,-1104.300049,-7.500000477,-914.1000366,-0.908673818,-0.500953757,0.270194408,ST
5.33333333333333,-4.790526867,-2.591155291,8.342898369,-0.716467977,2.675322056,-1.318606019,-1094.700073,-7.500000477,-916.500061,-0.887941038,-0.505082285,0.30201356,ST
5.36666666666667,-4.600317478,-2.572014809,8.376992226,-0.480185986,2.355197906,-1.42531395,-1097.100098,-8.100000381,-914.1000366,-0.882569692,-0.487883607,0.300737222,ST
5.4,-4.13974762,-2.661138058,8.43022728,-0.106707998,1.326228023,-0.693601966,-1092.300049,-7.500000477,-911.7000122,-0.876945026,-0.444137851,0.306311876,ST
5.43333333333333,-3.780861616,-2.975163221,8.301028252,0.495429993,0.907018006,-0.144817993,-1092.300049,-9.300000191,-909.3000488,-0.860291273,-0.409069091,0.341105553,ST
5.46666666666667,-3.556558132,-2.741887331,8.499611855,1.463423967,1.158543944,-0.602137983,-1085.100098,-8.100000381,-916.500061,-0.866032479,-0.382532654,0.312261077,ST
5.5,-3.366348743,-2.792131424,8.924891472,1.592997909,0.693601966,-0.800309956,-1092.300049,-9.300000191,-911.7000122,-0.864462597,-0.349266684,0.301971474,ST
5.53333333333333,-3.164774418,-3.033183098,8.861488342,1.897877932,-0.61738199,-0.967993975,-1087.5,-8.700000763,-918.9000244,-0.852390862,-0.326564677,0.324675581,ST
5.56666666666667,-3.077445507,-2.939274549,9.304114342,2.218001842,-1.303362012,-1.143299937,-1087.5,-11.10000038,-916.500061,-0.853851673,-0.304544197,0.304169654,ST
5.6,-2.965592861,-2.68027854,8.876441956,2.568614006,-2.004585981,-2.012207985,-1087.5,-10.5,-916.500061,-0.850408839,-0.305141325,0.290610451,ST
5.63333333333333,-3.058903217,-2.3626647,8.10005188,2.637212038,-1.63872993,-2.400929928,-1087.5,-11.10000038,-914.1000366,-0.84442132,-0.34037302,0.281260407,ST
5.66666666666667,-3.381302118,-1.823139787,7.741166115,2.675322056,-0.282013983,-2.225623846,-1092.300049,-11.70000076,-911.7000122,-0.851689389,-0.395173766,0.233027303,ST
5.7,-3.849050045,-1.503731489,7.675968647,2.896359921,0.625003994,-1.318606019,-1094.700073,-14.70000076,-918.9000244,-0.858901997,-0.453605216,0.192634204,ST
5.73333333333333,-4.073951721,-1.286605477,7.463627815,2.987823963,0.945127964,0.053353999,-1092.300049,-13.50000095,-914.1000366,-0.864997742,-0.491393316,0.168068056,ST
5.76666666666667,-4.83179903,-1.0425632,7.689127922,2.530503988,1.219519973,2.461905956,-1085.100098,-14.70000076,-914.1000366,-0.885476276,-0.553455606,0.131685413,ST
5.8,-4.926305294,-0.827829897,7.96846056,1.920743942,1.432935953,3.330813885,-1082.700073,-16.5,-909.3000488,-0.907946324,-0.554335974,0.099910188,ST
5.83333333333333,-4.755236626,-0.61668539,8.235232353,1.623485923,2.111294031,3.353679895,-1082.700073,-16.5,-914.1000366,-0.92914325,-0.529083321,0.071436514,ST
5.86666666666667,-4.882640839,-0.241051614,9.380078316,1.913121939,2.164648056,2.835383892,-1087.5,-16.5,-906.9000244,-0.957177711,-0.487862733,0.024341314,ST
5.9,-4.924510956,-0.005383287,9.686326981,2.347575903,1.272873998,2.17227006,-1077.900024,-17.10000038,-914.1000366,-0.973184548,-0.473623497,-0.003449337,LD
5.93333333333333,-4.834789753,0.568235815,9.375890732,2.76678586,-0.487807989,2.06556201,-1077.900024,-18.30000114,-911.7000122,-1.001840328,-0.474294362,-0.06190281,LD
5.96666666666667,-4.707983494,0.724351168,9.202429771,2.393307924,-1.897877932,2.515259981,-1080.300049,-20.70000076,-914.1000366,-1.014842289,-0.468560481,-0.082744562,LD
6.0,-4.048231602,0.862522185,8.679652214,1.394825935,-3.468009949,2.278977871,-1087.5,-18.90000153,-909.3000488,-1.027235663,-0.431168673,-0.101531157,LD
6.03333333333333,-3.919631004,0.89422375,8.692214012,0.053353999,-4.367405891,2.06556201,-1089.900024,-20.70000076,-904.500061,-1.03325177,-0.415152285,-0.10366164,LD
6.06666666666667,-3.317301035,0.843979716,9.259851456,-1.135677934,-4.016793728,2.080806017,-1099.5,-20.70000076,-911.7000122,-1.035510704,-0.342583448,-0.091211986,LD
6.1,-1.350008726,0.775193274,9.527819633,-2.042695999,-3.38416791,0.038109999,-1104.300049,-18.30000114,-914.1000366,-1.033251651,-0.151646768,-0.07861387,LD
6.13333333333333,-1.029404044,0.494066089,9.961473465,-2.461905956,-2.347575903,-1.783547997,-1104.300049,-17.70000076,-911.7000122,-1.023794442,-0.103690982,-0.047920682,LD
6.16666666666667,-1.739399791,0.340343356,10.15646744,-1.821658015,-2.027451992,-2.934469938,-1101.900024,-18.30000114,-909.3000488,-1.012147386,-0.160508885,-0.031193683,LD
6.2,-2.089313507,0.431261092,10.23960972,-0.80793196,-4.458869934,-1.95885396,-1106.700073,-16.5,-911.7000122,-1.0066431,-0.190736198,-0.039245134,LD
6.23333333333333,-1.971479177,0.037084863,8.411086082,-0.388722003,-6.364369869,-0.129574001,-1118.700073,-16.5,-911.7000122,-0.999506572,-0.216567342,-0.006908439,LD
6.26666666666667,-2.090509653,-0.824241042,7.69810009,-2.294221878,-4.580821991,0.541162014,-1125.900024,-15.90000057,-911.7000122,-0.979115208,-0.253460224,0.102808148,LD
6.3,-2.658147335,-1.229781985,7.939749718,-3.346057892,-2.98020196,-0.121951997,-1130.700073,-16.5,-914.1000366,-0.969086577,-0.310144923,0.155386716,LD
6.33333333333333,-2.920732021,-1.785456777,8.214895248,-3.567095995,-1.493911982,-1.143299937,-1140.300049,-13.50000095,-914.1000366,-0.95156092,-0.329524003,0.214769074,LD
6.36666666666667,-3.500332594,-2.177240372,8.454751015,-3.239349842,-1.04421401,-1.989341974,-1137.900024,-11.70000076,-914.1000366,-0.9362138,-0.374235511,0.25478306,LD
6.4,-3.491958618,-2.868095636,9.463219643,-2.461905956,-2.309465885,-3.163130045,-1147.5,-9.900000572,-906.9000244,-0.916213573,-0.336796685,0.296966611,LD
6.43333333333333,-2.890825033,-3.109745264,9.39682579,-1.333850026,-6.04424572,-4.565577984,-1147.5,-9.900000572,-906.9000244,-0.901843748,-0.277025793,0.321045796,LD
6.46666666666667,-2.813664436,-3.264664412,9.378283501,-0.571649969,-9.001582146,-4.862835884,-1159.5,-12.30000019,-911.7000122,-0.892941706,-0.260161081,0.335339862,LD
6.5,-1.617976785,-2.804094315,9.175513268,-0.472563982,-9.85524559,-3.628072023,-1181.100098,-11.70000076,-897.3000488,-0.899061115,-0.158805271,0.300952229,LD
6.53333333333333,-0.32000649,-3.018229485,9.234130859,-1.04421401,-8.003099442,-2.103672028,-1190.700073,-9.900000572,-904.500061,-0.899594844,-0.027274214,0.316669738,LD
6.56666666666667,0.697434723,-3.404031754,9.780834198,-2.210379839,-4.702774048,-1.318606019,-1193.100098,-9.900000572,-899.7000122,-0.900726281,0.067231042,0.336975146,LD
6.6,0.588572681,-3.457266331,9.711449623,-1.486289978,-3.361301899,-0.693601966,-1193.100098,-11.70000076,-902.1000366,-0.902560228,0.063288054,0.344076612,LD
6.63333333333333,0.75066942,-3.362161636,9.315478325,0.373477995,-2.25611186,0.167683989,-1202.700073,-10.5,-904.500061,-0.90594011,0.077813615,0.345681302,LD
6.66666666666667,0.439635098,-3.081034422,9.235327721,1.974097967,-2.294221878,0.846041977,-1212.300049,-11.10000038,-897.3000488,-0.910114731,0.051106316,0.321144075,LD
6.7,0.333763778,-2.507415295,8.722719193,3.361301899,-1.158543944,2.317087889,-1217.100098,-11.70000076,-892.500061,-0.91805951,0.03858741,0.277761348,LD
6.73333333333333,0.349913627,-2.017536163,8.957191467,4.169233799,-0.907018006,3.422277927,-1217.100098,-11.70000076,-897.3000488,-0.928628079,0.038304105,0.220227276,LD
6.76666666666667,0.305651069,-1.622761846,8.926087379,4.199721813,-0.945127964,3.064043999,-1219.5,-11.10000038,-894.9000244,-0.938587887,0.034680239,0.177002439,LD
6.8,0.053832866,-1.291390657,9.019397736,3.971061945,-0.777444005,2.713431835,-1219.5,-14.10000038,-897.3000488,-0.947700918,0.009108618,0.139117866,LD
6.83333333333333,-0.206359327,-1.047946453,9.469799995,4.138745785,-1.04421401,1.966475964,-1214.700073,-14.70000076,-890.1000366,-0.954919747,-0.017572946,0.106218384,LD
6.86666666666667,-0.638218522,-0.606516957,9.936350822,4.481735706,-1.653973937,1.676839948,-1214.700073,-17.10000038,-897.3000488,-0.962308913,-0.057376637,0.057812147,LD
6.9,-0.763828576,0.110656448,10.37718201,5.076251984,-2.888737917,2.370441914,-1221.900024,-17.10000038,-894.9000244,-0.97393093,-0.067435663,-0.012758066,LD
6.93333333333333,-0.01614986,0.840390861,9.206018448,5.365887642,-3.658559799,3.78813386,-1224.300049,-17.10000038,-887.7000122,-0.988453181,-0.001456272,-0.092535434,LD
6.96666666666667,0.719565988,0.948654771,9.22336483,3.826243877,-3.064043999,4.039659977,-1236.300049,-18.30000114,-887.7000122,-1.00128677,0.075797852,-0.107303689,LD
7.0,1.312325716,1.015048623,9.676756859,2.637212038,-1.775925994,3.826243877,-1229.100098,-18.30000114,-882.9000244,-1.014582448,0.132240177,-0.108256402,LD
7.03333333333333,1.996601224,0.759043455,10.10801792,0.922261953,1.333850026,3.018311977,-1233.900024,-18.30000114,-887.7000122,-1.031244634,0.188041012,-0.078081929,LD
7.06666666666667,2.548089027,0.631040812,11.05248547,-0.381099999,4.176856041,2.301843882,-1229.100098,-17.10000038,-887.7000122,-1.043810549,0.216378578,-0.057483878,LD
7.1,2.720354319,0.79792273,10.57875633,-1.509155989,5.564059734,1.158543944,-1217.100098,-19.5,-887.7000122,-1.044756278,0.239197927,-0.070666799,LD
7.13333333333333,2.866899252,0.920542061,9.947715759,-2.964957952,5.564059734,-0.099086002,-1214.700073,-18.30000114,-897.3000488,-1.039617284,0.267010694,-0.085415045,LD
7.16666666666667,2.771794558,0.602928102,9.740757942,-4.077769756,4.443625927,-1.135677934,-1205.100098,-15.90000057,-899.7000122,-1.040425479,0.268696782,-0.057854269,LD
7.2,1.526460886,-0.157909751,8.842946053,-4.039659977,3.399411917,-1.577754021,-1200.300049,-14.10000038,-892.500061,-1.048649487,0.17358277,0.017660706,LD
7.23333333333333,0.252416342,-0.829624295,8.370412827,-3.330813885,3.864353895,-1.394825935,-1195.5,-13.50000095,-899.7000122,-1.049733737,0.033845621,0.098507622,LD
7.26666666666667,-0.893625617,-1.72504437,7.53301239,-2.515259981,5.823207855,-0.739333987,-1188.300049,-14.10000038,-904.500061,-1.038854276,-0.113836703,0.22067655,LD
7.3,-2.394366264,-2.100678205,8.506789207,-2.324709892,6.684494019,-0.72408998,-1176.300049,-12.30000019,-909.3000488,-1.028304697,-0.262839368,0.244719914,LD
7.33333333333333,-3.223392487,-2.305841208,8.35904789,-1.615863919,6.85217762,-0.373477995,-1164.300049,-11.70000076,-902.1000366,-1.015160367,-0.357780124,0.270701969,LD
7.36666666666667,-2.826823711,-2.938676357,8.52832222,-2.660078049,7.103703976,-0.442075998,-1152.300049,-9.300000191,-911.7000122,-0.989392429,-0.319093754,0.332062268,LD
7.4,-2.300457954,-3.239542246,9.704271317,-3.51374197,4.451247692,-1.974097967,-1147.5,-9.300000191,-916.500061,-0.982133268,-0.235689906,0.329972169,LD
7.43333333333333,-2.48528409,-3.22877574,9.334619522,-3.086910009,1.661595941,-2.759163857,-1142.700073,-7.500000477,-906.9000244,-0.971986215,-0.246564024,0.338887492,LD
7.46666666666667,-2.303448677,-3.417788982,9.688121796,-1.12805593,1.501533985,-1.097568035,-1135.5,-8.100000381,-904.500061,-0.967115084,-0.224582045,0.34148334,LD
7.5,-2.165875673,-3.254495859,9.384264946,0.594515979,1.608241916,0.983237982,-1133.100098,-8.100000381,-916.500061,-0.969772255,-0.218515253,0.333430179,LD
7.53333333333333,-2.03787303,-2.871684313,8.708961487,1.897877932,2.149404049,2.324709892,-1130.700073,-8.100000381,-909.3000488,-0.977214346,-0.223058841,0.316299365,LD
7.56666666666667,-2.275933981,-2.389581203,8.643165588,1.95885396,2.423795938,2.583858013,-1125.900024,-11.10000038,-914.1000366,-0.992444771,-0.251086248,0.270129716,LD
7.6,-2.295672655,-2.155109167,8.503798485,1.455801964,1.63872993,2.225623846,-1123.5,-9.900000572,-911.7000122,-1.003150898,-0.259034361,0.246764836,LD
7.63333333333333,-2.589959145,-2.187408924,8.510377884,0.960371971,0.609759986,1.524399996,-1125.900024,-11.10000038,-916.500061,-1.006060858,-0.285666768,0.249010609,LD
7.66666666666667,-3.114530563,-1.856635809,8.966761589,0.998481989,-0.564027965,0.815553963,-1125.900024,-10.5,-911.7000122,-1.020872299,-0.323452288,0.206224601,LD
7.7,-3.223392487,-1.776484609,9.722215652,1.006103992,-0.884151995,1.158543944,-1121.100098,-9.300000191,-911.7000122,-1.032060423,-0.314975634,0.180759216,LD
7.73333333333333,-2.750261307,-1.551582813,9.610363007,1.478667974,-1.562510014,1.181409955,-1125.900024,-10.5,-914.1000366,-1.041677655,-0.27678233,0.158923169,LD
7.76666666666667,-2.50382638,-0.811680019,8.797487259,1.295740008,-1.349093914,0.846041977,-1125.900024,-11.10000038,-914.1000366,-1.061036159,-0.274274364,0.095567559,LD
7.8,-2.387188673,-0.361278355,8.602492332,1.013725996,-1.227141976,1.318606019,-1133.100098,-12.30000019,-914.1000366,-1.078418324,-0.269001366,0.044607919,LD
7.83333333333333,-2.403338432,-0.213537037,8.928480148,0.708845973,-1.082324028,1.646351933,-1130.700073,-11.10000038,-911.7000122,-1.08880145,-0.261785537,0.023942016,ST
7.86666666666667,-1.865607977,0.078954875,9.219177246,0.556405962,-0.442075998,1.943609953,-1133.100098,-11.10000038,-914.1000366,-1.102122766,-0.20458053,-0.007209608,ST
7.9,-1.486983418,-0.049047723,9.372900009,0.068598002,0.708845973,1.272873998,-1135.5,-10.5,-911.7000122,-1.104425067,-0.162738217,0.003662537,ST
7.93333333333333,-1.388289809,-0.113647163,9.222167969,-0.503051996,2.286599874,0.259148002,-1123.5,-10.5,-916.500061,-1.10415361,-0.154245794,0.012281203,ST
7.96666666666667,-1.90628159,-0.587974548,10.07631683,-1.333850026,4.596065998,-0.625003994,-1118.700073,-9.900000572,-904.500061,-1.094373628,-0.191584458,0.057217117,ST
8.0,-2.316009521,-1.017441154,10.63677692,-1.890255928,5.083873749,-1.250007987,-1113.900024,-9.900000572,-918.9000244,-1.081726559,-0.219994298,0.096417119,ST
8.03333333333333,-2.881852865,-1.349410534,10.40708923,-1.653973937,4.306429863,-1.730193973,-1104.300049,-8.700000763,-914.1000366,-1.067675294,-0.27010921,0.129559956,ST
8.06666666666667,-3.136661768,-1.662239313,9.822704315,-0.93750596,3.269837856,-1.280496001,-1097.100098,-8.100000381,-909.3000488,-1.052270374,-0.306675631,0.166533851,ST
8.1,-3.08282876,-1.714277744,8.774757385,-0.251525998,1.653973937,-0.663114011,-1099.5,-7.500000477,-914.1000366,-1.04160754,-0.332138009,0.191448256,ST
8.13333333333333,-3.031388521,-1.693940878,7.351775169,0.160062,-0.137196004,0.099086002,-1094.700073,-6.900000095,-914.1000366,-1.030896212,-0.377370844,0.222902367,ST
8.16666666666667,-2.966789246,-1.921235204,7.025787354,-0.304879993,-0.243903995,0.419209987,-1094.700073,-6.900000095,-918.9000244,-1.017810843,-0.38576452,0.263112867,ST
8.2,-3.149820805,-2.080939293,7.629313469,-0.358233988,0.594515979,0.038109999,-1097.100098,-6.900000095,-911.7000122,-1.016573572,-0.380580496,0.266637608,ST
8.23333333333333,-3.336441517,-2.347711086,7.454655647,-0.259148002,1.692083955,-0.53354001,-1094.700073,-8.100000381,-916.500061,-0.999378465,-0.404286336,0.303550874,ST
8.26666666666667,-3.808376312,-2.597136736,8.047415733,-0.030487999,2.149404049,-1.112811923,-1094.700073,-9.300000191,-914.1000366,-0.990143292,-0.42433044,0.31274109,ST
8.3,-4.532129288,-3.16537261,9.693505287,0.274392009,1.501533985,-1.265251994,-1092.300049,-8.100000381,-914.1000366,-0.983109963,-0.42042104,0.316119455,ST
8.33333333333333,-4.160084248,-3.202457428,9.30949688,0.586893976,0.350611985,-1.204275966,-1085.100098,-8.100000381,-904.500061,-0.972827201,-0.401582517,0.329878582,ST
8.36666666666667,-4.119410515,-3.211429596,9.431518555,0.884151995,-0.365855992,-0.731711984,-1082.700073,-9.300000191,-911.7000122,-0.970806648,-0.39199255,0.327315086,ST
8.4,-4.087110996,-2.836394072,9.293347359,1.791170001,-1.219519973,0.144817993,-1085.100098,-8.100000381,-914.1000366,-0.982120336,-0.395837208,0.295871698,ST
8.43333333333333,-3.862209082,-2.521770716,8.769971848,2.461905956,-1.410069942,1.097568035,-1085.100098,-9.900000572,-916.500061,-0.990914909,-0.398300576,0.27655778,ST
8.46666666666667,-3.319095373,-2.144342661,8.158071518,2.637212038,-1.280496001,1.547266006,-1087.5,-9.900000572,-914.1000366,-1.002068459,-0.375653557,0.253452504,ST
8.5,-3.047538519,-1.847663641,7.723222256,2.263733864,-0.716467977,1.493911982,-1089.900024,-9.300000191,-916.500061,-1.012273282,-0.366716677,0.231917665,ST
8.53333333333333,-3.148026466,-1.579695582,8.099453926,1.661595941,-0.472563982,1.158543944,-1087.5,-12.30000019,-914.1000366,-1.028182673,-0.364293197,0.192790344,ST
8.56666666666667,-3.156400442,-1.308736801,8.215494156,1.928365946,-0.769822001,0.861285985,-1094.700073,-11.70000076,-914.1000366,-1.041657288,-0.361792361,0.15717288,ST
8.6,-3.500930786,-1.062900066,9.220972061,1.996963978,-1.181409955,0.670735955,-1089.900024,-12.90000057,-909.3000488,-1.057246671,-0.35896878,0.113653602,ST
8.63333333333333,-3.409415007,-0.727341831,9.127063751,1.920743942,-1.806414008,0.693601966,-1097.100098,-11.10000038,-916.500061,-1.06978372,-0.353936834,0.079066223,ST
8.66666666666667,-3.015836954,-0.208153754,8.672474861,1.349093914,-2.012207985,0.792688012,-1099.5,-13.50000095,-911.7000122,-1.08939928,-0.332708119,0.025087967,ST
8.7,-2.687456369,0.045458864,8.652137756,0.769822001,-1.996963978,0.998481989,-1101.900024,-14.70000076,-911.7000122,-1.101052518,-0.30085343,-0.004252098,ST
8.73333333333333,-2.674297333,0.030505292,10.1050272,-0.243903995,-1.608241916,0.739333987,-1104.300049,-13.50000095,-914.1000366,-1.103549959,-0.259294637,-0.003037951,ST
8.76666666666667,-2.205353022,0.110058308,10.1576643,-0.457319975,-1.34147191,0.266770005,-1104.300049,-13.50000095,-916.500061,-1.106399407,-0.215044915,-0.009605903,ST
8.8,-2.251410246,-0.10826388,9.717431068,-0.487807989,0.480185986,0.579271972,-1097.100098,-13.50000095,-914.1000366,-1.104525802,-0.227489665,0.010146096,ST
8.83333333333333,-2.500237703,-0.272753209,9.256262779,-1.12805593,1.890255928,0.785066009,-1101.900024,-12.30000019,-914.1000366,-1.103617878,-0.264567269,0.029770468,ST
8.86666666666667,-2.854936361,-0.375035644,8.955994606,-1.600619912,2.248489857,0.975615978,-1104.300049,-11.10000038,-916.500061,-1.104454956,-0.30799899,0.042857944,ST
8.9,-3.145633936,-0.675901532,9.058875084,-1.890255928,2.263733864,1.227141976,-1097.100098,-12.30000019,-914.1000366,-1.100418482,-0.335229826,0.074534164,ST
8.93333333333333,-2.898002625,-0.833811283,8.420657158,-2.19513607,1.257629991,1.257629991,-1097.100098,-11.10000038,-914.1000366,-1.098483494,-0.332617408,0.099377997,ST
8.96666666666667,-2.573210955,-1.234567046,7.526432991,-2.096050024,0.472563982,0.899396002,-1089.900024,-8.700000763,-916.500061,-1.083968766,-0.327040267,0.159762166,ST
9.0,-3.063688278,-1.951740503,7.982816219,-2.835383892,0.503051996,0.312501997,-1087.5,-9.300000191,-914.1000366,-1.06213979,-0.355093156,0.236862874,ST
9.03333333333333,-3.773684025,-3.061295748,8.838758469,-3.208861828,1.486289978,-0.876529992,-1087.5,-9.300000191,-911.7000122,-1.028313462,-0.38279844,0.330500373,ST
9.06666666666667,-3.818544626,-3.703103065,8.509181976,-2.934469938,2.240867853,-1.570132017,-1082.700073,-6.900000095,-911.7000122,-0.993681681,-0.392307165,0.411819089,ST
9.1,-3.642092466,-3.841872215,8.589931488,-1.509155989,1.74543798,-2.19513607,-1077.900024,-4.5,-916.500061,-0.982399301,-0.372473367,0.423877217,ST
9.13333333333333,-3.722243786,-3.758730412,8.664100647,-0.442075998,-0.015244,-1.737815976,-1080.300049,-3.900000095,-916.500061,-0.982074011,-0.37403652,0.412331536,ST
9.16666666666667,-3.682168245,-3.795815229,8.459535599,0.190549999,-0.876529992,-0.907018006,-1073.100098,-5.700000286,-914.1000366,-0.977167901,-0.375807195,0.420910406,ST
9.2,-3.641494513,-3.703701258,8.759803772,0.93750596,-0.678357959,0.068598002,-1077.900024,-6.300000191,-918.9000244,-0.984631894,-0.365552628,0.400029088,ST
9.23333333333333,-3.63132596,-3.216214657,8.368020058,1.432935953,-0.015244,0.61738199,-1087.5,-4.5,-911.7000122,-0.996641781,-0.383463576,0.367308799,ST
9.26666666666667,-3.869386911,-2.906974792,8.256765366,2.035073996,0.838419974,1.547266006,-1082.700073,-5.700000286,-909.3000488,-1.009823785,-0.416305618,0.336169376,ST
9.3,-4.149317741,-2.786149979,8.387759209,2.057940006,0.884151995,1.920743942,-1085.100098,-6.300000191,-916.500061,-1.019344886,-0.439170904,0.317705383,ST
9.33333333333333,-4.192982197,-2.44760108,8.564210892,2.141782045,0.327746004,2.23324585,-1080.300049,-7.500000477,-918.9000244,-1.039925961,-0.441408423,0.27699422,ST
9.36666666666667,-3.790431976,-2.177838564,8.213699341,2.080806017,-0.899396002,2.36281991,-1080.300049,-9.300000191,-916.500061,-1.053750656,-0.421133325,0.255679502,ST
9.4,-3.804787397,-1.779475331,8.328542709,1.981719971,-1.676839948,2.210379839,-1080.300049,-8.700000763,-916.500061,-1.07862364,-0.418341434,0.208560938,ST
9.43333333333333,-3.928602934,-1.344027281,8.632997513,1.753059983,-3.132642031,2.629590034,-1080.300049,-9.300000191,-914.1000366,-1.109255007,-0.417961714,0.153095777,ST
9.46666666666667,-3.858022213,-0.797324598,8.296841621,1.623485923,-4.329296112,2.957335949,-1085.100098,-11.70000076,-911.7000122,-1.141188447,-0.425799573,0.096029521,ST
9.5,-3.38907814,-0.14235802,7.879935741,1.097568035,-5.152472019,3.628072023,-1099.5,-11.10000038,-916.500061,-1.182182736,-0.399999629,0.020785539,ST
9.53333333333333,-3.104362011,0.093310304,8.827393532,0.099086002,-5.068629742,4.093013763,-1099.5,-9.300000191,-909.3000488,-1.206500901,-0.335676989,-0.010264475,ST
9.56666666666667,-1.823737979,-0.090319589,9.779637337,-1.12805593,-5.350644112,3.910085917,-1116.300049,-9.900000572,-914.1000366,-1.21745496,-0.185118843,0.00856554,ST
9.6,-1.128695846,-0.229686901,10.04461479,-1.996963978,-5.030519962,3.201239824,-1118.700073,-9.300000191,-914.1000366,-1.227392486,-0.110628214,0.024093658,ST
9.63333333333333,-1.08503139,-0.58378756,10.4160614,-2.560992002,-2.179892063,2.393307924,-1123.5,-8.100000381,-916.500061,-1.234197113,-0.100781677,0.057538369,ST
9.66666666666667,-1.168173194,-0.851157427,9.939939499,-2.23324585,0.099086002,1.882633924,-1123.5,-7.500000477,-916.500061,-1.23837934,-0.115534112,0.086102636,ST
9.7,-1.495357394,-1.332662582,9.554736137,-1.836901903,1.951231956,1.402447939,-1123.5,-6.900000095,-914.1000366,-1.236489917,-0.153678058,0.1364591,ST
9.73333333333333,-1.524666429,-1.634724736,8.774757385,-1.486289978,2.294221878,0.152439997,-1121.100098,-6.300000191,-916.500061,-1.22915158,-0.171419293,0.182287311,ST
9.76666666666667,-1.748371959,-1.893122554,7.91941309,-1.417691946,2.103672028,-0.754577994,-1116.300049,-4.5,-916.500061,-1.216192099,-0.211528435,0.233362405,ST
9.8,-2.602519989,-2.350103617,8.281888008,-1.493911982,2.957335949,-1.356715918,-1109.100098,-6.300000191,-914.1000366,-1.19951911,-0.291381906,0.276570816,ST
9.83333333333333,-3.571511745,-2.66412878,8.875844002,-1.280496001,3.78813386,-1.356715918,-1104.300049,-5.700000286,-918.9000244,-1.187723824,-0.366057195,0.293659433,ST
9.86666666666667,-4.075746059,-2.737700462,8.566603661,-0.777444005,4.679907799,-1.371959925,-1101.900024,-3.300000191,-911.7000122,-1.173456454,-0.426531311,0.311037794,ST
9.9,-3.792824507,-2.938078165,6.977337837,-0.068598002,5.243936062,-0.91463995,-1101.900024,-4.5,-916.500061,-1.12918664,-0.468643335,0.393568976,ST
9.93333333333333,-4.183412075,-2.962602139,7.967862606,0.060975999,4.61893177,-0.678357959,-1085.100098,-3.300000191,-911.7000122,-1.136470232,-0.46479813,0.360784502,ST
9.96666666666667,-4.581177235,-3.043351412,9.204223633,0.647870004,1.547266006,0.175305992,-1080.300049,-3.300000191,-916.500061,-1.151514426,-0.445690376,0.321630248,ST
10.0,-3.877162695,-2.923722744,8.027078629,0.205793992,-1.067080021,0.053353999,-1073.100098,-5.700000286,-911.7000122,-1.141994563,-0.42594506,0.346594699,ST
10.0333333333333,-3.496145725,-2.818449736,7.823709965,-0.007622,-2.042695999,0.282013983,-1082.700073,-3.900000095,-909.3000488,-1.145594549,-0.397609583,0.345214302,ST
10.0666666666667,-3.63850379,-2.928508043,8.467909813,0.625003994,-1.379581928,0.72408998,-1085.100098,-5.100000381,-911.7000122,-1.153329947,-0.385122347,0.332337491,ST
10.1,-4.258778095,-3.074454784,9.296338081,1.265251994,-0.213415995,0.655492008,-1080.300049,-6.300000191,-918.9000244,-1.15932503,-0.40799553,0.318098986,ST
10.1333333333333,-4.362256527,-2.698821068,8.83217907,2.080806017,0.739333987,0.53354001,-1085.100098,-4.5,-921.3000488,-1.166744637,-0.439641781,0.295011287,ST
10.1666666666667,-4.281507492,-2.367449999,8.64436245,2.149404049,0.83079797,0.640248001,-1085.100098,-6.900000095,-918.9000244,-1.177155358,-0.446658846,0.266115698,ST
10.2,-3.46205163,-1.8685987,8.012125015,1.996963978,-0.655492008,0.685979962,-1077.900024,-7.500000477,-911.7000122,-1.192596151,-0.401189908,0.228079612,ST
10.2333333333333,-3.719851255,-1.353597522,9.127063751,1.989341974,-2.782029867,0.670735955,-1085.100098,-6.900000095,-916.500061,-1.22323111,-0.38074197,0.150647677,ST
10.2666666666667,-3.270047665,-0.96480459,8.607875824,2.111294031,-4.115880013,0.381099999,-1087.5,-7.500000477,-911.7000122,-1.237713618,-0.356366581,0.11126884,ST
10.3,-2.745476246,-0.348119199,7.707670212,1.95885396,-4.009171963,-0.525918007,-1092.300049,-9.300000191,-911.7000122,-1.25612274,-0.336823741,0.048164673,ST
10.3333333333333,-2.700615406,-0.006579573,7.649650574,1.684461951,-2.713431835,-0.960371971,-1099.5,-8.700000763,-916.500061,-1.266148498,-0.334848525,0.002993995,ST
10.3666666666667,-2.15331459,-0.305651069,9.206616402,0.472563982,-2.012207985,-1.486289978,-1099.5,-6.300000191,-918.9000244,-1.253169777,-0.235897726,0.030391022,ST
10.4,-2.196381092,-0.346922934,10.66608524,-0.266770005,-2.423795938,-2.294221878,-1101.900024,-9.300000191,-923.7000122,-1.245214229,-0.201986465,0.033490818,ST
10.4333333333333,-2.512200594,-0.281127185,10.41247272,0.0,-2.942091942,-2.736297846,-1109.100098,-9.300000191,-916.500061,-1.237344485,-0.228729206,0.028545135,ST
10.4666666666667,-2.299859762,-0.787156165,10.11639214,-0.701223969,-0.190549999,-2.19513607,-1104.300049,-10.5,-911.7000122,-1.218962853,-0.222708187,0.07654774,ST
10.5,-2.271747112,-1.189706326,9.632493973,-1.402447939,0.846041977,-2.25611186,-1104.300049,-9.300000191,-909.3000488,-1.201460067,-0.230332253,0.12253428,ST
10.5333333333333,-2.273541451,-1.47561872,9.37409687,-1.150921941,0.80793196,-2.096050024,-1109.100098,-8.700000763,-921.3000488,-1.187348501,-0.23549603,0.155752604,ST
10.5666666666667,-2.311224461,-1.805195451,8.886012077,-0.739333987,0.320124,-1.707327962,-1111.5,-8.100000381,-914.1000366,-1.171958366,-0.24830376,0.198235899,ST
10.6,-2.322589159,-2.026508331,8.215494156,-0.045731999,-0.015244,-1.653973937,-1111.5,-9.900000572,-914.1000366,-1.156354804,-0.265503318,0.238633967,ST
10.6333333333333,-2.337542772,-2.533135414,7.797989845,-0.091463998,0.678357959,-1.34147191,-1106.700073,-8.700000763,-914.1000366,-1.132024181,-0.277342169,0.309714611,ST
10.6666666666667,-2.939274549,-2.839982748,8.476881981,0.327746004,1.653973937,-1.653973937,-1101.900024,-7.500000477,-914.1000366,-1.121041865,-0.315662172,0.322576003,ST
10.7,-3.307132483,-2.863310337,7.626921177,1.059458017,2.439039946,-1.089946032,-1099.5,-7.500000477,-914.1000366,-1.10263323,-0.382331561,0.355225357,ST
10.7333333333333,-3.486575365,-2.966789246,8.132949829,1.280496001,3.429899931,-0.541162014,-1097.100098,-9.300000191,-916.500061,-1.097770161,-0.387636001,0.349334112,ST
10.7666666666667,-3.823928118,-2.882451057,9.214392662,1.364337921,2.500015974,-0.144817993,-1094.700073,-8.700000763,-914.1000366,-1.109384302,-0.381792482,0.305739344,ST
10.8,-3.447695971,-2.784953594,9.047510147,1.539644003,0.640248001,0.038109999,-1087.5,-8.100000381,-916.500061,-1.110027836,-0.352514384,0.296689862,ST
10.8333333333333,-3.413601875,-2.405730963,8.791505814,1.8292799,-0.510674,1.12805593,-1087.5,-8.700000763,-909.3000488,-1.122691935,-0.357604785,0.265651873,ST
10.8666666666667,-3.578091145,-2.237054825,9.019397736,1.981719971,-0.647870004,1.669217944,-1089.900024,-9.300000191,-911.7000122,-1.134752784,-0.366297585,0.240942862,ST
10.9,-2.844169855,-2.162884951,8.058181763,1.532021999,-0.564027965,1.570132017,-1085.100098,-11.10000038,-921.3000488,-1.132873045,-0.331719924,0.256978153,ST
10.9333333333333,-3.095389843,-2.284307957,8.229250908,1.051836014,0.792688012,0.861285985,-1087.5,-10.5,-914.1000366,-1.130190608,-0.34784303,0.267488039,ST
10.9666666666667,-3.344815493,-2.250812054,8.143118858,0.769822001,1.646351933,0.480185986,-1087.5,-11.10000038,-909.3000488,-1.129004425,-0.377540837,0.268249188,ST
11.0,-3.746169329,-2.070770979,8.385964394,0.670735955,1.836901903,0.586893976,-1080.300049,-10.5,-914.1000366,-1.137999332,-0.409406313,0.24334006,ST
11.0333333333333,-4.324573517,-1.568928957,9.363329887,1.349093914,1.021348,1.814036012,-1077.900024,-11.10000038,-911.7000122,-1.170972408,-0.427996687,0.169778444,ST
11.0666666666667,-4.396948814,-1.393673182,9.316675186,1.951231956,0.335367978,2.789651871,-1077.900024,-10.5,-909.3000488,-1.186868079,-0.437099886,0.145323123,ST
11.1,-3.762319326,-0.521580696,8.566005707,2.25611186,-0.251525998,3.086910009,-1075.5,-12.30000019,-914.1000366,-1.227607817,-0.415404684,0.062633473,ST
11.1333333333333,-3.001481533,0.302062213,8.659316063,1.981719971,-1.707327962,3.612828016,-1080.300049,-12.90000057,-909.3000488,-1.272546299,-0.336894835,-0.032978041,ST
11.1666666666667,-2.585772038,0.331371218,9.097156525,1.547266006,-2.17227006,2.76678586,-1082.700073,-13.50000095,-911.7000122,-1.281886197,-0.27858684,-0.039814205,ST
11.2,-2.272345066,0.721360445,9.259851456,0.495429993,-2.111294031,0.754577994,-1089.900024,-14.70000076,-916.500061,-1.293107483,-0.238836672,-0.076445756,ST
11.2333333333333,-2.348907471,0.626853824,9.240112305,-0.175305992,-0.929883957,0.007622,-1089.900024,-12.90000057,-916.500061,-1.291082286,-0.246050598,-0.068225617,ST
11.2666666666667,-2.651567698,-0.03229972,9.439892769,-1.532021999,1.166165948,-0.602137983,-1089.900024,-14.10000038,-909.3000488,-1.273132005,-0.273231532,-0.000408127,ST
11.3,-3.043949604,-0.628050148,9.936948776,-2.202757835,1.966475964,-1.265251994,-1085.100098,-13.50000095,-914.1000366,-1.252981815,-0.298016444,0.062530072,ST
11.3333333333333,-3.159391165,-1.134677172,9.818516731,-2.149404049,2.06556201,-1.699705958,-1082.700073,-11.10000038,-918.9000244,-1.233357537,-0.311360605,0.114675744,ST
11.3666666666667,-3.079838276,-1.662837505,8.916517258,-1.539644003,1.699705958,-2.36281991,-1080.300049,-11.70000076,-911.7000122,-1.203883936,-0.328444479,0.183969772,ST
11.4,-3.286197424,-2.082135677,8.083304405,-0.80793196,1.089946032,-2.400929928,-1077.900024,-9.900000572,-911.7000122,-1.173439646,-0.372365531,0.24979007,ST
11.4333333333333,-4.154102802,-2.602519989,8.796290398,-0.594515979,1.34147191,-2.431417942,-1073.100098,-10.5,-909.3000488,-1.151268679,-0.421422334,0.287000693,ST
11.4666666666667,-3.969874859,-2.588164568,7.725016594,0.167683989,1.356715918,-2.36281991,-1070.700073,-9.300000191,-918.9000244,-1.128021699,-0.451419557,0.321720035,ST
11.5,-3.797011614,-2.538518667,6.823016644,0.556405962,1.417691946,-1.097568035,-1065.900024,-9.900000572,-911.7000122,-1.108296466,-0.479636825,0.353380325,ST
11.5333333333333,-4.331751347,-2.622856855,8.363833427,0.983237982,0.990859985,0.0,-1070.700073,-10.5,-911.7000122,-1.126842117,-0.462379514,0.306995224,ST
11.5666666666667,-4.310816288,-2.704204321,9.271216393,1.250007987,-0.685979962,0.564027965,-1063.5,-10.5,-909.3000488,-1.137449604,-0.422883979,0.283355361,ST
11.6,-3.788039446,-2.466741562,8.232241631,1.440557957,-2.98020196,0.442075998,-1068.300049,-11.10000038,-914.1000366,-1.137852033,-0.411525458,0.287255894,ST
11.6333333333333,-3.755141497,-2.459563971,8.655727386,1.181409955,-3.201239824,0.373477995,-1075.5,-10.5,-911.7000122,-1.144976349,-0.392078728,0.275100715,ST
11.6666666666667,-4.041053772,-2.486480236,9.506286621,1.371959925,-2.19513607,0.541162014,-1070.700073,-11.70000076,-923.7000122,-1.154541408,-0.387156308,0.25451814,ST
11.7,-3.302945375,-2.284307957,8.86268425,1.326228023,-1.737815976,0.564027965,-1077.900024,-10.5,-916.500061,-1.157774976,-0.3475758,0.24978571,ST
11.7333333333333,-4.479492664,-2.441021442,10.26891899,1.158543944,-0.29725799,0.746955991,-1080.300049,-11.70000076,-906.9000244,-1.165379597,-0.397465603,0.232117514,ST
11.7666666666667,-3.460257053,-1.631734014,8.256765366,0.929883957,-0.640248001,0.815553963,-1080.300049,-12.90000057,-909.3000488,-1.181008153,-0.389948397,0.196061479,ST
11.8,-3.247916222,-1.135275364,7.9570961,0.990859985,-0.777444005,1.242385983,-1082.700073,-12.90000057,-916.500061,-1.203619128,-0.383678837,0.144191633,ST
11.8333333333333,-3.20305562,-0.82364285,8.045022964,1.493911982,-0.990859985,1.95885396,-1085.100098,-13.50000095,-909.3000488,-1.223917134,-0.376505154,0.102169449,ST
11.8666666666667,-3.142643213,-0.288304925,7.945731163,1.821658015,-0.701223969,2.012207985,-1085.100098,-12.90000057,-911.7000122,-1.251739501,-0.375515675,0.038071458,ST
11.9,-2.552874088,0.439036936,8.157473564,1.783547997,-1.349093914,1.760681987,-1085.100098,-14.10000038,-918.9000244,-1.285029069,-0.306722432,-0.050071179,NLR
11.9333333333333,-2.785551786,0.103478737,9.324450493,1.089946032,-2.637212038,1.661595941,-1087.5,-14.70000076,-916.500061,-1.279505009,-0.287544982,-0.017103625,NLR
11.9666666666667,-2.166473866,0.053832866,9.898070335,0.137196004,-2.378063917,-0.80793196,-1094.700073,-13.50000095,-916.500061,-1.273913861,-0.218226565,-0.006377911,NLR
12.0,-2.200567961,-0.209350035,10.08827972,-0.335367978,-1.23476398,-2.59910202,-1089.900024,-13.50000095,-906.9000244,-1.259835192,-0.213023259,0.019720987,NLR
12.0333333333333,-1.524666429,-0.838596463,10.44716549,-0.586893976,0.137196004,-5.068629742,-1092.300049,-15.30000019,-911.7000122,-1.232564652,-0.150358692,0.076957787,NLR
12.0666666666667,-2.064789534,-1.1532197,10.66070175,1.219519973,0.746955991,-8.612859726,-1092.300049,-15.30000019,-911.7000122,-1.197586807,-0.186451564,0.10551685,NLR
12.1,-2.465545416,-1.326082945,9.786815643,2.500015974,-0.358233988,-9.809514046,-1089.900024,-14.70000076,-916.500061,-1.157489191,-0.236865787,0.131600869,NLR
12.1333333333333,-2.00258255,-1.437337518,8.178408623,3.521363974,-0.91463995,-10.11439419,-1089.900024,-15.90000057,-911.7000122,-1.110627549,-0.232580534,0.16886745,NLR
12.1666666666667,-2.773588896,-1.538423777,7.817728519,3.582340002,0.114329994,-8.704323769,-1087.5,-17.10000038,-911.7000122,-1.072709742,-0.323335319,0.190559833,NLR
12.2,-2.622856855,-1.859028339,8.598304749,2.728675842,0.853663981,-6.364369869,-1087.5,-18.30000114,-909.3000488,-1.042920359,-0.292054536,0.209723069,NLR
12.2333333333333,-2.70181179,-2.08751893,8.927284241,2.545747995,1.714949965,-5.670767784,-1087.5,-17.10000038,-911.7000122,-1.015981261,-0.287743275,0.226650226,NLR
12.2666666666667,-3.031388521,-2.125800133,7.920608997,2.332331896,2.896359921,-4.100636005,-1080.300049,-18.30000114,-911.7000122,-0.988281427,-0.350896947,0.257861029,NLR
12.3,-3.383694887,-2.333953857,8.133547783,1.722571969,3.91770792,-2.942091942,-1070.700073,-21.30000114,-902.1000366,-0.966703447,-0.382463677,0.277190647,NLR
12.3333333333333,-3.897499561,-2.390179396,9.706066132,2.004585981,3.483253956,-2.073184013,-1063.5,-18.90000153,-909.3000488,-0.966925852,-0.377216963,0.2427264,NLR
12.3666666666667,-4.08770895,-2.293280125,10.17560863,2.652456045,1.623485923,-0.731711984,-1053.900024,-21.30000114,-909.3000488,-0.96815278,-0.376069681,0.219655237,NLR
12.4,-2.841179132,-1.578499317,8.349477768,3.147886038,-1.524399996,0.449698001,-1058.700073,-21.30000114,-904.500061,-0.979119206,-0.324415851,0.183809036,NLR
12.4333333333333,-2.687456369,-1.512105465,8.25078392,2.903981924,-2.096050024,0.792688012,-1065.900024,-22.5,-906.9000244,-0.98214275,-0.308299963,0.176290364,NLR
12.4666666666667,-3.206046343,-0.981552601,9.67795372,2.46952796,-1.089946032,-0.335367978,-1063.5,-22.5,-911.7000122,-1.001301778,-0.315899965,0.10236478,NLR
12.5,-2.983537197,-0.986935914,8.680849075,1.791170001,-0.685979962,-0.868907988,-1065.900024,-23.70000076,-909.3000488,-0.994401972,-0.326654889,0.109796081,NLR
12.5333333333333,-3.058305025,-0.858335137,8.496023178,0.80793196,-0.076219998,-0.907018006,-1061.100098,-24.90000153,-904.500061,-0.993538856,-0.342085163,0.100733532,NLR
12.5666666666667,-3.23116827,-0.39776507,9.072034836,1.227141976,-0.762199998,0.457319975,-1065.900024,-24.30000114,-906.9000244,-1.012014295,-0.340731267,0.046280374,NLR
12.6,-3.642690659,-0.299669623,8.95240593,1.669217944,-1.699705958,2.332331896,-1068.300049,-26.10000038,-904.500061,-1.023468789,-0.379876183,0.030363584,NLR
12.6333333333333,-4.678674221,0.309239924,9.860984802,0.868907988,-2.012207985,4.977165699,-1070.700073,-26.10000038,-904.500061,-1.063362929,-0.434672783,-0.0315578,NLR
12.6666666666667,-4.399341583,1.678987265,9.423144341,1.135677934,-3.795755863,7.332363605,-1070.700073,-26.70000076,-902.1000366,-1.143850958,-0.423442641,-0.173016687,NLR
12.7,-3.49255681,1.556966186,9.098352432,0.289635986,-7.698219776,11.70739174,-1085.100098,-25.50000191,-904.500061,-1.180394627,-0.350326897,-0.176458653,NLR
12.7333333333333,-1.470235467,1.109555244,8.769373894,-1.493911982,-9.390303612,11.79123402,-1101.900024,-25.50000191,-909.3000488,-1.206620705,-0.161289754,-0.130386313,NLR
12.7666666666667,-0.168676317,1.086227655,8.699989319,-3.871975899,-6.890287876,8.460419655,-1121.100098,-23.70000076,-906.9000244,-1.235006154,-0.016287189,-0.118831107,NLR
12.8,0.384007782,0.496458679,9.299926758,-6.074733734,-3.597584009,6.44821167,-1133.100098,-22.5,-902.1000366,-1.256754519,0.042329621,-0.049327382,NLR
12.8333333333333,0.080151156,-0.515599251,10.18577671,-7.561023712,-0.655492008,3.399411917,-1135.5,-20.70000076,-906.9000244,-1.270678142,0.011846892,0.053615442,NLR
12.8666666666667,-0.775791407,-0.993515491,10.50398827,-7.080837727,0.495429993,1.875011921,-1130.700073,-19.5,-911.7000122,-1.276521074,-0.0667207,0.101702717,NLR
12.9,-1.503133297,-1.832111955,10.57157898,-5.625035763,1.013725996,1.600619912,-1130.700073,-12.90000057,-904.500061,-1.27628041,-0.134611557,0.173881856,NLR
12.9333333333333,-1.517488718,-2.123407602,9.29873085,-4.245453835,0.388722003,1.181409955,-1135.5,-13.50000095,-916.500061,-1.274502828,-0.156686869,0.226385562,NLR
12.9666666666667,-1.224996805,-2.586968422,8.465517044,-3.140264034,-0.564027965,0.983237982,-1128.300049,-11.70000076,-909.3000488,-1.269737016,-0.138845629,0.294963629,NLR
13.0,-0.993515491,-2.808281183,8.445778847,-2.027451992,-1.905499935,0.243903995,-1133.100098,-11.70000076,-911.7000122,-1.270313931,-0.110252387,0.322360729,NLR
13.0333333333333,-1.498946309,-2.909965515,7.665202141,0.579271972,-1.036592007,0.495429993,-1135.5,-8.700000763,-911.7000122,-1.267770491,-0.173146836,0.357991392,ST
13.0666666666667,-1.707100034,-2.757439137,7.926590443,1.189031959,0.731711984,1.105189919,-1140.300049,-10.5,-911.7000122,-1.273998538,-0.199860479,0.334750348,ST
13.1,-1.931403637,-2.589360952,9.308300972,1.882633924,0.579271972,1.440557957,-1135.5,-12.30000019,-914.1000366,-1.288906644,-0.199080934,0.273671891,ST
13.1333333333333,-2.552874088,-2.498443127,9.751524925,2.713431835,-0.853663981,2.080806017,-1145.100098,-12.30000019,-909.3000488,-1.300215883,-0.243794105,0.247522431,ST
13.1666666666667,-2.403338432,-2.421282768,9.444079399,2.339953899,-0.342989981,2.423795938,-1137.900024,-13.50000095,-914.1000366,-1.306802598,-0.242292454,0.245993002,ST
13.2,-1.924824119,-2.359673977,10.19235611,1.478667974,-0.144817993,2.522881985,-1133.100098,-12.90000057,-906.9000244,-1.318412807,-0.188093004,0.226030571,ST
13.2333333333333,-1.805793643,-2.780766726,10.3436861,1.166165948,-0.243903995,2.507637978,-1142.700073,-14.10000038,-909.3000488,-1.321095177,-0.169252297,0.257295076,ST
13.2666666666667,-1.911066771,-2.403936625,9.664196014,0.884151995,0.213415995,1.371959925,-1137.900024,-14.10000038,-914.1000366,-1.327386386,-0.188612595,0.243240976,ST
13.3,-1.833906293,-1.53423667,7.582658291,1.562510014,1.211897969,1.547266006,-1137.900024,-14.10000038,-911.7000122,-1.339318982,-0.231161262,0.20068675,ST
13.3333333333333,-1.683174372,-0.984543324,7.568303108,1.791170001,1.257629991,1.844523907,-1133.100098,-15.30000019,-909.3000488,-1.358709838,-0.220776123,0.132363023,ST
13.3666666666667,-1.728035092,-0.53414166,7.803971291,2.332331896,-0.846041977,1.95885396,-1140.300049,-13.50000095,-911.7000122,-1.377404774,-0.216668391,0.069724945,ST
13.4,-1.848261833,0.01016843,8.572585106,2.378063917,-4.634175777,1.112811923,-1142.700073,-15.90000057,-914.1000366,-1.394286409,-0.20544824,0.001078282,ST
13.4333333333333,-1.707698226,0.398961365,9.680345535,2.98020196,-8.689080238,-0.045731999,-1147.5,-17.70000076,-911.7000122,-1.399461711,-0.163494971,-0.042009901,ST
13.4666666666667,-1.25430584,0.538328648,10.83775234,2.57623601,-11.10525417,-1.204275966,-1166.700073,-17.10000038,-909.3000488,-1.393172304,-0.100476063,-0.052976497,ST
13.5,1.298568368,0.721360445,10.55542946,1.493911982,-10.46500587,-3.765267849,-1185.900024,-18.90000153,-906.9000244,-1.376497959,0.123297235,-0.070244783,ST
13.5333333333333,1.994208694,0.960617602,10.53090477,-0.114329994,-5.373509884,-4.237832069,-1193.100098,-18.90000153,-899.7000122,-1.35586045,0.19016322,-0.090735129,ST
13.5666666666667,1.552181005,0.990524769,9.88849926,-1.196653962,-2.36281991,-2.690565825,-1193.100098,-18.90000153,-890.1000366,-1.343017413,0.160752023,-0.098062902,ST
13.6,0.61668539,0.555076659,9.319665909,-3.147886038,1.150921941,-0.076219998,-1200.300049,-17.10000038,-894.9000244,-1.346547747,0.072702919,-0.057967544,ST
13.6333333333333,0.587974548,-0.292491913,8.746046066,-4.100636005,2.355197906,0.792688012,-1195.5,-17.70000076,-904.500061,-1.354486863,0.063860233,0.031737843,ST
13.6666666666667,0.250621915,-1.378121376,8.869862556,-4.72563982,2.743919849,0.282013983,-1185.900024,-16.5,-902.1000366,-1.359194892,0.026212229,0.152507781,ST
13.7,-0.331371218,-2.227484465,9.697691917,-4.824726105,2.949713945,0.045731999,-1185.900024,-12.90000057,-906.9000244,-1.357271168,-0.032476291,0.226814488,ST
13.7333333333333,-0.797324598,-3.01464057,10.66608524,-4.527467728,2.942091942,-0.365855992,-1181.100098,-12.90000057,-904.500061,-1.351642543,-0.072592057,0.278349601,ST
13.7666666666667,-0.665733099,-3.474612474,9.383666992,-3.559473991,2.538125992,-1.166165948,-1176.300049,-12.90000057,-906.9000244,-1.340565083,-0.070178246,0.353591227,ST
13.8,-0.549095273,-3.295767784,7.590434074,-2.408551931,3.51374197,-0.983237982,-1171.5,-9.900000572,-909.3000488,-1.329567006,-0.071149775,0.408645552,ST
13.8333333333333,-1.43793571,-3.216812849,8.050406456,-1.600619912,5.045763969,0.342989981,-1171.5,-10.5,-911.7000122,-1.327366253,-0.163534828,0.38569278,ST
13.8666666666667,-1.613191605,-3.002079487,8.944629669,-1.211897969,7.599133968,2.08842802,-1159.5,-8.100000381,-914.1000366,-1.335113536,-0.181322702,0.331481001,ST
13.9,-1.262679815,-3.26885128,9.294543266,0.571649969,7.172301769,3.719535828,-1145.100098,-9.300000191,-916.500061,-1.338266547,-0.144164103,0.336523078,ST
13.9333333333333,-2.059406281,-3.232962847,9.410583496,0.846041977,6.432967663,4.413137913,-1135.5,-9.300000191,-909.3000488,-1.34622214,-0.211149611,0.329362745,ST
13.9666666666667,-2.366851807,-3.264664412,10.58892536,2.027451992,6.211929798,5.503083706,-1123.5,-8.700000763,-918.9000244,-1.36286177,-0.222526434,0.297374203,ST
14.0,-2.880656481,-2.853740215,9.723412514,2.957335949,5.609791756,5.53357172,-1111.5,-10.5,-918.9000244,-1.377277633,-0.283548425,0.280066376,ST
14.0333333333333,-2.939872742,-2.26157856,9.160559654,3.300325871,5.907049656,5.02289772,-1101.900024,-9.900000572,-916.500061,-1.397184633,-0.311411867,0.23853439,ST
14.0666666666667,-2.883049011,-1.388888001,8.070743561,2.751541853,4.489357948,4.100636005,-1097.100098,-11.70000076,-911.7000122,-1.426253252,-0.344281265,0.170461937,ST
14.1,-3.005668402,-0.96480459,8.043827057,2.370441914,2.614346027,3.132642031,-1092.300049,-11.70000076,-918.9000244,-1.450152796,-0.359045154,0.118608715,ST
14.1333333333333,-3.74437499,-0.714780867,8.297439575,1.806414008,1.051836014,2.385685921,-1089.900024,-12.90000057,-916.500061,-1.467920333,-0.418783815,0.08453385,ST
14.1666666666667,-3.768300772,0.031701576,8.488246918,2.096050024,0.716467977,2.179892063,-1087.5,-12.30000019,-916.500061,-1.506403864,-0.419190084,-0.000596797,ST
14.2,-3.529043436,0.629246414,8.768177986,2.149404049,-0.373477995,2.743919849,-1087.5,-15.30000019,-914.1000366,-1.539524321,-0.384368836,-0.070469275,ST
14.2333333333333,-3.140250683,0.849363029,9.507482529,1.303362012,-2.057940006,2.271355867,-1082.700073,-14.70000076,-916.500061,-1.552196709,-0.319224189,-0.090964748,ST
14.2666666666667,-2.360272169,1.102975607,9.118091583,-0.060975999,-3.437521935,1.318606019,-1085.100098,-12.30000019,-914.1000366,-1.563321279,-0.250904209,-0.118491672,ST
14.3,-1.744184852,0.579600513,9.613951683,-1.326228023,-2.751541853,-0.091463998,-1094.700073,-13.50000095,-909.3000488,-1.551074751,-0.179654322,-0.061916066,ST
14.3333333333333,-1.967890382,0.283519775,9.8209095,-2.073184013,-1.326228023,-1.265251994,-1094.700073,-12.90000057,-918.9000244,-1.541663083,-0.194020731,-0.028164514,ST
14.3666666666667,-2.399749517,-0.467747808,10.29882526,-2.454283953,0.388722003,-1.722571969,-1097.100098,-12.90000057,-918.9000244,-1.522724185,-0.226138294,0.043204875,ST
14.4,-3.350198746,-1.147836328,9.276000977,-2.111294031,2.042695999,-1.859767914,-1092.300049,-11.70000076,-916.500061,-1.496016107,-0.338225031,0.121419251,ST
14.4333333333333,-4.127186298,-1.613191605,8.833973885,-2.25611186,2.202757835,-1.173787951,-1092.300049,-10.5,-911.7000122,-1.472444306,-0.425560259,0.179748491,ST
14.4666666666667,-4.020118713,-1.759736657,8.139529228,-2.698187828,1.028970003,1.04421401,-1085.100098,-9.300000191,-911.7000122,-1.46464973,-0.449507136,0.213564232,ST
14.5,-3.41001296,-2.100080013,7.617350578,-2.59910202,-0.442075998,2.248489857,-1087.5,-7.500000477,-916.500061,-1.45342469,-0.41149753,0.266595056,ST
14.5333333333333,-2.908171177,-2.307037354,7.805765629,-2.225623846,-1.539644003,2.309465885,-1087.5,-6.900000095,-911.7000122,-1.456989767,-0.348019337,0.287497098,ST
14.5666666666667,-2.241839886,-2.36505723,7.264446259,-1.364337921,-2.294221878,1.204275966,-1089.900024,-6.900000095,-914.1000366,-1.456302086,-0.288211852,0.313591911,ST
14.6,-3.316702843,-2.433843851,8.606678963,-0.304879993,-0.868907988,-0.518296003,-1094.700073,-6.900000095,-918.9000244,-1.466407868,-0.347504792,0.27975314,ST
14.6333333333333,-3.595437288,-2.605510712,9.092969894,-0.060975999,-1.097568035,-0.510674,-1099.5,-6.300000191,-916.500061,-1.466016273,-0.359921824,0.279336091,ST
14.6666666666667,-3.203653812,-2.855534554,9.510473251,0.129574001,-1.966475964,-0.792688012,-1101.900024,-6.900000095,-918.9000244,-1.461509407,-0.313056794,0.290495347,ST
14.7,-3.085221529,-2.698222876,9.143213272,0.594515979,-2.553369999,-1.074702024,-1099.5,-8.700000763,-916.500061,-1.461102631,-0.308631256,0.286493389,ST
14.7333333333333,-3.375320673,-2.696428537,9.733580589,0.80793196,-1.714949965,-0.40396598,-1099.5,-7.500000477,-911.7000122,-1.465465493,-0.318468552,0.270402623,ST
14.7666666666667,-3.042155266,-2.326178074,9.135437965,0.838419974,-1.806414008,0.320124,-1106.700073,-8.100000381,-911.7000122,-1.473561239,-0.310083545,0.24951785,ST
14.8,-2.383599758,-2.064191341,8.1221838,1.326228023,-0.975615978,0.861285985,-1111.5,-6.900000095,-914.1000366,-1.477029515,-0.277965119,0.246238352,ST
14.8333333333333,-2.257391691,-2.196979046,8.161661148,0.907018006,-0.304879993,0.358233988,-1111.5,-9.300000191,-914.1000366,-1.473982725,-0.262203138,0.259824206,ST
14.8666666666667,-2.548089027,-2.011554718,8.802271843,1.577754021,-1.158543944,-1.082324028,-1109.100098,-8.700000763,-914.1000366,-1.478954034,-0.271715958,0.22570171,ST
14.9,-2.624651432,-1.988825321,9.208411217,2.096050024,-2.637212038,-2.126538038,-1113.900024,-8.700000763,-916.500061,-1.475855933,-0.266905839,0.211220165,ST
14.9333333333333,-2.668315887,-1.748970032,8.971546173,2.439039946,-4.352161884,-3.468009949,-1116.300049,-8.700000763,-916.500061,-1.470424246,-0.274639466,0.191494279,ST
14.9666666666667,-3.075052977,-1.124508739,9.04631424,1.989341974,-5.152472019,-3.826243877,-1121.100098,-10.5,-911.7000122,-1.476801966,-0.311856454,0.128308391,ST
15.0,-2.4123106,-0.645396292,8.641969681,1.623485923,-5.632658005,-2.637212038,-1133.100098,-11.70000076,-911.7000122,-1.482450647,-0.265129617,0.076923781,ST
15.0333333333333,-1.809980631,-0.64240557,8.820216179,1.097568035,-5.335400105,-0.907018006,-1145.100098,-14.70000076,-914.1000366,-1.481054941,-0.198473143,0.071479419,ST
15.0666666666667,-1.166976929,-0.622068703,9.162354469,0.525918007,-4.733262062,-0.579271972,-1147.5,-10.5,-911.7000122,-1.480493639,-0.123605376,0.067250825,ST
15.1,-0.930112302,-0.456981242,10.23602104,0.548784018,-4.565577984,-0.42683199,-1159.5,-11.10000038,-911.7000122,-1.481936865,-0.086247933,0.04581782,ST
15.1333333333333,-0.476121813,-0.440233231,10.13433647,0.556405962,-4.077769756,-0.503051996,-1169.100098,-12.30000019,-904.500061,-1.480866814,-0.04359561,0.04274821,ST
15.1666666666667,-0.294884473,-0.666929424,10.83117294,-0.289635986,-2.804895878,-0.716467977,-1169.100098,-12.30000019,-906.9000244,-1.478348341,-0.024143457,0.060286788,ST
15.2,0.041271865,-0.448009074,10.31617165,-0.678357959,-1.684461951,-1.219519973,-1166.700073,-12.30000019,-904.500061,-1.474118721,0.00508743,0.045564947,ST
15.2333333333333,0.214733332,-0.550889671,10.10562515,-0.731711984,-0.655492008,-1.097568035,-1171.5,-11.10000038,-904.500061,-1.470529165,0.02088746,0.054786512,ST
15.2666666666667,0.529356539,-0.781772852,8.917713165,-0.556405962,-0.678357959,-1.509155989,-1171.5,-10.5,-906.9000244,-1.466604708,0.056877002,0.0852519,ST
15.3,0.184228033,-1.254903913,8.475686073,-0.838419974,0.076219998,-1.379581928,-1169.100098,-11.70000076,-909.3000488,-1.464080582,0.024877173,0.142672599,ST
15.3333333333333,-0.132787734,-1.815962076,8.783131599,-1.623485923,1.219519973,-1.844523907,-1169.100098,-12.90000057,-911.7000122,-1.45653327,-0.013694784,0.20273678,ST
15.3666666666667,-0.618479848,-2.3626647,9.043921471,-2.004585981,1.173787951,-2.583858013,-1164.300049,-12.30000019,-906.9000244,-1.444648648,-0.062934469,0.255024191,ST
15.4,-0.957626879,-2.653960466,8.677260399,-2.06556201,0.80793196,-3.254593849,-1164.300049,-10.5,-906.9000244,-1.430297263,-0.101082597,0.296807392,ST
15.4333333333333,-0.831418753,-2.851945639,8.305214882,-1.631107926,0.434453994,-2.858249903,-1164.300049,-9.300000191,-904.500061,-1.416504292,-0.093993018,0.331767799,ST
15.4666666666667,-0.906186581,-3.302347422,9.345385551,-1.486289978,-1.173787951,-3.147886038,-1161.900024,-9.900000572,-911.7000122,-1.406394307,-0.087860112,0.34191754,ST
15.5,-0.951047301,-3.31371212,9.249084473,-0.480185986,-1.783547997,-2.477149963,-1159.5,-12.30000019,-914.1000366,-1.400320869,-0.091726476,0.344849461,ST
15.5333333333333,-1.233370781,-3.317301035,9.654027939,0.137196004,-1.402447939,-1.135677934,-1164.300049,-10.5,-909.3000488,-1.399494926,-0.114966539,0.332128584,ST
15.5666666666667,-1.427169085,-3.2383461,10.3167696,1.158543944,-0.647870004,1.105189919,-1169.100098,-7.500000477,-906.9000244,-1.406647773,-0.129313699,0.304596726,ST
15.6,-1.134677172,-3.007462978,10.13493443,1.547266006,-0.868907988,1.775925994,-1166.700073,-10.5,-914.1000366,-1.414996925,-0.108252747,0.286969258,ST
15.6333333333333,-0.39297992,-2.854936361,9.356152534,1.410069942,-0.571649969,2.545747995,-1166.700073,-9.300000191,-909.3000488,-1.423687517,-0.04559057,0.292969489,ST
15.6666666666667,0.095702872,-2.945255995,9.477575302,1.105189919,-0.464941978,2.370441914,-1169.100098,-11.70000076,-902.1000366,-1.432060548,0.00467218,0.298827289,ST
15.7,0.355895072,-2.600127459,8.6180439,1.455801964,-0.876529992,2.050318003,-1169.100098,-11.10000038,-906.9000244,-1.439916669,0.037031396,0.29128379,ST
15.7333333333333,-0.253014475,-2.293878317,8.256765366,1.951231956,-0.312501997,2.606724024,-1173.900024,-9.900000572,-909.3000488,-1.449542495,-0.025584493,0.26915029,ST
15.7666666666667,-1.080844402,-2.155707359,9.378283501,2.522881985,0.579271972,3.68142581,-1169.100098,-10.5,-909.3000488,-1.463977038,-0.106965418,0.224996735,ST
15.8,-0.625657558,-1.702913046,9.304712296,3.292703867,-0.365855992,3.978683949,-1173.900024,-11.10000038,-902.1000366,-1.48157066,-0.069746277,0.178525477,ST
15.8333333333333,-0.89183116,-1.525264621,9.53918457,3.399411917,-0.861285985,3.955817938,-1173.900024,-13.50000095,-911.7000122,-1.496449916,-0.089681943,0.154416115,ST
15.8666666666667,-0.568235815,-0.701621711,9.363927841,3.201239824,-1.166165948,3.51374197,-1173.900024,-14.70000076,-906.9000244,-1.515184407,-0.061074805,0.074675619,ST
15.9,-0.192003891,-0.307445496,9.493126869,2.538125992,-0.342989981,3.612828016,-1176.300049,-13.50000095,-904.500061,-1.529165133,-0.02360275,0.031997741,ST
15.9333333333333,0.550291538,0.231481329,9.893284798,2.522881985,1.55488801,4.230209827,-1173.900024,-14.70000076,-909.3000488,-1.543761311,0.046583804,-0.022602801,ST
15.9666666666667,1.296773911,0.650779545,9.355554581,2.461905956,3.201239824,4.260697842,-1164.300049,-13.50000095,-902.1000366,-1.555828328,0.12448916,-0.068297034,ST
16.0,1.235763431,0.705210567,9.440490723,1.74543798,5.625035763,3.932951927,-1171.5,-14.70000076,-911.7000122,-1.570479698,0.120882067,-0.075922448,ST
16.0333333333333,-0.691453278,0.423485219,10.02786732,0.792688012,8.696702003,3.711913824,-1152.300049,-14.70000076,-906.9000244,-1.587128099,-0.069477584,-0.046094594,ST
16.0666666666667,-0.443822086,-0.221911043,10.39213562,-0.449698001,10.09152794,2.789651871,-1128.300049,-14.70000076,-916.500061,-1.593138895,-0.061146641,0.015696325,ST
16.1,-1.064694524,-0.510814071,10.28088093,-0.762199998,8.45279789,-0.114329994,-1123.5,-15.30000019,-916.500061,-1.589183158,-0.112674435,0.047858137,ST
16.1333333333333,-1.919440746,-0.578404248,9.92917347,-0.823175967,7.012239933,-1.455801964,-1104.300049,-14.10000038,-911.7000122,-1.581271582,-0.195917791,0.059286925,ST
16.1666666666667,-3.114530563,-0.511412263,8.734682083,-0.53354001,4.718018055,-1.890255928,-1094.700073,-14.70000076,-911.7000122,-1.574253985,-0.335992704,0.060555611,ST
16.2,-3.856227636,-0.541917503,7.611369133,-1.006103992,4.13112402,-1.028970003,-1094.700073,-15.30000019,-914.1000366,-1.566807308,-0.462350793,0.072718572,ST
16.2333333333333,-4.135560513,-0.659751713,6.731501102,-1.935987949,4.695151806,-0.777444005,-1089.900024,-14.10000038,-911.7000122,-1.553150922,-0.550292199,0.100279556,ST
16.2666666666667,-3.928602934,-1.040768743,6.910943985,-2.667700052,5.076251984,-1.42531395,-1075.5,-13.50000095,-914.1000366,-1.525021291,-0.522786833,0.152161089,ST
16.3,-4.554260731,-1.692744613,8.400918007,-2.49239397,4.771371841,-2.25611186,-1075.5,-12.90000057,-911.7000122,-1.495841392,-0.498355933,0.201376838,ST
16.3333333333333,-4.766003132,-2.341729641,7.895487309,-1.737815976,3.239349842,-3.757645845,-1058.700073,-9.900000572,-909.3000488,-1.443317272,-0.52570466,0.287239344,ST
16.3666666666667,-5.265452385,-2.825627327,8.33272934,-1.676839948,2.49239397,-3.559473991,-1065.900024,-11.10000038,-909.3000488,-1.412219708,-0.540018573,0.329930862,ST
16.4,-4.920922279,-2.77478528,8.367422104,-1.280496001,0.785066009,-3.025933981,-1056.300049,-9.900000572,-911.7000122,-1.407114475,-0.511561324,0.32590728,ST
16.4333333333333,-5.093187332,-2.712578297,8.429030418,-0.243903995,-1.006103992,-1.714949965,-1053.900024,-8.700000763,-911.7000122,-1.409323667,-0.518677605,0.31425482,ST
16.4666666666667,-4.737890244,-2.860319614,8.086893082,0.045731999,-1.592997909,-0.373477995,-1056.300049,-9.300000191,-916.500061,-1.398389074,-0.503337435,0.337433212,ST
16.5,-4.322779179,-3.142643213,8.601894379,-0.221037999,-2.248489857,-0.091463998,-1058.700073,-9.300000191,-914.1000366,-1.39568722,-0.441395837,0.349336028,ST
16.5333333333333,-4.323975563,-3.320889711,8.942835808,0.754577994,-1.791170001,0.884151995,-1065.900024,-9.300000191,-911.7000122,-1.397794059,-0.424675627,0.352789163,ST
16.5666666666667,-3.85263896,-2.933293104,8.423647881,1.326228023,-1.714949965,1.349093914,-1070.700073,-10.5,-916.500061,-1.409847778,-0.407242979,0.333142623,ST
16.6,-3.736599207,-2.555864811,8.724513054,2.012207985,-2.614346027,2.644834042,-1073.100098,-8.700000763,-921.3000488,-1.436765538,-0.388788169,0.283967925,ST
16.6333333333333,-3.355581999,-2.171258926,8.847730637,2.240867853,-3.734779835,3.079288006,-1070.700073,-10.5,-921.3000488,-1.463057691,-0.351614644,0.238663503,ST
16.6666666666667,-2.179034948,-1.909272313,8.497817039,2.17227006,-6.455833912,2.210379839,-1085.100098,-11.10000038,-911.7000122,-1.479065612,-0.24554338,0.217623232,ST
16.7,-2.290887594,-1.333260655,7.753727436,2.393307924,-7.782062054,0.464941978,-1087.5,-11.70000076,-909.3000488,-1.496093903,-0.268442412,0.168890813,ST
16.7333333333333,-2.79332757,-1.04734838,8.196352959,2.263733864,-6.455833912,0.068598002,-1104.300049,-12.30000019,-916.500061,-1.50911036,-0.310653576,0.126897964,ST
16.7666666666667,-2.748466969,-1.533638597,9.243701935,3.635694027,-5.74698782,-0.609759986,-1106.700073,-14.10000038,-909.3000488,-1.49774037,-0.277940424,0.155602207,ST
16.8,-2.69224143,-1.319503427,8.924891472,4.367405891,-5.907049656,-1.295740008,-1121.100098,-15.30000019,-916.500061,-1.496260809,-0.279334863,0.140835702,ST
16.8333333333333,-2.982939005,-0.742295444,9.799376488,3.605206013,-6.11284399,-0.525918007,-1128.300049,-14.70000076,-909.3000488,-1.511189517,-0.283600638,0.075823829,ST
16.8666666666667,-2.101874352,-0.151928321,9.533203125,1.821658015,-5.975647926,1.295740008,-1140.300049,-17.10000038,-914.1000366,-1.529329633,-0.213007676,0.017389684,ST
16.9,-1.224996805,0.311034352,10.12656021,0.579271972,-4.817103863,2.500015974,-1145.100098,-17.70000076,-906.9000244,-1.544914392,-0.12101733,-0.027841842,ST
16.9333333333333,-0.044860724,0.570628405,9.347180367,-0.457319975,-2.705809832,3.102154016,-1154.700073,-17.10000038,-906.9000244,-1.557218041,-0.010798144,-0.057406446,ST
16.9666666666667,0.25899592,0.434251785,9.478173256,-1.455801964,-0.967993975,2.385685921,-1154.700073,-16.5,-914.1000366,-1.565323641,0.025553164,-0.044458027,ST
17.0,0.200377896,0.151330173,9.504491806,-2.080806017,0.40396598,1.310984015,-1154.700073,-16.5,-906.9000244,-1.570404734,0.020884649,-0.015154842,ST
17.0333333333333,-0.242846042,-0.230285048,9.686326981,-2.370441914,1.791170001,-0.038109999,-1157.100098,-14.70000076,-911.7000122,-1.570202138,-0.02412583,0.02434745,ST
17.0666666666667,-0.685471833,-0.730930686,9.73118782,-1.85214591,2.36281991,-0.312501997,-1145.100098,-14.10000038,-914.1000366,-1.566586848,-0.070429508,0.074181318,ST
17.1,-1.0730685,-1.055124164,9.907042503,-1.166165948,1.478667974,-0.213415995,-1142.700073,-14.70000076,-911.7000122,-1.562919828,-0.106850199,0.10562941,ST
17.1333333333333,-1.428365469,-1.344027281,8.999659538,-0.167683989,1.135677934,0.365855992,-1142.700073,-12.90000057,-906.9000244,-1.558690502,-0.153148976,0.144586006,ST
17.1666666666667,-2.572613001,-1.735212803,9.913621902,1.04421401,1.158543944,1.379581928,-1137.900024,-14.10000038,-914.1000366,-1.557214852,-0.243617039,0.168549229,ST
17.2,-2.622856855,-2.383001566,9.299926758,5.243936062,0.251525998,2.652456045,-1140.300049,-15.30000019,-909.3000488,-1.544625799,-0.266023931,0.233937935,ST
17.2333333333333,-2.816655159,-1.665230036,8.219680786,5.251557827,0.503051996,2.515259981,-1140.300049,-16.5,-911.7000122,-1.559417292,-0.322006306,0.192195305,ST
17.2666666666667,-1.397860169,-0.401952088,7.216595173,0.731711984,0.289635986,0.289635986,-1142.700073,-16.5,-904.500061,-1.592428633,-0.203572988,0.066447855,ST
17.3,-1.817756534,-0.727341831,8.335720062,-2.797273874,1.631107926,-0.929883957,-1140.300049,-15.90000057,-906.9000244,-1.585980209,-0.215438599,0.089978722,ST
17.3333333333333,-1.408028603,-1.41221559,8.993678093,-4.977165699,1.059458017,-2.157026052,-1137.900024,-14.70000076,-906.9000244,-1.56808783,-0.159321185,0.159503807,ST
17.3666666666667,-1.238155961,-2.391973734,9.974034309,-5.411619663,0.83079797,-3.437521935,-1125.900024,-12.30000019,-909.3000488,-1.547107975,-0.123466282,0.238539886,ST
17.4,-1.442122698,-2.70898962,10.19594479,-4.382649899,1.463423967,-3.795755863,-1130.700073,-9.900000572,-914.1000366,-1.531733035,-0.135430393,0.265598446,ST
17.4333333333333,-1.348812342,-2.644390106,8.955396652,-2.103672028,1.539644003,-2.675322056,-1125.900024,-10.5,-909.3000488,-1.519209687,-0.14388466,0.289199957,ST
17.4666666666667,-1.856037617,-2.97695756,8.950013161,-1.692083955,2.59910202,-2.454283953,-1123.5,-8.700000763,-914.1000366,-1.504108609,-0.192444011,0.32181979,ST
17.5,-2.905180454,-3.207242727,9.89208889,-0.815553963,2.843005896,-1.760681987,-1118.700073,-7.500000477,-916.500061,-1.496663754,-0.270412789,0.316553135,ST
17.5333333333333,-3.075052977,-2.711382151,8.572585106,0.685979962,0.929883957,-0.685979962,-1116.300049,-9.300000191,-914.1000366,-1.495763228,-0.325256889,0.306675362,ST
17.5666666666667,-3.169559717,-2.51339674,9.019995689,0.678357959,0.152439997,0.022865999,-1113.900024,-9.900000572,-911.7000122,-1.505453808,-0.326544224,0.273847728,ST
17.6,-2.963200331,-2.183221817,8.939247131,1.036592007,-1.410069942,0.373477995,-1118.700073,-9.900000572,-909.3000488,-1.517099953,-0.310873854,0.240624394,ST
17.6333333333333,-2.441021442,-1.884748459,8.76099968,1.173787951,-3.208861828,0.495429993,-1121.100098,-8.700000763,-911.7000122,-1.528188466,-0.264806916,0.2118527,ST
17.6666666666667,-2.164081335,-1.686165094,8.964966774,1.074702024,-3.125020027,0.419209987,-1125.900024,-9.300000191,-916.500061,-1.537022197,-0.231068482,0.186157487,ST
17.7,-2.09469676,-1.497151852,9.078614235,1.013725996,-2.446661949,0.40396598,-1121.100098,-11.10000038,-914.1000366,-1.544052439,-0.220773874,0.163594521,ST
17.7333333333333,-2.071369171,-1.192098975,9.281384468,0.838419974,-1.524399996,0.503051996,-1128.300049,-10.5,-911.7000122,-1.553244336,-0.215828966,0.129408491,ST
17.7666666666667,-1.605415702,-0.845176041,9.285571098,0.670735955,-1.318606019,0.670735955,-1128.300049,-11.70000076,-921.3000488,-1.562591667,-0.172640977,0.092948395,ST
17.8,-1.264474273,-0.802707851,10.1187849,0.685979962,-1.089946032,1.265251994,-1133.100098,-11.10000038,-916.500061,-1.569097642,-0.12638581,0.078907862,ST
17.8333333333333,-1.062900066,-0.865512908,10.04700756,0.716467977,-1.196653962,1.295740008,-1137.900024,-12.30000019,-911.7000122,-1.573271762,-0.104876802,0.08400483,ST
17.8666666666667,-0.761435986,-0.800913453,9.812535286,0.304879993,-0.861285985,1.204275966,-1135.5,-10.5,-904.500061,-1.577957464,-0.078259576,0.080995553,ST
17.9,-0.852951884,-0.923532724,9.600194931,-0.495429993,0.899396002,1.432935953,-1137.900024,-9.900000572,-911.7000122,-1.581690604,-0.089032783,0.095276073,ST
17.9333333333333,-0.985141456,-0.963608325,9.551146507,-0.838419974,2.057940006,1.394825935,-1140.300049,-11.70000076,-911.7000122,-1.585475725,-0.104538373,0.101211522,ST
17.9666666666667,-1.428365469,-1.664631844,9.487145424,-1.067080021,2.568614006,1.326228023,-1130.700073,-9.300000191,-911.7000122,-1.58073756,-0.147724941,0.168592051,ST
18.0,-1.777082801,-1.83570075,9.810142517,-0.754577994,1.996963978,1.211897969,-1128.300049,-9.900000572,-911.7000122,-1.5814597,-0.177095677,0.184465962,ST
18.0333333333333,-2.024713993,-1.793830752,8.333328247,0.083841994,0.670735955,1.615863919,-1125.900024,-9.900000572,-914.1000366,-1.581477171,-0.23013454,0.209069957,ST
18.0666666666667,-2.365655422,-2.050434113,8.531312943,-0.640248001,1.013725996,2.218001842,-1123.5,-8.700000763,-911.7000122,-1.582519286,-0.262710866,0.233639967,ST
18.1,-2.582781315,-2.209540129,8.586940765,-0.853663981,0.40396598,1.897877932,-1118.700073,-10.5,-914.1000366,-1.58499309,-0.283416231,0.251166636,ST
18.1333333333333,-2.407525539,-2.395562649,7.689725876,-1.158543944,1.181409955,1.42531395,-1123.5,-8.700000763,-921.3000488,-1.576132641,-0.292434913,0.299532597,ST
18.1666666666667,-2.820244074,-2.71796155,8.365029335,-1.539644003,2.210379839,0.693601966,-1116.300049,-8.100000381,-909.3000488,-1.573004721,-0.312520164,0.315422555,ST
18.2,-2.936882019,-2.630632877,8.515163422,-1.318606019,1.646351933,0.434453994,-1116.300049,-6.900000095,-914.1000366,-1.577950201,-0.320506373,0.303198096,ST
18.2333333333333,-2.930302382,-2.890226841,8.825001717,-0.373477995,-0.464941978,0.388722003,-1111.5,-7.500000477,-914.1000366,-1.576196461,-0.306497055,0.315630798,ST
18.2666666666667,-3.004472256,-2.94884491,9.22336483,-0.144817993,-0.625003994,1.006103992,-1111.5,-8.700000763,-916.500061,-1.58192049,-0.300910077,0.309664892,ST
18.3,-2.223297358,-3.121109962,9.265234947,-0.663114011,-1.585376024,1.463423967,-1113.900024,-6.300000191,-914.1000366,-1.585624963,-0.227223033,0.324237015,ST
18.3333333333333,-1.846467376,-3.322684288,9.80236721,-0.068598002,-1.501533985,1.112811923,-1116.300049,-6.900000095,-918.9000244,-1.590466698,-0.179431814,0.326233065,ST
18.3666666666667,-1.754951477,-3.103763819,9.319067955,0.815553963,-1.349093914,0.579271972,-1121.100098,-6.300000191,-909.3000488,-1.594331284,-0.175300247,0.320358033,ST
18.4,-2.11563158,-2.801103592,9.064258575,1.42531395,-0.381099999,0.891773999,-1121.100098,-6.900000095,-916.500061,-1.600763697,-0.215261667,0.299019231,ST
18.4333333333333,-2.07794857,-2.572613001,8.577968597,1.112811923,0.198172003,1.318606019,-1118.700073,-7.500000477,-918.9000244,-1.605985569,-0.227748214,0.289861699,ST
18.4666666666667,-1.925422192,-2.217315912,8.086893082,0.929883957,0.221037999,1.676839948,-1116.300049,-9.300000191,-914.1000366,-1.615511271,-0.226945374,0.267575292,ST
18.5,-2.464349031,-2.12280941,8.677260399,0.91463995,0.503051996,2.08842802,-1111.5,-8.100000381,-916.500061,-1.627763516,-0.266932118,0.240205987,ST
18.5333333333333,-2.775981426,-1.943366528,8.785524368,0.785066009,0.221037999,1.661595941,-1113.900024,-8.700000763,-914.1000366,-1.639010281,-0.297972224,0.217212275,ST
18.5666666666667,-2.872282505,-1.490572333,9.123475075,0.861285985,0.060975999,0.967993975,-1123.5,-6.300000191,-914.1000366,-1.657000282,-0.301395248,0.16426096,ST
18.6,-2.696428537,-1.29198885,9.052893639,1.120433927,-0.602137983,0.922261953,-1116.300049,-7.500000477,-921.3000488,-1.66614482,-0.286996973,0.140995967,ST
18.6333333333333,-2.737700462,-0.9719823,8.953003883,1.189031959,-1.623485923,0.983237982,-1118.700073,-8.100000381,-918.9000244,-1.678077243,-0.292015925,0.108684539,ST
18.6666666666667,-2.580388784,-0.558665514,8.636586189,1.257629991,-1.783547997,0.945127964,-1121.100098,-9.300000191,-916.500061,-1.692613809,-0.287271436,0.066088184,ST
18.7,-2.170660734,-0.617283523,9.630102158,1.059458017,-1.623485923,1.059458017,-1123.5,-9.900000572,-909.3000488,-1.69661221,-0.224763366,0.062083111,ST
18.7333333333333,-2.008563995,-0.638816714,9.761693001,0.861285985,-1.882633924,0.701223969,-1125.900024,-8.100000381,-918.9000244,-1.698535116,-0.201408956,0.06342794,ST
18.7666666666667,-1.653267145,-0.878073871,10.90055752,-0.121951997,-1.394825935,-0.160062,-1123.5,-10.5,-918.9000244,-1.695655292,-0.15246298,0.079069608,ST
18.8,-1.001889467,-0.772800744,9.900462151,0.152439997,-1.501533985,-0.861285985,-1125.900024,-8.700000763,-911.7000122,-1.692964037,-0.101571647,0.077867819,ST
18.8333333333333,-1.032992959,-0.727341831,10.02068901,0.29725799,-0.083841994,-0.663114011,-1130.700073,-8.700000763,-911.7000122,-1.691145195,-0.102165507,0.072580926,ST
18.8666666666667,-0.919943869,-0.827829897,9.649840355,0.419209987,0.099086002,-0.556405962,-1133.100098,-8.700000763,-914.1000366,-1.687959096,-0.095460443,0.083824273,ST
18.9,-1.308138728,-1.089816451,8.675465584,0.762199998,-0.640248001,-0.93750596,-1128.300049,-9.900000572,-911.7000122,-1.680205064,-0.14293917,0.120505834,ST
18.9333333333333,-1.620967507,-1.016244888,7.336821556,0.777444005,-0.320124,-1.04421401,-1133.100098,-10.5,-906.9000244,-1.673354357,-0.209719261,0.13550734,ST
18.9666666666667,-2.22389555,-1.808186173,8.868067741,-0.182927996,-0.670735955,-1.394825935,-1130.700073,-10.5,-909.3000488,-1.655393326,-0.237139971,0.196924076,ST
19.0,-2.632427216,-1.931403637,9.354357719,-0.327746004,-0.823175967,-1.951231956,-1123.5,-10.5,-911.7000122,-1.648012354,-0.264143129,0.204257773,ST
19.0333333333333,-2.870488167,-2.114435434,8.607875824,-1.04421401,0.304879993,-1.631107926,-1128.300049,-9.300000191,-911.7000122,-1.633463311,-0.308626388,0.239992936,ST
19.0666666666667,-2.466741562,-2.525957823,8.244204521,-1.882633924,0.91463995,-1.318606019,-1116.300049,-10.5,-918.9000244,-1.614039472,-0.282188786,0.295874597,ST
19.1,-2.48528409,-2.789140701,9.074426651,-1.737815976,0.487807989,-1.562510014,-1130.700073,-9.900000572,-916.500061,-1.608553995,-0.258209896,0.301492501,ST
19.1333333333333,-2.235260248,-3.152811527,9.350769043,-1.028970003,-0.884151995,-1.387203932,-1125.900024,-8.700000763,-911.7000122,-1.599993592,-0.223372304,0.325480272,ST
19.1666666666667,-1.884150386,-2.990116596,8.378787041,-0.29725799,-1.631107926,-1.303362012,-1135.5,-9.900000572,-911.7000122,-1.594083589,-0.20650932,0.342314113,ST
19.2,-1.904487252,-2.958415031,9.333422661,0.861285985,-0.236281991,-0.007622,-1128.300049,-7.500000477,-914.1000366,-1.600433548,-0.192944966,0.30846757,ST
19.2333333333333,-2.062397003,-2.81246829,9.051099777,1.295740008,-0.53354001,0.868907988,-1128.300049,-8.700000763,-909.3000488,-1.604664284,-0.211930014,0.299538482,ST
19.2666666666667,-2.059406281,-2.910563707,9.683935165,1.23476398,0.259148002,1.615863919,-1128.300049,-8.700000763,-914.1000366,-1.610687793,-0.203043427,0.290205891,ST
19.3,-1.661043048,-2.339337111,8.994276047,1.097568035,-0.205793992,2.103672028,-1128.300049,-8.100000381,-906.9000244,-1.624412905,-0.179223932,0.254491052,ST
19.3333333333333,-1.869794965,-2.129389048,8.842946053,0.884151995,0.312501997,2.926847935,-1128.300049,-7.500000477,-906.9000244,-1.636766528,-0.202199263,0.235671947,ST
19.3666666666667,-2.142548084,-1.847065449,9.477575302,0.647870004,0.510674,3.78813386,-1123.5,-7.500000477,-911.7000122,-1.657121111,-0.218905501,0.194116597,ST
19.4,-2.14852953,-1.699324131,9.012220383,0.891773999,0.129574001,4.458869934,-1128.300049,-9.300000191,-914.1000366,-1.673334863,-0.230618328,0.184049239,ST
19.4333333333333,-2.179632902,-1.382308364,9.291552544,0.907018006,-0.304879993,5.007653713,-1123.5,-8.700000763,-911.7000122,-1.699341734,-0.228933514,0.14682124,ST
19.4666666666667,-1.839289665,-1.237557769,9.58045578,0.846041977,-1.12805593,5.518327713,-1121.100098,-8.700000763,-909.3000488,-1.721877088,-0.191213341,0.126982039,ST
19.5,-0.814670742,-0.627451956,8.03246212,1.356715918,-1.935987949,4.908567905,-1130.700073,-9.300000191,-916.500061,-1.745673211,-0.106606834,0.079218783,ST
19.5333333333333,-1.116134763,-0.367259771,9.142615318,0.922261953,-0.312501997,3.993927956,-1133.100098,-9.300000191,-904.500061,-1.763314189,-0.119865488,0.041482964,ST
19.5666666666667,-1.441524506,-0.3576895,9.548754692,0.464941978,-0.571649969,3.254593849,-1123.5,-9.900000572,-916.500061,-1.774986333,-0.146310142,0.036333507,ST
19.6,-2.013349295,-0.612498403,10.33830357,0.053353999,-0.312501997,2.903981924,-1130.700073,-9.900000572,-916.500061,-1.781585956,-0.187617456,0.05616708,ST
19.6333333333333,-2.14852953,-0.67769599,10.34667683,-0.693601966,0.121951997,2.964957952,-1128.300049,-9.300000191,-916.500061,-1.79130537,-0.203672121,0.064918284,ST
19.6666666666667,-2.497246981,-0.872092426,9.783226013,-1.250007987,-0.182927996,3.429899931,-1133.100098,-7.500000477,-914.1000366,-1.798840337,-0.245031475,0.087383454,ST
19.7,-2.561846256,-1.002487659,9.856200218,-1.661595941,0.579271972,3.490875959,-1130.700073,-6.300000191,-911.7000122,-1.808262836,-0.253779936,0.101335444,ST
19.7333333333333,-1.638911724,-0.806894839,8.69340992,-1.23476398,0.739333987,3.201239824,-1125.900024,-5.700000286,-911.7000122,-1.821260923,-0.19338941,0.094268779,ST
19.7666666666667,-1.80041039,-0.693845868,8.453554153,-0.769822001,1.95885396,2.637212038,-1125.900024,-5.100000381,-916.500061,-1.832284848,-0.211187672,0.083416637,ST
19.8,-0.400755793,-1.043161392,7.018609524,-0.929883957,2.271355867,1.006103992,-1125.900024,-3.900000095,-914.1000366,-1.826794129,-0.070989359,0.144636042,ST
19.8333333333333,-2.575005531,-1.492366672,8.676661491,-1.882633924,3.468009949,-0.160062,-1123.5,-5.100000381,-918.9000244,-1.821083474,-0.270411674,0.17126485,ST
19.8666666666667,-3.262271881,-1.903290987,9.601390839,-2.248489857,3.757645845,-0.685979962,-1116.300049,-5.100000381,-916.500061,-1.811123723,-0.322708068,0.197754964,ST
19.9,-4.356873512,-2.304644823,9.126465797,-2.538125992,4.108257771,-0.137196004,-1104.300049,-3.300000191,-902.1000366,-1.792579578,-0.430639404,0.247982763,ST
19.9333333333333,-3.856227636,-2.461956501,7.952908993,-1.592997909,3.910085917,0.823175967,-1097.100098,-3.300000191,-916.500061,-1.772818095,-0.439847041,0.298270776,ST
19.9666666666667,-4.580578804,-2.758635283,9.901061058,-1.036592007,3.490875959,1.013725996,-1089.900024,-2.700000048,-906.9000244,-1.784232543,-0.426485777,0.275043676,ST
20.0,-3.823329926,-2.809477568,9.613951683,0.40396598,1.211897969,0.625003994,-1087.5,-2.100000143,-911.7000122,-1.781568389,-0.372363763,0.282703341,ST
20.0333333333333,-2.947050333,-2.383599758,7.278801918,0.777444005,-1.791170001,-1.006103992,-1094.700073,-2.700000048,-909.3000488,-1.768039762,-0.364405474,0.313139704,ST
20.0666666666667,-2.895610094,-2.129389048,7.725614548,1.8292799,-1.714949965,0.487807989,-1099.5,-3.900000095,-906.9000244,-1.784128745,-0.345944582,0.269484997,ST
20.1,-3.043351412,-2.216119766,8.070743561,1.562510014,-0.998481989,1.143299937,-1097.100098,-2.700000048,-911.7000122,-1.788306477,-0.347454434,0.264852373,ST
20.1333333333333,-4.45257616,-1.91345942,10.22704887,1.211897969,0.190549999,1.783547997,-1094.700073,-3.900000095,-914.1000366,-1.819787856,-0.400166064,0.189329946,ST
20.1666666666667,-2.507415295,-1.782466054,8.279495239,1.288118005,-0.693601966,1.935987949,-1094.700073,-5.100000381,-916.500061,-1.819141203,-0.295861317,0.207304779,ST
20.2,-3.495547533,-2.219708681,10.31138706,0.198172003,-0.609759986,1.211897969,-1094.700073,-5.100000381,-921.3000488,-1.822255201,-0.317283121,0.210612037,ST
20.2333333333333,-3.101969481,-1.634126544,9.405200005,0.609759986,-1.63872993,0.769822001,-1099.5,-4.5,-918.9000244,-1.836426975,-0.312141698,0.174014671,ST
20.2666666666667,-2.622258902,-1.335055113,8.116202354,0.716467977,-1.631107926,1.310984015,-1101.900024,-4.5,-909.3000488,-1.84493275,-0.306593597,0.161817894,ST
20.3,-2.962602139,-1.058114886,8.741261482,0.487807989,0.419209987,1.486289978,-1099.5,-5.100000381,-914.1000366,-1.861174699,-0.323927399,0.122705316,ST
20.3333333333333,-2.92312479,-0.906186581,7.953506947,0.350611985,0.647870004,0.891773999,-1097.100098,-5.100000381,-911.7000122,-1.866525833,-0.348933577,0.113274117,ST
20.3666666666667,-3.593044758,-1.132882833,9.171924591,0.198172003,1.760681987,0.236281991,-1094.700073,-5.100000381,-916.500061,-1.863403693,-0.371646275,0.121690517,ST
20.4,-3.241336823,-0.519786239,8.747840881,0.823175967,1.04421401,-0.571649969,-1094.700073,-5.700000286,-918.9000244,-1.880818941,-0.357482934,0.06403401,ST
20.4333333333333,-2.920732021,-0.03828115,8.03246212,1.570132017,0.289635986,-0.480185986,-1097.100098,-5.100000381,-911.7000122,-1.89680329,-0.350030583,0.007905425,ST
20.4666666666667,-3.887331247,-0.14116174,9.117493629,1.318606019,0.731711984,0.495429993,-1099.5,-6.300000191,-918.9000244,-1.895052104,-0.399356245,0.012368262,ST
20.5,-3.071464062,-0.448607236,8.511574745,-0.228659987,0.335367978,0.525918007,-1089.900024,-5.100000381,-918.9000244,-1.883508864,-0.351302677,0.049150789,ST
20.5333333333333,-3.322684288,-0.736313999,9.668382645,-1.326228023,0.647870004,-0.022865999,-1094.700073,-5.700000286,-911.7000122,-1.875904225,-0.333078841,0.075741826,ST
20.5666666666667,-3.63850379,-1.263876081,10.27729225,-1.562510014,0.731711984,-0.670735955,-1085.100098,-3.300000191,-914.1000366,-1.860332184,-0.338531948,0.121041236,ST
20.6,-3.329263687,-1.460665107,9.746141434,-1.051836014,0.167683989,-1.821658015,-1089.900024,-5.100000381,-914.1000366,-1.84643241,-0.326798164,0.148928102,ST
20.6333333333333,-3.127091408,-1.680183649,9.167737007,-0.42683199,0.251525998,-2.332331896,-1089.900024,-1.5,-916.500061,-1.829212231,-0.323750895,0.18026757,ST
20.6666666666667,-3.158792973,-1.549190283,8.441592216,0.251525998,0.190549999,-2.57623601,-1082.700073,-2.700000048,-916.500061,-1.819829491,-0.349603947,0.182453714,ST
20.7,-2.932694912,-1.726838708,7.70946455,0.899396002,0.335367978,-2.149404049,-1085.100098,-3.900000095,-911.7000122,-1.799864622,-0.354741638,0.216765146,ST
20.7333333333333,-2.883647203,-2.162286758,8.057583809,0.663114011,0.693601966,-3.010689974,-1077.900024,-4.5,-911.7000122,-1.774374594,-0.334510491,0.259137378,ST
20.7666666666667,-3.088810205,-2.225689888,8.200540543,1.204275966,0.846041977,-4.740883827,-1085.100098,-3.900000095,-918.9000244,-1.755286152,-0.346712414,0.265307731,ST
20.8,-3.969276667,-2.409319878,8.321365356,1.95885396,1.371959925,-5.403997898,-1080.300049,-6.300000191,-914.1000366,-1.729009068,-0.42186755,0.281012548,ST
20.8333333333333,-4.051820278,-2.506817102,8.326747894,1.951231956,1.692083955,-5.000031948,-1077.900024,-5.100000381,-918.9000244,-1.704984288,-0.435061067,0.292155665,ST
20.8666666666667,-4.434033871,-2.5791924,8.783729553,1.935987949,1.478667974,-3.887219906,-1077.900024,-7.500000477,-906.9000244,-1.691676534,-0.450108561,0.286283962,ST
20.9,-4.139149189,-2.705998898,9.011023521,1.875011921,0.236281991,-2.23324585,-1080.300049,-8.700000763,-914.1000366,-1.680530198,-0.417020132,0.289857891,ST
20.9333333333333,-3.661831379,-2.365655422,8.744850159,1.966475964,-0.762199998,-0.990859985,-1075.5,-8.100000381,-918.9000244,-1.685671336,-0.385522166,0.263869109,ST
20.9666666666667,-3.298758507,-2.426067829,8.425441742,1.981719971,-1.135677934,0.282013983,-1075.5,-8.100000381,-911.7000122,-1.680842689,-0.360568459,0.275392786,ST
21.0,-3.404031754,-2.320794821,8.887207985,1.897877932,-0.548784018,0.800309956,-1075.5,-7.500000477,-914.1000366,-1.689113721,-0.354902363,0.253685928,ST
21.0333333333333,-3.319693565,-2.111444712,8.647353172,2.202757835,0.121951997,1.204275966,-1082.700073,-9.300000191,-914.1000366,-1.69610447,-0.357421178,0.236599717,ST
21.0666666666667,-3.70429945,-2.012751102,8.771168709,2.317087889,1.074702024,1.478667974,-1077.900024,-11.10000038,-923.7000122,-1.702361724,-0.389960169,0.222001045,ST
21.1,-3.356778383,-1.725642443,8.367422104,2.06556201,0.769822001,1.227141976,-1075.5,-11.10000038,-914.1000366,-1.710849529,-0.377378938,0.201119746,ST
21.1333333333333,-3.302945375,-1.668220758,8.181997299,1.44817996,-0.137196004,0.731711984,-1068.300049,-9.300000191,-914.1000366,-1.71241327,-0.376743098,0.198364766,ST
21.1666666666667,-3.649868488,-1.357186437,8.427236557,1.600619912,-0.952749968,0.327746004,-1077.900024,-10.5,-918.9000244,-1.726265244,-0.400207473,0.160357787,ST
21.2,-3.418985128,-0.879868329,8.796290398,1.935987949,-1.371959925,0.792688012,-1075.5,-12.30000019,-914.1000366,-1.748963603,-0.369876082,0.101475498,ST
21.2333333333333,-3.279618025,-0.82603544,8.662904739,1.882633924,-1.189031959,0.945127964,-1082.700073,-11.70000076,-914.1000366,-1.753425786,-0.359529257,0.092025004,ST
21.2666666666667,-3.336441517,-0.376231939,8.734682083,1.867389917,-0.167683989,0.625003994,-1080.300049,-12.30000019,-916.500061,-1.770132951,-0.363924383,0.044143906,ST
21.3,-3.300552845,0.084338158,9.110315323,1.836901903,0.586893976,0.632625997,-1073.100098,-11.70000076,-918.9000244,-1.788073748,-0.350014035,-0.007733026,ST
21.3333333333333,-3.533230543,0.041870009,8.934461594,1.669217944,0.846041977,0.487807989,-1075.5,-15.30000019,-916.500061,-1.787647715,-0.375939209,-0.007925128,ST
21.3666666666667,-3.328067541,0.122021168,9.085791588,1.280496001,1.006103992,-0.060975999,-1075.5,-15.90000057,-914.1000366,-1.788423285,-0.354932557,-0.014936079,ST
21.4,-3.220999956,-0.236266479,8.83995533,1.135677934,1.120433927,-1.509155989,-1075.5,-14.70000076,-911.7000122,-1.768461264,-0.351492454,0.022939476,ST
21.4333333333333,-2.98892045,-0.497654945,9.34359169,1.318606019,1.265251994,-3.894841909,-1065.900024,-14.70000076,-906.9000244,-1.745063775,-0.314751678,0.050521154,ST
21.4666666666667,-2.625847578,-0.6848737,9.367517471,1.913121939,0.198172003,-6.371991634,-1068.300049,-15.90000057,-909.3000488,-1.716112301,-0.276050994,0.07089548,ST
21.5,-3.171952248,-0.708201289,8.770570755,2.934469938,-0.785066009,-8.483285904,-1065.900024,-15.30000019,-914.1000366,-1.682731756,-0.337380591,0.079518214,ST
21.5333333333333,-3.148026466,-0.991122901,8.796888351,2.073184013,-1.570132017,-9.03207016,-1063.5,-15.30000019,-909.3000488,-1.640089489,-0.337298266,0.111124399,ST
21.5666666666667,-3.368741274,-1.156808496,8.691017151,1.897877932,-1.63872993,-8.620481491,-1068.300049,-17.10000038,-909.3000488,-1.600605397,-0.360364442,0.132818527,ST
21.6,-3.767104387,-1.643098712,8.688026428,1.570132017,-0.556405962,-7.500047684,-1065.900024,-15.90000057,-916.500061,-1.556121553,-0.396028832,0.184202602,ST
21.6333333333333,-3.825722456,-1.665828228,8.912928581,1.310984015,-0.015244,-5.564059734,-1068.300049,-16.5,-909.3000488,-1.534369808,-0.397345685,0.186323469,ST
21.6666666666667,-3.787441254,-1.932599902,8.305214882,1.288118005,0.289635986,-3.932951927,-1068.300049,-19.5,-906.9000244,-1.504737288,-0.415249697,0.225433703,ST
21.7,-3.497341871,-2.092902184,7.621537685,1.028970003,0.068598002,-2.431417942,-1068.300049,-17.70000076,-906.9000244,-1.480150445,-0.415628131,0.264172634,ST
21.7333333333333,-3.651662827,-2.396758795,8.612062454,0.579271972,0.205793992,-0.769822001,-1065.900024,-18.30000114,-914.1000366,-1.474391149,-0.390311101,0.270396404,ST
21.7666666666667,-3.229373932,-2.0851264,8.994874001,1.318606019,-1.379581928,-0.053353999,-1056.300049,-18.30000114,-911.7000122,-1.488549808,-0.3383334,0.22867264,ST
21.8,-2.860319614,-1.962507129,9.03973484,1.577754021,-2.987823963,1.501533985,-1056.300049,-18.90000153,-909.3000488,-1.499171007,-0.299237466,0.21156167,ST
21.8333333333333,-2.367449999,-2.010358572,9.896873474,1.760681987,-3.292703867,1.737815976,-1068.300049,-19.5,-911.7000122,-1.509165999,-0.231926401,0.197688481,ST
21.8666666666667,-2.100080013,-1.434944987,9.536193848,1.981719971,-2.774407864,1.402447939,-1075.5,-20.10000038,-911.7000122,-1.525084293,-0.211538131,0.148805234,ST
21.9,-1.967890382,-1.238155961,8.416469574,1.402447939,-1.585376024,1.646351933,-1082.700073,-20.10000038,-909.3000488,-1.531464199,-0.223782888,0.143420547,ST
21.9333333333333,-2.578594446,-1.341036558,9.277795792,0.388722003,0.396344006,1.661595941,-1082.700073,-21.30000114,-921.3000488,-1.536734506,-0.265384958,0.142257953,ST
21.9666666666667,-3.122306347,-1.314120054,8.640174866,0.167683989,1.432935953,2.393307924,-1082.700073,-20.70000076,-911.7000122,-1.541745003,-0.338879382,0.148723557,ST
22.0,-3.584670782,-1.247726202,8.744850159,-0.251525998,1.021348,3.27745986,-1077.900024,-20.70000076,-914.1000366,-1.555843463,-0.384685675,0.140630502,ST
22.0333333333333,-3.932191849,-1.108358979,9.18927002,-0.586893976,-0.106707998,4.672286034,-1070.700073,-20.10000038,-911.7000122,-1.579430408,-0.400935559,0.119742053,ST
22.0666666666667,-3.838881493,-0.837998331,8.91532135,-0.53354001,-1.890255928,7.507669926,-1080.300049,-21.30000114,-914.1000366,-1.615428984,-0.402810491,0.091756985,ST
22.1,-2.903385878,-0.85893333,7.940946102,-0.838419974,-2.812517881,8.612859726,-1085.100098,-18.90000153,-909.3000488,-1.641042466,-0.350497648,0.102368168,ST
22.1333333333333,-2.418292046,-0.367259771,8.064163208,-1.196653962,-2.347575903,8.506152153,-1094.700073,-19.5,-904.500061,-1.687849016,-0.293561055,0.048187051,ST
22.1666666666667,-2.609697819,0.13996546,8.613258362,-0.83079797,-1.318606019,7.721086025,-1094.700073,-19.5,-909.3000488,-1.734628633,-0.291964147,-0.014216987,ST
22.2,-2.608501434,0.203368604,9.555334091,-0.952749968,-2.06556201,5.899427891,-1094.700073,-18.30000114,-906.9000244,-1.758943822,-0.264642538,-0.021874419,ST
22.2333333333333,-3.222794294,0.806296706,9.402807236,-0.975615978,-2.073184013,4.466491699,-1104.300049,-16.5,-909.3000488,-1.791096043,-0.319512433,-0.080258785,ST
22.2666666666667,-2.455975056,0.702219844,9.943529129,-1.753059983,-0.952749968,4.375028133,-1104.300049,-17.10000038,-911.7000122,-1.80563889,-0.244881052,-0.070151323,ST
22.3,-2.074958086,0.083740018,10.36222839,-2.347575903,-1.112811923,2.19513607,-1106.700073,-17.70000076,-909.3000488,-1.801533834,-0.200090867,-0.010653194,ST
22.3333333333333,-1.623360038,0.008374002,9.62112999,-2.507637978,-1.227141976,-0.099086002,-1111.5,-17.70000076,-911.7000122,-1.800398118,-0.167912366,0.002366274,ST
22.3666666666667,-1.770503163,-0.853550017,9.979417801,-3.528985977,-1.143299937,-2.004585981,-1106.700073,-13.50000095,-916.500061,-1.781769194,-0.172370277,0.084641978,ST
22.4,-1.001291275,-1.338045835,9.38845253,-4.153989792,-1.371959925,-3.025933981,-1104.300049,-14.10000038,-916.500061,-1.765695136,-0.108492531,0.143601196,ST
22.4333333333333,-0.701023579,-1.562349439,7.918814659,-3.094532013,-0.952749968,-3.772889853,-1111.5,-11.70000076,-911.7000122,-1.749436519,-0.086027987,0.195597012,ST
22.4666666666667,-2.092902184,-1.90149653,9.011023521,-1.63872993,2.06556201,-2.957335949,-1106.700073,-11.70000076,-914.1000366,-1.736821498,-0.213215835,0.21047611,ST
22.5,-2.673100948,-2.135968447,8.775953293,-1.120433927,1.44817996,-2.461905956,-1104.300049,-11.10000038,-911.7000122,-1.721653828,-0.282321064,0.239136017,ST
22.5333333333333,-3.389676332,-2.822636604,9.55413723,-1.051836014,2.667700052,-1.516777992,-1101.900024,-11.10000038,-914.1000366,-1.701659773,-0.32726061,0.285683885,ST
22.5666666666667,-3.098978758,-2.730522633,8.995471954,-0.160062,2.629590034,-1.173787951,-1104.300049,-10.5,-914.1000366,-1.692654941,-0.32268996,0.295149322,ST
22.6,-3.319693565,-2.778972149,8.639576912,0.342989981,2.545747995,-0.525918007,-1094.700073,-10.5,-911.7000122,-1.683254867,-0.351737356,0.30992813,ST
22.6333333333333,-3.83349824,-2.5791924,9.504491806,0.891773999,1.890255928,0.449698001,-1092.300049,-10.5,-914.1000366,-1.69703912,-0.373049314,0.266690968,ST
22.6666666666667,-2.917741299,-2.103668928,8.370412827,1.653973937,0.91463995,0.952749968,-1092.300049,-12.30000019,-911.7000122,-1.704959408,-0.331356774,0.244687671,ST
22.7,-2.864506721,-2.453582525,8.357851982,0.609759986,0.022865999,1.272873998,-1092.300049,-12.30000019,-906.9000244,-1.696934364,-0.319358437,0.280839402,ST
22.7333333333333,-3.09957695,-2.418292046,8.800477982,0.990859985,-0.655492008,1.013725996,-1092.300049,-11.70000076,-906.9000244,-1.70431767,-0.326254429,0.266803258,ST
22.7666666666667,-2.995500088,-2.055219173,8.763392448,1.76830399,-1.714949965,0.907018006,-1092.300049,-11.10000038,-911.7000122,-1.718731692,-0.319246884,0.229299471,ST
22.8,-2.848356724,-1.741792321,9.021192551,2.416173935,-1.791170001,1.272873998,-1092.300049,-12.30000019,-911.7000122,-1.733613634,-0.299922304,0.189578961,ST
22.8333333333333,-2.820244074,-1.482198238,8.899768829,2.515259981,-2.400929928,1.42531395,-1097.100098,-11.70000076,-909.3000488,-1.745249902,-0.299303554,0.162142427,ST
22.8666666666667,-3.017631292,-1.609004617,9.936948776,2.096050024,-2.743919849,1.707327962,-1104.300049,-14.10000038,-909.3000488,-1.751851603,-0.288102215,0.156342152,ST
22.9,-2.625249386,-1.147238255,9.867564201,2.301843882,-2.667700052,1.844523907,-1101.900024,-13.50000095,-921.3000488,-1.76841429,-0.256951456,0.114473634,ST
22.9333333333333,-2.521172523,-0.495860517,9.191662788,3.361301899,-1.85214591,3.064043999,-1109.100098,-15.30000019,-911.7000122,-1.791989216,-0.263805415,0.052711711,ST
22.9666666666667,-2.115033627,-0.306249201,8.139529228,3.38416791,-1.539644003,3.346057892,-1106.700073,-18.30000114,-911.7000122,-1.805630933,-0.252687814,0.032195855,ST
23.0,-2.381207228,-0.189611316,8.696400642,2.103672028,-1.059458017,3.079288006,-1106.700073,-17.10000038,-911.7000122,-1.817734739,-0.264311027,0.01808292,ST
23.0333333333333,-2.241839886,0.556871116,8.27291584,1.615863919,-1.585376024,2.728675842,-1111.5,-17.70000076,-906.9000244,-1.847126597,-0.261370587,-0.064501432,ST
23.0666666666667,-2.570818424,1.341036558,8.669484138,1.783547997,-1.737815976,2.705809832,-1121.100098,-20.10000038,-911.7000122,-1.876414199,-0.279708003,-0.149263382,ST
23.1,-2.637810469,1.677790999,8.44219017,1.158543944,-1.928365946,3.071666002,-1116.300049,-20.70000076,-914.1000366,-1.897075593,-0.291889319,-0.194998924,ST
23.1333333333333,-3.290982723,0.977963746,10.30899429,-1.410069942,-0.93750596,2.560992002,-1121.100098,-16.5,-911.7000122,-1.879315877,-0.304447821,-0.102685772,ST
23.1666666666667,-1.879365206,-0.300267786,10.0392313,-2.987823963,-1.524399996,1.112811923,-1121.100098,-17.10000038,-916.500061,-1.854416349,-0.193572279,0.02255525,ST
23.2,-1.083236933,-0.992917359,9.255663872,-4.306429863,-2.08842802,-2.271355867,-1128.300049,-16.5,-909.3000488,-1.836290249,-0.119294855,0.106598748,ST
23.2333333333333,-0.939682603,-1.275240779,10.085289,-3.940573931,-0.579271972,-3.963439941,-1123.5,-15.90000057,-906.9000244,-1.821831834,-0.092923225,0.13090876,ST
23.2666666666667,-0.547300816,-0.909775436,8.891993523,-2.926847935,-0.884151995,-4.42838192,-1125.900024,-12.90000057,-904.500061,-1.80900194,-0.061567427,0.109495994,ST
23.3,-1.628145218,-0.977963746,10.32454586,-2.004585981,0.510674,-4.481735706,-1130.700073,-12.90000057,-916.500061,-1.795278948,-0.147288113,0.099954516,ST
23.3333333333333,-2.01693821,-0.865512908,8.805262566,-0.464941978,0.457319975,-4.054903984,-1123.5,-12.30000019,-914.1000366,-1.781672481,-0.217257713,0.100247994,ST
23.3666666666667,-3.069669724,-1.650276423,10.40529537,-0.701223969,0.846041977,-3.81099987,-1123.5,-11.70000076,-911.7000122,-1.755866014,-0.278008407,0.154856412,ST
23.4,-1.625154495,-1.478609443,8.208315849,-0.327746004,-0.655492008,-4.405515671,-1121.100098,-13.50000095,-909.3000488,-1.735905117,-0.197247679,0.178328049,ST
23.4333333333333,-3.484781027,-1.335653305,8.631202698,-0.503051996,-0.243903995,-2.995445967,-1123.5,-11.70000076,-909.3000488,-1.73168727,-0.365835332,0.157924551,ST
23.4666666666667,-2.162884951,-1.798615932,7.841056347,-1.669217944,0.640248001,-0.754577994,-1125.900024,-15.30000019,-911.7000122,-1.709880274,-0.271230473,0.223675982,ST
23.5,-1.904487252,-2.253802776,8.616847992,-2.545747995,0.40396598,-0.853663981,-1123.5,-11.10000038,-909.3000488,-1.70071273,-0.216424155,0.257340773,ST
23.5333333333333,-1.929011106,-3.199466705,9.103735924,-2.743919849,-0.434453994,-1.189031959,-1121.100098,-11.70000076,-914.1000366,-1.683189449,-0.197831042,0.335364503,ST
23.5666666666667,-2.143146276,-3.008060932,8.615651131,-1.928365946,-1.661595941,-1.996963978,-1125.900024,-6.900000095,-914.1000366,-1.679252994,-0.224155241,0.339398473,ST
23.6,-2.760429859,-3.384292841,8.997266769,-1.364337921,-0.907018006,0.282013983,-1121.100098,-10.5,-911.7000122,-1.677335108,-0.273413196,0.359833817,ST
23.6333333333333,-2.59833312,-3.763515472,10.20312309,-0.853663981,-0.434453994,1.798792005,-1123.5,-8.700000763,-911.7000122,-1.686203066,-0.237555185,0.354463871,ST
23.6666666666667,-1.144845605,-3.591848612,9.143811226,0.609759986,-1.227141976,1.996963978,-1130.700073,-8.700000763,-911.7000122,-1.691088278,-0.124498392,0.371347451,ST
23.7,-2.561846256,-3.399246454,9.618139267,1.463423967,-1.150921941,2.804895878,-1128.300049,-9.900000572,-916.500061,-1.706109047,-0.234785924,0.339325568,ST
23.7333333333333,-1.911664963,-2.505022764,8.819618225,2.728675842,-1.158543944,3.757645845,-1123.5,-10.5,-914.1000366,-1.731086295,-0.208159529,0.276698377,ST
23.7666666666667,-1.573116064,-2.313018799,8.126968384,2.621968031,-1.44817996,4.588443756,-1130.700073,-11.10000038,-906.9000244,-1.747979152,-0.18546586,0.2714839,ST
23.8,-2.387188673,-1.562349439,9.098352432,2.606724024,-0.022865999,4.664663792,-1130.700073,-9.900000572,-916.500061,-1.784229257,-0.249832464,0.171113531,ST
23.8333333333333,-2.267560005,-0.957626879,8.338112831,3.254593849,-0.038109999,4.893323898,-1133.100098,-11.70000076,-911.7000122,-1.812494819,-0.263526845,0.112284053,ST
23.8666666666667,-2.229278803,-0.626255691,9.003248215,2.721053839,-0.480185986,3.91770792,-1130.700073,-13.50000095,-906.9000244,-1.83544527,-0.243487545,0.066676525,ST
23.9,-2.254400969,-0.039477438,8.723317146,2.507637978,-2.19513607,2.820139885,-1133.100098,-12.90000057,-909.3000488,-1.858004825,-0.248672632,0.005050192,ST
23.9333333333333,-2.431451082,0.025720147,9.554736137,1.913121939,-3.262215853,2.271355867,-1137.900024,-15.90000057,-911.7000122,-1.866666614,-0.243948476,-0.005925399,ST
23.9666666666667,-0.891233027,-0.232677609,9.005640984,0.53354001,-4.588443756,0.746955991,-1145.100098,-12.90000057,-911.7000122,-1.86435671,-0.102221939,0.02247096,ST
24.0,-1.424776554,-0.159704179,9.278393745,0.243903995,-3.536607981,0.060975999,-1142.700073,-14.10000038,-906.9000244,-1.865328597,-0.142197317,0.017277402,ST
24.0333333333333,-0.849961162,-0.291295618,10.78750801,-0.556405962,-1.76830399,-0.114329994,-1149.900024,-15.30000019,-904.500061,-1.864192353,-0.081543994,0.027018537,ST
24.0666666666667,-0.378026366,-0.49885124,10.6068697,-0.975615978,-2.073184013,-0.792688012,-1157.100098,-14.70000076,-904.500061,-1.860679352,-0.036013462,0.046962328,ST
24.1,0.668723822,-0.924729049,9.826890945,-1.623485923,-1.928365946,-2.820139885,-1157.100098,-11.10000038,-906.9000244,-1.851106478,0.064033542,0.093039715,ST
24.1333333333333,0.469542235,-1.131686449,10.31258297,-1.631107926,-1.173787951,-3.300325871,-1161.900024,-13.50000095,-909.3000488,-1.840850893,0.049338998,0.11016011,ST
24.1666666666667,-0.119030453,-1.072470307,9.432714462,-0.365855992,-0.472563982,-2.118916035,-1159.5,-10.5,-911.7000122,-1.833808434,-0.005815565,0.11350023,ST
24.2,-0.148937598,-1.011459708,8.214895248,-0.152439997,0.396344006,-0.868907988,-1164.300049,-11.70000076,-904.500061,-1.830380858,-0.017540546,0.122097944,ST
24.2333333333333,-0.731528878,-1.210641384,8.664100647,-0.907018006,1.631107926,0.236281991,-1157.100098,-12.90000057,-906.9000244,-1.829803644,-0.08060988,0.138899138,ST
