seconds,sensor_accX_m_s_,sensor_accY_m_s_,sensor_accZ_m_s_,sensor_gyroX___s_,sensor_gyroY___s_,sensor_gyroZ___s_,sensor_magX__T_,sensor_magY__T_,sensor_magZ__T_,sensor_yaw___,sensor_pitch___,sensor_roll___,label2
0.0,2.09170603752136,-1.08742392063141,9.353759765625,0.0838419944047928,-0.198172003030777,0.403965979814529,-1265.10009765625,3.30000019073486,-851.700012207031,2.76210064604202,0.217929775966819,0.115535573506553,ST
0.0333333333333333,2.13058519363403,-1.1615936756134,9.46800518035889,0.0609759986400604,-0.457319974899292,0.190549999475479,-1260.30004882812,-2.10000014305115,-830.100036621094,2.75975477409862,0.220345291729277,0.121669300124532,ST
0.0666666666666667,2.12639832496643,-1.13467717170715,9.31727313995361,0.205793991684914,-0.297257989645004,0.144817993044853,-1253.10009765625,0.900000035762787,-858.900024414062,2.75897286109824,0.223127797485238,0.120935056944436,ST
0.1,2.16049242019653,-1.14484560489655,9.37349891662598,0.236281991004944,-0.0076219998300075,0.327746003866196,-1253.10009765625,-0.300000011920929,-849.300048828125,2.75727536442103,0.224785977207684,0.121238177485902,ST
0.133333333333333,2.10426688194275,-1.1316864490509,9.37888145446777,0.266770005226135,0.182927995920181,0.480185985565186,-1257.90002441406,4.5,-842.100036621094,2.75543022882723,0.219046972175836,0.119865315210466,ST
0.166666666666667,1.98104953765869,-1.07785367965698,9.35555458068848,0.297257989645004,0.121951997280121,0.487807989120483,-1265.10009765625,3.30000019073486,-842.100036621094,2.75424764782095,0.207555840541617,0.114601582789378,ST
0.2,1.97446990013123,-1.09998488426208,9.29155254364014,0.3125019967556,-0.0228659994900227,0.503051996231079,-1260.30004882812,1.5,-844.500061035156,2.75144907915287,0.207892226646974,0.117302207726498,ST
0.233333333333333,1.97327363491058,-1.08204066753387,9.30231952667236,0.213415995240211,-0.137196004390717,0.46494197845459,-1262.70007324219,6.90000009536743,-858.900024414062,2.74971643472432,0.207817420167987,0.115705385900643,ST
0.266666666666667,2.00078821182251,-1.05990934371948,9.37648963928223,0.221037998795509,-0.0914639979600906,0.472563982009888,-1262.70007324219,3.90000009536743,-849.300048828125,2.74829055327969,0.208932326301,0.112556055938531,ST
0.3,2.03009724617004,-1.08323693275452,9.37290000915527,0.236281991004944,-0.205793991684914,0.419209986925125,-1257.90002441406,2.10000014305115,-866.100036621094,2.74591390371463,0.212004401733212,0.11467628183629,ST
0.333333333333333,2.02112507820129,-1.05931115150452,9.36632061004639,0.282013982534409,-0.25152599811554,0.426831990480423,-1260.30004882812,-1.5,-856.500061035156,2.74436112109853,0.21159966838506,0.112440994101427,ST
0.366666666666667,2.04265832901001,-0.99889874458313,9.2939453125,0.320124000310898,-0.335367977619171,0.442075997591019,-1255.5,4.5,-849.300048828125,2.7433565802465,0.215397162356799,0.107038490117682,ST
0.4,2.02591013908386,-0.973178625106812,9.31787109375,0.25152599811554,-0.365855991840363,0.411587983369827,-1260.30004882812,6.30000019073486,-844.500061035156,2.74202574190268,0.213640085085787,0.103991983996051,ST
0.433333333333333,2.00796604156494,-0.968393445014954,9.34239482879639,0.289635986089706,-0.327746003866196,0.442075997591019,-1260.30004882812,-6.30000019073486,-856.500061035156,2.74011809930176,0.211257830998003,0.103021608048921,ST
0.466666666666667,2.12400579452515,-1.02043187618256,9.45006084442139,0.0762199983000755,-0.320124000310898,0.350611984729767,-1265.10009765625,-0.900000035762787,-846.900024414062,2.73763040758182,0.219790237677514,0.107303259759502,ST
0.5,2.12759447097778,-1.03239476680756,9.35555458068848,0.213415995240211,-0.419209986925125,0.266770005226135,-1255.5,3.30000019073486,-863.700012207031,2.73573406424121,0.222790066434458,0.109513812444937,ST
0.533333333333333,2.13836121559143,-1.07247030735016,9.35017108917236,0.144817993044853,-0.335367977619171,0.205793991684914,-1265.10009765625,2.70000004768372,-851.700012207031,2.73371020483268,0.223885488630833,0.113770436592718,ST
0.566666666666667,2.1012761592865,-1.06708705425262,9.39981651306152,0.289635986089706,-0.259148001670837,0.274392008781433,-1260.30004882812,1.5,-856.500061035156,2.73249797055276,0.219263021155434,0.112718424340864,ST
0.6,2.1012761592865,-1.04615211486816,9.34359169006348,0.350611984729767,-0.152439996600151,0.37347799539566,-1262.70007324219,-2.10000014305115,-851.700012207031,2.73100613355547,0.220022582334397,0.111141483693531,ST
0.633333333333333,1.9708811044693,-0.917551338672638,9.31547832489014,0.480185985565186,-0.0914639979600906,0.541162014007568,-1255.5,3.30000019073486,-851.700012207031,2.7309681442826,0.208132606137319,0.0981427973153832,ST
0.666666666666667,2.05402302742004,-0.92173832654953,9.29274940490723,0.358233988285065,-0.106707997620106,0.640248000621796,-1265.10009765625,-5.10000038146973,-842.100036621094,2.72804242443433,0.216071417536112,0.0984658929372701,ST
0.7,2.1533145904541,-0.910971760749817,9.35914325714111,0.160062000155449,-0.213415995240211,0.518296003341675,-1260.30004882812,3.90000009536743,-846.900024414062,2.72609862722788,0.224830363442848,0.0970539791148749,ST
0.733333333333333,2.17664217948914,-0.946262180805206,9.32923603057861,0.0457319989800453,-0.266770005226135,0.304879993200302,-1257.90002441406,4.5,-842.100036621094,2.7238995657705,0.228271973390618,0.100890100194587,ST
0.766666666666667,2.11264085769653,-1.01205790042877,9.34538555145264,-0.0838419944047928,-0.198172003030777,0.167683988809586,-1255.5,5.70000028610229,-849.300048828125,2.72172693487354,0.221805325736211,0.10765929244327,ST
0.8,1.99480676651001,-1.1035737991333,9.40220928192139,-0.0990860015153885,-0.0304879993200302,0.266770005226135,-1250.70007324219,-2.70000004768372,-844.500061035156,2.7188571467744,0.208535101629335,0.11654147259128,ST
0.833333333333333,1.94097399711609,-1.07306849956512,9.37290000915527,0.0685980021953583,-0.0228659994900227,0.46494197845459,-1262.70007324219,3.90000009536743,-861.300048828125,2.71739397124417,0.203165064600573,0.114174407585347,ST
0.866666666666667,1.9128612279892,-1.06648886203766,9.34119892120361,0.175305992364883,-0.0152439996600151,0.67835795879364,-1257.90002441406,1.5,-851.700012207031,2.71468916403426,0.200762600430551,0.113646772321868,ST
0.9,2.01394748687744,-1.09639608860016,9.33342266082764,0.0914639979600906,-0.129574000835419,0.701223969459534,-1257.90002441406,-0.900000035762787,-842.100036621094,2.71115535981809,0.210561755845969,0.116831811042294,ST
0.933333333333333,2.00796604156494,-1.08024621009827,9.43211650848389,0.0457319989800453,-0.243903994560242,0.571649968624115,-1250.70007324219,6.30000019073486,-849.300048828125,2.70928705542244,0.208850777724018,0.11433358031868,ST
0.966666666666667,2.14673519134521,-1.11314404010773,9.39263916015625,0.213415995240211,-0.381099998950958,0.396344006061554,-1243.5,-0.300000011920929,-858.900024414062,2.70668772473218,0.222861593499343,0.117552849177701,ST
1.0,2.09050965309143,-1.10716259479523,9.39263916015625,0.25152599811554,-0.365855991840363,0.259148001670837,-1248.30004882812,3.30000019073486,-851.700012207031,2.70539663100012,0.218409272698541,0.117044669623545,ST
1.03333333333333,2.01693820953369,-1.04615211486816,9.40460205078125,0.442075997591019,-0.144817993044853,0.411587983369827,-1255.5,0.300000011920929,-844.500061035156,2.70471819098094,0.210675665588563,0.110587059844282,ST
1.06666666666667,1.97805881500244,-0.941477060317993,9.37230205535889,0.556405961513519,0.0762199983000755,0.693601965904236,-1250.70007324219,-0.900000035762787,-856.500061035156,2.70374360308583,0.206973107717687,0.100074729746747,ST
1.1,1.94516098499298,-0.827231705188751,9.32026386260986,0.548784017562866,0.0,0.884151995182037,-1265.10009765625,-2.70000004768372,-854.100036621094,2.70215885862788,0.20495699806637,0.0886248344474646,ST
1.13333333333333,2.00258255004883,-0.86491471529007,9.31667518615723,0.25152599811554,-0.121951997280121,0.891773998737335,-1255.5,-0.300000011920929,-858.900024414062,2.69730286942423,0.210652182748224,0.0922959618369217,ST
1.16666666666667,2.02890086174011,-0.925925314426422,9.3597412109375,0.0914639979600906,-0.0990860015153885,0.724089980125427,-1255.5,4.5,-837.300048828125,2.69307959358787,0.212397366776027,0.0983309339937571,ST
1.2,2.00258255004883,-0.996506214141846,9.40639591217041,0.0990860015153885,-0.0304879993200302,0.487807989120483,-1243.5,0.900000035762787,-842.100036621094,2.68937671276586,0.20874473330059,0.105269371192683,ST
1.23333333333333,1.93259990215302,-0.96659904718399,9.4315185546875,0.175305992364883,-0.114329993724823,0.327746003866196,-1255.5,2.70000004768372,-851.700012207031,2.68853632120681,0.201681585185399,0.102146018314095,ST
1.26666666666667,1.91944074630737,-0.96061760187149,9.36751747131348,0.205793991684914,-0.274392008781433,0.381099998950958,-1253.10009765625,0.300000011920929,-851.700012207031,2.68668696800427,0.201498371455356,0.101984796653843,ST
1.3,1.94097399711609,-0.967795312404633,9.36273193359375,0.114329993724823,-0.335367977619171,0.434453994035721,-1250.70007324219,2.70000004768372,-842.100036621094,2.6845656456085,0.203720435157132,0.102909645990168,ST
1.33333333333333,1.93858134746552,-0.961215734481812,9.37948036193848,0.152439996600151,-0.274392008781433,0.480185985565186,-1262.70007324219,-0.300000011920929,-851.700012207031,2.68260963343504,0.203204599841061,0.102092738140432,ST
1.36666666666667,2.09350037574768,-0.997104346752167,9.38127422332764,0.0685980021953583,-0.236281991004944,0.396344006061554,-1253.10009765625,4.5,-844.500061035156,2.68014776733833,0.217767043981194,0.105696295014057,ST
1.4,2.07196736335754,-0.980356335639954,9.42015361785889,0.175305992364883,-0.396344006061554,0.266770005226135,-1255.5,-4.5,-856.500061035156,2.6791152559398,0.216092574294844,0.103604544197477,ST
1.43333333333333,2.09469676017761,-1.01265609264374,9.42434024810791,0.160062000155449,-0.243903994560242,0.144817993044853,-1238.70007324219,3.90000009536743,-844.500061035156,2.67759951069203,0.217805060392791,0.106668660054632,ST
1.46666666666667,1.95592749118805,-0.958823204040527,9.37290000915527,0.327746003866196,-0.0914639979600906,0.160062000155449,-1257.90002441406,-0.300000011920929,-858.900024414062,2.67769268808844,0.205605523387706,0.101749607647554,ST
1.5,1.9128612279892,-0.916953146457672,9.34837627410889,0.37347799539566,-0.0838419944047928,0.320124000310898,-1269.90002441406,-0.900000035762787,-842.100036621094,2.67695470637438,0.201266160364885,0.0975122883916909,ST
1.53333333333333,2.01693820953369,-0.907382905483246,9.42912578582764,0.365855991840363,-0.335367977619171,0.449698001146317,-1262.70007324219,2.10000014305115,-858.900024414062,2.67514901650481,0.209748882000122,0.0955985590967002,ST
1.56666666666667,2.32139277458191,-0.908579170703888,9.87115383148193,0.518296003341675,-0.975615978240967,0.381099998950958,-1253.10009765625,3.30000019073486,-849.300048828125,2.67376789030395,0.230340219400617,0.0913451829808099,ST
1.6,2.29268193244934,-0.946262180805206,10.4346036911011,1.34147191047668,-2.9344699382782,0.37347799539566,-1255.5,-1.5,-851.700012207031,2.67048537762095,0.220953170190697,0.0884951359731231,ST
1.63333333333333,1.5964435338974,-0.945065915584564,8.82320690155029,2.40855193138123,-6.44821166992188,-0.358233988285065,-1267.5,2.70000004768372,-849.300048828125,2.66476337648266,0.191191219080321,0.101770628111754,ST
1.66666666666667,2.60551071166992,-0.744089841842651,8.35725402832031,1.15092194080353,-0.342989981174469,1.13567793369293,-1272.30004882812,2.70000004768372,-837.300048828125,2.66230949773969,0.294815389169621,0.0882739346308902,ST
1.7,2.59055709838867,-0.645994424819946,9.10971736907959,0.0457319989800453,3.32319188117981,1.94360995292664,-1267.5,1.5,-854.100036621094,2.65980288743755,0.271563408164795,0.0723662508758608,ST
1.73333333333333,2.38060903549194,-0.754856407642365,9.33880615234375,-0.274392008781433,4.52746772766113,2.38568592071533,-1260.30004882812,9.30000019073486,-839.700012207031,2.64987001842681,0.242487682737158,0.0814397639949108,ST
1.76666666666667,1.89850580692291,-0.95762687921524,9.341796875,-0.724089980125427,4.29880809783936,2.24848985671997,-1272.30004882812,4.5,-861.300048828125,2.63865753847046,0.194708925815652,0.102705805118258,ST
1.8,1.0575168132782,-1.13467717170715,9.42493915557861,-0.647870004177094,3.58234000205994,2.17989206314087,-1255.5,0.900000035762787,-854.100036621094,2.6293472827958,0.109771021241371,0.12021416185349,ST
1.83333333333333,0.856540739536285,-1.41819703578949,9.67556095123291,-0.6250039935112,3.04879999160767,2.24086785316467,-1245.90002441406,10.5,-861.300048828125,2.61991017784851,0.0832611720066874,0.14528988764396,ST
1.86666666666667,0.415111213922501,-1.4020471572876,9.71025276184082,-0.0457319989800453,2.05031800270081,2.12653803825378,-1248.30004882812,2.70000004768372,-851.700012207031,2.61273203783699,0.0409407148846463,0.143731591683066,ST
1.9,0.0173461455851793,-1.28241848945618,9.80236721038818,0.746955990791321,1.49391198158264,2.4847719669342,-1248.30004882812,7.50000047683716,-858.900024414062,2.60386173788791,0.0011630426527783,0.129720774194118,ST
1.93333333333333,-0.232677608728409,-0.960019469261169,9.59899806976318,1.76068198680878,0.533540010452271,3.33843588829041,-1224.30004882812,-2.10000014305115,-866.100036621094,2.59046610238319,-0.0240222751403978,0.0985082392556773,ST
1.96666666666667,-0.41750380396843,-0.895420014858246,9.13364315032959,1.91312193870544,0.0228659994900227,3.94819593429565,-1238.70007324219,6.90000009536743,-878.100036621094,2.5738380822514,-0.0450705452438001,0.0943121224443053,ST
2.0,-0.168078169226646,-0.87388688325882,9.01102352142334,0.967993974685669,-0.731711983680725,4.26069784164429,-1241.10009765625,-1.5,-858.900024414062,2.5565888387535,-0.0196340765088744,0.0947781745952943,ST
2.03333333333333,0.122021168470383,-0.712986409664154,9.17670917510986,0.0609759986400604,-1.73019397258759,4.03203773498535,-1241.10009765625,8.70000076293945,-863.700012207031,2.53924095777138,0.0137714393145618,0.0784364385517196,ST
2.06666666666667,0.39836323261261,-0.579002380371094,9.52004337310791,0.0228659994900227,-2.59148001670837,3.81099987030029,-1250.70007324219,6.90000009536743,-873.300048828125,2.52367482749065,0.0438857949314342,0.0620317086068971,ST
2.1,1.65805232524872,-0.983347058296204,8.90515232086182,-0.487807989120483,-3.67380380630493,2.80489587783813,-1248.30004882812,7.50000047683716,-873.300048828125,2.50619156771742,0.180074715895866,0.108657964113155,ST
2.13333333333333,2.07555603981018,-1.41759884357452,8.75322437286377,-1.2576299905777,-3.48325395584106,0.586893975734711,-1245.90002441406,9.30000019073486,-863.700012207031,2.49220745304785,0.233058862402766,0.160507463176594,ST
2.16666666666667,1.85603761672974,-1.82433605194092,9.24489784240723,-1.53964400291443,-3.05642199516296,-2.03507399559021,-1255.5,3.90000009536743,-839.700012207031,2.49181766461335,0.202372006326783,0.194803191307344,ST
2.2,1.59763991832733,-2.167072057724,9.10612869262695,-0.701223969459534,-2.76678586006165,-3.08691000938416,-1267.5,5.70000028610229,-842.100036621094,2.49495127699832,0.176635107425414,0.231731918599915,ST
2.23333333333333,1.03478729724884,-2.04564905166626,9.5924186706543,-0.320124000310898,-2.01982998847961,-3.68904781341553,-1269.90002441406,1.5,-851.700012207031,2.51152973190468,0.1132013295445,0.211047442260032,ST
2.26666666666667,0.441429525613785,-1.40324342250824,9.29633808135986,1.73781597614288,-1.77592599391937,-2.82013988494873,-1265.10009765625,3.30000019073486,-844.500061035156,2.52602289218696,0.054555785286136,0.150406586472701,ST
2.3,1.30036282539368,-1.76153099536896,8.381178855896,1.34147191047668,-1.53964400291443,-2.61434602737427,-1248.30004882812,4.5,-846.900024414062,2.52947846049579,0.148145626140209,0.2009904767045,ST
2.33333333333333,0.342735916376114,-1.15082705020905,10.3508644104004,1.55488801002502,-2.01982998847961,-2.78202986717224,-1265.10009765625,-1.5,-844.500061035156,2.54758676802612,0.0430966582724553,0.112827788884467,ST
2.36666666666667,1.47442245483398,-1.0796480178833,9.07861423492432,3.06404399871826,-3.94057393074036,-1.20427596569061,-1281.90002441406,-1.5,-861.300048828125,2.54917050748648,0.159439392259389,0.112832846286019,ST
2.4,1.94276833534241,-0.508421540260315,9.54755783081055,2.89635992050171,-4.88570165634155,-1.04421401023865,-1281.90002441406,-6.30000019073486,-851.700012207031,2.56075304096882,0.206094944898183,0.0518427241616236,ST
2.43333333333333,2.73650407791138,-0.0927121639251709,9.67675685882568,3.39941191673279,-5.35826587677002,-0.0152439996600151,-1284.30004882812,4.5,-844.500061035156,2.56779087598252,0.280162010899196,0.0066277150961471,ST
2.46666666666667,4.29047966003418,0.244640469551086,9.55892276763916,1.80641400814056,-4.40551567077637,0.213415995240211,-1284.30004882812,-1.5,-827.700012207031,2.57593742089802,0.422883847511895,-0.0270298035387958,ST
2.5,3.61397981643677,0.814072608947754,10.4980068206787,2.17989206314087,-2.9344699382782,0.853663980960846,-1301.10009765625,-8.10000038146973,-851.700012207031,2.58907114724398,0.341144509623936,-0.077614005642864,ST
2.53333333333333,2.92312479019165,1.37931764125824,10.0410261154175,2.17989206314087,-0.449698001146317,1.63110792636871,-1289.10009765625,0.300000011920929,-832.500061035156,2.59833396176293,0.285548782529188,-0.135801680626784,ST
2.56666666666667,2.89561009407043,1.64130425453186,8.48944282531738,1.33385002613068,1.70732796192169,1.42531394958496,-1296.30004882812,-4.5,-822.900024414062,2.60537536852261,0.31930071975148,-0.190074113146203,ST
2.6,2.8160572052002,1.31651270389557,9.59062480926514,-0.975615978240967,2.59148001670837,-0.25152599811554,-1286.70007324219,5.10000038146973,-844.500061035156,2.59032074232402,0.280357257927756,-0.137070963867605,ST
2.63333333333333,2.00856399536133,1.08862018585205,9.63907432556152,-1.75305998325348,2.17227005958557,-1.36433792114258,-1296.30004882812,-1.5,-825.300048828125,2.59007706559404,0.205005022773813,-0.111463032225966,ST
2.66666666666667,1.24294114112854,0.74947315454483,10.5051851272583,-2.00458598136902,1.94360995292664,-2.01220798492432,-1277.10009765625,-4.5,-837.300048828125,2.59203979272881,0.119360982183952,-0.0707635089849996,ST
2.7,1.02521705627441,0.744089841842651,10.5380830764771,-1.75305998325348,0.746955990791321,-2.5000159740448,-1284.30004882812,-2.10000014305115,-832.500061035156,2.6025930565294,0.0964653232038596,-0.0680202985811787,ST
2.73333333333333,1.10297560691833,0.853550016880035,9.1808967590332,-1.95123195648193,1.22714197635651,-2.9344699382782,-1291.5,-8.70000076293945,-846.900024414062,2.61693485563708,0.115276131904074,-0.088521088593157,ST
2.76666666666667,0.991122901439667,0.44023323059082,9.4195556640625,-3.55947399139404,3.16313004493713,-2.33995389938354,-1274.70007324219,-0.900000035762787,-842.100036621094,2.62309071171295,0.0997242588079044,-0.042975077074561,ST
2.8,1.94516098499298,-0.529954671859741,9.33880615234375,-4.6494197845459,2.85824990272522,-2.69056582450867,-1286.70007324219,-2.10000014305115,-856.500061035156,2.62229723102845,0.194158553504052,0.0573200104873763,ST
2.83333333333333,1.90628159046173,-1.61857485771179,9.45723819732666,-5.32777786254883,3.86435389518738,-3.49849796295166,-1277.10009765625,-8.70000076293945,-858.900024414062,2.62146559678174,0.190635567880387,0.171518791338438,ST
2.86666666666667,2.33215951919556,-2.17604422569275,9.5272216796875,-4.83997011184692,4.74088382720947,-3.31556987762451,-1274.70007324219,-0.300000011920929,-844.500061035156,2.63061834448687,0.225208807438047,0.227680304843487,ST
2.9,2.71616721153259,-1.93977761268616,8.85909557342529,-3.65855979919434,6.26528406143188,-2.86587190628052,-1248.30004882812,5.10000038146973,-858.900024414062,2.65249365773881,0.278019583450518,0.220445977806376,ST
2.93333333333333,2.8663010597229,-1.46963727474213,9.23114013671875,-1.09756803512573,7.47718191146851,-1.31098401546478,-1243.5,9.30000019073486,-868.500061035156,2.68014393841386,0.284683020045679,0.162304767221027,ST
2.96666666666667,2.81187009811401,-1.26567053794861,8.1006498336792,-0.396344006061554,6.98937368392944,-1.6615959405899,-1236.30004882812,-4.5,-875.700012207031,2.69341996600146,0.316715527779982,0.154653633610864,ST
3.0,1.48518896102905,-0.916355013847351,9.83406829833984,-0.777444005012512,7.88114786148071,-0.335367977619171,-1221.90002441406,-0.300000011920929,-868.500061035156,2.71281673782636,0.143645871948485,0.0965537849715671,ST
3.03333333333333,1.60541570186615,-0.941477060317993,9.42374229431152,-0.259148001670837,7.78968381881714,0.449698001146317,-1221.90002441406,3.90000009536743,-878.100036621094,2.71377365354427,0.153664851979061,0.0997339180768811,ST
3.06666666666667,0.581993103027344,-1.89970207214355,10.3520603179932,-0.945127964019775,7.93450164794922,0.388722002506256,-1197.90002441406,2.70000004768372,-878.100036621094,2.70939111992151,0.0483095508183205,0.178025746303386,ST
3.1,-0.672312676906586,-2.29866337776184,11.4155588150024,-1.02134799957275,8.33846759796143,1.36433792114258,-1195.5,2.10000014305115,-875.700012207031,2.7104599448201,-0.0650837841515283,0.199164483595821,ST
3.13333333333333,-0.379222631454468,-2.47272300720215,11.2582473754883,-0.92988395690918,6.61589574813843,1.91312193870544,-1173.90002441406,0.300000011920929,-890.100036621094,2.70925871680413,-0.046106625908396,0.216660114057015,ST
3.16666666666667,-0.0239257179200649,-2.07615423202515,10.2168798446655,0.541162014007568,4.88570165634155,1.265251994133,-1173.90002441406,0.300000011920929,-890.100036621094,2.70788212131188,-0.0132153707677642,0.200565204181732,ST
3.2,-1.44152450561523,-0.978561878204346,7.76449394226074,2.65245604515076,5.51070594787598,0.442075997591019,-1166.70007324219,2.10000014305115,-894.900024414062,2.70348549108332,-0.180955609450405,0.125779650852236,ST
3.23333333333333,-2.09050965309143,-0.294884473085403,6.40192413330078,3.12502002716064,6.7226037979126,0.846041977405548,-1145.10009765625,2.70000004768372,-894.900024414062,2.68553415558929,-0.319161035513519,0.0451213461197853,ST
3.26666666666667,-4.87187433242798,-0.447410941123962,8.81244087219238,1.78354799747467,8.30035781860352,1.82165801525116,-1147.5,1.5,-894.900024414062,2.68370842521512,-0.508139545377299,0.0461745811231565,ST
3.3,-5.12309455871582,-1.35778450965881,8.29743957519531,0.967993974685669,8.26224803924561,1.46342396736145,-1140.30004882812,-6.90000009536743,-885.300048828125,2.73843816229188,-0.558836229401018,0.153209376176048,ST
3.33333333333333,-5.28220081329346,-1.69394087791443,8.21968078613281,0.106707997620106,7.55340194702148,-0.0685980021953583,-1130.70007324219,-5.70000028610229,-887.700012207031,2.76960237208314,-0.573745605530071,0.201676166409391,ST
3.36666666666667,-5.83608102798462,-1.43195426464081,8.76758003234863,1.14329993724823,5.45735168457031,-0.0457319989800453,-1099.5,-8.10000038146973,-911.700012207031,2.75457475589254,-0.589714081635421,0.163217493053808,ST
3.4,-5.33902406692505,-1.27404451370239,8.77176666259766,1.05945801734924,2.73629784584045,-0.0990860015153885,-1097.10009765625,-0.300000011920929,-902.100036621094,2.74829856342609,-0.549440838811817,0.144123491026888,ST
3.43333333333333,-4.44958543777466,-1.07546103000641,7.80516767501831,0.564027965068817,-0.46494197845459,-0.655492007732391,-1104.30004882812,-2.10000014305115,-930.900024414062,2.74807932362019,-0.514730809609437,0.136854981492933,ST
3.46666666666667,-3.98841738700867,-0.92771977186203,8.28547668457031,0.37347799539566,-3.06404399871826,-0.739333987236023,-1099.5,-5.70000028610229,-909.300048828125,2.73893045583536,-0.443667561992396,0.11216098107213,ST
3.5,-4.03925943374634,-0.897214472293854,8.21310138702393,0.541162014007568,-5.61741399765015,-0.541162014007568,-1097.10009765625,-5.70000028610229,-899.700012207031,2.73786368085674,-0.444824699507247,0.107997496858899,ST
3.53333333333333,-3.40881681442261,-1.06768524646759,7.45465564727783,0.442075997591019,-5.98326969146729,-0.274392008781433,-1121.10009765625,0.900000035762787,-899.700012207031,2.74984425582388,-0.416142000367096,0.139441583694448,ST
3.56666666666667,-3.24731826782227,-1.35957896709442,8.77774810791016,-0.823175966739655,-5.49546194076538,-1.2347639799118,-1121.10009765625,-2.70000004768372,-894.900024414062,2.75579817750764,-0.344391527818451,0.154588005396019,ST
3.6,-3.44949054718018,-1.4941611289978,9.25506591796875,-1.45580196380615,-5.46497392654419,-2.08842802047729,-1135.5,0.300000011920929,-902.100036621094,2.76111945017613,-0.342685691878224,0.162813592730889,ST
3.63333333333333,-3.43633127212524,-1.49475932121277,8.73348522186279,-2.12653803825378,-5.49546194076538,-2.55336999893188,-1142.70007324219,3.90000009536743,-897.300048828125,2.76786353947781,-0.358722363515707,0.173561885897291,ST
3.66666666666667,-3.20724272727966,-2.22748446464539,9.05827713012695,-2.30946588516235,-4.29118585586548,-2.56099200248718,-1137.90002441406,-2.70000004768372,-906.900024414062,2.79362888343315,-0.325069650319832,0.241678580291567,ST
3.7,-2.97157430648804,-2.48289155960083,9.05648231506348,-1.85976791381836,-3.803377866745,-2.53812599182129,-1135.5,3.30000019073486,-885.300048828125,2.80567355216598,-0.300494714442523,0.269813627402904,ST
3.73333333333333,-2.60670709609985,-2.28131723403931,8.61565113067627,-1.34909391403198,-4.87045812606812,-1.58537602424622,-1164.30004882812,3.30000019073486,-899.700012207031,2.80283358613381,-0.276971397022579,0.261801413140942,ST
3.76666666666667,-1.87458002567291,-2.24303603172302,8.87644195556641,-1.76830399036407,-5.90704965591431,-0.777444005012512,-1154.70007324219,7.50000047683716,-892.500061035156,2.79551771348382,-0.195825377002181,0.250894420446801,ST
3.8,-1.1376678943634,-2.13237977027893,9.83945178985596,-1.71494996547699,-6.81406784057617,-0.0381099991500378,-1178.70007324219,4.5,-890.100036621094,2.78356372084019,-0.106674259252316,0.218194445363575,ST
3.83333333333333,0.244042336940765,-1.94815170764923,9.68273830413818,-0.442075997591019,-6.2195520401001,0.952749967575073,-1188.30004882812,11.7000007629395,-885.300048828125,2.77389644065381,0.0263941451351758,0.200500945796722,ST
3.86666666666667,0.939084470272064,-1.76751244068146,10.1211776733398,0.579271972179413,-3.83386588096619,1.94360995292664,-1178.70007324219,3.90000009536743,-878.100036621094,2.76481311159612,0.0928451820998514,0.173974456787872,ST
3.9,1.4941611289978,-1.6383136510849,10.3568458557129,1.01372599601746,-3.14788603782654,1.95123195648193,-1197.90002441406,2.70000004768372,-885.300048828125,2.75657838106082,0.14317999593184,0.15680657463622,ST
3.93333333333333,1.47920751571655,-1.63472473621368,9.74614143371582,0.617381989955902,-2.97257995605469,2.09605002403259,-1197.90002441406,-1.5,-885.300048828125,2.74349334846486,0.152709205233502,0.165433163600671,ST
3.96666666666667,2.06957459449768,-1.99002170562744,9.08698844909668,0.0990860015153885,-2.37044191360474,1.85976791381836,-1195.5,4.5,-885.300048828125,2.72557070053803,0.218092456370512,0.213154433108376,ST
4.0,1.71308147907257,-2.29567265510559,8.36443138122559,-0.190549999475479,-0.0381099991500378,0.0838419944047928,-1205.10009765625,1.5,-885.300048828125,2.71471213067157,0.196439910680403,0.264904247552669,ST
4.03333333333333,0.971982300281525,-2.57799625396729,8.04442501068115,0.579271972179413,2.52288198471069,-0.403965979814529,-1200.30004882812,0.300000011920929,-882.900024414062,2.71236807995277,0.115786455739124,0.306242056433397,ST
4.06666666666667,0.113049022853374,-2.69702672958374,8.46551704406738,0.899396002292633,3.71953582763672,-0.670735955238342,-1193.10009765625,0.300000011920929,-887.700012207031,2.71924337747424,0.013494405782536,0.306753520650804,ST
4.1,-1.47920751571655,-2.44879722595215,10.768367767334,1.93598794937134,2.90398192405701,0.182927995920181,-1188.30004882812,9.30000019073486,-885.300048828125,2.71738337938391,-0.128973854835219,0.225665405932854,ST
4.13333333333333,-1.49775004386902,-2.01574182510376,9.4793701171875,3.31556987762451,1.50153398513794,0.975615978240967,-1183.5,-1.5,-887.700012207031,2.71384252362752,-0.15459776747673,0.204908541080267,ST
4.16666666666667,-1.6664263010025,-1.66582822799683,9.03554725646973,2.99544596672058,1.86738991737366,1.07470202445984,-1188.30004882812,-2.10000014305115,-885.300048828125,2.7086939868123,-0.181252446232525,0.178568115967089,ST
4.2,-1.70291304588318,-1.13288283348083,9.94113636016846,2.29422187805176,0.594515979290009,0.571649968624115,-1190.70007324219,-3.30000019073486,-882.900024414062,2.69669216563261,-0.170200468578291,0.112037622353449,ST
4.23333333333333,-0.587974548339844,-1.40503787994385,10.1433086395264,1.96647596359253,-2.08842802047729,-1.15854394435883,-1176.30004882812,2.10000014305115,-892.500061035156,2.70346895565189,-0.0605769679077573,0.133007385496841,ST
4.26666666666667,-1.05392789840698,-0.757847130298615,9.55294132232666,3.46038794517517,-5.10673999786377,-5.34302186965942,-1185.90002441406,-7.50000047683716,-887.700012207031,2.71960821588169,-0.0974730679999552,0.0775092836011834,ST
4.3,-1.08682572841644,-0.653770267963409,8.93446159362793,4.32167387008667,-6.21192979812622,-6.46345567703247,-1200.30004882812,-3.30000019073486,-878.100036621094,2.74522941804492,-0.108499908855593,0.0672146670373935,ST
4.33333333333333,-1.32907366752625,0.0071777156554162,9.41417217254639,4.55033397674561,-5.92991590499878,-7.78206205368042,-1212.30004882812,-12.3000001907349,-890.100036621094,2.77266734511283,-0.128884384501483,-0.0037057361791868,ST
4.36666666666667,-1.20226740837097,0.62147057056427,10.0583724975586,4.47411394119263,-5.37350988388062,-7.04272794723511,-1209.90002441406,0.300000011920929,-870.900024414062,2.79843835585921,-0.110990916258283,-0.0648952221122653,ST
4.4,-0.236266478896141,0.620872378349304,10.2641334533691,3.71191382408142,-5.4192419052124,-6.3719916343689,-1221.90002441406,-9.90000057220459,-878.100036621094,2.82616842959444,-0.0201415886972601,-0.0663812034914405,ST
4.43333333333333,0.41750380396843,0.60950767993927,10.4298191070557,1.98171997070312,-5.03051996231079,-6.71498203277588,-1226.70007324219,-11.1000003814697,-863.700012207031,2.85426260928847,0.0438311725515962,-0.0624877514839049,ST
4.46666666666667,0.979160070419312,0.721360445022583,8.91113376617432,0.960371971130371,-4.1463680267334,-6.08997774124146,-1219.5,-16.5,-873.300048828125,2.88344274203659,0.112299080730131,-0.0826692088790735,ST
4.5,1.48578715324402,0.431261092424393,9.1922607421875,-0.396344006061554,-1.95123195648193,-4.45886993408203,-1214.70007324219,-20.1000003814697,-873.300048828125,2.89794121015053,0.160285175535541,-0.0493508388232793,ST
4.53333333333333,1.67420220375061,0.645994424819946,9.50449180603027,-0.899396002292633,-1.27287399768829,-2.79727387428284,-1241.10009765625,-15.9000005722046,-861.300048828125,2.91312806098737,0.175024967303047,-0.066193272295577,ST
4.56666666666667,1.8506543636322,1.13288283348083,9.02836990356445,-2.14940404891968,0.92988395690918,2.0655620098114,-1231.5,-21.3000011444092,-870.900024414062,2.91568843275993,0.197976843264391,-0.117029547765609,ST
4.6,2.18023109436035,0.921140193939209,9.64146614074707,-4.03965997695923,2.33995389938354,4.77137184143066,-1248.30004882812,-18.3000011444092,-873.300048828125,2.89350230260866,0.216905108651269,-0.0881772405814223,ST
4.63333333333333,2.21432518959045,0.513804793357849,9.2281494140625,-5.25155782699585,2.65245604515076,5.67076778411865,-1224.30004882812,-3.30000019073486,-878.100036621094,2.86615900138763,0.230207520752446,-0.0467730097376972,ST
4.66666666666667,1.39905643463135,-0.204564899206161,9.39204120635986,-6.59302997589111,3.54422998428345,7.21041202545166,-1221.90002441406,-13.5000009536743,-878.100036621094,2.82539525519178,0.145314255495931,0.0316830099799667,ST
4.7,0.643003702163696,-0.951047301292419,9.49851036071777,-6.31863784790039,4.55795574188232,8.73481178283691,-1207.5,-9.30000019073486,-873.300048828125,2.78541749523451,0.0626631727715138,0.107567867792314,ST
4.73333333333333,-0.13099330663681,-2.13836121559143,9.32803916931152,-5.44210767745972,6.53967571258545,9.14639949798584,-1212.30004882812,2.70000004768372,-882.900024414062,2.75169413157469,-0.0226083590603948,0.227045415629656,ST
4.76666666666667,-0.456981241703033,-2.68506383895874,9.10792255401611,-4.31405210494995,7.21803379058838,7.71346378326416,-1200.30004882812,-1.5,-892.500061035156,2.73117041063661,-0.061405228059118,0.289660262603451,ST
4.8,-0.415709376335144,-3.26944947242737,9.29155254364014,-3.13264203071594,6.89790964126587,4.88570165634155,-1181.10009765625,6.30000019073486,-892.500061035156,2.72353877571261,-0.0566506390832665,0.340309454891458,ST
4.83333333333333,-1.65386533737183,-3.12589526176453,8.87763786315918,-0.632625997066498,5.52594995498657,1.56251001358032,-1176.30004882812,0.300000011920929,-902.100036621094,2.72459932696713,-0.176225549613487,0.339829049063297,ST
4.86666666666667,-2.26456928253174,-3.2407386302948,9.07861423492432,0.457319974899292,3.95581793785095,0.503051996231079,-1171.5,6.90000009536743,-906.900024414062,2.72906386681527,-0.234530255407537,0.342287586719562,ST
4.9,-2.50920987129211,-3.20843887329102,9.46082782745361,1.10518991947174,1.90549993515015,0.792688012123108,-1171.5,0.900000035762787,-902.100036621094,2.7257434146039,-0.248758504736317,0.326020192276088,ST
4.93333333333333,-1.65386533737183,-2.97755575180054,9.17850399017334,1.85976791381836,-0.487807989120483,1.95885396003723,-1176.30004882812,3.90000009536743,-892.500061035156,2.71608354764392,-0.174767813232276,0.310773310247907,ST
4.96666666666667,-1.45348739624023,-2.1652774810791,9.59002590179443,2.53050398826599,-1.46342396736145,2.80489587783813,-1169.10009765625,-1.5,-892.500061035156,2.69125703673408,-0.147257245104606,0.222498233248125,ST
5.0,-0.581394970417023,-1.57371413707733,9.36990928649902,3.05642199516296,-1.20427596569061,4.09301376342773,-1157.10009765625,5.70000028610229,-894.900024414062,2.6692035642853,-0.0655604203789595,0.164221782960705,ST
5.03333333333333,-0.254210770130157,-1.71607220172882,9.30949687957764,0.983237981796265,0.67835795879364,4.04728174209595,-1166.70007324219,2.10000014305115,-906.900024414062,2.65405943135216,-0.0312375429290627,0.179450628013921,ST
5.06666666666667,-0.0520384386181831,-1.70470750331879,9.73477649688721,-0.0914639979600906,2.66770005226135,3.53660798072815,-1169.10009765625,6.90000009536743,-899.700012207031,2.6417734519006,-0.0121541501308747,0.173800221278341,ST
5.1,-0.500047504901886,-1.66223931312561,9.94592094421387,0.487807989120483,4.83234786987305,3.22410583496094,-1149.90002441406,-5.70000028610229,-897.300048828125,2.63142674080494,-0.0565131283906179,0.164994348767074,ST
5.13333333333333,-0.705808699131012,-1.51748871803284,9.85859203338623,1.13567793369293,5.57168197631836,3.01831197738647,-1152.30004882812,-0.300000011920929,-906.900024414062,2.62206459459339,-0.0797199463882113,0.15125416496755,ST
5.16666666666667,-1.04076874256134,-1.15262150764465,9.72221565246582,1.44055795669556,5.12198400497437,1.76830399036407,-1147.5,7.50000047683716,-909.300048828125,2.61459558780356,-0.113601394478203,0.116857639989527,ST
5.2,-1.27763342857361,-1.03837621212006,9.19166278839111,1.34147191047668,4.77137184143066,1.05945801734924,-1135.5,-1.5,-906.900024414062,2.61242604078372,-0.143786952839674,0.110439334483311,ST
5.23333333333333,-2.21671795845032,-1.16637873649597,9.01401424407959,0.754577994346619,4.48935794830322,0.243903994560242,-1121.10009765625,-0.900000035762787,-906.900024414062,2.61760932370601,-0.242972077962163,0.126811083281196,ST
5.26666666666667,-2.78555178642273,-1.09878861904144,8.77057075500488,0.556405961513519,4.1463680267334,-0.449698001146317,-1125.90002441406,0.300000011920929,-914.100036621094,2.62129693276828,-0.308161237500674,0.124337866333436,ST
5.3,-3.34182476997375,-1.24892246723175,8.4236478805542,0.525918006896973,4.03965997695923,-1.07470202445984,-1116.30004882812,2.70000004768372,-911.700012207031,2.63542091255205,-0.376281701467958,0.145942735698308,ST
5.33333333333333,-4.00636148452759,-1.1735565662384,8.48226547241211,1.18140995502472,3.62807202339172,-1.61586391925812,-1106.70007324219,-1.5,-899.700012207031,2.64210626332617,-0.439822245274063,0.137594658930667,ST
5.36666666666667,-4.41130447387695,-1.09101283550262,8.79569244384766,1.54726600646973,2.27897787094116,-1.65397393703461,-1087.5,0.900000035762787,-904.500061035156,2.64586004619691,-0.464008826609593,0.123210702153059,ST
5.4,-4.12778472900391,-0.61249840259552,8.29325199127197,1.79117000102997,0.403965979814529,-1.77592599391937,-1097.10009765625,0.900000035762787,-904.500061035156,2.63418663330467,-0.461389813882305,0.0752501375881291,ST
5.43333333333333,-3.61577415466309,-0.231481328606606,7.98520851135254,1.28049600124359,-1.16616594791412,-0.830797970294952,-1097.10009765625,0.300000011920929,-909.300048828125,2.619901318434,-0.425297048135898,0.0302378797855459,ST
5.46666666666667,-4.05481100082397,-0.22011661529541,8.65393257141113,1.43293595314026,-1.81403601169586,0.190549999475479,-1092.30004882812,3.30000019073486,-892.500061035156,2.61856884186497,-0.434422312473943,0.0231052687324816,ST
5.5,-4.57280302047729,0.0813474431633949,9.17969989776611,1.63872992992401,-1.92074394226074,1.85214591026306,-1101.90002441406,-0.900000035762787,-904.500061035156,2.59974292098771,-0.457453268077393,-0.0112854795341137,ST
5.53333333333333,-4.69003915786743,0.326586067676544,9.37529277801514,1.90549993515015,-1.76068198680878,3.49087595939636,-1099.5,-4.5,-909.300048828125,2.57727362963554,-0.460197358818596,-0.039797987007913,ST
5.56666666666667,-4.30782556533813,0.815268874168396,10.2007303237915,1.74543797969818,-2.34757590293884,5.05338573455811,-1113.90002441406,3.30000019073486,-897.300048828125,2.54392482972044,-0.397726213638658,-0.0836879727009899,ST
5.6,-3.35797452926636,0.917551338672638,9.69529914855957,1.03659200668335,-2.98782396316528,4.50460195541382,-1109.10009765625,-0.300000011920929,-906.900024414062,2.52442663704751,-0.330440123501133,-0.0978705471332057,ST
5.63333333333333,-2.38479614257812,0.945664048194885,8.73228931427002,-0.381099998950958,-2.64483404159546,2.67532205581665,-1099.5,0.900000035762787,-885.300048828125,2.51187456311286,-0.264302351726345,-0.107761975836415,ST
5.66666666666667,-1.338045835495,0.205163031816483,8.76877593994141,-3.76526784896851,-1.73019397258759,1.6768399477005,-1128.30004882812,-2.10000014305115,-890.100036621094,2.51984167613453,-0.153401671846713,-0.0212305835891067,ST
5.7,-0.445616513490677,-0.679490387439728,9.19585037231445,-5.75461006164551,-1.58537602424622,0.0990860015153885,-1111.5,-5.70000028610229,-899.700012207031,2.52714194697496,-0.0503141695444048,0.079177601107193,ST
5.73333333333333,-0.196190893650055,-1.33266258239746,9.52303409576416,-5.73936605453491,-0.442075997591019,-1.90549993515015,-1116.30004882812,3.30000019073486,-899.700012207031,2.53616042646264,-0.021085368024844,0.14489632467112,ST
5.76666666666667,-0.322997212409973,-1.97506809234619,9.69649600982666,-3.67380380630493,1.02897000312805,-2.60672402381897,-1111.5,8.10000038146973,-918.900024414062,2.54840722959791,-0.0327630807164515,0.203700377932989,ST
5.8,-1.55816245079041,-1.77050316333771,9.97941780090332,-1.53964400291443,1.31860601902008,-2.63721203804016,-1118.70007324219,3.30000019073486,-911.700012207031,2.55793888094082,-0.148629065350928,0.180063517821126,ST
5.83333333333333,-2.1730535030365,-1.6544634103775,8.71314907073975,-0.320124000310898,0.754577994346619,-1.6920839548111,-1130.70007324219,5.10000038146973,-914.100036621094,2.5670353186437,-0.236960486032237,0.188536778263344,ST
5.86666666666667,-3.34062838554382,-1.60362136363983,8.28966331481934,-1.16616594791412,0.990859985351562,0.487807989120483,-1101.90002441406,9.90000057220459,-902.100036621094,2.56566005570081,-0.370007029557697,0.192692076229327,ST
5.9,-3.60859656333923,-1.81596207618713,7.97025489807129,-1.70732796192169,1.57013201713562,2.40092992782593,-1111.5,12.9000005722046,-904.500061035156,2.56728313088249,-0.416321091407291,0.223468874636867,ST
5.93333333333333,-3.41659259796143,-2.27832651138306,7.85122442245483,-2.52288198471069,1.85976791381836,2.94971394538879,-1121.10009765625,5.70000028610229,-902.100036621094,2.57727139440839,-0.401280568570979,0.281764561024106,ST
5.96666666666667,-3.50212717056274,-2.71616721153259,8.86388111114502,-2.44666194915771,1.2576299905777,2.11129403114319,-1111.5,12.9000005722046,-899.700012207031,2.57400108809798,-0.366606019023522,0.299366046462822,ST
6.0,-3.36515235900879,-3.45666813850403,9.80954456329346,-1.57013201713562,0.365855991840363,0.419209986925125,-1099.5,12.3000001907349,-892.500061035156,2.58408802610205,-0.316984930568474,0.338865701929793,ST
6.03333333333333,-2.95841503143311,-3.62833523750305,9.68453311920166,-0.274392008781433,-1.43293595314026,-2.13416004180908,-1104.30004882812,6.90000009536743,-906.900024414062,2.59533499163261,-0.277532858963281,0.358459432903041,ST
6.06666666666667,-2.92312479019165,-3.66362571716309,9.54695987701416,1.96647596359253,-2.78965187072754,-4.76375007629395,-1109.10009765625,8.10000038146973,-904.500061035156,2.61250773290939,-0.271327976698287,0.364290494474255,ST
6.1,-3.25569224357605,-3.03138852119446,9.234130859375,3.3460578918457,-2.9192259311676,-5.83083009719849,-1118.70007324219,6.90000009536743,-902.100036621094,2.62038065757862,-0.31251712176637,0.3170012242808,ST
6.13333333333333,-2.96379852294922,-2.81306648254395,8.572585105896,3.81862187385559,-2.75916385650635,-5.12198400497437,-1118.70007324219,2.10000014305115,-899.700012207031,2.63925372566475,-0.310201028276577,0.312917957366922,ST
6.16666666666667,-2.01394748687744,-2.4655454158783,8.62940883636475,2.64483404159546,-2.5152599811554,-3.71953582763672,-1128.30004882812,6.90000009536743,-909.300048828125,2.64361936267653,-0.220518966711223,0.277170441409454,ST
6.2,-1.76990509033203,-2.34352421760559,8.81303882598877,2.00458598136902,-1.49391198158264,-2.43141794204712,-1125.90002441406,4.5,-921.300048828125,2.64910344276929,-0.19005165277383,0.258295413645018,ST
6.23333333333333,-1.36256968975067,-2.23466205596924,9.2227668762207,1.60061991214752,-1.09756803512573,-1.90549993515015,-1128.30004882812,6.30000019073486,-902.100036621094,2.65285252512498,-0.142997038873622,0.236733401048372,ST
6.26666666666667,-1.6203693151474,-2.20355868339539,9.17072772979736,1.95885396003723,-1.22714197635651,-1.39482593536377,-1121.10009765625,-1.5,-897.300048828125,2.65827111940408,-0.166414549036626,0.232876416294243,ST
6.3,-1.34761607646942,-2.09350037574768,8.37041282653809,1.90549993515015,-1.18903195858002,-1.15854394435883,-1116.30004882812,3.30000019073486,-892.500061035156,2.66420699686249,-0.153288047177301,0.241433205475123,ST
6.33333333333333,-2.12879085540771,-1.88415038585663,8.85431003570557,1.49391198158264,0.0533539988100529,-1.04421401023865,-1133.10009765625,5.10000038146973,-904.500061035156,2.66394241707386,-0.227623631669184,0.208821979189497,ST
6.36666666666667,-2.14733338356018,-1.85603761672974,8.79329967498779,1.51677799224854,0.487807989120483,-0.533540010452271,-1128.30004882812,-1.5,-904.500061035156,2.66710429395417,-0.234723875541751,0.205824838700436,ST
6.4,-2.73530769348145,-1.66762256622314,9.4375,2.18751406669617,0.449698001146317,0.449698001146317,-1118.70007324219,-2.70000004768372,-904.500061035156,2.65968909995288,-0.27625979488577,0.17303772012783,ST
6.43333333333333,-2.36984252929688,-1.3440272808075,8.55822944641113,3.17075204849243,-0.381099998950958,1.33385002613068,-1140.30004882812,3.30000019073486,-894.900024414062,2.6518393527964,-0.267303683803916,0.150997672167392,ST
6.46666666666667,-2.59893131256104,-1.0515353679657,8.99307918548584,3.29270386695862,-0.365855991840363,1.98171997070312,-1125.90002441406,-1.5,-906.900024414062,2.63715807724543,-0.278577570562765,0.112163836077119,ST
6.5,-2.31840205192566,-0.179442897439003,10.3179664611816,3.61282801628113,-1.16616594791412,3.14788603782654,-1125.90002441406,-2.10000014305115,-897.300048828125,2.60303352123575,-0.221767798301661,0.0142389132290829,ST
6.53333333333333,-1.95712375640869,0.181237325072289,10.0918684005737,3.45276594161987,-1.265251994133,3.55185198783875,-1128.30004882812,2.70000004768372,-899.700012207031,2.58425036482283,-0.191187632949362,-0.0228266613455078,ST
6.56666666666667,-1.5623494386673,0.538328647613525,9.91421985626221,2.57623600959778,-0.198172003030777,3.59758400917053,-1123.5,-3.30000019073486,-899.700012207031,2.56573384600578,-0.157575677868215,-0.0575423390566409,ST
6.6,-1.01445043087006,0.313426911830902,9.43989276885986,0.739333987236023,2.27897787094116,2.69056582450867,-1125.90002441406,-9.90000057220459,-899.700012207031,2.55782671482793,-0.113619636910954,-0.0364201262416373,LD
6.63333333333333,-1.16219174861908,0.0089721446856856,9.54995059967041,-0.967993974685669,3.01831197738647,0.907018005847931,-1133.10009765625,2.10000014305115,-911.700012207031,2.55769421164783,-0.125588846096716,-0.0016913127839163,LD
6.66666666666667,-1.86500978469849,-0.193798318505287,10.1032333374023,-1.56251001358032,2.84300589561462,-0.121951997280121,-1113.90002441406,-1.5,-899.700012207031,2.56072391130127,-0.183714589232386,0.0205163751688732,LD
6.7,-1.68616509437561,-0.431859225034714,9.04691219329834,-1.05183601379395,1.51677799224854,-0.144817993044853,-1106.70007324219,-0.300000011920929,-897.300048828125,2.56577208496399,-0.186517859523866,0.047842053207146,LD
6.73333333333333,-1.51150727272034,-0.57062840461731,8.83277702331543,-1.08994603157043,0.685979962348938,-0.114329993724823,-1101.90002441406,0.900000035762787,-897.300048828125,2.56875478957647,-0.17111482072476,0.0655533001633839,LD
6.76666666666667,-1.96011447906494,-0.74648243188858,8.50439643859863,-1.28049600124359,0.724089980125427,0.205793991684914,-1116.30004882812,-3.30000019073486,-904.500061035156,2.57157892428366,-0.223592449392856,0.0882542507243876,LD
6.8,-2.50322842597961,-0.907981038093567,8.52054691314697,-1.99696397781372,1.56251001358032,0.602137982845306,-1116.30004882812,-1.5,-916.500061035156,2.57250899878449,-0.284255886272324,0.108495695513493,LD
6.83333333333333,-2.61687541007996,-1.37931764125824,8.32076644897461,-2.5076379776001,2.15702605247498,0.426831990480423,-1094.70007324219,2.10000014305115,-904.500061035156,2.58548056691811,-0.303466095120663,0.1649496181877,LD
6.86666666666667,-2.57081842422485,-2.2071475982666,7.86797285079956,-2.72105383872986,1.45580196380615,-1.2423859834671,-1099.5,-6.90000009536743,-909.300048828125,2.62036467914452,-0.306613827814564,0.27217563514076,LD
6.9,-3.29457139968872,-2.61508107185364,8.16764259338379,-2.74391984939575,0.769822001457214,-2.88873791694641,-1094.70007324219,-3.90000009536743,-909.300048828125,2.64170929530762,-0.362903771536606,0.313853572536698,LD
6.93333333333333,-3.33105826377869,-3.02241635322571,8.43202114105225,-2.43903994560242,0.442075997591019,-3.24697184562683,-1094.70007324219,-0.900000035762787,-906.900024414062,2.66249518979626,-0.355350439706257,0.348298147646605,LD
6.96666666666667,-2.98892045021057,-3.27004766464233,8.82141208648682,-2.16464805603027,-0.487807989120483,-3.07166600227356,-1101.90002441406,0.300000011920929,-899.700012207031,2.67422763157155,-0.307415755792202,0.359716862257899,LD
7.0,-2.76880383491516,-3.30952501296997,9.2167854309082,-1.28811800479889,-0.853663980960846,-2.15702605247498,-1101.90002441406,3.90000009536743,-902.100036621094,2.67623930659976,-0.27495034102354,0.348567702859326,LD
7.03333333333333,-2.74727058410645,-3.58407258987427,9.72759914398193,0.137196004390717,-1.09756803512573,-0.129574000835419,-1094.70007324219,6.90000009536743,-904.500061035156,2.67633824213241,-0.257956586560323,0.352473123009405,LD
7.06666666666667,-2.38898301124573,-3.30952501296997,9.21140193939209,1.09756803512573,-1.86738991737366,0.769822001457214,-1106.70007324219,2.70000004768372,-897.300048828125,2.66964127071255,-0.23793565561955,0.34297370389652,LD
7.1,-2.54689288139343,-3.05890321731567,9.39144325256348,1.81403601169586,-2.09605002403259,1.79879200458527,-1109.10009765625,2.10000014305115,-894.900024414062,2.65481965064619,-0.249149973208635,0.31262992485434,LD
7.13333333333333,-2.72932648658752,-3.07924008369446,10.1355323791504,1.50915598869324,-1.91312193870544,1.80641400814056,-1104.30004882812,-2.10000014305115,-887.700012207031,2.64242310214995,-0.249852027861828,0.292586462321351,LD
7.16666666666667,-2.73650407791138,-2.89919900894165,9.87773323059082,1.82927989959717,-3.04879999160767,1.06708002090454,-1106.70007324219,-5.10000038146973,-892.500061035156,2.6343021580537,-0.254903988539138,0.28211957069077,LD
7.2,-2.63302540779114,-2.30404663085938,9.29813289642334,2.62959003448486,-4.76375007629395,0.92988395690918,-1104.30004882812,4.5,-897.300048828125,2.6181004669769,-0.260241534766787,0.240079176386124,LD
7.23333333333333,-2.23226952552795,-1.85543954372406,8.89917087554932,3.91008591651917,-6.89028787612915,1.72257196903229,-1133.10009765625,1.5,-899.700012207031,2.59979515749829,-0.23150046759738,0.200001905070912,LD
7.26666666666667,-1.88115966320038,-1.49834811687469,8.24061584472656,4.88570165634155,-9.38268184661865,1.76068198680878,-1133.10009765625,2.10000014305115,-911.700012207031,2.58407406995625,-0.206775017096404,0.171692022605106,LD
7.3,-1.01205790042877,-0.60651695728302,7.09756469726562,4.11588001251221,-8.91773986816406,1.45580196380615,-1157.10009765625,-3.30000019073486,-892.500061035156,2.5619670990379,-0.130824087381357,0.0831572221190783,LD
7.33333333333333,-0.745884299278259,-0.151330173015594,8.37160873413086,2.68294382095337,-6.09759998321533,1.35671591758728,-1173.90002441406,-4.5,-894.900024414062,2.54943134479881,-0.0811526832775083,0.0169645166485809,LD
7.36666666666667,-0.584983825683594,-0.0293090064078569,9.22695350646973,1.69970595836639,-5.03814172744751,1.51677799224854,-1173.90002441406,-2.70000004768372,-894.900024414062,2.54254611429544,-0.0561442374794609,0.0010720814615,LD
7.4,-0.470738530158997,0.133385881781578,10.3054056167603,0.3125019967556,-4.70277404785156,1.64635193347931,-1171.5,-0.900000035762787,-885.300048828125,2.53546361117769,-0.0385413721924271,-0.0127146689728284,LD
7.43333333333333,0.516795516014099,0.227892473340034,10.4710912704468,0.304879993200302,-5.48021793365479,1.90549993515015,-1185.90002441406,-5.70000028610229,-899.700012207031,2.52822663971796,0.0530225459844006,-0.0216022426648114,LD
7.46666666666667,0.961215734481812,0.0783567279577255,10.6792449951172,-0.0381099991500378,-5.68601179122925,1.85214591026306,-1193.10009765625,-4.5,-885.300048828125,2.51983422440161,0.0971733673412151,-0.0077847308388445,LD
7.5,1.63651919364929,-0.252416342496872,10.7264976501465,-1.10518991947174,-5.31253385543823,0.92988395690918,-1205.10009765625,-3.30000019073486,-887.700012207031,2.51247438758225,0.156757695680698,0.0236846162237318,LD
7.53333333333333,1.86620604991913,-0.202770471572876,9.57806301116943,-1.71494996547699,-4.08539199829102,-0.175305992364883,-1214.70007324219,6.90000009536743,-875.700012207031,2.51395975772411,0.196932169159652,0.0241090732715795,LD
7.56666666666667,1.71188521385193,-0.335558205842972,9.4853515625,-1.37195992469788,-0.990859985351562,-0.602137982845306,-1209.90002441406,-6.30000019073486,-880.500061035156,2.51503707289938,0.181030885798587,0.036913706781108,LD
7.6,1.65685606002808,-0.720762252807617,9.67795372009277,-1.2423859834671,0.388722002506256,-0.967993974685669,-1212.30004882812,-0.300000011920929,-882.900024414062,2.51339845813142,0.169297826851772,0.0738282196116214,LD
7.63333333333333,2.11024832725525,-1.07845175266266,9.22097206115723,-0.983237981796265,0.815553963184357,-2.34757590293884,-1202.70007324219,-9.30000019073486,-887.700012207031,2.51666006129717,0.220199444441552,0.115296642565583,LD
7.66666666666667,1.43793570995331,-1.21722090244293,9.05050086975098,-0.129574000835419,1.03659200668335,-4.26069784164429,-1205.10009765625,-5.10000038146973,-885.300048828125,2.53300598208061,0.157908523116433,0.131969454551236,LD
7.7,-0.148339450359344,-1.15202331542969,8.95180797576904,0.274392008781433,1.29574000835419,-4.81710386276245,-1209.90002441406,-4.5,-899.700012207031,2.55318689159972,-0.006910617902647,0.127639619144565,LD
7.73333333333333,-0.470140367746353,-1.51748871803284,8.88720798492432,-0.670735955238342,0.754577994346619,-4.27594184875488,-1209.90002441406,-6.30000019073486,-882.900024414062,2.57172564501071,-0.0494522946763128,0.167998697929298,LD
7.76666666666667,-0.540721237659454,-1.97805881500244,8.55583667755127,-2.01220798492432,0.792688012123108,-3.73477983474731,-1214.70007324219,-6.30000019073486,-885.300048828125,2.59084933366258,-0.060847674735487,0.228007197646834,LD
7.8,-0.763230443000793,-2.33634638786316,8.80107593536377,-3.17837381362915,0.853663980960846,-2.64483404159546,-1193.10009765625,-2.10000014305115,-873.300048828125,2.60453565760567,-0.0828673281406545,0.263763561115535,LD
7.83333333333333,-0.345726639032364,-2.61986613273621,9.41237735748291,-3.07166600227356,0.0914639979600906,-1.54726600646973,-1197.90002441406,-3.30000019073486,-890.100036621094,2.61070707116824,-0.0377118858227663,0.276155626480094,LD
7.86666666666667,0.420494496822357,-2.80050539970398,9.46262168884277,-2.88873791694641,-1.90549993515015,-0.815553963184357,-1202.70007324219,-5.70000028610229,-892.500061035156,2.61180817241553,0.0410826536733103,0.291777183848527,LD
7.9,1.18611752986908,-3.30593609809875,9.03255653381348,-2.4923939704895,-2.59910202026367,-0.663114011287689,-1193.10009765625,-3.30000019073486,-897.300048828125,2.60702997693567,0.122111322506153,0.351399933959439,LD
7.93333333333333,1.60063064098358,-3.66900897026062,9.69470119476318,-1.93598794937134,-2.55336999893188,-0.87652999162674,-1209.90002441406,-5.10000038146973,-885.300048828125,2.60604060888332,0.155742501422583,0.364363577483654,LD
7.96666666666667,1.63592100143433,-3.6432888507843,9.6103630065918,0.289635986089706,-1.73781597614288,-0.221037998795509,-1212.30004882812,-0.900000035762787,-873.300048828125,2.60457650772967,0.160511732933746,0.362115098956222,LD
8.0,1.58926582336426,-3.29337525367737,9.99556732177734,1.76830399036407,-0.243903994560242,0.975615978240967,-1205.10009765625,-0.900000035762787,-897.300048828125,2.60628103834679,0.150395833204152,0.318287541087495,LD
8.03333333333333,1.47382426261902,-2.58337950706482,10.0368394851685,2.66770005226135,0.525918006896973,1.98934197425842,-1209.90002441406,4.5,-887.700012207031,2.60727918641623,0.140145212842435,0.251985523332789,LD
8.06666666666667,1.5001425743103,-2.03966760635376,9.39323711395264,3.08691000938416,1.59299790859222,2.82776188850403,-1209.90002441406,-5.10000038146973,-887.700012207031,2.60142337166431,0.150447561402824,0.211412114767795,LD
8.1,1.14604198932648,-1.36077523231506,8.54207992553711,3.42989993095398,2.62959003448486,2.33233189582825,-1209.90002441406,2.10000014305115,-882.900024414062,2.59991082169131,0.127985184439756,0.155992637108203,LD
8.13333333333333,-0.091515876352787,-1.02641332149506,9.20781326293945,4.05490398406982,3.04879999160767,1.80641400814056,-1188.30004882812,-7.50000047683716,-890.100036621094,2.59648570294193,-0.0068170173334153,0.107142126917329,LD
8.16666666666667,-0.193200185894966,-0.903794050216675,8.52234077453613,3.87197589874268,1.41769194602966,1.02134799957275,-1193.10009765625,-6.30000019073486,-887.700012207031,2.59312947337468,-0.0240682981787277,0.09936659771353,LD
8.2,-0.458177506923676,-0.608311414718628,9.18568134307861,3.12502002716064,-0.342989981174469,0.266770005226135,-1183.5,-8.70000076293945,-885.300048828125,2.59113929138476,-0.0476448646026982,0.0629993487502476,LD
8.23333333333333,-0.369054228067398,-0.304454773664474,9.59481143951416,3.09453201293945,-2.40092992782593,0.0609759986400604,-1193.10009765625,-6.30000019073486,-887.700012207031,2.58956553586959,-0.0350547154605505,0.0285336755082379,LD
8.26666666666667,0.422887086868286,0.184228032827377,9.59062480926514,2.28659987449646,-3.53660798072815,0.426831990480423,-1190.70007324219,-12.9000005722046,-878.100036621094,2.58797489255169,0.0450637342406976,-0.0200384775982609,LD
8.3,1.13826608657837,0.326586067676544,9.38725566864014,1.79117000102997,-3.39941191673279,0.205793991684914,-1197.90002441406,-2.10000014305115,-873.300048828125,2.58826628816747,0.122089475968311,-0.0369090022111864,LD
8.33333333333333,1.69453907012939,0.118432305753231,9.62352180480957,0.0838419944047928,-1.95885396003723,-0.510673999786377,-1200.30004882812,-11.1000003814697,-873.300048828125,2.58705370707676,0.174317715788322,-0.0140954412061336,LD
8.36666666666667,1.54021811485291,0.2613884806633,10.6720666885376,-1.52439999580383,-1.05183601379395,-0.87652999162674,-1200.30004882812,-6.30000019073486,-880.500061035156,2.59320737619793,0.146381220403139,-0.0217183997154567,LD
8.4,1.40264523029327,0.328978627920151,10.3723974227905,-2.17989206314087,0.922261953353882,0.975615978240967,-1202.70007324219,-11.7000007629395,-873.300048828125,2.59113023050795,0.133525988790488,-0.0273402293414249,LD
8.43333333333333,1.42058956623077,0.0478514358401299,9.89866828918457,-2.62196803092957,3.84148788452148,3.81862187385559,-1200.30004882812,-5.70000028610229,-878.100036621094,2.57359794318605,0.1357293431777,-0.0010409569163069,LD
8.46666666666667,1.53004968166351,-0.716575264930725,10.1080179214478,-2.56099200248718,5.09149599075317,4.92381191253662,-1197.90002441406,2.70000004768372,-892.500061035156,2.5445728639032,0.140258577463133,0.0729573831009141,LD
8.5,1.49655365943909,-1.32069969177246,9.17431735992432,-1.76068198680878,4.34454011917114,3.90246391296387,-1190.70007324219,-5.10000038146973,-892.500061035156,2.52207929689447,0.15099966827085,0.142411394064826,LD
8.53333333333333,0.958823204040527,-1.81237316131592,8.64017486572266,-1.15092194080353,5.12960577011108,3.39941191673279,-1185.90002441406,3.90000009536743,-890.100036621094,2.50505061414178,0.101467562108148,0.205190058945759,LD
8.56666666666667,-0.0023925718851387,-1.79562520980835,8.08509826660156,-0.617381989955902,5.58692598342896,2.68294382095337,-1178.70007324219,-0.300000011920929,-892.500061035156,2.49867609886313,-0.004010244688778,0.218798926799819,LD
8.6,-1.22858572006226,-2.23047518730164,8.81782341003418,-0.518296003341675,5.89942789077759,2.63721203804016,-1176.30004882812,0.300000011920929,-894.900024414062,2.49555684256457,-0.137640902382424,0.246818167794994,LD
8.63333333333333,-1.42058956623077,-2.70240998268127,8.95001316070557,-0.807931959629059,5.34302186965942,2.71343183517456,-1166.70007324219,6.90000009536743,-904.500061035156,2.49705280121279,-0.159663465160157,0.291469588501846,LD
8.66666666666667,-0.997104346752167,-2.70898962020874,8.63479232788086,-1.50915598869324,5.9222936630249,1.53202199935913,-1147.5,1.5,-890.100036621094,2.49950140852179,-0.12195032161847,0.306110405271814,LD
8.7,-1.50133883953094,-2.58876276016235,9.8316764831543,-1.08994603157043,6.86742162704468,1.64635193347931,-1128.30004882812,-3.30000019073486,-906.900024414062,2.49399603550289,-0.15670610685349,0.262258869143959,LD
8.73333333333333,-1.64728569984436,-2.71377468109131,9.28736591339111,0.137196004390717,6.12808799743652,2.02745199203491,-1118.70007324219,-4.5,-914.100036621094,2.49635428955231,-0.178486430007905,0.282655145176144,LD
8.76666666666667,-1.80818617343903,-2.30703735351562,9.44766807556152,0.800309956073761,5.10673999786377,0.967993974685669,-1135.5,5.70000028610229,-902.100036621094,2.49068241699028,-0.19202219785993,0.240899784342162,LD
8.8,-2.46494722366333,-2.19279217720032,9.38905048370361,1.61586391925812,3.66618180274963,0.685979962348938,-1104.30004882812,1.5,-902.100036621094,2.48996302439228,-0.253264330659904,0.227470899371082,LD
8.83333333333333,-3.18152236938477,-2.11622977256775,9.25985145568848,1.96647596359253,2.09605002403259,0.411587983369827,-1113.90002441406,0.900000035762787,-894.900024414062,2.49087288697975,-0.322462975323971,0.221656646008823,LD
8.86666666666667,-3.32627296447754,-1.92841291427612,9.1922607421875,1.46342396736145,1.03659200668335,0.87652999162674,-1099.5,-0.900000035762787,-906.900024414062,2.48477382787283,-0.341571794583297,0.204622867046348,LD
8.9,-2.80708503723145,-1.46365582942963,9.20362567901611,0.182927995920181,0.320124000310898,1.20427596569061,-1097.10009765625,0.900000035762787,-897.300048828125,2.46614669591067,-0.295840883131863,0.159079419144812,LD
8.93333333333333,-2.23884916305542,-1.0276095867157,8.47747993469238,-0.0914639979600906,0.182927995920181,1.59299790859222,-1113.90002441406,-6.90000009536743,-897.300048828125,2.44923568766753,-0.258785581375299,0.121748579001507,LD
8.96666666666667,-2.26337289810181,-0.980356335639954,8.98530387878418,-0.297257989645004,0.548784017562866,2.39330792427063,-1101.90002441406,-3.30000019073486,-899.700012207031,2.43639388533957,-0.247434946315246,0.108903345524282,LD
9.0,-2.40333843231201,-0.661546111106873,9.01999568939209,0.503051996231079,0.487807989120483,2.14178204536438,-1099.5,-0.300000011920929,-911.700012207031,2.41960010022042,-0.260148715693131,0.0734173188535202,LD
9.03333333333333,-2.50741529464722,-0.390587359666824,9.01042556762695,1.57775402069092,0.594515979290009,1.86738991737366,-1094.70007324219,3.30000019073486,-904.500061035156,2.40538725801252,-0.271762849367236,0.0413349308104327,LD
9.06666666666667,-2.72454118728638,-0.28710862994194,9.65462589263916,2.20275783538818,-0.0457319989800453,2.01220798492432,-1094.70007324219,-0.300000011920929,-894.900024414062,2.39542653078006,-0.274796059702755,0.0257012856735058,LD
9.1,-2.38479614257812,-0.227294325828552,9.62531661987305,2.30946588516235,-0.952749967575073,1.96647596359253,-1094.70007324219,3.30000019073486,-902.100036621094,2.38816356696355,-0.243045965466141,0.0190859395503792,LD
9.13333333333333,-1.7866530418396,0.101086162030697,9.2999267578125,1.41006994247437,-1.07470202445984,0.815553963184357,-1109.10009765625,3.90000009536743,-892.500061035156,2.37931614231097,-0.190612209497906,-0.0120252472674094,ST
9.16666666666667,-1.52047944068909,0.184228032827377,9.46680927276611,-0.0533539988100529,0.510673999786377,-0.945127964019775,-1099.5,0.300000011920929,-899.700012207031,2.3821508856375,-0.161483467621649,-0.0187837525305191,ST
9.2,-1.07426476478577,0.0023925718851387,8.66350269317627,-1.37958192825317,1.85976791381836,-2.37044191360474,-1082.70007324219,-4.5,-890.100036621094,2.39426472465365,-0.128332208559895,0.0016348807631253,ST
9.23333333333333,-2.45418071746826,-0.733921408653259,9.43211650848389,-2.9116039276123,4.17685604095459,-3.60520601272583,-1099.5,-0.900000035762787,-894.900024414062,2.42213894478466,-0.253438765454798,0.0797326275875678,ST
9.26666666666667,-3.11991381645203,-1.34462535381317,9.68692588806152,-2.96495795249939,4.67990779876709,-3.62045001983643,-1094.70007324219,2.10000014305115,-911.700012207031,2.45196088102145,-0.312296689357869,0.141367410093521,ST
9.3,-3.63192415237427,-1.66164112091064,10.058970451355,-2.22562384605408,3.97106194496155,-2.95733594894409,-1070.70007324219,-8.10000038146973,-902.100036621094,2.47116672829967,-0.346039299491575,0.168068080112982,ST
9.33333333333333,-3.41958332061768,-1.84527111053467,8.68862438201904,-0.579271972179413,2.62959003448486,-1.81403601169586,-1073.10009765625,3.30000019073486,-894.900024414062,2.49336885747238,-0.369832987308429,0.209154126097547,ST
9.36666666666667,-3.95133256912231,-2.2113344669342,8.44398403167725,-0.0152439996600151,1.2423859834671,-0.0457319989800453,-1065.90002441406,5.10000038146973,-892.500061035156,2.51174513479178,-0.423711629508855,0.253493320199201,ST
9.4,-4.05241870880127,-2.45298433303833,8.17781066894531,-0.381099998950958,0.548784017562866,0.419209986925125,-1073.10009765625,1.5,-904.500061035156,2.52540826335213,-0.443289402253823,0.289979663446353,ST
9.43333333333333,-3.52007126808167,-2.74487805366516,7.6508469581604,-0.990859985351562,0.403965979814529,0.137196004390717,-1070.70007324219,1.5,-899.700012207031,2.54567369304395,-0.41151620159493,0.342837434830745,ST
9.46666666666667,-3.46803283691406,-2.86390852928162,7.77705478668213,-0.663114011287689,0.0609759986400604,-0.365855991840363,-1063.5,0.300000011920929,-911.700012207031,2.55020305718153,-0.397127606092741,0.353576851072312,ST
9.5,-3.49195861816406,-2.99131298065186,8.05758380889893,0.152439996600151,-0.823175966739655,-0.586893975734711,-1063.5,5.10000038146973,-914.100036621094,2.55207297987229,-0.384990128185761,0.355284212675528,ST
9.53333333333333,-3.56493210792542,-2.87706780433655,8.52293872833252,0.945127964019775,-1.91312193870544,-0.807931959629059,-1051.5,1.5,-906.900024414062,2.54306763550612,-0.374260958164207,0.325539422858325,ST
9.56666666666667,-3.63312029838562,-2.78136491775513,8.94044303894043,1.33385002613068,-1.98171997070312,-0.434453994035721,-1063.5,2.70000004768372,-911.700012207031,2.53531903981918,-0.367082440168801,0.300757918261739,ST
9.6,-2.96798539161682,-2.54270577430725,8.97035026550293,1.80641400814056,-2.23324584960938,-0.564027965068817,-1068.30004882812,5.10000038146973,-930.900024414062,2.52871340124361,-0.307983108647444,0.274682307197118,ST
9.63333333333333,-2.93807816505432,-2.29507446289062,8.77894401550293,1.90549993515015,-2.38568592071533,-0.190549999475479,-1077.90002441406,-2.70000004768372,-897.300048828125,2.52295977699207,-0.308965849259692,0.253513217464383,ST
9.66666666666667,-3.21023321151733,-2.12041687965393,9.17012977600098,1.89787793159485,-1.6920839548111,0.419209986925125,-1075.5,2.10000014305115,-904.500061035156,2.51327647557285,-0.325247380255128,0.224789142722588,ST
9.7,-3.08402514457703,-1.93020737171173,8.94881725311279,1.53202199935913,-0.525918006896973,0.800309956073761,-1087.5,-0.300000011920929,-904.500061035156,2.5071687837472,-0.324394421536255,0.210183091753009,ST
9.73333333333333,-2.92850804328918,-1.56534016132355,8.8878059387207,0.990859985351562,-0.228659987449646,0.861285984516144,-1082.70007324219,-3.90000009536743,-909.300048828125,2.49364367025305,-0.314253363314333,0.174168771145665,ST
9.76666666666667,-2.90159153938293,-1.4821982383728,8.79928112030029,1.15092194080353,-0.243903994560242,0.990859985351562,-1070.70007324219,-5.10000038146973,-897.300048828125,2.48830788384964,-0.314254751444809,0.164891171566838,ST
9.8,-2.4876766204834,-1.0975923538208,8.43800258636475,1.47104597091675,-0.830797970294952,1.05945801734924,-1077.90002441406,-3.90000009536743,-899.700012207031,2.47479978866448,-0.285127559128802,0.128508735458547,ST
9.83333333333333,-2.92551732063293,-0.955234348773956,9.08040809631348,1.95123195648193,-0.967993974685669,1.51677799224854,-1092.30004882812,2.10000014305115,-902.100036621094,2.46321924960959,-0.307254244732473,0.102227870376274,ST
9.86666666666667,-2.89321756362915,-0.649583280086517,8.92848014831543,2.27135586738586,-0.746955990791321,1.88263392448425,-1075.5,-3.90000009536743,-892.500061035156,2.44866334143241,-0.311285591893198,0.069679537930757,ST
9.9,-2.67310094833374,-0.545506417751312,9.28258037567139,2.02745199203491,-0.0152439996600151,2.60672402381897,-1097.10009765625,-5.70000028610229,-911.700012207031,2.43635804616287,-0.281856004618686,0.054686408141779,ST
9.93333333333333,-1.85244882106781,-0.422887086868286,9.07083797454834,1.6844619512558,0.175305992364883,2.39330792427063,-1065.90002441406,-5.10000038146973,-923.700012207031,2.42587599210307,-0.206589593198549,0.0434438706425446,ST
9.96666666666667,-2.36744999885559,-0.276940196752548,9.98061370849609,1.98934197425842,1.73781597614288,1.6615959405899,-1092.30004882812,-1.5,-906.900024414062,2.41727086544628,-0.234150324201826,0.0248148417353052,ST
10.0,-2.40872168540955,-0.212340757250786,10.1797952651978,1.95885396003723,2.25611186027527,1.34909391403198,-1073.10009765625,-4.5,-904.500061035156,2.41183032403692,-0.236192940979251,0.0172027943046154,ST
10.0333333333333,-2.7682056427002,0.0723752975463867,9.44168663024902,1.95123195648193,2.82776188850403,1.22714197635651,-1073.10009765625,-3.30000019073486,-899.700012207031,2.40212572458113,-0.286847137837273,-0.0099297715036572,ST
10.0666666666667,-3.71506595611572,0.14355431497097,9.18508338928223,0.777444005012512,4.41313791275024,1.49391198158264,-1065.90002441406,-5.70000028610229,-909.300048828125,2.39477754197939,-0.385588158465888,-0.0175579525893419,ST
10.1,-3.57749319076538,0.158507883548737,8.70238208770752,-0.365855991840363,3.94819593429565,1.6768399477005,-1063.5,0.300000011920929,-904.500061035156,2.3872361190324,-0.396130160772977,-0.0187661832855212,ST
10.1333333333333,-3.03138852119446,-0.194994613528252,7.91103887557983,-0.78506600856781,2.62196803092957,1.00610399246216,-1061.10009765625,-1.5,-911.700012207031,2.3979117847181,-0.372007002023376,0.0227150207735673,ST
10.1666666666667,-3.57868933677673,-0.729136288166046,8.12936115264893,-1.59299790859222,1.44817996025085,-0.426831990480423,-1046.70007324219,-4.5,-906.900024414062,2.42247142032647,-0.413072153958552,0.0883327050245862,ST
10.2,-4.25997447967529,-1.16996765136719,8.87165641784668,-1.95123195648193,1.06708002090454,-1.88263392448425,-1058.70007324219,-6.30000019073486,-890.100036621094,2.44513819191872,-0.443778496320038,0.133235124388336,ST
10.2333333333333,-4.3640513420105,-2.13237977027893,8.32973861694336,-2.12653803825378,0.548784017562866,-2.88111591339111,-1049.10009765625,-3.30000019073486,-894.900024414062,2.50464810432053,-0.468408663422373,0.251367249395104,ST
10.2666666666667,-4.11582183837891,-2.29088759422302,7.62452840805054,-1.82927989959717,0.0457319989800453,-3.14788603782654,-1039.5,-5.70000028610229,-911.700012207031,2.53305271170885,-0.47533926619592,0.295738272314355,ST
10.3,-4.58775663375854,-2.54988360404968,8.73228931427002,-1.38720393180847,-0.861285984516144,-1.82165801525116,-1046.70007324219,-6.30000019073486,-902.100036621094,2.5325516021127,-0.465394884938337,0.288325931806654,ST
10.3333333333333,-4.04643726348877,-2.38838481903076,8.77715015411377,-1.34147191047668,-2.73629784584045,-0.617381989955902,-1046.70007324219,6.30000019073486,-899.700012207031,2.52114397774343,-0.415950433841396,0.268793099668175,ST
10.3666666666667,-3.00806093215942,-2.15451097488403,8.64735317230225,-0.967993974685669,-3.7805118560791,0.579271972179413,-1046.70007324219,5.70000028610229,-897.300048828125,2.5059340333255,-0.325251380531986,0.246351359064628,ST
10.4,-1.45887064933777,-2.58637022972107,7.08440542221069,-0.663114011287689,-2.94971394538879,0.487807989120483,-1049.10009765625,2.10000014305115,-911.700012207031,2.5252666948575,-0.19504836887338,0.344531762059885,ST
10.4333333333333,-2.41231060028076,-2.50920987129211,8.24899005889893,-0.807931959629059,-0.701223969459534,-0.800309956073761,-1051.5,3.30000019073486,-911.700012207031,2.51638724637885,-0.266627270756026,0.299915871899598,ST
10.4666666666667,-3.78026366233826,-2.82921624183655,9.70367336273193,-0.411587983369827,1.28049600124359,-0.411587983369827,-1051.5,5.10000038146973,-911.700012207031,2.51449254856944,-0.354748431938734,0.285748608493832,ST
10.5,-4.55007362365723,-2.87587141990662,9.5924186706543,0.190549999475479,1.2347639799118,0.327746003866196,-1044.30004882812,0.300000011920929,-904.500061035156,2.51678619103662,-0.424218518268579,0.290654188493085,ST
10.5333333333333,-5.16257190704346,-2.39675879478455,9.48594951629639,0.754577994346619,0.25152599811554,1.88263392448425,-1053.90002441406,5.70000028610229,-914.100036621094,2.49284853327061,-0.483009584061895,0.247456937562465,ST
10.5666666666667,-5.163170337677,-1.79741966724396,9.41417217254639,1.28811800479889,-1.55488801002502,3.52898597717285,-1046.70007324219,2.10000014305115,-897.300048828125,2.45342840088616,-0.492130356923817,0.186823898178967,ST
10.6,-4.08412027359009,-1.15262150764465,8.72630786895752,1.61586391925812,-4.1311240196228,4.84759187698364,-1070.70007324219,-6.90000009536743,-916.500061035156,2.41038348393891,-0.432323495476281,0.127802939750778,ST
10.6333333333333,-2.40872168540955,-0.461766362190247,7.75253105163574,1.87501192092896,-5.9375376701355,5.15247201919556,-1063.5,-1.5,-909.300048828125,2.366425277829,-0.299621456044439,0.0573695646894279,ST
10.6666666666667,-2.25679349899292,0.122619308531284,7.68673515319824,1.6920839548111,-4.77137184143066,4.24545383453369,-1073.10009765625,-4.5,-914.100036621094,2.33071306283466,-0.278575628330303,-0.0162970880654176,ST
10.7,-1.91645002365112,0.727341830730438,7.98580694198608,0.708845973014832,-1.95885396003723,3.353679895401,-1082.70007324219,4.5,-909.300048828125,2.29951294767041,-0.233099412769401,-0.0896851496380387,ST
10.7333333333333,-2.09589290618896,0.383409649133682,8.51456546783447,-0.297257989645004,-0.297257989645004,2.62196803092957,-1082.70007324219,-8.70000076293945,-904.500061035156,2.29875650220205,-0.239927234914113,-0.0482648726183334,ST
10.7666666666667,-2.5056209564209,-0.0957028716802597,8.85610485076904,-2.37806391716003,0.510673999786377,0.914639949798584,-1077.90002441406,-9.30000019073486,-899.700012207031,2.30768970048523,-0.274397442352166,0.0106787615081926,ST
10.8,-3.02899599075317,-0.723752975463867,10.0625591278076,-3.52136397361755,1.05183601379395,0.0990860015153885,-1087.5,-4.5,-892.500061035156,2.32117597577475,-0.29238534607912,0.0738384206571875,ST
10.8333333333333,-3.14264321327209,-1.30694234371185,9.64684963226318,-3.55947399139404,0.533540010452271,-0.327746003866196,-1089.90002441406,3.90000009536743,-902.100036621094,2.33723966601767,-0.31221497341641,0.138117038263533,ST
10.8666666666667,-3.74078607559204,-1.55696618556976,9.96984672546387,-3.85673189163208,0.777444005012512,-0.548784017562866,-1075.5,5.10000038146973,-899.700012207031,2.34194448161573,-0.353536657825504,0.160612468796301,ST
10.9,-3.87118124961853,-1.46724474430084,9.83646106719971,-2.9268479347229,0.792688012123108,-0.0304879993200302,-1094.70007324219,2.10000014305115,-899.700012207031,2.33587173578534,-0.371416519292609,0.153734981308062,ST
10.9333333333333,-2.85074949264526,-1.92901110649109,8.77475738525391,-0.556405961513519,0.899396002292633,1.38720393180847,-1058.70007324219,3.30000019073486,-904.500061035156,2.35025673550656,-0.311769858274453,0.214267001232501,ST
10.9666666666667,-2.51279854774475,-2.00676965713501,8.29564476013184,0.533540010452271,0.701223969459534,0.83841997385025,-1061.10009765625,9.30000019073486,-904.500061035156,2.35441503462005,-0.289308026916795,0.234763428773366,ST
11.0,-2.91654515266418,-2.2711489200592,8.96078014373779,1.45580196380615,1.2347639799118,-0.510673999786377,-1082.70007324219,5.10000038146973,-904.500061035156,2.36249505452999,-0.306504526439715,0.245497326094388,ST
11.0333333333333,-2.95781707763672,-2.2831118106842,8.07313537597656,1.70732796192169,1.12043392658234,-1.72257196903229,-1065.90002441406,4.5,-906.900024414062,2.38163147646835,-0.338563873479636,0.272549965995777,ST
11.0666666666667,-3.2987585067749,-2.43862891197205,7.66819286346436,1.32622802257538,1.00610399246216,-2.02745199203491,-1070.70007324219,-2.70000004768372,-890.100036621094,2.40347536530859,-0.386603191755272,0.30499813507139,ST
11.1,-4.03686714172363,-2.76999998092651,8.74425220489502,0.647870004177094,0.556405961513519,-1.27287399768829,-1070.70007324219,3.30000019073486,-894.900024414062,2.41024317985099,-0.41313795822853,0.306588999448422,ST
11.1333333333333,-3.57270789146423,-2.60251998901367,8.76518726348877,-0.3125019967556,-1.6692179441452,-0.236281991004944,-1068.30004882812,2.10000014305115,-914.100036621094,2.40246201192287,-0.372234682651964,0.290043936490702,ST
11.1666666666667,-3.37651705741882,-2.26875638961792,8.58275318145752,-0.617381989955902,-2.67532205581665,0.739333987236023,-1058.70007324219,-0.900000035762787,-897.300048828125,2.38560582896083,-0.36007534335806,0.260475973201804,ST
11.2,-3.48238849639893,-2.33096313476562,9.1509895324707,-0.960371971130371,-1.47866797447205,1.54726600646973,-1056.30004882812,4.5,-904.500061035156,2.37372670413225,-0.351996131921453,0.25053274023374,ST
11.2333333333333,-2.59354782104492,-2.61508107185364,8.4116849899292,-1.18903195858002,-0.167683988809586,1.01372599601746,-1063.5,2.70000004768372,-894.900024414062,2.3839032681996,-0.290564428689862,0.299825059562914,ST
11.2666666666667,-3.15998935699463,-2.68207311630249,8.49602317810059,-1.05183601379395,1.40244793891907,-0.0762199983000755,-1065.90002441406,6.30000019073486,-902.100036621094,2.38680466599438,-0.33994830075058,0.307428987215857,ST
11.3,-4.06318521499634,-2.85972166061401,9.09416580200195,-0.228659987449646,3.12502002716064,-0.87652999162674,-1065.90002441406,6.30000019073486,-911.700012207031,2.39275969297788,-0.403532584618055,0.306430661780517,ST
11.3333333333333,-4.17982292175293,-2.65396046638489,8.85072135925293,0.617381989955902,3.3460578918457,-0.891773998737335,-1049.10009765625,1.5,-916.500061035156,2.39512894225129,-0.428511381664564,0.292497853626719,ST
11.3666666666667,-3.67439222335815,-1.74418485164642,7.9194130897522,2.14940404891968,1.21951997280121,0.419209986925125,-1056.30004882812,4.5,-902.100036621094,2.36694490510971,-0.427753460608911,0.216043138467957,ST
11.4,-4.19537496566772,-1.66283750534058,8.50559329986572,2.70580983161926,-0.46494197845459,1.71494996547699,-1053.90002441406,2.10000014305115,-899.700012207031,2.35350021686687,-0.449232530084542,0.188637577173645,ST
11.4333333333333,-4.4202766418457,-1.06589078903198,8.68204498291016,3.07928800582886,-1.15092194080353,2.90398192405701,-1051.5,0.900000035762787,-897.300048828125,2.31710937684164,-0.465562563719437,0.118684411788011,ST
11.4666666666667,-3.71386981010437,-0.44023323059082,7.95589971542358,2.67532205581665,-1.64635193347931,3.17075204849243,-1053.90002441406,0.900000035762787,-902.100036621094,2.28083851274385,-0.43560523265229,0.0521633910446974,ST
11.5,-3.51588439941406,-0.12441373616457,8.66290473937988,2.13416004180908,-2.5076379776001,3.14788603782654,-1065.90002441406,0.300000011920929,-897.300048828125,2.25516772955426,-0.383893359375224,0.0104569420318361,ST
11.5333333333333,-3.30115103721619,0.0837400183081627,9.17192459106445,1.12043392658234,-4.48935794830322,2.4923939704895,-1070.70007324219,-1.5,-906.900024414062,2.23969380338387,-0.340407031301909,-0.0112522364745072,ST
11.5666666666667,-2.71855974197388,0.152526453137398,8.95061111450195,-0.365855991840363,-3.74240183830261,1.6692179441452,-1058.70007324219,-3.30000019073486,-926.100036621094,2.23129386903856,-0.291414758787451,-0.0169095926313514,ST
11.6,-1.8506543636322,-0.263781040906906,8.74485015869141,-0.708845973014832,-2.29422187805176,1.2576299905777,-1063.5,-3.90000009536743,-909.300048828125,2.23650346690226,-0.20877873054709,0.02857305677412,ST
11.6333333333333,-2.39496445655823,-0.832016885280609,9.62770938873291,-1.02897000312805,-0.335367977619171,0.594515979290009,-1080.30004882812,3.30000019073486,-916.500061035156,2.24552717478659,-0.24041457406181,0.0841237808452984,ST
11.6666666666667,-2.87587141990662,-0.598741114139557,9.99257659912109,-0.792688012123108,0.160062000155449,-0.106707997620106,-1075.5,3.30000019073486,-897.300048828125,2.23965908806401,-0.277623992735827,0.0626894788092913,ST
11.7,-2.70300817489624,-0.913364291191101,8.93864822387695,-0.685979962348938,1.01372599601746,-0.0381099991500378,-1065.90002441406,2.70000004768372,-911.700012207031,2.25004391682256,-0.29299382366237,0.100636686096068,ST
11.7333333333333,-2.50920987129211,-1.28839993476868,8.61146450042725,-0.891773998737335,1.32622802257538,-0.548784017562866,-1075.5,-0.300000011920929,-906.900024414062,2.26536948673057,-0.283247258229222,0.148008599857251,ST
11.7666666666667,-3.00507020950317,-1.80399918556213,8.83038425445557,-1.22714197635651,1.53964400291443,-1.2500079870224,-1070.70007324219,3.90000009536743,-914.100036621094,2.28547959433723,-0.321598103874537,0.201065516610944,ST
11.8,-3.44949054718018,-2.27533578872681,8.71255016326904,-1.14329993724823,1.82165801525116,-2.38568592071533,-1065.90002441406,-0.900000035762787,-902.100036621094,2.31270470122492,-0.365109449316544,0.255670487112411,ST
11.8333333333333,-3.89690136909485,-2.65814733505249,8.43381595611572,-1.08994603157043,2.09605002403259,-2.61434602737427,-1058.70007324219,0.900000035762787,-916.500061035156,2.34221025307848,-0.414404263686696,0.306576690308098,ST
11.8666666666667,-3.34720802307129,-2.98293900489807,7.66161346435547,-0.853663980960846,1.48628997802734,-2.82776188850403,-1063.5,0.300000011920929,-899.700012207031,2.37918329614333,-0.388523333432336,0.37206849113412,ST
11.9,-3.77248764038086,-3.03497743606567,8.20891380310059,-0.868907988071442,0.182927995920181,-2.42379593849182,-1049.10009765625,10.5,-892.500061035156,2.38115627055392,-0.404746245805353,0.358284625929944,ST
11.9333333333333,-3.78624510765076,-2.8722825050354,8.27530765533447,0.0685980021953583,-0.396344006061554,-1.75305998325348,-1068.30004882812,4.5,-906.900024414062,2.37829346197568,-0.406227332454538,0.336512028080789,ST
11.9666666666667,-3.1887001991272,-2.79930901527405,8.1544828414917,0.92988395690918,0.0990860015153885,-0.533540010452271,-1051.5,4.5,-902.100036621094,2.37919019704558,-0.357271193717719,0.329844435004659,ST
12.0,-2.63601613044739,-2.74547624588013,8.0827054977417,0.868907988071442,-0.365855991840363,-0.83841997385025,-1063.5,8.10000038146973,-921.300048828125,2.38180237715841,-0.302007443817741,0.326526668824046,ST
12.0333333333333,-3.20724272727966,-2.98174262046814,8.51037788391113,0.868907988071442,0.106707997620106,-0.899396002292633,-1044.30004882812,-0.300000011920929,-921.300048828125,2.38911014368881,-0.338987678977152,0.335432844593661,ST
12.0666666666667,-3.88912558555603,-3.00447225570679,9.39443397521973,1.77592599391937,1.09756803512573,-0.3125019967556,-1049.10009765625,7.50000047683716,-892.500061035156,2.38496002463646,-0.375568137215468,0.308134457830975,ST
12.1,-5.19666624069214,-2.49305987358093,10.2994241714478,2.83538389205933,1.6844619512558,1.09756803512573,-1056.30004882812,3.30000019073486,-904.500061035156,2.35821092898193,-0.455614242281518,0.235439009128378,ST
12.1333333333333,-5.05789709091187,-1.99600315093994,9.44886493682861,3.14026403427124,1.21189796924591,2.00458598136902,-1056.30004882812,-3.90000009536743,-902.100036621094,2.34330420676304,-0.483458869864487,0.203238965590543,ST
12.1666666666667,-4.56622362136841,-1.45229113101959,8.44039535522461,2.37044191360474,-0.160062000155449,2.4923939704895,-1053.90002441406,5.10000038146973,-892.500061035156,2.32168031179661,-0.489889344898234,0.166335587292819,ST
12.2,-3.83888149261475,-0.693247675895691,7.93496465682983,1.80641400814056,-2.4923939704895,2.56099200248718,-1051.5,-4.5,-904.500061035156,2.27870557540609,-0.447994417944102,0.0866584582885565,ST
12.2333333333333,-3.01822948455811,-0.225499898195267,7.47917985916138,1.50915598869324,-4.01679372787476,2.27897787094116,-1046.70007324219,3.30000019073486,-909.300048828125,2.24885646121597,-0.380910335638301,0.0293673504068558,ST
12.2666666666667,-2.49425625801086,0.0418700091540813,7.34459733963013,1.2576299905777,-4.90094566345215,1.60061991214752,-1049.10009765625,-0.300000011920929,-916.500061035156,2.23198946363464,-0.322593528722347,-0.0065719398990646,ST
12.3,-2.70240998268127,-0.145348742604256,8.41587162017822,0.396344006061554,-4.53508996963501,0.937505960464478,-1082.70007324219,-6.30000019073486,-918.900024414062,2.23530299266067,-0.303976547578142,0.0146566307285027,ST
12.3333333333333,-2.37761831283569,-0.564048826694489,9.25626277923584,-1.07470202445984,-3.84148788452148,-0.525918006896973,-1073.10009765625,-7.50000047683716,-897.300048828125,2.24790048105328,-0.247878842523952,0.0599874820134706,ST
12.3666666666667,-2.52117252349854,-0.82065212726593,10.3006200790405,-1.47866797447205,-2.9192259311676,-1.15854394435883,-1089.90002441406,-0.900000035762787,-906.900024414062,2.25522157351204,-0.234913062113304,0.081111571466308,ST
12.4,-2.84058094024658,-1.21961355209351,11.1942453384399,-0.945127964019775,-1.78354799747467,-0.884151995182037,-1087.5,0.300000011920929,-909.300048828125,2.26388310764992,-0.243457855021534,0.109172924483417,ST
12.4333333333333,-2.33814096450806,-1.33744764328003,10.2760963439941,-0.259148001670837,-1.47104597091675,-0.92988395690918,-1080.30004882812,-0.900000035762787,-902.100036621094,2.27110481690227,-0.220638669919257,0.128901375777883,ST
12.4666666666667,-1.68676316738129,-1.08263874053955,8.68443775177002,-0.0457319989800453,-0.342989981174469,-0.449698001146317,-1089.90002441406,4.5,-916.500061035156,2.27189038213604,-0.191070596333115,0.124446898790818,ST
12.5,-1.54380702972412,-1.28481113910675,8.46312522888184,-0.25152599811554,-0.0685980021953583,-0.304879993200302,-1094.70007324219,-2.70000004768372,-904.500061035156,2.27765507053669,-0.178803150243095,0.150019981364625,ST
12.5333333333333,-1.92602038383484,-1.66463184356689,8.06296730041504,-0.167683988809586,0.0076219998300075,-0.0838419944047928,-1089.90002441406,0.300000011920929,-902.100036621094,2.28804252207327,-0.22671642736852,0.200611664635939,ST
12.5666666666667,-2.72573757171631,-2.05282664299011,8.81782341003418,-0.487807989120483,1.34147191047668,0.0533539988100529,-1097.10009765625,-2.70000004768372,-916.500061035156,2.29543751955436,-0.290617178014668,0.227914383126696,ST
12.6,-2.80349612236023,-2.18860507011414,8.51037788391113,-0.266770005226135,2.17227005958557,0.182927995920181,-1070.70007324219,2.70000004768372,-902.100036621094,2.30325111644953,-0.31125869177811,0.25088876352492,ST
12.6333333333333,-3.16417622566223,-2.62644577026367,8.14730548858643,-0.449698001146317,2.74391984939575,0.297257989645004,-1077.90002441406,-2.10000014305115,-904.500061035156,2.32362416340443,-0.355942307867662,0.309159236535888,ST
12.6666666666667,-3.42317223548889,-2.83639407157898,8.86567497253418,-0.945127964019775,2.08842802047729,0.144817993044853,-1075.5,1.5,-902.100036621094,2.32499042888243,-0.355949350147283,0.311463624870654,ST
12.7,-3.60680222511292,-2.83998274803162,9.06306266784668,-0.640248000621796,0.731711983680725,-0.0762199983000755,-1080.30004882812,6.30000019073486,-906.900024414062,2.32301728778748,-0.363793531403787,0.305233903324152,NLL
12.7333333333333,-3.44709801673889,-2.79691648483276,8.79928112030029,-0.297257989645004,0.594515979290009,0.160062000155449,-1073.10009765625,-0.900000035762787,-892.500061035156,2.32371311463971,-0.358716929887793,0.30810970019422,NLL
12.7666666666667,-3.07744550704956,-2.77059817314148,8.16824054718018,-0.0609759986400604,0.442075997591019,-0.0609759986400604,-1065.90002441406,0.300000011920929,-897.300048828125,2.33056530337054,-0.344342592448838,0.326092319581914,NLL
12.8,-3.35019874572754,-2.74069118499756,7.65443563461304,0.236281991004944,0.907018005847931,0.0152439996600151,-1073.10009765625,4.5,-899.700012207031,2.3380513116179,-0.390010907395575,0.342747353630907,NLL
12.8333333333333,-3.75873041152954,-2.66412878036499,7.5611252784729,0.807931959629059,1.33385002613068,0.510673999786377,-1070.70007324219,4.5,-902.100036621094,2.33718875087305,-0.437833738338018,0.337654629855287,NLL
12.8666666666667,-3.94236040115356,-2.3997495174408,7.56291961669922,1.15092194080353,1.17378795146942,1.2423859834671,-1061.10009765625,-2.10000014305115,-899.700012207031,2.32274100308151,-0.462189536527172,0.306559335537262,NLL
12.9,-4.31978845596313,-2.36206650733948,8.72870063781738,0.846041977405548,0.221037998795509,2.63721203804016,-1070.70007324219,1.5,-897.300048828125,2.29632211682753,-0.448181395997031,0.263461892647318,NLL
12.9333333333333,-4.94066095352173,-2.1712589263916,10.8132286071777,0.945127964019775,-0.92988395690918,3.53660798072815,-1063.5,1.5,-909.300048828125,2.25683882287544,-0.422546469855285,0.197794285352417,NLL
12.9666666666667,-4.4262580871582,-1.49655365943909,10.5440645217896,1.6692179441452,-3.39941191673279,3.99392795562744,-1061.10009765625,2.70000004768372,-904.500061035156,2.21941503850904,-0.391112271226717,0.138608439148946,NLL
13.0,-3.22159814834595,-0.410924226045609,9.33461952209473,2.36281991004944,-6.63113975524902,4.2149658203125,-1070.70007324219,-3.30000019073486,-904.500061035156,2.17068650181619,-0.324782891416906,0.0425351450344096,NLL
13.0333333333333,-2.28490614891052,0.254210770130157,8.38955307006836,2.5152599811554,-8.35371208190918,4.35978412628174,-1087.5,-2.10000014305115,-918.900024414062,2.13543790907462,-0.255555058535243,-0.0319363132379377,NLL
13.0666666666667,-1.6664263010025,0.634031534194946,7.62393045425415,1.14329993724823,-8.34608936309814,4.26832008361816,-1097.10009765625,6.90000009536743,-906.900024414062,2.1101870399645,-0.202807597836431,-0.0830515405550728,NLL
13.1,-0.837400138378143,0.572422802448273,7.14721059799194,-2.27897787094116,-5.29728984832764,4.77899408340454,-1099.5,-3.90000009536743,-902.100036621094,2.09242222303523,-0.112225879710317,-0.0772909753810767,NLL
13.1333333333333,-1.94217026233673,0.218322187662125,8.75681304931641,-4.48173570632935,-2.03507399559021,5.63265800476074,-1113.90002441406,0.300000011920929,-906.900024414062,2.07388135984897,-0.209870974784394,-0.0216422937158572,NLL
13.1666666666667,-2.48049879074097,-0.892429292201996,10.1726179122925,-6.13570976257324,0.480185985565186,8.0640754699707,-1123.5,-0.300000011920929,-909.300048828125,2.06105526074006,-0.238349578975122,0.0877965263461407,NLL
13.2,-2.86749744415283,-1.5743123292923,10.0105209350586,-6.82169008255005,1.22714197635651,8.50615215301514,-1118.70007324219,6.30000019073486,-911.700012207031,2.03991106933272,-0.277565744801688,0.159270879405346,NLL
13.2333333333333,-3.15580224990845,-2.22568988800049,10.6840295791626,-7.37047386169434,2.5000159740448,9.32932758331299,-1104.30004882812,11.7000007629395,-902.100036621094,2.00988098149686,-0.28850089393241,0.211137991934109,NLL
13.2666666666667,-2.2053530216217,-2.79332756996155,9.353759765625,-5.91467189788818,1.6920839548111,8.61285972595215,-1106.70007324219,13.5000009536743,-902.100036621094,1.99203848829916,-0.232133198090128,0.293040468299245,NLL
13.3,-1.8847484588623,-3.18570947647095,7.94094610214233,-4.53508996963501,1.31860601902008,7.24090003967285,-1097.10009765625,14.1000003814697,-914.100036621094,1.98290943497206,-0.224077430109296,0.381259222406537,NLL
13.3333333333333,-2.40991806983948,-3.72224378585815,8.91053581237793,-2.75916385650635,1.2423859834671,3.90246391296387,-1097.10009765625,14.1000003814697,-904.500061035156,1.97064078274046,-0.248088218278867,0.398367329955128,NLL
13.3666666666667,-2.79691648483276,-3.67379403114319,8.18738079071045,0.358233988285065,0.25152599811554,0.289635986089706,-1106.70007324219,17.7000007629395,-902.100036621094,1.97625873015909,-0.300337412071282,0.420057748706419,NLL
13.4,-2.39077734947205,-3.60022258758545,7.03655385971069,1.92836594581604,-0.472563982009888,-1.84452390670776,-1097.10009765625,21.3000011444092,-887.700012207031,1.99824117638679,-0.292066650052669,0.467567135717512,NLL
13.4333333333333,-3.6612331867218,-3.60440945625305,9.15577411651611,2.21800184249878,-0.99848198890686,-2.96495795249939,-1099.5,18.3000011444092,-897.300048828125,1.98187611929766,-0.349050384400961,0.378523408442823,NLL
13.4666666666667,-2.61866998672485,-3.49375319480896,8.51576137542725,3.23934984207153,-4.1463680267334,-4.39027214050293,-1109.10009765625,17.7000007629395,-904.500061035156,1.99852190298376,-0.271191208542499,0.384675641515518,NLL
13.5,-2.75325202941895,-3.3388340473175,8.90993785858154,3.63569402694702,-4.48173570632935,-5.4192419052124,-1116.30004882812,9.30000019073486,-894.900024414062,2.00811220872484,-0.271026130325991,0.355755845276532,NLL
13.5333333333333,-2.4458065032959,-2.84058094024658,8.82201099395752,4.74850606918335,-2.81251788139343,-6.58540773391724,-1118.70007324219,8.70000076293945,-899.700012207031,2.02306900460431,-0.250838878230537,0.308114593374816,NLL
13.5666666666667,-2.32677626609802,-2.33634638786316,8.87763786315918,4.51222372055054,-1.85976791381836,-7.13419198989868,-1113.90002441406,5.70000028610229,-894.900024414062,2.03953535293377,-0.242412487855573,0.255637389987855,NLL
13.6,-2.83459949493408,-1.93858134746552,9.63488674163818,4.51222372055054,-1.01372599601746,-7.25614404678345,-1113.90002441406,11.1000003814697,-892.500061035156,2.05617267210399,-0.274416347059012,0.197781398749757,NLL
13.6333333333333,-2.60431456565857,-1.32069969177246,8.94044303894043,3.14026403427124,0.243903994560242,-6.67687177658081,-1116.30004882812,5.70000028610229,-899.700012207031,2.07323827564717,-0.278975898221378,0.147115152912496,NLL
13.6666666666667,-2.54450011253357,-0.759641587734222,8.84773063659668,2.24848985671997,0.213415995240211,-5.44210767745972,-1113.90002441406,9.90000057220459,-894.900024414062,2.08243325271567,-0.278567115639684,0.0872021060187516,NLL
13.7,-2.30883193016052,-0.917551338672638,9.30949687957764,2.12653803825378,-0.381099998950958,-4.1997218132019,-1116.30004882812,5.70000028610229,-899.700012207031,2.10298373876691,-0.242927979511757,0.0958203310081223,NLL
13.7333333333333,-1.32309222221375,-0.704014301300049,7.9816198348999,0.952749967575073,-2.15702605247498,-4.57319974899292,-1121.10009765625,7.50000047683716,-894.900024414062,2.11940298269151,-0.164274524503466,0.0881635539361062,NLL
13.7666666666667,-1.29617583751678,-0.446812808513641,7.99418067932129,0.426831990480423,-2.15702605247498,-4.55795574188232,-1121.10009765625,5.70000028610229,-906.900024414062,2.1323930726797,-0.156729387492788,0.058251241419322,NLL
13.8,-0.977365612983704,-0.720164120197296,8.81303882598877,-0.533540010452271,-2.0655620098114,-3.52898597717285,-1116.30004882812,-4.5,-899.700012207031,2.14868747094729,-0.109092592236489,0.0816483663710344,NLL
13.8333333333333,-0.936093747615814,-1.2297819852829,9.61514854431152,-1.65397393703461,-1.97409796714783,-3.32319188117981,-1106.70007324219,5.10000038146973,-916.500061035156,2.16504334592411,-0.0931897205317781,0.127639015038376,NLL
13.8666666666667,-0.811081886291504,-1.66941702365875,10.2743015289307,-2.12653803825378,-0.990859985351562,-3.18599581718445,-1123.5,3.90000009536743,-897.300048828125,2.17938197324818,-0.0762811369742347,0.162923708304361,NLL
13.9,-1.09519982337952,-2.41410493850708,11.159553527832,-1.13567793369293,0.83841997385025,-2.29422187805176,-1133.10009765625,-0.300000011920929,-902.100036621094,2.19288950434991,-0.0950443058615178,0.21222343621456,NLL
13.9333333333333,-1.45767438411713,-2.34591674804688,11.0548782348633,0.289635986089706,0.800309956073761,-1.34909391403198,-1128.30004882812,11.1000003814697,-899.700012207031,2.19899698450717,-0.127480979383688,0.209082566296448,NLL
13.9666666666667,-1.95353496074677,-1.96011447906494,10.1223735809326,1.82165801525116,1.47866797447205,0.487807989120483,-1118.70007324219,-2.70000004768372,-899.700012207031,2.196339216987,-0.187202717325414,0.188965449044677,NLL
14.0,-1.11852741241455,-1.51988124847412,8.28128910064697,1.6692179441452,1.15092194080353,1.15854394435883,-1140.30004882812,5.10000038146973,-904.500061035156,2.19206787933931,-0.137614501025981,0.179003595295653,NLL
14.0333333333333,-1.57670485973358,-1.60601389408112,7.5730881690979,0.632625997066498,1.40244793891907,1.54726600646973,-1123.5,5.70000028610229,-904.500061035156,2.19205986798344,-0.199849044886128,0.205710247216724,ST
14.0666666666667,-2.01992893218994,-2.12759447097778,8.39194583892822,-0.67835795879364,1.45580196380615,1.37195992469788,-1123.5,-1.5,-911.700012207031,2.19622021812879,-0.230300711791893,0.246442781149501,ST
14.1,-2.04624700546265,-2.33275747299194,8.33452415466309,-0.92988395690918,1.76830399036407,1.05183601379395,-1123.5,0.900000035762787,-894.900024414062,2.19921127532749,-0.235309497801214,0.272615826486101,ST
14.1333333333333,-2.01753616333008,-3.01404237747192,8.26155090332031,-0.952749967575073,2.36281991004944,0.960371971130371,-1111.5,4.5,-904.500061035156,2.21489215320569,-0.230262241529606,0.347579404761843,ST
14.1666666666667,-2.09050965309143,-3.12589526176453,8.81543064117432,-0.777444005012512,1.72257196903229,0.403965979814529,-1111.5,0.900000035762787,-894.900024414062,2.21384348183724,-0.223404103256561,0.342521142383108,ST
14.2,-1.9589182138443,-3.01045346260071,9.09835243225098,-0.304879993200302,0.0381099991500378,0.381099998950958,-1104.30004882812,5.70000028610229,-899.700012207031,2.20772279490316,-0.203210331775525,0.321305636122592,ST
14.2333333333333,-2.11264085769653,-2.8663010597229,9.49432373046875,0.655492007732391,-1.28811800479889,0.403965979814529,-1099.5,3.90000009536743,-911.700012207031,2.19923818642112,-0.207735762516715,0.29307217900325,ST
14.2666666666667,-1.94336652755737,-2.56483697891235,8.89917087554932,1.22714197635651,-1.37195992469788,1.02134799957275,-1116.30004882812,8.10000038146973,-906.900024414062,2.19195532295953,-0.205192924773659,0.278883378070133,ST
14.3,-1.96549785137177,-2.59235167503357,9.16594314575195,1.18903195858002,0.342989981174469,1.47866797447205,-1111.5,7.50000047683716,-916.500061035156,2.18656984513981,-0.204786930518221,0.273420623109985,ST
14.3333333333333,-2.55287408828735,-2.61328673362732,9.36871337890625,1.28049600124359,1.95123195648193,1.55488801002502,-1113.90002441406,3.30000019073486,-909.300048828125,2.18308256113838,-0.257300323041517,0.269601741412079,ST
14.3666666666667,-2.15989422798157,-2.11264085769653,9.25865459442139,1.31098401546478,2.13416004180908,1.75305998325348,-1111.5,0.300000011920929,-897.300048828125,2.16810684281989,-0.229120086111446,0.223420658175796,ST
14.4,-2.44042325019836,-1.87697267532349,9.4913330078125,1.79117000102997,1.78354799747467,2.41617393493652,-1106.70007324219,2.10000014305115,-906.900024414062,2.15435329094156,-0.249895567807892,0.192802650332292,ST
14.4333333333333,-2.37283325195312,-1.64130425453186,9.50209903717041,1.83690190315247,1.53202199935913,3.10977602005005,-1101.90002441406,2.10000014305115,-904.500061035156,2.13922024187238,-0.245151199243355,0.168193094120131,ST
14.4666666666667,-2.14015555381775,-0.958225011825562,9.15637302398682,1.82927989959717,1.72257196903229,3.55947399139404,-1089.90002441406,2.70000004768372,-897.300048828125,2.11141914519815,-0.232678324125755,0.102677119514757,ST
14.5,-1.59943425655365,-0.378026366233826,8.70238208770752,2.26373386383057,1.84452390670776,3.64331603050232,-1094.70007324219,2.10000014305115,-894.900024414062,2.08628119085442,-0.1877417166232,0.041719174446306,ST
14.5333333333333,-1.53543305397034,-0.496458679437637,8.35067367553711,1.6844619512558,1.46342396736145,2.95733594894409,-1080.30004882812,-0.300000011920929,-885.300048828125,2.07822349742929,-0.18453656818058,0.0547551214430313,ST
14.5666666666667,-1.67898726463318,-0.0263182912021875,8.31358909606934,1.00610399246216,0.914639949798584,1.14329993724823,-1087.5,-2.70000004768372,-911.700012207031,2.0649184752818,-0.199919818526146,0.0042763425108652,ST
14.6,-2.64139938354492,-0.145946890115738,9.18927001953125,-0.228659987449646,2.01982998847961,0.419209986925125,-1087.5,2.70000004768372,-897.300048828125,2.06577287403268,-0.27833440356688,0.0153592838938137,ST
14.6333333333333,-3.12051177024841,-0.353502482175827,9.28916072845459,-0.922261953353882,2.5152599811554,-0.487807989120483,-1075.5,-4.5,-909.300048828125,2.07368143156509,-0.325202695387414,0.0384672055092851,ST
14.6666666666667,-3.59244680404663,-0.726145565509796,9.64505577087402,-1.69970595836639,2.87349390983582,-1.21189796924591,-1077.90002441406,2.10000014305115,-909.300048828125,2.08938992121122,-0.358346830589469,0.076542454693512,ST
14.7,-4.22887086868286,-1.12450873851776,9.5272216796875,-2.00458598136902,2.78202986717224,-2.33233189582825,-1063.5,-2.70000004768372,-902.100036621094,2.11336906592262,-0.416855649977928,0.120902750717349,ST
14.7333333333333,-4.09069967269897,-1.44690787792206,9.05708122253418,-1.93598794937134,2.69056582450867,-2.54574799537659,-1070.70007324219,-3.90000009536743,-890.100036621094,2.13743218900268,-0.423087057891925,0.161470547110718,ST
14.7666666666667,-4.13556051254272,-1.64190244674683,8.69101715087891,-1.46342396736145,2.00458598136902,-2.10367202758789,-1061.10009765625,4.5,-906.900024414062,2.15552735169374,-0.439104627795735,0.189443647613366,ST
14.8,-3.91723823547363,-2.25559711456299,8.03186416625977,-0.746955990791321,1.10518991947174,-1.17378795146942,-1065.90002441406,-0.300000011920929,-914.100036621094,2.19408720457832,-0.440343472421003,0.270977286719226,ST
14.8333333333333,-4.28090906143188,-2.72693371772766,8.0827054977417,-0.846041977405548,-0.160062000155449,-1.13567793369293,-1056.30004882812,3.90000009536743,-902.100036621094,2.21961006628901,-0.462826034049806,0.324264434743293,ST
14.8666666666667,-3.74377679824829,-2.99250936508179,7.36553239822388,-0.861285984516144,-1.05945801734924,-1.71494996547699,-1056.30004882812,5.10000038146973,-906.900024414062,2.2488373615596,-0.438880370852341,0.384549149886213,ST
14.9,-3.55177307128906,-3.44889235496521,8.47329330444336,-0.594515979290009,-2.54574799537659,-1.21189796924591,-1065.90002441406,0.300000011920929,-906.900024414062,2.24967827580666,-0.369876315828026,0.387517817464721,ST
14.9333333333333,-2.97695755958557,-2.87168431282043,8.57497787475586,0.533540010452271,-4.55033397674561,-1.05945801734924,-1075.5,-1.5,-904.500061035156,2.22760205984361,-0.313589766672514,0.325855709839702,ST
14.9666666666667,-2.36206650733948,-2.65994191169739,8.43262004852295,1.86738991737366,-5.44972991943359,0.175305992364883,-1080.30004882812,5.70000028610229,-909.300048828125,2.21609771397497,-0.255794255715117,0.302909873160717,ST
15.0,-2.41350698471069,-2.32019662857056,9.17969989776611,1.59299790859222,-4.40551567077637,0.182927995920181,-1085.10009765625,4.5,-911.700012207031,2.1986277601031,-0.242987851952657,0.247426804894669,ST
15.0333333333333,-2.65336227416992,-2.31242084503174,9.39084434509277,1.43293595314026,-2.9116039276123,0.426831990480423,-1097.10009765625,4.5,-902.100036621094,2.19343290680882,-0.262024998477532,0.238864564443274,ST
15.0666666666667,-2.98054647445679,-2.44221782684326,9.48834228515625,0.861285984516144,-0.205793991684914,0.67835795879364,-1094.70007324219,9.30000019073486,-911.700012207031,2.19450129003891,-0.293447855399294,0.24943319173865,ST
15.1,-3.09180092811584,-2.56842589378357,10.1564674377441,0.518296003341675,0.952749967575073,0.541162014007568,-1089.90002441406,3.30000019073486,-909.300048828125,2.19322196747468,-0.289103352715211,0.246806253970563,ST
15.1333333333333,-2.49904131889343,-2.05342483520508,9.23353290557861,1.11281192302704,0.449698001146317,0.571649968624115,-1089.90002441406,6.30000019073486,-909.300048828125,2.18496537189443,-0.261091235691946,0.218480093948413,ST
15.1666666666667,-2.66173624992371,-1.64788389205933,9.14141941070557,2.13416004180908,-0.137196004390717,1.56251001358032,-1085.10009765625,3.90000009536743,-916.500061035156,2.17004705689184,-0.278243916483284,0.176566773278717,ST
15.2,-2.05043411254883,-1.01684308052063,8.4356107711792,2.37806391716003,-0.716467976570129,1.69970595836639,-1087.5,-2.70000004768372,-909.300048828125,2.15071004499717,-0.238515843678656,0.118732379806553,ST
15.2333333333333,-1.58448076248169,-0.601731836795807,8.27590656280518,2.76678586006165,-0.78506600856781,2.11129403114319,-1082.70007324219,1.5,-904.500061035156,2.13409053700313,-0.19069643383683,0.0701023199806117,ST
15.2666666666667,-1.11134958267212,-0.525767683982849,8.32016849517822,2.45428395271301,0.792688012123108,1.89787793159485,-1085.10009765625,-0.900000035762787,-904.500061035156,2.12573025733208,-0.136335003117893,0.0588238097144722,ST
15.3,-1.34641981124878,-0.383409649133682,8.91472244262695,1.73781597614288,3.55185198783875,1.29574000835419,-1085.10009765625,-5.70000028610229,-906.900024414062,2.11965939391658,-0.154862012203154,0.0408074088749772,ST
15.3333333333333,-3.09419369697571,-1.01325416564941,10.1265602111816,1.14329993724823,6.81406784057617,0.663114011287689,-1070.70007324219,1.5,-899.700012207031,2.13270173117943,-0.301101529067463,0.095375673875443,ST
15.3666666666667,-3.80598378181458,-1.03418922424316,10.1385231018066,1.2347639799118,7.59913396835327,0.25152599811554,-1058.70007324219,0.300000011920929,-906.900024414062,2.13761843242081,-0.366442729659675,0.0995480286719335,ST
15.4,-5.00585842132568,-0.610703945159912,9.80117034912109,2.09605002403259,6.66925001144409,0.693601965904236,-1056.30004882812,-2.70000004768372,-916.500061035156,2.12468081123636,-0.4760391420556,0.0609196281318743,ST
15.4333333333333,-4.43104314804077,-0.388792932033539,8.98590183258057,2.080806016922,4.83234786987305,0.861285984516144,-1034.70007324219,2.70000004768372,-902.100036621094,2.1168531832664,-0.466723721861452,0.0401039461256141,ST
15.4666666666667,-3.40582609176636,-0.430064797401428,7.69271659851074,1.18140995502472,1.94360995292664,-0.282013982534409,-1029.90002441406,1.5,-892.500061035156,2.12604918475374,-0.422157671356463,0.0533546131158004,ST
15.5,-3.1707558631897,-0.328978627920151,6.94683265686035,0.25152599811554,0.411587983369827,-1.46342396736145,-1032.30004882812,-8.10000038146973,-902.100036621094,2.12985894891049,-0.427983283783311,0.0483812251694022,ST
15.5333333333333,-3.77069330215454,-0.641807436943054,7.07244253158569,-0.777444005012512,0.457319974899292,-1.54726600646973,-1029.90002441406,-0.900000035762787,-904.500061035156,2.15272321241588,-0.485018715567435,0.0904791937439021,ST
15.5666666666667,-4.94963312149048,-1.50851655006409,8.42005825042725,-1.60824191570282,1.50153398513794,-1.31098401546478,-1015.50006103516,-3.90000009536743,-899.700012207031,2.19693469187146,-0.524787072286772,0.17705645330569,ST
15.6,-5.0052604675293,-2.12998723983765,8.49303245544434,-2.17227005958557,1.74543797969818,-2.03507399559021,-1029.90002441406,-0.900000035762787,-904.500061035156,2.2359789379863,-0.521686451780165,0.247382902037058,ST
15.6333333333333,-5.33065032958984,-2.87048816680908,8.51456546783447,-1.92074394226074,1.05183601379395,-2.5152599811554,-1025.10009765625,-1.5,-894.900024414062,2.28282856884366,-0.535304918107399,0.327977499782248,ST
15.6666666666667,-5.50291538238525,-2.924320936203,9.0672492980957,-1.51677799224854,-1.05945801734924,-2.14940404891968,-1020.30004882812,2.10000014305115,-899.700012207031,2.28018999665374,-0.52174266711252,0.317055177009299,ST
15.7,-5.16795539855957,-3.04813647270203,8.47508811950684,-0.213415995240211,-5.28966808319092,-1.02897000312805,-1027.5,4.5,-909.300048828125,2.28997924762085,-0.51219105028673,0.343310561093696,ST
15.7333333333333,-4.50700712203979,-2.95362997055054,7.66819286346436,1.02897000312805,-7.72870779037476,-0.350611984729767,-1046.70007324219,5.10000038146973,-899.700012207031,2.29275776122827,-0.490259857096639,0.362365558260832,ST
15.7666666666667,-3.90108847618103,-2.65276408195496,7.34699010848999,2.0579400062561,-9.13877773284912,0.746955990791321,-1041.90002441406,-0.300000011920929,-918.900024414062,2.27230773943721,-0.450647898385304,0.340760948400419,ST
15.8,-2.71018576622009,-2.06778025627136,7.22257614135742,2.59910202026367,-9.19213199615479,1.47866797447205,-1061.10009765625,-2.10000014305115,-909.300048828125,2.23483325253408,-0.337396813844968,0.275024433908904,ST
15.8333333333333,-2.51040601730347,-1.75495147705078,9.16474628448486,0.0533539988100529,-5.25918006896973,2.59910202026367,-1087.5,-2.70000004768372,-897.300048828125,2.19634076256628,-0.259816359313469,0.192556627675504,ST
15.8666666666667,-1.71009075641632,-1.82134532928467,9.73298263549805,-1.14329993724823,-3.60520601272583,2.98782396316528,-1073.10009765625,-0.900000035762787,-904.500061035156,2.17979300678906,-0.171499982118954,0.186206398359594,ST
15.9,-1.43434679508209,-1.88295412063599,9.66898155212402,-1.92074394226074,-2.62959003448486,2.31708788871765,-1089.90002441406,4.5,-899.700012207031,2.1688393612704,-0.142720405053478,0.194437291008818,ST
15.9333333333333,-1.68496870994568,-1.97985327243805,9.99377250671387,-1.85214591026306,-2.25611186027527,1.6692179441452,-1101.90002441406,-4.5,-899.700012207031,2.15910118374855,-0.159828674896442,0.198067543600107,ST
15.9666666666667,-1.47561872005463,-1.64608943462372,8.91591930389404,-0.647870004177094,-3.15550804138184,0.571649968624115,-1092.30004882812,0.300000011920929,-894.900024414062,2.151430605992,-0.156275180057497,0.184030164150806,ST
16.0,-1.65984678268433,-1.33266258239746,8.29325199127197,0.0685980021953583,-2.64483404159546,0.327746003866196,-1099.5,-0.900000035762787,-914.100036621094,2.14438855423409,-0.188557627644308,0.160498637870089,ST
16.0333333333333,-2.18501615524292,-1.04854464530945,9.00623893737793,0.983237981796265,-0.693601965904236,0.46494197845459,-1097.10009765625,-4.5,-904.500061035156,2.13392473137025,-0.232550136590642,0.116816084454525,ST
16.0666666666667,-2.22688627243042,-0.96958976984024,8.86746978759766,1.08232402801514,-0.243903994560242,0.243903994560242,-1089.90002441406,1.5,-904.500061035156,2.13168126988414,-0.243690741561819,0.10739101100313,ST
16.1,-2.45896577835083,-0.645994424819946,8.98410701751709,0.381099998950958,-0.266770005226135,-0.0762199983000755,-1101.90002441406,5.10000038146973,-892.500061035156,2.12364327904077,-0.264941842057569,0.072929116648929,ST
16.1333333333333,-2.67190456390381,-0.581993103027344,9.85560131072998,0.152439996600151,-0.449698001146317,0.594515979290009,-1104.30004882812,2.70000004768372,-906.900024414062,2.11755448708406,-0.263642998417393,0.0590625177336295,ST
16.1666666666667,-1.97865700721741,-0.695042133331299,9.5152587890625,-0.114329993724823,-1.89787793159485,0.518296003341675,-1109.10009765625,-0.900000035762787,-911.700012207031,2.11793371092679,-0.205036202663744,0.0720402163422873,ST
16.2,-2.38001084327698,-0.538926839828491,9.27121639251709,-0.137196004390717,-1.18903195858002,1.16616594791412,-1101.90002441406,0.900000035762787,-902.100036621094,2.10994318054605,-0.246271391644048,0.0586498417229054,ST
16.2333333333333,-1.56892895698547,-1.21901535987854,9.39742469787598,-1.39482593536377,0.495429992675781,0.762199997901917,-1097.10009765625,-3.90000009536743,-904.500061035156,2.12006247749133,-0.169104819443097,0.127700772997594,ST
16.2666666666667,-1.14125680923462,-1.83390629291534,9.86876106262207,-2.79727387428284,0.868907988071442,-0.754577994346619,-1099.5,-6.90000009536743,-892.500061035156,2.13027734658285,-0.117804459629466,0.185127538849243,ST
16.3,-2.12938904762268,-1.86500978469849,10.1839818954468,-2.56099200248718,1.38720393180847,-1.49391198158264,-1104.30004882812,-3.30000019073486,-890.100036621094,2.13613155652501,-0.201313171010341,0.186148210156984,ST
16.3333333333333,-2.08153748512268,-2.02411580085754,9.86158275604248,-1.57013201713562,1.60824191570282,-0.739333987236023,-1106.70007324219,3.30000019073486,-906.900024414062,2.14275537533135,-0.206107588156019,0.20450199992661,ST
16.3666666666667,-2.17066073417664,-2.27892470359802,9.50030517578125,-0.442075997591019,0.228659987449646,0.442075997591019,-1092.30004882812,1.5,-906.900024414062,2.14712306851903,-0.21840620052548,0.234139116160072,ST
16.4,-2.13895916938782,-2.167072057724,8.95061111450195,0.137196004390717,-0.868907988071442,1.18140995502472,-1101.90002441406,3.90000009536743,-906.900024414062,2.14247452799599,-0.226690558515732,0.236603047403762,ST
16.4333333333333,-2.36984252929688,-2.19877362251282,8.18797874450684,0.175305992364883,-1.37195992469788,1.81403601169586,-1097.10009765625,3.30000019073486,-902.100036621094,2.140082351311,-0.268371906186192,0.259554373407762,ST
16.4666666666667,-2.22987699508667,-2.32498168945312,7.5407886505127,-0.571649968624115,-0.602137982845306,1.39482593536377,-1101.90002441406,0.300000011920929,-914.100036621094,2.14363101189336,-0.274699636240641,0.296914425566372,ST
16.5,-2.6396050453186,-2.74069118499756,8.09945392608643,-0.83841997385025,0.0685980021953583,0.937505960464478,-1109.10009765625,2.70000004768372,-902.100036621094,2.14736821594985,-0.298523049547443,0.325435714000112,ST
16.5333333333333,-2.97037792205811,-3.08940839767456,7.86199140548706,-0.571649968624115,0.388722002506256,0.396344006061554,-1099.5,3.30000019073486,-902.100036621094,2.16035251828621,-0.336581690140127,0.372215839311973,ST
16.5666666666667,-3.61039090156555,-3.2867956161499,8.40091800689697,-0.381099998950958,1.39482593536377,0.541162014007568,-1097.10009765625,-0.300000011920929,-914.100036621094,2.16027531968304,-0.380476331698798,0.37352108850157,ST
16.6,-2.924320936203,-3.2568883895874,8.668288230896,0.304879993200302,0.884151995182037,1.12043392658234,-1085.10009765625,3.90000009536743,-911.700012207031,2.15297865182585,-0.311983256954322,0.35925359085552,ST
16.6333333333333,-3.04036068916321,-3.17972803115845,9.24729061126709,0.701223969459534,-0.137196004390717,1.34147191047668,-1092.30004882812,2.70000004768372,-906.900024414062,2.14026762404833,-0.30259805214543,0.331058891540804,ST
16.6666666666667,-2.74846696853638,-2.92731165885925,9.0732307434082,1.6768399477005,-0.556405961513519,1.74543797969818,-1082.70007324219,5.10000038146973,-902.100036621094,2.12893868742984,-0.282019890360241,0.309602329343204,ST
16.7,-2.4876766204834,-2.61986613273621,9.4793701171875,2.25611186027527,-0.922261953353882,2.01220798492432,-1104.30004882812,9.30000019073486,-894.900024414062,2.11168808329142,-0.249272596812205,0.26741495337161,ST
16.7333333333333,-2.08692073822021,-2.29328012466431,9.18269062042236,2.29422187805176,-1.41006994247437,2.14940404891968,-1106.70007324219,3.30000019073486,-899.700012207031,2.09823296203173,-0.217591139704976,0.241437986894847,ST
16.7666666666667,-1.90987050533295,-1.87757074832916,9.28258037567139,2.27897787094116,-1.79879200458527,2.24086785316467,-1111.5,7.50000047683716,-894.900024414062,2.07998981646626,-0.197630381345253,0.196739260313567,ST
16.8,-1.71068894863129,-1.82254159450531,8.83816051483154,2.30946588516235,-1.47866797447205,2.40855193138123,-1123.5,-6.30000019073486,-906.900024414062,2.07103064015583,-0.186231868240732,0.198368036052993,ST
16.8333333333333,-1.84108412265778,-2.0432562828064,9.20781326293945,1.55488801002502,-0.670735955238342,1.38720393180847,-1104.30004882812,-3.30000019073486,-909.300048828125,2.06900068459584,-0.191855451942222,0.214322250187113,ST
16.8666666666667,-2.53672432899475,-1.9708811044693,9.0433235168457,0.937505960464478,0.282013982534409,1.03659200668335,-1097.10009765625,-6.90000009536743,-897.300048828125,2.06558953167826,-0.26461785917236,0.212599466486657,ST
16.9,-2.27593398094177,-1.53902184963226,8.07792091369629,0.899396002292633,0.83841997385025,1.00610399246216,-1109.10009765625,-0.900000035762787,-887.700012207031,2.05681158575176,-0.271351725802985,0.187889700127048,ST
16.9333333333333,-2.42008638381958,-1.12091994285583,8.644362449646,0.640248000621796,0.92988395690918,1.06708002090454,-1113.90002441406,-3.30000019073486,-887.700012207031,2.03849029577422,-0.272635272383631,0.130674635810388,ST
16.9666666666667,-2.19996976852417,-0.592759668827057,8.0946683883667,0.358233988285065,0.121951997280121,0.716467976570129,-1099.5,-3.90000009536743,-902.100036621094,2.02119862338643,-0.2654061267729,0.0749973965359888,ST
17.0,-2.59653854370117,-0.430662930011749,8.1604642868042,-0.525918006896973,0.228659987449646,0.861285984516144,-1097.10009765625,3.90000009536743,-914.100036621094,2.01155585842566,-0.30555461374152,0.0545262207694629,ST
17.0333333333333,-2.77538347244263,-0.872690618038177,9.12407302856445,-1.49391198158264,1.08994603157043,0.701223969459534,-1094.70007324219,2.70000004768372,-902.100036621094,2.01943478181131,-0.296617658888938,0.0950376538898904,ST
17.0666666666667,-2.92192840576172,-0.555076658725739,9.63010215759277,-1.28811800479889,0.853663980960846,0.449698001146317,-1099.5,5.10000038146973,-902.100036621094,2.00671682243512,-0.295740620294893,0.0617562419654193,ST
17.1,-3.57689499855042,-0.893625617027283,11.1290483474731,0.213415995240211,0.503051996231079,1.69970595836639,-1099.5,6.30000019073486,-911.700012207031,2.00537853662815,-0.310208893507685,0.0777928981219806,ST
17.1333333333333,-2.51997637748718,-0.857138872146606,10.8293781280518,0.87652999162674,-0.670735955238342,1.39482593536377,-1097.10009765625,3.90000009536743,-909.300048828125,2.000433404755,-0.232007270077373,0.0768888666070959,ST
17.1666666666667,-2.14135193824768,-0.674705266952515,10.5512418746948,0.518296003341675,-1.07470202445984,0.67835795879364,-1089.90002441406,3.30000019073486,-916.500061035156,1.99496052019656,-0.199890062932782,0.0634536387525565,ST
17.2,-1.65625786781311,-0.32538977265358,9.13125038146973,0.137196004390717,-0.403965979814529,0.175305992364883,-1092.30004882812,12.9000005722046,-906.900024414062,1.98916151908506,-0.179567440544771,0.0365508799846578,ST
17.2333333333333,-1.94635725021362,-0.697434723377228,9.27121639251709,-0.92988395690918,0.891773998737335,0.0228659994900227,-1089.90002441406,1.5,-902.100036621094,1.99578575267197,-0.206208258529787,0.0742738134869572,ST
17.2666666666667,-1.72803509235382,-1.10118126869202,8.47030258178711,-1.52439999580383,1.50915598869324,-0.350611984729767,-1097.10009765625,-0.900000035762787,-916.500061035156,2.00769073581929,-0.20239240753371,0.128976950169118,ST
17.3,-1.83570075035095,-1.36974740028381,7.89907598495483,-1.30336201190948,1.65397393703461,-0.403965979814529,-1080.30004882812,-0.900000035762787,-918.900024414062,2.01818303802907,-0.226296418389602,0.171482368785837,ST
17.3333333333333,-3.2987585067749,-2.12460374832153,8.93685436248779,-1.06708002090454,2.15702605247498,-0.0152439996600151,-1080.30004882812,3.30000019073486,-897.300048828125,2.03555553469783,-0.341037085334246,0.231529206484361,ST
17.3666666666667,-3.23356080055237,-2.37283325195312,8.41527366638184,-0.670735955238342,1.69970595836639,-0.274392008781433,-1085.10009765625,5.10000038146973,-909.300048828125,2.05169141300469,-0.356015825338958,0.27372780805958,ST
17.4,-3.42018151283264,-2.69283962249756,8.29983234405518,-0.495429992675781,1.6615959405899,-0.282013982534409,-1073.10009765625,2.70000004768372,-906.900024414062,2.0677218601467,-0.374969394069417,0.312595567602062,ST
17.4333333333333,-3.77308583259583,-3.04155707359314,8.26872825622559,0.0228659994900227,1.97409796714783,-0.426831990480423,-1080.30004882812,4.5,-894.900024414062,2.08620727449886,-0.405651077661754,0.350737806670364,ST
17.4666666666667,-3.74856209754944,-3.10196948051453,8.49721908569336,0.190549999475479,1.72257196903229,-0.525918006896973,-1082.70007324219,6.90000009536743,-894.900024414062,2.09044478434861,-0.395991797665917,0.350502290879469,ST
17.5,-3.63910174369812,-3.07206225395203,8.87943267822266,0.503051996231079,0.762199997901917,-0.190549999475479,-1058.70007324219,9.30000019073486,-894.900024414062,2.0865885841266,-0.371781628568886,0.333285874954087,ST
17.5333333333333,-3.38489103317261,-2.936283826828,8.79329967498779,1.31860601902008,-0.525918006896973,0.0914639979600906,-1070.70007324219,1.5,-916.500061035156,2.08301958024583,-0.350627535456218,0.320629650404296,ST
17.5666666666667,-3.35797452926636,-2.73650407791138,8.59232425689697,1.53202199935913,-0.442075997591019,0.792688012123108,-1075.5,8.10000038146973,-899.700012207031,2.07673969036902,-0.35582391146365,0.30601921133376,ST
17.6,-3.43034982681274,-2.49485445022583,8.90814304351807,1.30336201190948,-0.0762199983000755,1.58537602424622,-1063.5,6.30000019073486,-906.900024414062,2.06088166031185,-0.355738988866504,0.271983195633273,ST
17.6333333333333,-2.9021897315979,-2.29985976219177,8.80765533447266,0.716467976570129,-0.266770005226135,1.90549993515015,-1065.90002441406,0.300000011920929,-892.500061035156,2.04869884565377,-0.311856102405231,0.254200272242333,ST
17.6666666666667,-2.79990720748901,-2.30943012237549,8.85431003570557,0.342989981174469,0.144817993044853,1.31860601902008,-1087.5,2.10000014305115,-902.100036621094,2.04371772616881,-0.298314484057586,0.253887094936681,ST
17.7,-3.17494297027588,-2.34113168716431,9.16713905334473,0.0304879993200302,0.457319974899292,0.259148001670837,-1070.70007324219,11.1000003814697,-890.100036621094,2.04204150907519,-0.323356534714181,0.250102604367394,ST
