seconds,sensor_accX_m_s_,sensor_accY_m_s_,sensor_accZ_m_s_,sensor_gyroX___s_,sensor_gyroY___s_,sensor_gyroZ___s_,sensor_magX__T_,sensor_magY__T_,sensor_magZ__T_,sensor_yaw___,sensor_pitch___,sensor_roll___,label4
0.0,0.966000914573669,-0.569432079792023,9.61155986785889,0.289635986089706,-0.121951997280121,0.586893975734711,-1229.10009765625,-9.30000019073486,-851.700012207031,2.68589859130152,0.100164333534684,0.0587467687165364,ST
0.0333333333333333,1.01504862308502,-0.57062840461731,9.5445671081543,0.342989981174469,-0.198172003030777,0.564027965068817,-1241.10009765625,-9.30000019073486,-863.700012207031,2.68176843569605,0.105998188275731,0.0592182738935365,ST
0.0666666666666667,1.10237753391266,-0.578404247760773,9.54935264587402,0.365855991840363,-0.137196004390717,0.510673999786377,-1231.5,-4.5,-854.100036621094,2.67816642286539,0.114799746613597,0.059952242854787,ST
0.1,1.02043187618256,-0.504832684993744,9.50389385223389,0.365855991840363,-0.0762199983000755,0.426831990480423,-1248.30004882812,-3.30000019073486,-849.300048828125,2.67592916258007,0.106985819683602,0.0525880057182903,ST
0.133333333333333,0.997104346752167,-0.553282260894775,9.55832481384277,0.3125019967556,-0.0304879993200302,0.510673999786377,-1238.70007324219,-8.70000076293945,-846.900024414062,2.67179251807787,0.103799879551907,0.0573262554368376,ST
0.166666666666667,1.01624488830566,-0.545506417751312,9.56490421295166,0.182927995920181,-0.0381099991500378,0.564027965068817,-1236.30004882812,2.70000004768372,-863.700012207031,2.6679449844936,0.105673700219427,0.0567606502159958,ST
0.2,0.977365612983704,-0.579600512981415,9.56191349029541,0.190549999475479,-0.0228659994900227,0.480185985565186,-1229.10009765625,-8.70000076293945,-844.500061035156,2.6644302875177,0.101713845675029,0.0602515715090673,ST
0.233333333333333,1.05691862106323,-0.662144243717194,9.61574649810791,-0.0304879993200302,-0.129574000835419,0.160062000155449,-1241.10009765625,-3.90000009536743,-856.500061035156,2.66249741060079,0.109331781935565,0.0687323291663999,ST
0.266666666666667,0.990524768829346,-0.634031534194946,9.50808048248291,0.137196004390717,-0.3125019967556,0.0228659994900227,-1233.90002441406,2.10000014305115,-858.900024414062,2.6623806893313,0.104179599699963,0.0663824400273019,ST
0.3,0.976169347763062,-0.676499724388123,9.52841758728027,0.106707997620106,-0.182927995920181,0.121951997280121,-1245.90002441406,-5.70000028610229,-863.700012207031,2.66090977327715,0.102153596720898,0.0706901549920124,ST
0.333333333333333,0.891831159591675,-0.654966533184052,9.52243614196777,0.167683988809586,-0.106707997620106,0.236281991004944,-1245.90002441406,-7.50000047683716,-878.100036621094,2.65939595828786,0.0933993737006702,0.068440337832983,ST
0.366666666666667,0.885849714279175,-0.652574002742767,9.4913330078125,0.152439996600151,-0.0914639979600906,0.388722002506256,-1226.70007324219,-6.90000009536743,-856.500061035156,2.65681989428257,0.0929632134593057,0.0684447193416812,ST
0.4,0.891831159591675,-0.61249840259552,9.54277324676514,0.144817993044853,-0.144817993044853,0.556405961513519,-1236.30004882812,-5.10000038146973,-861.300048828125,2.65358649419362,0.0931824551367605,0.0639909686299289,ST
0.433333333333333,0.891233026981354,-0.634031534194946,9.57148361206055,0.0990860015153885,-0.327746003866196,0.6250039935112,-1241.10009765625,-3.30000019073486,-868.500061035156,2.64876504012136,0.0931428644671746,0.0660644048109999,ST
0.466666666666667,0.917551338672638,-0.594554126262665,9.54576396942139,0.0685980021953583,-0.495429992675781,0.640248000621796,-1236.30004882812,-3.90000009536743,-863.700012207031,2.64460034719207,0.0964072187681562,0.062231242561411,ST
0.5,0.909177303314209,-0.628050148487091,9.59720420837402,-0.0914639979600906,-0.434453994035721,0.67835795879364,-1241.10009765625,0.900000035762787,-868.500061035156,2.63948754672844,0.0949413456928163,0.0655996562625419,ST
0.533333333333333,0.857737004756927,-0.614890992641449,9.55294132232666,-0.0762199983000755,-0.274392008781433,0.83841997385025,-1241.10009765625,-4.5,-866.100036621094,2.63375068481464,0.0897854245241055,0.0645533091790119,ST
0.566666666666667,0.625059425830841,-0.534739792346954,9.50090312957764,-0.0990860015153885,-0.182927995920181,1.13567793369293,-1233.90002441406,-4.5,-868.500061035156,2.62718089484531,0.0660898645999215,0.0566291919632691,ST
0.6,0.583787560462952,-0.584983825683594,9.44228458404541,-0.365855991840363,-0.213415995240211,1.59299790859222,-1241.10009765625,-3.30000019073486,-861.300048828125,2.61619973800801,0.0618661749157005,0.0626339160824292,ST
0.633333333333333,0.40853163599968,-0.592161536216736,9.48116397857666,-0.594515979290009,-0.449698001146317,2.01982998847961,-1233.90002441406,-0.900000035762787,-851.700012207031,2.60339542158037,0.0437616820446824,0.0635614334667235,ST
0.666666666666667,0.581394970417023,-0.730332553386688,9.45424747467041,-0.990859985351562,-0.617381989955902,2.52288198471069,-1245.90002441406,-3.90000009536743,-875.700012207031,2.58673511236454,0.0617450492971423,0.0789078570540172,ST
0.7,0.761435985565186,-0.839792728424072,9.48714542388916,-1.12805593013763,-0.800309956073761,2.69818782806396,-1221.90002441406,-7.50000047683716,-854.100036621094,2.56799969783651,0.0805791936383253,0.0905398663381528,ST
0.733333333333333,0.844577848911285,-0.939682602882385,9.4375,-1.29574000835419,-1.17378795146942,2.45428395271301,-1241.10009765625,-0.300000011920929,-849.300048828125,2.551143590197,0.0903206628365875,0.101788073922122,ST
0.766666666666667,1.03897428512573,-1.1155366897583,9.44407939910889,-1.30336201190948,-1.54726600646973,2.17227005958557,-1236.30004882812,-3.30000019073486,-866.100036621094,2.53461096730733,0.110870962872836,0.120139003366752,ST
0.8,1.19449150562286,-1.24114668369293,9.55712795257568,-1.18140995502472,-2.14940404891968,1.6844619512558,-1250.70007324219,-2.70000004768372,-854.100036621094,2.52124965205707,0.126512012254657,0.131534661026159,ST
0.833333333333333,1.33026993274689,-1.22559499740601,9.50628662109375,-0.83841997385025,-2.54574799537659,1.61586391925812,-1245.90002441406,-1.5,-861.300048828125,2.51002559570349,0.141757319055491,0.130175205798569,ST
0.866666666666667,1.45348739624023,-1.16817319393158,9.79638576507568,-0.388722002506256,-2.56099200248718,1.76068198680878,-1250.70007324219,-0.900000035762787,-854.100036621094,2.49894900083769,0.150236976834744,0.120029174256374,ST
0.9,1.746577501297,-0.960019469261169,9.53559494018555,0.37347799539566,-2.52288198471069,2.14940404891968,-1262.70007324219,4.5,-839.700012207031,2.48629419496975,0.183912908354057,0.100660613720135,ST
0.933333333333333,2.04026556015015,-0.928317904472351,9.26164531707764,0.480185985565186,-2.17989206314087,2.12653803825378,-1265.10009765625,1.5,-856.500061035156,2.47133392654715,0.218765333930309,0.0999668465987425,ST
0.966666666666667,1.97267556190491,-0.850559294223785,9.25327205657959,0.3125019967556,-1.55488801002502,1.76830399036407,-1257.90002441406,1.5,-844.500061035156,2.46082472271933,0.211691130413695,0.0919309949472186,ST
1.0,2.37881469726562,-1.26148355007172,8.66709136962891,-0.510673999786377,-0.815553963184357,0.922261953353882,-1257.90002441406,1.5,-844.500061035156,2.44274980624793,0.265721246895933,0.145241521987956,ST
1.03333333333333,1.9469553232193,-1.37273812294006,9.39323711395264,-1.18140995502472,-1.05183601379395,-0.304879993200302,-1272.30004882812,0.300000011920929,-856.500061035156,2.44487437272928,0.204934467882338,0.147097500350369,ST
1.06666666666667,2.12161302566528,-1.85364508628845,9.2108039855957,-1.28049600124359,-0.693601965904236,-0.884151995182037,-1250.70007324219,0.900000035762787,-846.900024414062,2.44033471422562,0.223416375701265,0.200070952378493,ST
1.1,1.9188426733017,-1.76212918758392,9.81193733215332,-1.18903195858002,-1.27287399768829,-1.41769194602966,-1262.70007324219,11.1000003814697,-832.500061035156,2.45326590996467,0.193162491913107,0.179619273099432,ST
1.13333333333333,2.1210150718689,-1.70710003376007,9.29215145111084,-0.518296003341675,-1.65397393703461,-1.01372599601746,-1257.90002441406,1.5,-846.900024414062,2.45804299981816,0.223729471359981,0.182293854302015,ST
1.16666666666667,2.38359975814819,-1.79801774024963,9.31009578704834,-0.320124000310898,-0.701223969459534,-0.800309956073761,-1267.5,-5.10000038146973,-846.900024414062,2.46080259322619,0.247531372512017,0.190971976432327,ST
1.2,2.21432518959045,-1.78725123405457,9.46022891998291,-0.0076219998300075,0.0762199983000755,-0.899396002292633,-1265.10009765625,2.70000004768372,-846.900024414062,2.46792593767825,0.226384392245104,0.186406820905964,ST
1.23333333333333,1.98463833332062,-1.71966099739075,9.31069374084473,0.594515979290009,0.350611984729767,-0.731711983680725,-1257.90002441406,3.30000019073486,-846.900024414062,2.47331716169065,0.206425239557359,0.181358810066238,ST
1.26666666666667,1.9026927947998,-1.72803509235382,9.59481143951416,0.647870004177094,0.419209986925125,-0.647870004177094,-1262.70007324219,-2.10000014305115,-839.700012207031,2.47782971220682,0.192394264072572,0.176872598082423,ST
1.3,1.43913197517395,-1.26088535785675,9.60019493103027,1.59299790859222,0.617381989955902,-0.0685980021953583,-1262.70007324219,0.900000035762787,-834.900024414062,2.485397247569,0.147059275652575,0.128369727886919,ST
1.33333333333333,1.58448076248169,-1.15800476074219,9.42613506317139,1.76068198680878,0.449698001146317,0.365855991840363,-1267.5,5.10000038146973,-846.900024414062,2.48308917252464,0.164249894667489,0.119364795278191,ST
1.36666666666667,1.41042113304138,-0.819455862045288,9.4793701171875,1.80641400814056,0.304879993200302,0.594515979290009,-1257.90002441406,-1.5,-858.900024414062,2.48336316707372,0.146762134569874,0.0836666391767018,ST
1.4,1.62216377258301,-0.782370984554291,9.21798133850098,1.52439999580383,0.205793991684914,0.724089980125427,-1267.5,3.30000019073486,-861.300048828125,2.47740801662176,0.172848876441647,0.0822383326499839,ST
1.43333333333333,1.5180869102478,-0.62147057056427,9.38426494598389,1.03659200668335,-0.0533539988100529,0.518296003341675,-1255.5,-2.10000014305115,-846.900024414062,2.47599374743124,0.160225296410997,0.0646832371910402,ST
1.46666666666667,1.51330173015594,-0.62147057056427,9.29813289642334,0.899396002292633,-0.160062000155449,0.564027965068817,-1255.5,0.900000035762787,-849.300048828125,2.47139290539154,0.161188461225147,0.0653239399997565,ST
1.5,1.77827906608582,-0.818857729434967,9.32684326171875,0.350611984729767,-0.114329993724823,0.274392008781433,-1250.70007324219,-2.70000004768372,-842.100036621094,2.46550771625745,0.187529016489955,0.0867856407056585,ST
1.53333333333333,1.79622340202332,-0.863120317459106,9.44049072265625,0.182927995920181,-0.297257989645004,-0.182927995920181,-1255.5,1.5,-849.300048828125,2.46556211883401,0.187801045104513,0.0907681328977541,ST
1.56666666666667,1.87158930301666,-0.974973022937775,9.4913330078125,0.0762199983000755,-0.46494197845459,-0.518296003341675,-1257.90002441406,-2.10000014305115,-837.300048828125,2.46643321269534,0.194537361020872,0.101970590189166,ST
1.6,1.91405749320984,-1.08802211284637,9.41417217254639,0.0381099991500378,-0.365855991840363,-0.731711983680725,-1260.30004882812,-3.90000009536743,-854.100036621094,2.46817501986575,0.200003396177645,0.114597457562315,ST
1.63333333333333,1.9008983373642,-1.14305126667023,9.37409687042236,0.0685980021953583,0.114329993724823,-1.09756803512573,-1262.70007324219,-2.70000004768372,-854.100036621094,2.47433099032593,0.198678842331347,0.120784615535411,ST
1.66666666666667,1.75076448917389,-1.15202331542969,9.40819072723389,0.266770005226135,0.243903994560242,-1.36433792114258,-1274.70007324219,2.70000004768372,-856.500061035156,2.48260339682704,0.18271332477751,0.120926809326964,ST
1.7,1.60661196708679,-1.07067596912384,9.497314453125,0.434453994035721,0.0304879993200302,-1.40244793891907,-1262.70007324219,-1.5,-851.700012207031,2.49254435125841,0.166957967375032,0.11120935976455,ST
1.73333333333333,1.69394087791443,-1.06947958469391,9.27061748504639,0.548784017562866,-0.419209986925125,-1.05945801734924,-1255.5,-0.900000035762787,-837.300048828125,2.49779925106139,0.180333459851143,0.113549244948088,ST
1.76666666666667,1.76511991024017,-1.0515353679657,9.33282470703125,0.388722002506256,-0.541162014007568,-0.823175966739655,-1265.10009765625,-2.70000004768372,-873.300048828125,2.5028641011013,0.186824182656214,0.111286263907005,ST
1.8,1.81715834140778,-1.01445043087006,9.40280723571777,0.327746003866196,-0.495429992675781,-0.388722002506256,-1250.70007324219,0.900000035762787,-856.500061035156,2.50537847073359,0.190712684760294,0.106843078981143,ST
1.83333333333333,1.84287846088409,-0.973178625106812,9.38905048370361,0.37347799539566,-0.320124000310898,-0.0533539988100529,-1262.70007324219,-0.900000035762787,-846.900024414062,2.50583635888379,0.193346129769777,0.10266656164056,ST
1.86666666666667,1.8386914730072,-0.963010191917419,9.54157638549805,0.457319974899292,-0.0762199983000755,0.259148001670837,-1274.70007324219,4.5,-842.100036621094,2.50402872814385,0.189550968917811,0.0999023752771086,ST
1.9,1.83390629291534,-0.898410737514496,9.35675048828125,0.670735955238342,0.0990860015153885,0.548784017562866,-1257.90002441406,-5.70000028610229,-851.700012207031,2.50084961183031,0.192382464998412,0.0947987052708461,ST
1.93333333333333,1.80160665512085,-0.814072608947754,9.533203125,0.518296003341675,0.0228659994900227,0.533540010452271,-1267.5,-6.90000009536743,-844.500061035156,2.4985167749645,0.186046170258017,0.084532588642302,ST
1.96666666666667,1.81596207618713,-0.763230443000793,9.40699481964111,0.586893975734711,0.114329993724823,0.754577994346619,-1257.90002441406,1.5,-839.700012207031,2.49399915668452,0.189738061447437,0.0802345355832987,ST
2.0,1.79921400547028,-0.756052732467651,9.38187217712402,0.419209986925125,0.297257989645004,0.769822001457214,-1262.70007324219,2.10000014305115,-842.100036621094,2.48893001727842,0.18827098943064,0.079932175644022,ST
2.03333333333333,1.68078172206879,-0.790146887302399,9.39921855926514,0.259148001670837,0.457319974899292,0.708845973014832,-1248.30004882812,-3.30000019073486,-849.300048828125,2.48340094228358,0.175538086956819,0.0835959353637811,ST
2.06666666666667,1.54380702972412,-0.764426708221436,9.41895771026611,0.182927995920181,0.426831990480423,0.617381989955902,-1255.5,-0.300000011920929,-856.500061035156,2.48004087315197,0.161283037866259,0.0808610568590227,ST
2.1,1.52406823635101,-0.815867006778717,9.44886493682861,0.0762199983000755,0.236281991004944,0.503051996231079,-1245.90002441406,-5.10000038146973,-844.500061035156,2.47593364122764,0.158871388400147,0.0860872920841254,ST
2.13333333333333,1.51569426059723,-0.82962429523468,9.42134952545166,0.114329993724823,-0.0609759986400604,0.403965979814529,-1257.90002441406,-3.90000009536743,-844.500061035156,2.47300890943225,0.158950664091149,0.0877256295495399,ST
2.16666666666667,1.6263507604599,-0.87388688325882,9.38007831573486,0.0381099991500378,-0.228659987449646,0.320124000310898,-1245.90002441406,-1.5,-846.900024414062,2.47000176853792,0.171145877564067,0.0928679352054921,ST
2.2,1.65506160259247,-0.894223749637604,9.42194843292236,-0.0533539988100529,-0.358233988285065,0.160062000155449,-1248.30004882812,-8.10000038146973,-837.300048828125,2.46853141461594,0.173688389967245,0.0947540524448706,ST
2.23333333333333,1.63950991630554,-0.899008870124817,9.47578048706055,0.0381099991500378,-0.358233988285065,0.129574000835419,-1250.70007324219,1.5,-846.900024414062,2.46750416019006,0.171205606081899,0.0945761162748346,ST
2.26666666666667,1.68855762481689,-0.884653449058533,9.44228458404541,0.106707997620106,-0.25152599811554,0.221037998795509,-1253.10009765625,-0.900000035762787,-849.300048828125,2.46608346352998,0.176538291848571,0.093322880005679,ST
2.3,1.64489316940308,-0.856540739536285,9.50808048248291,0.236281991004944,-0.236281991004944,0.320124000310898,-1255.5,-0.300000011920929,-861.300048828125,2.46435055550255,0.171054835405108,0.0895795990623746,ST
2.33333333333333,1.80519545078278,-0.869101762771606,9.38187217712402,0.190549999475479,-0.152439996600151,0.403965979814529,-1253.10009765625,-3.30000019073486,-837.300048828125,2.46107687949856,0.189273731196186,0.0921466930058068,ST
2.36666666666667,1.75734400749207,-0.832016885280609,9.48355674743652,0.152439996600151,-0.3125019967556,0.25152599811554,-1245.90002441406,-5.70000028610229,-837.300048828125,2.45999112823942,0.183109781827346,0.087382199558184,ST
2.4,1.75913846492767,-0.858933329582214,9.401611328125,0.160062000155449,-0.160062000155449,0.3125019967556,-1250.70007324219,-5.70000028610229,-844.500061035156,2.45713615078764,0.184434058434503,0.0908905838521119,ST
2.43333333333333,1.62395811080933,-0.827231705188751,9.40220928192139,0.144817993044853,0.106707997620106,0.419209986925125,-1255.5,-3.90000009536743,-854.100036621094,2.45483750465482,0.170263351120986,0.0876554271717929,ST
2.46666666666667,1.60421943664551,-0.893625617027283,9.43570518493652,0.198172003030777,0.167683988809586,0.548784017562866,-1255.5,-2.70000004768372,-839.700012207031,2.44989300876512,0.16731013228423,0.0941872774725576,ST
2.5,1.49356305599213,-0.878073871135712,9.51944541931152,0.266770005226135,0.144817993044853,0.541162014007568,-1262.70007324219,-2.70000004768372,-854.100036621094,2.44641882948536,0.154735127094308,0.0916763352802479,ST
2.53333333333333,1.4600670337677,-0.86491471529007,9.58105373382568,0.304879993200302,0.0152439996600151,0.708845973014832,-1257.90002441406,-2.10000014305115,-844.500061035156,2.44201326905626,0.150538748468877,0.0897084271014572,ST
2.56666666666667,1.46664655208588,-0.890036761760712,9.48295879364014,0.335367977619171,-0.0457319989800453,0.792688012123108,-1250.70007324219,-0.300000011920929,-844.500061035156,2.43619897133914,0.152708730871936,0.0931671552864735,ST
2.6,1.41042113304138,-0.872092425823212,9.59122276306152,0.419209986925125,-0.205793991684914,0.830797970294952,-1255.5,-1.5,-854.100036621094,2.43077580659975,0.145715461434104,0.0901933608121187,ST
2.63333333333333,1.41221559047699,-0.806894838809967,9.42374229431152,0.564027965068817,-0.564027965068817,0.868907988071442,-1243.5,-5.10000038146973,-861.300048828125,2.42494401543104,0.149038783752078,0.0847184060029422,ST
2.66666666666667,1.35060679912567,-0.711790144443512,9.49551963806152,0.663114011287689,-0.419209986925125,0.967993974685669,-1260.30004882812,-2.70000004768372,-849.300048828125,2.41922531198902,0.141568304880386,0.0740062373574613,ST
2.7,1.53662931919098,-0.718967854976654,9.49851036071777,0.533540010452271,-0.541162014007568,1.04421401023865,-1255.5,0.900000035762787,-846.900024414062,2.41179451371067,0.160508050412909,0.0749099093518426,ST
2.73333333333333,1.40982294082642,-0.683079302310944,9.42852783203125,0.480185985565186,-0.83841997385025,1.01372599601746,-1255.5,2.70000004768372,-854.100036621094,2.40509918566448,0.149513461910542,0.0718049274385329,ST
2.76666666666667,1.61020088195801,-0.862522184848785,9.41716289520264,0.37347799539566,-0.861285984516144,0.922261953353882,-1255.5,-3.90000009536743,-834.900024414062,2.39549546329336,0.169758698511497,0.0907451213252427,ST
2.8,1.68018364906311,-0.896018147468567,9.67675685882568,0.495429992675781,-1.19665396213531,0.746955990791321,-1245.90002441406,1.5,-854.100036621094,2.38946639181286,0.173117831420291,0.0917152638792852,ST
2.83333333333333,1.68018364906311,-0.932504892349243,9.81433010101318,0.807931959629059,-2.11129403114319,0.769822001457214,-1250.70007324219,3.90000009536743,-844.500061035156,2.38183636796902,0.17235761482064,0.0935970729960715,ST
2.86666666666667,1.70052051544189,-0.991122901439667,9.84184455871582,1.41006994247437,-3.41465592384338,0.868907988071442,-1269.90002441406,1.5,-839.700012207031,2.37201899145465,0.175989357570801,0.0982222952573285,ST
2.9,1.76930689811707,-0.761435985565186,9.14859676361084,2.24848985671997,-5.04576396942139,0.510673999786377,-1281.90002441406,-0.900000035762787,-844.500061035156,2.36693182684433,0.198820509974218,0.0796674373976724,ST
2.93333333333333,2.09050965309143,-0.579600512981415,8.64854907989502,2.16464805603027,-2.80489587783813,1.04421401023865,-1277.10009765625,0.900000035762787,-839.700012207031,2.35868984203416,0.241112317147379,0.063780965570772,ST
2.96666666666667,2.27593398094177,-0.559263706207275,8.85311412811279,0.884151995182037,1.15092194080353,1.70732796192169,-1277.10009765625,-3.30000019073486,-834.900024414062,2.34662093902581,0.248900248465502,0.0622782407465864,ST
3.0,2.16946458816528,-0.56763768196106,9.09835243225098,-0.37347799539566,2.40092992782593,1.94360995292664,-1267.5,-3.90000009536743,-844.500061035156,2.33582236718761,0.229479479623304,0.0636758954164476,ST
3.03333333333333,1.47741317749023,-0.690257012844086,9.3477783203125,-1.12043392658234,1.79879200458527,2.24848985671997,-1267.5,-5.70000028610229,-851.700012207031,2.32150511576192,0.15384266185124,0.0760977537104019,ST
3.06666666666667,1.05931115150452,-0.839194595813751,9.32624530792236,-1.35671591758728,0.952749967575073,2.61434602737427,-1269.90002441406,-5.70000028610229,-856.500061035156,2.30454667050582,0.111102891850552,0.0924079089694504,ST
3.1,0.96061760187149,-1.04914271831512,9.401611328125,-1.44055795669556,-0.137196004390717,2.98020195960999,-1257.90002441406,-4.5,-849.300048828125,2.28281122746942,0.100924785791304,0.114014000907608,ST
3.13333333333333,0.78775429725647,-1.00607645511627,9.40280723571777,-1.11281192302704,-0.746955990791321,3.13264203071594,-1274.70007324219,-2.10000014305115,-827.700012207031,2.26252986471609,0.0839605844557692,0.109050555491662,ST
3.16666666666667,0.856540739536285,-0.87986832857132,9.6881217956543,-0.480185985565186,-1.91312193870544,3.71953582763672,-1269.90002441406,-5.10000038146973,-851.700012207031,2.23826445696395,0.0904878609864645,0.0921693617916811,ST
3.2,0.948056638240814,-0.616087257862091,9.60737228393555,-0.0685980021953583,-3.01068997383118,4.26832008361816,-1269.90002441406,-0.300000011920929,-851.700012207031,2.21267857747455,0.102756876859629,0.0652862382069847,ST
3.23333333333333,1.55935871601105,-0.738706588745117,8.7221212387085,0.0685980021953583,-3.84910988807678,4.65704202651978,-1274.70007324219,-0.300000011920929,-846.900024414062,2.17589279849866,0.181712748356474,0.0857850435613732,ST
3.26666666666667,1.67659473419189,-0.694444000720978,9.12586688995361,-0.518296003341675,-3.41465592384338,3.7805118560791,-1303.5,3.90000009536743,-839.700012207031,2.15269226680145,0.186543942235065,0.078272071355816,ST
3.3,2.01095676422119,-0.730332553386688,9.31906795501709,-0.411587983369827,-3.39178991317749,2.90398192405701,-1291.5,1.5,-837.300048828125,2.13324454533957,0.217019936586542,0.0801128520810964,ST
3.33333333333333,2.32438349723816,-0.890634894371033,9.47578048706055,-0.92988395690918,-3.71953582763672,0.87652999162674,-1281.90002441406,5.70000028610229,-827.700012207031,2.1232130387316,0.245597627244066,0.0957317327444446,ST
3.36666666666667,2.10486507415771,-0.812876284122467,9.64326095581055,-0.6250039935112,-3.76526784896851,-0.243903994560242,-1291.5,9.90000057220459,-837.300048828125,2.12596439089325,0.221054079514505,0.0853431549297985,ST
3.4,2.46434903144836,-1.02222633361816,8.72331714630127,-0.92988395690918,-3.68904781341553,-1.47104597091675,-1291.5,3.30000019073486,-834.900024414062,2.12606454597588,0.279516442968414,0.117362219630692,ST
3.43333333333333,1.48937594890594,-0.941477060317993,9.27899169921875,-1.28811800479889,-2.62959003448486,-3.14026403427124,-1296.30004882812,4.5,-818.100036621094,2.14914807484907,0.164689104095942,0.102660235146431,ST
3.46666666666667,0.808091163635254,-0.954038023948669,8.49004173278809,-0.861285984516144,-1.63110792636871,-3.71191382408142,-1296.30004882812,-2.10000014305115,-825.300048828125,2.17191942509418,0.0984463286265691,0.112695533960543,ST
3.5,0.0161498598754406,-1.13886415958405,8.99307918548584,-0.701223969459534,-0.739333987236023,-3.83386588096619,-1310.70007324219,5.70000028610229,-820.500061035156,2.19483012405536,0.0050623518656701,0.126951176238515,ST
3.53333333333333,0.229088753461838,-1.09220910072327,8.71554088592529,-0.617381989955902,-1.6615959405899,-3.7728898525238,-1308.30004882812,0.900000035762787,-818.100036621094,2.21731896937485,0.0294752580979037,0.125587751289841,ST
3.56666666666667,0.562254369258881,-1.21722090244293,8.39254379272461,-0.457319974899292,-2.4923939704895,-4.10825777053833,-1310.70007324219,6.30000019073486,-820.500061035156,2.24151887562581,0.0711650516651056,0.14421444883811,ST
3.6,1.60362136363983,-1.41939330101013,8.53729438781738,-0.6250039935112,-3.41465592384338,-4.01679372787476,-1296.30004882812,5.70000028610229,-815.700012207031,2.26225844692916,0.189190411189141,0.164553876793211,ST
3.63333333333333,2.47691011428833,-1.2238005399704,8.43082523345947,-0.510673999786377,-4.49697971343994,-4.1997218132019,-1329.90002441406,1.5,-810.900024414062,2.28942220388484,0.290510501991844,0.143516427297824,ST
3.66666666666667,3.94535112380981,-1.60122871398926,8.644362449646,-0.205793991684914,-4.44362592697144,-3.17075204849243,-1320.30004882812,-5.10000038146973,-803.700012207031,2.29173057118785,0.429417152969983,0.181397991325795,ST
3.7,5.38268852233887,-1.57072341442108,8.63539028167725,-0.243903994560242,-5.16771602630615,-2.43141794204712,-1313.10009765625,-5.70000028610229,-815.700012207031,2.30185557449995,0.558148740046685,0.178815572826908,ST
3.73333333333333,6.22965908050537,-1.69274461269379,8.96377086639404,0.0990860015153885,-3.87197589874268,-1.38720393180847,-1337.10009765625,-1.5,-820.500061035156,2.30148479011498,0.605898308491687,0.185642430823783,ST
3.76666666666667,6.60469484329224,-1.85543954372406,9.36033916473389,0.693601965904236,-2.80489587783813,-0.381099998950958,-1332.30004882812,-5.70000028610229,-813.300048828125,2.29291361933777,0.610315780712388,0.194591504179109,ST
3.8,7.19506168365479,-2.1951847076416,9.52841758728027,1.32622802257538,-1.6844619512558,-0.152439996600151,-1325.10009765625,-5.10000038146973,-796.500061035156,2.26967287447059,0.63697940419513,0.224039180800895,ST
3.83333333333333,6.36184883117676,-2.2071475982666,9.15338230133057,2.44666194915771,-0.205793991684914,-0.0914639979600906,-1341.90002441406,-5.10000038146973,-791.700012207031,2.25556058272991,0.594907824842894,0.23224109449033,ST
3.86666666666667,6.60170412063599,-2.54988360404968,9.29633808135986,2.19513607025146,1.85214591026306,0.114329993724823,-1344.30004882812,-5.70000028610229,-796.500061035156,2.23231475455824,0.597289993492873,0.263041533384755,ST
3.9,5.45626020431519,-2.19458651542664,9.93276214599609,3.08691000938416,2.72105383872986,1.60824191570282,-1337.10009765625,-8.70000076293945,-803.700012207031,2.24301682300797,0.488435145501848,0.213582166491853,ST
3.93333333333333,5.98501873016357,-1.80519545078278,9.12168025970459,3.49849796295166,3.84910988807678,2.82776188850403,-1332.30004882812,-5.70000028610229,-806.100036621094,2.22957208537842,0.563799943430289,0.19165800854817,ST
3.96666666666667,5.43951225280762,-0.974973022937775,9.02777194976807,3.47563195228577,5.29728984832764,3.04117798805237,-1322.70007324219,-6.90000009536743,-810.900024414062,2.24855406164938,0.530214496541732,0.104666887867808,ST
4.0,4.87905216217041,-0.506028950214386,9.30291748046875,3.17075204849243,5.83083009719849,3.15550804138184,-1315.5,-8.10000038146973,-813.300048828125,2.24827702751734,0.472563949065744,0.0518903718999828,ST
4.03333333333333,4.53811073303223,-0.0065795728005468,9.97941780090332,2.75154185295105,3.86435389518738,2.67532205581665,-1310.70007324219,-6.30000019073486,-822.900024414062,2.24757415620724,0.420508640545311,-0.0015828122565631,ST
4.06666666666667,3.86280727386475,0.588572680950165,9.28856182098389,2.4923939704895,3.22410583496094,2.10367202758789,-1310.70007324219,-5.70000028610229,-827.700012207031,2.25331744357914,0.388414173699177,-0.0652009652937232,ST
4.1,3.41539645195007,0.954038023948669,9.48116397857666,0.670735955238342,2.46190595626831,0.182927995920181,-1308.30004882812,-3.90000009536743,-834.900024414062,2.26210396715688,0.340506543835039,-0.100758188685619,ST
4.13333333333333,2.63123083114624,1.27524077892303,9.10134315490723,0.586893975734711,2.30184388160706,-0.594515979290009,-1303.5,-4.5,-815.700012207031,2.2747742384226,0.275212749178324,-0.140080560908102,ST
4.16666666666667,2.45059180259705,1.73401641845703,7.94991827011108,-0.487807989120483,3.10977602005005,-1.93598794937134,-1305.90002441406,-5.10000038146973,-832.500061035156,2.30393506543361,0.286393263557184,-0.213617652989893,ST
4.2,2.48707842826843,1.97446990013123,7.04552602767944,-1.07470202445984,2.9344699382782,-3.16313004493713,-1286.70007324219,-12.9000005722046,-834.900024414062,2.33743571632693,0.320830817067468,-0.271926224957692,ST
4.23333333333333,2.20176434516907,1.85603761672974,8.3991231918335,-1.85214591026306,2.62196803092957,-3.93295192718506,-1291.5,-6.30000019073486,-818.100036621094,2.34470958065873,0.245563285038295,-0.216383596894982,ST
4.26666666666667,3.00507020950317,1.41341185569763,9.06964206695557,-2.26373386383057,0.129574000835419,-5.22106981277466,-1286.70007324219,-0.900000035762787,-839.700012207031,2.36277906158853,0.313888237360408,-0.154307330245952,ST
4.3,3.32746934890747,1.03000223636627,8.91711521148682,-2.63721203804016,-1.78354799747467,-5.75461006164551,-1286.70007324219,-5.10000038146973,-849.300048828125,2.39319699385546,0.356535024019943,-0.114581313046394,ST
4.33333333333333,3.16836333274841,0.0903195887804031,8.89797496795654,-3.02593398094177,0.6250039935112,-4.05490398406982,-1279.5,-2.10000014305115,-851.700012207031,2.38921153199547,0.341032599188694,-0.0083177587282464,ST
4.36666666666667,3.23714971542358,-1.11015331745148,10.1582622528076,-3.87959790229797,1.2500079870224,-2.41617393493652,-1286.70007324219,-7.50000047683716,-825.300048828125,2.37532782596184,0.305354938098632,0.113324627812769,ST
4.4,3.85443329811096,-2.2113344669342,10.1851787567139,-3.75764584541321,0.952749967575073,-1.37958192825317,-1286.70007324219,-1.5,-837.300048828125,2.35857511003464,0.352533970085562,0.218050450273515,ST
4.43333333333333,2.75085949897766,-2.41051626205444,10.620626449585,-3.01068997383118,3.01831197738647,-1.02134799957275,-1274.70007324219,-0.300000011920929,-822.900024414062,2.37289470466194,0.243366027541446,0.227646744599706,ST
4.46666666666667,2.85673093795776,-2.68207311630249,9.06425857543945,-3.07928800582886,4.16923379898071,-1.08994603157043,-1267.5,-9.90000057220459,-846.900024414062,2.37650804819591,0.286731330276529,0.291441798586238,ST
4.5,2.07435989379883,-2.63601613044739,8.19515705108643,-2.80489587783813,5.19820404052734,-0.525918006896973,-1262.70007324219,-5.70000028610229,-844.500061035156,2.38861247908247,0.22862384833103,0.315032939264846,ST
4.53333333333333,0.901999592781067,-1.92183339595795,7.78662538528442,-1.6692179441452,6.41010189056396,0.518296003341675,-1253.10009765625,-4.5,-849.300048828125,2.40888511106829,0.102493906727123,0.245539573260813,ST
4.56666666666667,-0.482103228569031,-1.09579789638519,8.23762512207031,-0.0381099991500378,7.157057762146,1.98171997070312,-1248.30004882812,-3.90000009536743,-842.100036621094,2.40574943089233,-0.0686825192500528,0.133606516677659,ST
4.6,-1.54560148715973,-0.491075366735458,9.28975868225098,0.99848198890686,6.88266563415527,2.73629784584045,-1238.70007324219,0.300000011920929,-851.700012207031,2.38268099974214,-0.175585333011771,0.0513922522862261,ST
4.63333333333333,-3.2126259803772,-0.860727727413177,9.98480033874512,0.350611984729767,6.08235597610474,4.1463680267334,-1233.90002441406,-8.10000038146973,-856.500061035156,2.36674138626678,-0.320311208394027,0.083075652477322,ST
4.66666666666667,-2.65216588973999,-1.18193054199219,9.34239482879639,0.701223969459534,5.5030837059021,3.07928800582886,-1219.5,-5.70000028610229,-885.300048828125,2.3651033964643,-0.285151837649487,0.122916603423916,ST
4.7,-1.22679126262665,-3.23116827011108,10.6714687347412,-2.94971394538879,1.37958192825317,-0.67835795879364,-1217.10009765625,-0.300000011920929,-887.700012207031,2.40315503398018,-0.11374382687952,0.297274844329003,ST
4.73333333333333,-1.56593835353851,-2.6037163734436,9.50030517578125,-1.77592599391937,-2.78965187072754,-3.08691000938416,-1214.70007324219,0.300000011920929,-882.900024414062,2.4119787193453,-0.151049316380895,0.271507533438733,ST
4.76666666666667,-0.772800743579865,-2.43922710418701,8.56779956817627,0.419209986925125,-3.00306797027588,-1.75305998325348,-1221.90002441406,0.300000011920929,-873.300048828125,2.41884435767541,-0.0811773412753518,0.276716604821229,ST
4.8,-0.982748925685883,-1.94874978065491,9.49910831451416,1.87501192092896,-1.19665396213531,-0.663114011287689,-1221.90002441406,-0.300000011920929,-878.100036621094,2.41551663706726,-0.0985113283139651,0.200090136680431,ST
4.83333333333333,-0.806296706199646,-1.08204066753387,9.54875469207764,2.9116039276123,0.381099998950958,-0.0152439996600151,-1229.10009765625,-5.70000028610229,-873.300048828125,2.40930760308421,-0.0844922512215144,0.108570742240646,ST
4.86666666666667,-1.21722090244293,-0.44023323059082,10.3239479064941,2.78202986717224,2.63721203804016,1.41769194602966,-1217.10009765625,2.10000014305115,-868.500061035156,2.39608110446972,-0.121503754200941,0.0383576459364816,ST
4.9,-1.38230836391449,-0.330174922943115,10.0045394897461,1.83690190315247,3.66618180274963,2.29422187805176,-1217.10009765625,-2.10000014305115,-870.900024414062,2.38245775295701,-0.143510877483724,0.0293346625417139,ST
4.93333333333333,-0.952841758728027,-0.218920320272446,10.1540746688843,0.693601965904236,3.55185198783875,2.33233189582825,-1209.90002441406,-2.10000014305115,-878.100036621094,2.36763778292684,-0.100357437132979,0.0200547659377765,ST
4.96666666666667,-0.39537250995636,-0.0394774377346039,10.2994241714478,0.320124000310898,2.37806391716003,1.65397393703461,-1195.5,-8.10000038146973,-887.700012207031,2.356210068815,-0.0432375709592757,0.0033469389920754,ST
5.0,0.22968690097332,-0.302062213420868,8.78612232208252,0.266770005226135,1.28811800479889,0.426831990480423,-1202.70007324219,-5.10000038146973,-870.900024414062,2.35401101819557,0.0230297861359792,0.0335397061737712,ST
5.03333333333333,-0.0029907147400081,-0.382213354110718,7.85481357574463,-0.975615978240967,1.70732796192169,-0.457319974899292,-1195.5,0.900000035762787,-870.900024414062,2.35725770956521,-0.0029953431713806,0.0501206807760015,ST
5.06666666666667,0.068188302218914,-1.34163463115692,8.08988380432129,-2.33995389938354,2.59910202026367,-1.02897000312805,-1188.30004882812,-4.5,-878.100036621094,2.36592776824141,0.004036971163362,0.166971039820406,ST
5.1,-0.0645994395017624,-1.2818204164505,9.19166278839111,-1.87501192092896,3.16313004493713,-0.99848198890686,-1205.10009765625,3.30000019073486,-882.900024414062,2.37550262468851,-0.0120344208129228,0.142081833777371,ST
5.13333333333333,0.194994613528252,-1.24234294891357,8.89139556884766,-0.525918006896973,2.97257995605469,-0.0685980021953583,-1185.90002441406,-5.70000028610229,-899.700012207031,2.37869589716541,0.016298949987074,0.139755333425608,ST
5.16666666666667,0.0215331465005875,-1.05332982540131,9.12646579742432,-0.640248000621796,4.60368776321411,-0.350611984729767,-1188.30004882812,9.30000019073486,-882.900024414062,2.38459425148744,-0.0052968461258175,0.116320204759033,ST
5.2,-0.0909177288413048,-2.35907578468323,9.44527530670166,-2.33995389938354,5.32015609741211,-1.36433792114258,-1159.5,0.300000011920929,-887.700012207031,2.40146107676112,-0.0176390502174036,0.24729024461861,ST
5.23333333333333,-0.968393445014954,-3.08223080635071,10.3735933303833,-2.90398192405701,5.74698781967163,-1.89025592803955,-1157.10009765625,-2.10000014305115,-885.300048828125,2.42428856381195,-0.0969253439456443,0.293866229308151,ST
5.26666666666667,-2.15809988975525,-3.77488040924072,10.5901212692261,-1.57013201713562,6.32626008987427,-1.40244793891907,-1149.90002441406,3.90000009536743,-892.500061035156,2.45135886469091,-0.197971221695931,0.345678265084273,ST
5.3,-2.984135389328,-3.43453693389893,10.006932258606,0.716467976570129,5.66314601898193,-0.3125019967556,-1130.70007324219,2.10000014305115,-875.700012207031,2.46382436131368,-0.283550016683182,0.330539830526814,ST
5.33333333333333,-3.48119211196899,-2.64977335929871,9.66300010681152,1.57775402069092,4.83997011184692,0.0685980021953583,-1147.5,5.70000028610229,-899.700012207031,2.45587354830018,-0.34213292686013,0.266123514375145,ST
5.36666666666667,-3.9076681137085,-1.98344206809998,9.75092697143555,2.01982998847961,3.19361782073975,0.960371971130371,-1142.70007324219,-5.70000028610229,-892.500061035156,2.43485565502278,-0.379546336928841,0.197791546268282,ST
5.4,-2.95482635498047,-1.28301668167114,9.377685546875,2.35519790649414,0.0762199983000755,1.36433792114258,-1123.5,-1.5,-890.100036621094,2.40906122637224,-0.303615874443178,0.131603221095212,ST
5.43333333333333,-1.64549136161804,-1.21004319190979,8.14491271972656,2.41617393493652,-1.37958192825317,0.884151995182037,-1125.90002441406,-3.90000009536743,-899.700012207031,2.40863622663274,-0.196401693578716,0.142756499112486,ST
5.46666666666667,-1.81237316131592,-0.922336459159851,7.55693817138672,2.20275783538818,0.114329993724823,-1.14329993724823,-1128.30004882812,-4.5,-892.500061035156,2.41362849491146,-0.233217416490295,0.118381041053342,ST
5.5,-3.01583695411682,-1.18193054199219,7.95051622390747,2.0731840133667,1.28049600124359,-1.85214591026306,-1128.30004882812,-2.70000004768372,-899.700012207031,2.43767881161285,-0.359138242520623,0.144906979788936,ST
5.53333333333333,-3.79103016853333,-1.07486295700073,7.84703779220581,1.86738991737366,1.98171997070312,-1.99696397781372,-1123.5,-6.90000009536743,-890.100036621094,2.45321329494922,-0.448708672152638,0.134818833748643,ST
5.56666666666667,-4.58356952667236,-0.844577848911285,8.80945014953613,1.6692179441452,1.57013201713562,-0.907018005847931,-1116.30004882812,-9.90000057220459,-902.100036621094,2.44609866459225,-0.480135871700595,0.094052084583208,ST
5.6,-4.80607891082764,-0.0986935868859291,8.488844871521,2.45428395271301,-0.411587983369827,0.800309956073761,-1121.10009765625,-2.10000014305115,-890.100036621094,2.4078671133454,-0.514035897445276,0.0076358222156786,ST
5.63333333333333,-5.19307708740234,0.22968690097332,9.18927001953125,2.69056582450867,-1.88263392448425,2.27897787094116,-1113.90002441406,-10.5,-892.500061035156,2.38470964333334,-0.51089201910589,-0.0313877299403042,ST
5.66666666666667,-4.81804180145264,0.900803327560425,9.88251781463623,2.35519790649414,-3.65093803405762,3.21648383140564,-1125.90002441406,-13.5000009536743,-892.500061035156,2.3434448940753,-0.445536215398885,-0.0970165744369348,ST
5.7,-3.73659920692444,1.22140789031982,9.66120529174805,2.40092992782593,-5.66314601898193,2.90398192405701,-1125.90002441406,-12.9000005722046,-904.500061035156,2.32245477889169,-0.35671503412986,-0.131079672237285,ST
5.73333333333333,-3.32088971138,0.991721034049988,8.35844993591309,0.579271972179413,-6.08997774124146,-0.25152599811554,-1154.70007324219,-11.1000003814697,-882.900024414062,2.33490478837926,-0.36523718823078,-0.118541473341636,ST
5.76666666666667,-3.98722100257874,0.547898948192596,9.13663387298584,-0.945127964019775,-4.68753004074097,-1.41006994247437,-1152.30004882812,-11.1000003814697,-887.700012207031,2.36563851311213,-0.402360099110411,-0.0577625557393226,ST
5.8,-3.97765064239502,0.165087461471558,9.37828350067139,-1.63110792636871,-4.12350177764893,-1.71494996547699,-1152.30004882812,-1.5,-885.300048828125,2.38947616743775,-0.394024090435898,-0.013914278936592,ST
5.83333333333333,-3.2168128490448,-0.194396466016769,8.52413558959961,-1.74543797969818,-3.47563195228577,-1.62348592281342,-1164.30004882812,-6.90000009536743,-887.700012207031,2.40953666536462,-0.355118604752667,0.026359223007973,ST
5.86666666666667,-2.47451758384705,-0.34811919927597,9.09476375579834,-2.05031800270081,-2.62959003448486,-1.90549993515015,-1159.5,-10.5,-885.300048828125,2.4217291086172,-0.261897547505176,0.0424951898168373,ST
5.9,-0.954038023948669,-0.820053994655609,8.33631896972656,-2.88111591339111,-3.08691000938416,-2.97257995605469,-1171.5,-6.30000019073486,-892.500061035156,2.44704627842746,-0.109425936249998,0.102895845522106,ST
5.93333333333333,-0.471336662769318,-1.05033910274506,9.19943904876709,-2.9420919418335,-1.51677799224854,-4.07776975631714,-1178.70007324219,-3.90000009536743,-885.300048828125,2.47447712940424,-0.0477769001229695,0.119053223848054,ST
5.96666666666667,0.356493204832077,-1.25909090042114,9.05708122253418,-2.25611186027527,-0.0914639979600906,-3.803377866745,-1173.90002441406,-3.90000009536743,-899.700012207031,2.4985944929329,0.0389765658803872,0.141567112247364,ST
6.0,0.319408357143402,-1.02342259883881,10.4310150146484,-2.0731840133667,1.99696397781372,-3.55947399139404,-1159.5,-3.90000009536743,-892.500061035156,2.52632687525356,0.0277218552064296,0.101532789403509,ST
6.03333333333333,0.766819298267365,-1.29976463317871,10.6278047561646,-1.76068198680878,2.95733594894409,-2.34757590293884,-1164.30004882812,-6.90000009536743,-899.700012207031,2.54283859595833,0.0663973971874942,0.124184312775247,ST
6.06666666666667,0.28710862994194,-1.26447427272797,10.9513998031616,-1.75305998325348,3.26983785629272,-1.94360995292664,-1157.10009765625,-7.50000047683716,-906.900024414062,2.55816617056269,0.0213289733192666,0.117993702908305,ST
6.1,-0.18482618033886,-1.4241783618927,10.9962606430054,-1.50915598869324,3.40703392028809,-0.594515979290009,-1154.70007324219,-1.5,-897.300048828125,2.5645556186923,-0.0218933150168391,0.131302584389137,ST
6.13333333333333,-1.21662282943726,-1.65745413303375,10.1116065979004,-0.663114011287689,4.87045812606812,1.16616594791412,-1152.30004882812,-5.10000038146973,-899.700012207031,2.56372009864874,-0.126123684760545,0.163312006173721,ST
6.16666666666667,-1.80100846290588,-1.58806955814362,9.12885761260986,-0.114329993724823,5.19820404052734,2.37044191360474,-1142.70007324219,-0.900000035762787,-887.700012207031,2.55532614021078,-0.200959761451609,0.171856177852734,ST
6.2,-2.4176938533783,-1.32608294487,7.73099803924561,0.434453994035721,4.42838191986084,3.41465592384338,-1133.10009765625,-2.10000014305115,-894.900024414062,2.53813534699472,-0.306669977053781,0.167728215596853,ST
6.23333333333333,-3.00806093215942,-1.66104304790497,7.44149684906006,0.137196004390717,4.54271173477173,3.62045001983643,-1121.10009765625,2.10000014305115,-887.700012207031,2.53957072431468,-0.383916237042481,0.216969608318613,ST
6.26666666666667,-3.76590824127197,-1.88115966320038,7.60179901123047,-0.121951997280121,5.29728984832764,2.75916385650635,-1111.5,-2.10000014305115,-882.900024414062,2.5408513108998,-0.457462150780305,0.241292006806953,ST
6.3,-4.25399303436279,-2.4296567440033,8.96975231170654,-0.0228659994900227,5.44972991943359,0.724089980125427,-1109.10009765625,2.10000014305115,-894.900024414062,2.55497818074198,-0.439033239900947,0.264871707869295,ST
6.33333333333333,-4.31201267242432,-2.69702672958374,8.22745704650879,0.381099998950958,4.12350177764893,-1.12805593013763,-1094.70007324219,0.300000011920929,-909.300048828125,2.59223854347475,-0.467947930631112,0.317513779933091,ST
6.36666666666667,-4.86948204040527,-2.51339673995972,8.44637680053711,0.914639949798584,2.46952795982361,-1.20427596569061,-1080.30004882812,-4.5,-897.300048828125,2.59243233927991,-0.507849131665133,0.289778750232749,ST
6.4,-5.08062648773193,-2.47092866897583,9.29334735870361,1.58537602424622,1.29574000835419,-0.602137982845306,-1089.90002441406,-1.5,-899.700012207031,2.58731568241384,-0.488220897796656,0.258337961044759,ST
6.43333333333333,-4.81684541702271,-2.16168880462646,9.56430625915527,2.01220798492432,-0.358233988285065,0.487807989120483,-1089.90002441406,-2.70000004768372,-894.900024414062,2.57188182917395,-0.456583581948145,0.218776490302853,ST
6.46666666666667,-3.78504872322083,-1.48518896102905,9.04033279418945,2.72105383872986,-0.647870004177094,0.685979962348938,-1087.5,-7.50000047683716,-899.700012207031,2.5492879662915,-0.391444806149816,0.158040188792428,ST
6.5,-2.57321095466614,-1.24234294891357,8.77415943145752,3.13264203071594,-0.548784017562866,-0.426831990480423,-1097.10009765625,2.70000004768372,-904.500061035156,2.55069681308684,-0.282368978062177,0.135535584200244,ST
6.53333333333333,-1.9589182138443,-1.33684957027435,9.00025749206543,2.89635992050171,0.907018005847931,-1.02134799957275,-1085.10009765625,-6.90000009536743,-914.100036621094,2.56370805711275,-0.214213667003633,0.142760551994406,ST
6.56666666666667,-1.78844749927521,-1.53064787387848,9.44108867645264,2.38568592071533,2.37044191360474,-2.5076379776001,-1094.70007324219,-5.10000038146973,-899.700012207031,2.58720609923345,-0.188578955119235,0.15734329201558,ST
6.6,-2.42307710647583,-1.71427774429321,9.36512470245361,1.89025592803955,2.33995389938354,-2.90398192405701,-1082.70007324219,-9.30000019073486,-911.700012207031,2.61765254160446,-0.251938341994085,0.179065843560426,ST
6.63333333333333,-3.26167368888855,-1.8267285823822,9.30471229553223,1.63872992992401,0.975615978240967,-2.4847719669342,-1068.30004882812,-13.5000009536743,-897.300048828125,2.64107688440433,-0.331309544842757,0.192409126693326,ST
6.66666666666667,-3.20903706550598,-1.54141438007355,7.77047538757324,1.86738991737366,-0.708845973014832,-2.02745199203491,-1068.30004882812,-10.5,-902.100036621094,2.65772715812951,-0.382534275373248,0.193843279618232,ST
6.7,-3.28619742393494,-1.4421226978302,6.81883001327515,1.18140995502472,-1.64635193347931,-1.62348592281342,-1077.90002441406,-10.5,-909.300048828125,2.67338331432171,-0.436528151243336,0.207195072070794,ST
6.73333333333333,-3.81017065048218,-1.0054783821106,6.5018138885498,1.08994603157043,-1.97409796714783,-1.12805593013763,-1089.90002441406,-12.3000001907349,-894.900024414062,2.6566358967161,-0.52060567985795,0.15276023952766,ST
6.76666666666667,-4.99269914627075,-0.656162858009338,7.08021831512451,0.655492007732391,-1.45580196380615,0.472563982009888,-1080.30004882812,-7.50000047683716,-899.700012207031,2.62267459217595,-0.608639138671926,0.0913411401783018,ST
6.8,-5.55076694488525,-0.239855334162712,8.06835079193115,-0.25152599811554,-1.32622802257538,1.95885396003723,-1087.5,-15.3000001907349,-899.700012207031,2.57513118779248,-0.600288594482453,0.0284229801230841,ST
6.83333333333333,-5.72362995147705,-0.264977335929871,9.00025749206543,-1.13567793369293,-2.53050398826599,3.74240183830261,-1085.10009765625,-12.9000005722046,-899.700012207031,2.55028291373732,-0.562461171080956,0.0272164203860712,ST
6.86666666666667,-5.18709564208984,-0.528758406639099,10.1965436935425,-1.6920839548111,-4.30642986297607,4.26832008361816,-1097.10009765625,-2.10000014305115,-894.900024414062,2.53091369814362,-0.46393977994126,0.0505722993301926,ST
6.9,-4.46872615814209,-0.496458679437637,10.6774501800537,-1.02897000312805,-5.12198400497437,3.37654590606689,-1101.90002441406,-13.5000009536743,-897.300048828125,2.50388263177218,-0.387992854649992,0.0457011896548326,ST
6.93333333333333,-3.49195861816406,-0.577806115150452,10.1199808120728,0.190549999475479,-5.24393606185913,2.17227005958557,-1118.70007324219,-5.70000028610229,-890.100036621094,2.49297327310708,-0.323626020376935,0.0551286543721037,ST
6.96666666666667,-2.60730528831482,-0.759641587734222,9.89926624298096,0.221037998795509,-3.29270386695862,0.327746003866196,-1128.30004882812,3.90000009536743,-894.900024414062,2.49577886055176,-0.252011503662768,0.075689123732734,ST
7.0,-1.62993955612183,-0.660947978496552,9.45783710479736,-0.175305992364883,-1.15092194080353,-1.60824191570282,-1123.5,-5.70000028610229,-894.900024414062,2.5039651308456,-0.169078442289039,0.0706035895375692,ST
7.03333333333333,-1.15920102596283,-0.169274464249611,9.90584564208984,-0.274392008781433,0.731711983680725,-1.99696397781372,-1116.30004882812,-2.10000014305115,-894.900024414062,2.51007412087891,-0.118062942866016,0.0183740119928778,ST
7.06666666666667,-0.342735916376114,0.102880589663982,9.4195556640625,-0.175305992364883,0.716467976570129,-1.75305998325348,-1118.70007324219,-6.90000009536743,-892.500061035156,2.51951256839061,-0.0383508130287954,-0.0102369188164225,ST
7.1,0.169872596859932,-0.233873903751373,9.37948036193848,-1.41769194602966,-1.53964400291443,-1.60824191570282,-1113.90002441406,-9.90000057220459,-897.300048828125,2.53082763523331,0.0204241788510364,0.0270763287345968,ST
7.13333333333333,-0.83261501789093,-0.337950766086578,9.52841758728027,-2.05031800270081,-3.62045001983643,-1.44055795669556,-1113.90002441406,-6.90000009536743,-885.300048828125,2.53877991344277,-0.079457720710171,0.039053963764292,ST
7.16666666666667,-1.5802937746048,-1.07725548744202,8.46731185913086,-1.34909391403198,-6.21192979812622,0.518296003341675,-1118.70007324219,-4.5,-906.900024414062,2.54132165799336,-0.171286996412255,0.127409426946175,ST
7.2,-1.65386533737183,-1.62934148311615,7.45824480056763,-1.34147191047668,-6.69211578369141,1.10518991947174,-1130.70007324219,-6.90000009536743,-892.500061035156,2.54133569115004,-0.201955228517854,0.215438414999925,ST
7.23333333333333,-1.85125243663788,-2.08692073822021,7.38048601150513,-1.40244793891907,-4.72563982009888,1.89787793159485,-1142.70007324219,-0.900000035762787,-887.700012207031,2.53349447853911,-0.229450911355446,0.276001830755146,ST
7.26666666666667,-2.00557327270508,-2.64259552955627,8.632399559021,-1.94360995292664,-2.40092992782593,1.64635193347931,-1159.5,-3.90000009536743,-890.100036621094,2.52191813540942,-0.215614017047827,0.299297974838613,ST
7.3,-2.31361699104309,-2.83938479423523,8.82141208648682,-2.23324584960938,-1.10518991947174,0.0304879993200302,-1149.90002441406,0.900000035762787,-899.700012207031,2.51990833687907,-0.242507993903922,0.314949054572864,ST
7.33333333333333,-2.14254808425903,-3.37173199653625,9.04451942443848,-2.59148001670837,0.800309956073761,-0.952749967575073,-1154.70007324219,-12.3000001907349,-899.700012207031,2.5340581056165,-0.21943872485501,0.36124507370283,ST
7.36666666666667,-1.7244461774826,-4.36764001846313,9.95309925079346,-2.79727387428284,1.85976791381836,-2.11891603469849,-1140.30004882812,3.90000009536743,-892.500061035156,2.55846368617402,-0.159567232405074,0.41846914165427,ST
7.4,-1.758540391922,-4.68166494369507,10.2952365875244,-2.25611186027527,1.69970595836639,-2.43903994560242,-1149.90002441406,0.300000011920929,-902.100036621094,2.57655925080342,-0.155227135068635,0.431366614873565,ST
7.43333333333333,-1.85902833938599,-4.77796602249146,10.4340057373047,-0.426831990480423,2.76678586006165,-0.87652999162674,-1137.90002441406,-0.900000035762787,-892.500061035156,2.5889400830129,-0.164267392280532,0.430735576564856,ST
7.46666666666667,-1.56773269176483,-3.83828353881836,9.97343635559082,1.63110792636871,3.50611996650696,1.95885396003723,-1130.70007324219,2.70000004768372,-890.100036621094,2.57701597450015,-0.152749386774533,0.365187640870155,ST
7.5,-1.31112945079803,-3.11931562423706,9.40101337432861,2.53050398826599,3.32319188117981,4.29880809783936,-1125.90002441406,0.900000035762787,-887.700012207031,2.55332976820514,-0.139626823909105,0.315819497451772,ST
7.53333333333333,-1.03598368167877,-2.66771769523621,8.45594692230225,2.82776188850403,3.10977602005005,5.51070594787598,-1121.10009765625,-2.70000004768372,-887.700012207031,2.52633976020425,-0.124531925056821,0.299911376902895,ST
7.56666666666667,-1.2118376493454,-2.15809988975525,8.488844871521,2.21037983894348,2.41617393493652,5.31253385543823,-1128.30004882812,-5.70000028610229,-899.700012207031,2.49089993367608,-0.143670292637403,0.244440876261111,ST
7.6,-1.71726846694946,-1.89431881904602,8.2980375289917,1.89787793159485,1.44055795669556,4.89332389831543,-1121.10009765625,-4.5,-885.300048828125,2.45965418435636,-0.202889297172805,0.219766336971231,ST
7.63333333333333,-2.20296049118042,-1.79682147502899,8.09167766571045,1.75305998325348,0.381099998950958,3.51374197006226,-1118.70007324219,4.5,-887.700012207031,2.44041562682086,-0.261009290336431,0.213980123688771,ST
7.66666666666667,-2.99849081039429,-1.71726846694946,8.42663860321045,1.60824191570282,-0.274392008781433,2.56099200248718,-1128.30004882812,-1.5,-904.500061035156,2.4230969197749,-0.334984804670805,0.196902804939703,ST
7.7,-2.70599889755249,-1.37572884559631,8.83576774597168,1.73781597614288,-0.632625997066498,2.53050398826599,-1111.5,-6.30000019073486,-894.900024414062,2.3963719872364,-0.293940940572036,0.150610231822056,ST
7.73333333333333,-2.55347228050232,-1.01923561096191,8.37878704071045,1.35671591758728,-0.716467976570129,2.70580983161926,-1123.5,-4.5,-906.900024414062,2.37248307158244,-0.293104002492204,0.117628473178451,ST
7.76666666666667,-2.65754914283752,-0.401353925466537,8.68443775177002,0.533540010452271,1.40244793891907,2.72105383872986,-1118.70007324219,-6.30000019073486,-906.900024414062,2.33627074006866,-0.299273591109005,0.0447252705902693,ST
7.8,-2.65156769752502,-0.0855344459414482,9.79100227355957,0.205793991684914,2.82013988494873,2.89635992050171,-1121.10009765625,-0.300000011920929,-880.500061035156,2.30880443971184,-0.269798251677341,0.0074389248977467,ST
7.83333333333333,-2.36625361442566,-0.148339450359344,9.58823204040527,0.37347799539566,2.70580983161926,2.56099200248718,-1101.90002441406,-5.10000038146973,-899.700012207031,2.29546761694671,-0.246988340444654,0.0136285311950068,ST
7.86666666666667,-2.4655454158783,-0.524571359157562,9.99377250671387,0.304879993200302,3.81862187385559,2.38568592071533,-1104.30004882812,-5.10000038146973,-909.300048828125,2.2909177648513,-0.248406380274911,0.050557565637271,ST
7.9,-2.88843250274658,-0.401952087879181,10.0218858718872,-0.137196004390717,4.28356409072876,1.56251001358032,-1092.30004882812,-8.70000076293945,-904.500061035156,2.27860692798317,-0.287681858820298,0.039693009901827,ST
7.93333333333333,-3.18331694602966,-0.228490620851517,9.92917346954346,-0.350611984729767,4.10825777053833,0.830797970294952,-1092.30004882812,-6.30000019073486,-892.500061035156,2.26842522555857,-0.317116111266733,0.0233458168888091,ST
7.96666666666667,-3.38847994804382,-0.515001118183136,9.61215782165527,-1.15854394435883,3.42227792739868,-0.0914639979600906,-1082.70007324219,-5.10000038146973,-899.700012207031,2.27788199819757,-0.344143553656468,0.0553822418744239,ST
8.0,-3.35199332237244,-0.553282260894775,8.74664497375488,-1.35671591758728,2.01220798492432,-0.92988395690918,-1082.70007324219,-4.5,-897.300048828125,2.2848353255174,-0.36840054021962,0.0661160264188967,ST
8.03333333333333,-3.52007126808167,-0.782370984554291,8.18618488311768,-1.6615959405899,0.320124000310898,-0.937505960464478,-1073.10009765625,-3.30000019073486,-897.300048828125,2.29862262058994,-0.404406855062171,0.0984948050878802,ST
8.06666666666667,-3.77308583259583,-0.957028746604919,6.95640277862549,-1.21189796924591,-2.14178204536438,-0.411587983369827,-1085.10009765625,-3.30000019073486,-897.300048828125,2.31321172161204,-0.488226970131217,0.138425761620359,ST
8.1,-4.30543327331543,-1.54081630706787,7.28837203979492,-1.86738991737366,-2.25611186027527,0.503051996231079,-1094.70007324219,-3.90000009536743,-890.100036621094,2.33680281161169,-0.51999476593712,0.209746534591337,ST
8.13333333333333,-4.17384147644043,-2.05282664299011,7.73039960861206,-2.24848985671997,-1.33385002613068,0.213415995240211,-1075.5,-5.10000038146973,-904.500061035156,2.35230839578918,-0.47932137444537,0.262346143457597,ST
8.16666666666667,-3.75753402709961,-2.53911685943604,7.59940624237061,-2.22562384605408,-1.08994603157043,-0.640248000621796,-1080.30004882812,-6.90000009536743,-906.900024414062,2.37584469907755,-0.436890437589517,0.325785147352593,ST
8.2,-3.94056582450867,-2.93987274169922,8.33811283111572,-1.59299790859222,-1.49391198158264,-1.98934197425842,-1085.10009765625,3.30000019073486,-894.900024414062,2.3866562302949,-0.415917370688562,0.342612244321476,ST
8.23333333333333,-3.90288281440735,-3.23774790763855,8.60368824005127,-0.411587983369827,-1.83690190315247,-1.88263392448425,-1089.90002441406,-0.300000011920929,-899.700012207031,2.39954970769175,-0.397568441503129,0.361236865564891,ST
8.26666666666667,-3.52366018295288,-3.35917091369629,9.1629524230957,-0.228659987449646,-2.34757590293884,-1.34909391403198,-1097.10009765625,5.10000038146973,-887.700012207031,2.3984358100861,-0.342514178000282,0.352185568189329,ST
8.3,-2.91295623779297,-3.06069755554199,8.76159858703613,0.67835795879364,-2.65245604515076,-0.815553963184357,-1099.5,2.70000004768372,-899.700012207031,2.39365955596254,-0.29973923567781,0.335015926370031,ST
8.33333333333333,-2.79093503952026,-2.92491912841797,8.85371208190918,1.53202199935913,-2.40092992782593,0.106707997620106,-1104.30004882812,-0.300000011920929,-897.300048828125,2.38553595768165,-0.287001941315654,0.31609850177969,ST
8.36666666666667,-2.52535963058472,-2.59594058990479,8.79629039764404,1.92836594581604,-1.94360995292664,1.35671591758728,-1109.10009765625,1.5,-899.700012207031,2.36846931544834,-0.266361325972887,0.283126614618594,ST
8.4,-2.51459312438965,-2.28849506378174,8.94642448425293,1.82165801525116,-1.60061991214752,1.82165801525116,-1089.90002441406,3.90000009536743,-909.300048828125,2.34867907509493,-0.263964988977619,0.246680133906267,ST
8.43333333333333,-2.68925070762634,-2.24303603172302,9.57387638092041,0.937505960464478,-0.945127964019775,1.6692179441452,-1101.90002441406,0.300000011920929,-894.900024414062,2.33343905323449,-0.265996983285569,0.227791471618684,ST
8.46666666666667,-2.75564455986023,-1.98762905597687,8.84354400634766,1.31098401546478,-0.937505960464478,0.92988395690918,-1106.70007324219,-5.10000038146973,-909.300048828125,2.3264054307325,-0.293552108725783,0.218325532499671,ST
8.5,-3.06309008598328,-1.8045973777771,8.90874099731445,1.6692179441452,-0.861285984516144,0.579271972179413,-1116.30004882812,-5.70000028610229,-897.300048828125,2.31868295657318,-0.323391481791713,0.196784389047397,ST
8.53333333333333,-3.17793369293213,-1.55158281326294,9.2466926574707,2.39330792427063,-1.69970595836639,0.663114011287689,-1118.70007324219,-2.10000014305115,-906.900024414062,2.30676602951429,-0.324048975359927,0.161954953518641,ST
8.56666666666667,-3.36933946609497,-0.885251581668854,9.25147724151611,3.37654590606689,-3.70429182052612,1.70732796192169,-1106.70007324219,-2.70000004768372,-890.100036621094,2.27749171123713,-0.341436115256274,0.0891371216459311,ST
8.6,-3.11572670936584,-0.0562254376709461,7.90804815292358,3.68904781341553,-3.61282801628113,2.56861400604248,-1125.90002441406,-6.30000019073486,-902.100036621094,2.23902384328967,-0.368703783631581,3.63267352727844e-05,ST
8.63333333333333,-2.67549347877502,0.789548695087433,7.75791454315186,3.00306797027588,-2.37044191360474,3.01068997383118,-1118.70007324219,-0.300000011920929,-899.700012207031,2.19199538231065,-0.326409229937074,-0.107000455150183,ST
8.66666666666667,-2.61866998672485,1.17893981933594,8.69161510467529,1.89787793159485,-2.00458598136902,3.72715783119202,-1137.90002441406,-6.30000019073486,-902.100036621094,2.16381683800909,-0.286124175005403,-0.139613429752219,ST
8.7,-1.70410931110382,1.27165198326111,9.44467735290527,0.632625997066498,-1.95123195648193,3.38416790962219,-1128.30004882812,-1.5,-904.500061035156,2.14631003037851,-0.174153177656426,-0.135968746517682,ST
8.73333333333333,-1.65685606002808,0.851157426834106,11.2570505142212,-1.15092194080353,-0.670735955238342,2.080806016922,-1135.5,-6.90000009536743,-899.700012207031,2.14071681670417,-0.14446676572752,-0.0743587016156479,ST
8.76666666666667,-1.12271440029144,0.142956167459488,11.4083805084229,-2.73629784584045,0.967993974685669,-0.243903994560242,-1111.5,-0.900000035762787,-894.900024414062,2.14820919040756,-0.100060622848068,-0.0081258519796491,ST
8.8,-1.25909090042114,-0.238060906529427,11.9084281921387,-3.89484190940857,1.97409796714783,-1.74543797969818,-1133.10009765625,-9.30000019073486,-878.100036621094,2.16096304235118,-0.108612377442069,0.0268158186971378,ST
8.83333333333333,-0.690257012844086,-0.339745193719864,10.210898399353,-3.40703392028809,1.37195992469788,-2.080806016922,-1118.70007324219,-5.70000028610229,-904.500061035156,2.17488045897904,-0.0700001687827956,0.0393783965036057,ST
8.86666666666667,-0.920542061328888,-0.747678697109222,8.54447269439697,-2.55336999893188,0.663114011287689,-0.342989981174469,-1121.10009765625,2.10000014305115,-899.700012207031,2.18047680578691,-0.107735653535885,0.0914249082506676,ST
8.9,-1.05931115150452,-1.11613476276398,6.65792942047119,-1.89025592803955,-0.221037998795509,0.586893975734711,-1128.30004882812,-0.300000011920929,-885.300048828125,2.18454161220759,-0.155085463091237,0.168650509410392,ST
8.93333333333333,-1.93678689002991,-1.5743123292923,6.09627294540405,-2.47714996337891,1.02897000312805,1.08994603157043,-1135.5,7.50000047683716,-909.300048828125,2.19432743558616,-0.299564330209539,0.25595127099298,ST
8.96666666666667,-2.72095227241516,-2.27772831916809,6.71834182739258,-3.22410583496094,2.85824990272522,0.800309956073761,-1125.90002441406,-0.900000035762787,-906.900024414062,2.21289628393726,-0.370556614405801,0.331649943244565,ST
9.0,-3.50571584701538,-3.15161538124084,7.81892490386963,-2.88873791694641,5.5183277130127,-0.160062000155449,-1109.10009765625,2.10000014305115,-885.300048828125,2.24065063347751,-0.402634274888955,0.38932118872483,ST
9.03333333333333,-3.97884702682495,-4.37063074111938,10.3089942932129,-1.95123195648193,6.46345567703247,-1.02134799957275,-1109.10009765625,5.70000028610229,-899.700012207031,2.26456778401029,-0.351472244884659,0.406497268911724,ST
9.06666666666667,-4.19118785858154,-4.6888427734375,10.5542325973511,0.419209986925125,4.01679372787476,-3.55947399139404,-1101.90002441406,6.90000009536743,-899.700012207031,2.30108227700322,-0.351991273565008,0.420346705235037,ST
9.1,-4.54349422454834,-4.41130447387695,10.3155736923218,2.46952795982361,2.59148001670837,-3.66618180274963,-1085.10009765625,-1.5,-894.900024414062,2.3264919680233,-0.386007683329562,0.403103299233893,ST
9.13333333333333,-3.97944521903992,-3.6193630695343,9.31727313995361,3.50611996650696,1.33385002613068,-2.89635992050171,-1080.30004882812,-2.70000004768372,-897.300048828125,2.34080005788094,-0.379306429183432,0.366990373050972,ST
9.16666666666667,-3.37890958786011,-2.57440733909607,8.15328693389893,3.93295192718506,0.0914639979600906,-1.08994603157043,-1080.30004882812,3.30000019073486,-890.100036621094,2.33173275858417,-0.37598638512723,0.300536004062147,ST
9.2,-2.99908876419067,-2.26875638961792,7.53361082077026,3.22410583496094,0.0457319989800453,-0.304879993200302,-1085.10009765625,-0.900000035762787,-894.900024414062,2.33713899678236,-0.364184824629994,0.287172724128311,ST
9.23333333333333,-3.13606357574463,-1.68795943260193,7.68254852294922,1.77592599391937,0.0304879993200302,0.3125019967556,-1075.5,3.90000009536743,-890.100036621094,2.31292772180547,-0.379424885077193,0.21362210832534,ST
9.26666666666667,-2.91774129867554,-1.49834811687469,7.69510936737061,1.34909391403198,-0.259148001670837,0.67835795879364,-1075.5,3.90000009536743,-906.900024414062,2.30309058683232,-0.356318132531927,0.189735829658454,ST
9.3,-3.50990295410156,-1.41819703578949,9.16055965423584,1.12043392658234,-0.144817993044853,1.02897000312805,-1080.30004882812,0.900000035762787,-897.300048828125,2.28557153764007,-0.361944159369565,0.151240728117664,ST
9.33333333333333,-3.68157005310059,-0.849961161613464,8.97692966461182,1.64635193347931,0.0076219998300075,1.2347639799118,-1080.30004882812,1.5,-916.500061035156,2.26003496935794,-0.387624875097001,0.0911888537219468,ST
9.36666666666667,-3.50990295410156,-0.401353925466537,8.82440280914307,1.91312193870544,0.525918006896973,1.19665396213531,-1082.70007324219,-2.10000014305115,-909.300048828125,2.23924747483991,-0.379327293519232,0.0419031805893473,ST
9.4,-3.44470548629761,-0.0227294322103262,9.26523494720459,1.79117000102997,0.564027965068817,1.265251994133,-1075.5,-4.5,-894.900024414062,2.22024508992288,-0.357172293738787,-0.0010524011099826,ST
9.43333333333333,-3.19767236709595,-0.130395174026489,9.4907341003418,1.28049600124359,-0.121951997280121,0.937505960464478,-1082.70007324219,-5.70000028610229,-887.700012207031,2.22125229045084,-0.325153371268336,0.0108048140238505,ST
9.46666666666667,-2.87527322769165,-0.0813474431633949,9.25626277923584,0.518296003341675,-0.358233988285065,0.144817993044853,-1085.10009765625,-0.900000035762787,-890.100036621094,2.22044063913021,-0.300801015144317,0.0078342421399982,ST
9.5,-2.81964588165283,-0.190209463238716,9.36273193359375,0.106707997620106,0.510673999786377,-0.198172003030777,-1068.30004882812,-11.7000007629395,-894.900024414062,2.22562701472063,-0.293399876692451,0.0201452984293671,ST
9.53333333333333,-3.23655152320862,-0.620274245738983,9.69290637969971,-0.663114011287689,1.2423859834671,-0.0914639979600906,-1080.30004882812,-0.900000035762787,-906.900024414062,2.23877028388897,-0.323441524158167,0.0646065012742944,ST
9.56666666666667,-3.46803283691406,-0.974374890327454,9.99796009063721,-1.08232402801514,1.34909391403198,-0.0304879993200302,-1073.10009765625,-6.90000009536743,-892.500061035156,2.24846589652863,-0.334628556825267,0.0987139406705363,ST
9.6,-3.23296284675598,-1.12690138816833,9.30650615692139,-0.83841997385025,-0.137196004390717,-0.0533539988100529,-1089.90002441406,-3.90000009536743,-897.300048828125,2.25447399181927,-0.331881829843137,0.121701999442792,ST
9.63333333333333,-3.01523876190186,-1.43315052986145,8.33332824707031,-0.381099998950958,-0.823175966739655,-0.121951997280121,-1065.90002441406,-3.30000019073486,-897.300048828125,2.26968773454534,-0.340977458978626,0.170360992140095,ST
9.66666666666667,-2.92671346664429,-1.70530557632446,7.73099803924561,-0.160062000155449,-0.594515979290009,-0.724089980125427,-1073.10009765625,-5.70000028610229,-897.300048828125,2.28875780859173,-0.352677027614988,0.217172118701395,ST
9.7,-3.02002382278442,-2.07974314689636,7.26504468917847,-0.46494197845459,0.754577994346619,-1.48628997802734,-1073.10009765625,0.900000035762787,-897.300048828125,2.31983503754851,-0.380418348198269,0.279973130038482,ST
9.73333333333333,-3.14862465858459,-2.2232973575592,6.32596015930176,-0.693601965904236,1.6844619512558,-1.86738991737366,-1077.90002441406,-3.30000019073486,-914.100036621094,2.35661795447513,-0.440261308899013,0.340616912286812,ST
9.76666666666667,-4.32397556304932,-3.06428647041321,7.74475526809692,-1.44055795669556,2.66770005226135,-1.80641400814056,-1075.5,-1.5,-894.900024414062,2.38621913282702,-0.48164515038907,0.381327703537726,ST
9.8,-4.85512638092041,-3.43513512611389,9.35316181182861,-1.2576299905777,1.79879200458527,-1.44055795669556,-1063.5,-1.5,-899.700012207031,2.38298223359773,-0.455705977983691,0.356080605243838,ST
9.83333333333333,-4.70798349380493,-3.71686053276062,9.31428241729736,-0.129574000835419,-1.54726600646973,-0.0304879993200302,-1065.90002441406,-3.90000009536743,-894.900024414062,2.38953227535433,-0.436626950303583,0.379185091406878,ST
9.86666666666667,-4.50700712203979,-3.77667474746704,9.1091194152832,0.762199997901917,-3.3613018989563,0.868907988071442,-1068.30004882812,2.70000004768372,-899.700012207031,2.38405602016694,-0.42401094432,0.389921465644212,ST
9.9,-4.05720376968384,-3.1887001991272,9.00863170623779,1.36433792114258,-4.26069784164429,1.6768399477005,-1080.30004882812,-1.5,-899.700012207031,2.34837711369302,-0.395809226178095,0.336274793666717,ST
9.93333333333333,-3.28021597862244,-2.83998274803162,8.9236946105957,1.65397393703461,-4.48173570632935,2.21800184249878,-1073.10009765625,2.70000004768372,-906.900024414062,2.31954618360858,-0.331418852507043,0.303522223202961,ST
9.96666666666667,-2.8082811832428,-2.4936580657959,8.50260257720947,1.41006994247437,-4.60368776321411,2.00458598136902,-1082.70007324219,-5.10000038146973,-897.300048828125,2.29589436827993,-0.300561515341967,0.281342486913802,ST
10.0,-2.71556901931763,-1.97746062278748,8.3757963180542,1.22714197635651,-4.35216188430786,1.53202199935913,-1094.70007324219,-2.10000014305115,-909.300048828125,2.26739504340784,-0.298899269381145,0.229010201959937,ST
10.0333333333333,-2.58038878440857,-1.44032824039459,9.05109977722168,1.57013201713562,-3.81862187385559,1.99696397781372,-1097.10009765625,0.300000011920929,-897.300048828125,2.23201051018005,-0.268636619687918,0.154377229539534,ST
10.0666666666667,-2.24901747703552,-0.82364284992218,8.4236478805542,2.0731840133667,-4.00154972076416,2.24848985671997,-1111.5,-2.10000014305115,-890.100036621094,2.202419311529,-0.253282142107976,0.0931964458576678,ST
10.1,-2.09290218353271,-0.0388792939484119,8.22865295410156,1.82927989959717,-2.62196803092957,1.92074394226074,-1106.70007324219,4.5,-904.500061035156,2.16987689390287,-0.244586413593517,0.0014953955509885,ST
10.1333333333333,-1.97746062278748,0.497056812047958,8.500807762146,1.70732796192169,-1.77592599391937,1.73781597614288,-1123.5,-5.10000038146973,-894.900024414062,2.1467500036454,-0.225053878712325,-0.061572586555071,ST
10.1666666666667,-1.78545677661896,0.168676316738129,10.1217756271362,0.670735955238342,-1.37195992469788,1.20427596569061,-1113.90002441406,-2.70000004768372,-892.500061035156,2.14877201985999,-0.172788814124136,-0.0187229349234564,ST
10.2,-1.4660484790802,0.0825437307357788,10.3676118850708,-0.426831990480423,-1.83690190315247,-0.419209986925125,-1118.70007324219,-9.30000019073486,-911.700012207031,2.15289529592999,-0.137704627489086,-0.0072516599936269,ST
10.2333333333333,-1.6263507604599,-0.139367312192917,10.075119972229,-0.983237981796265,-1.57013201713562,-1.50915598869324,-1125.90002441406,-9.30000019073486,-906.900024414062,2.16467341867442,-0.157010121721877,0.0156719613473019,ST
10.2666666666667,-1.58926582336426,-0.773398876190186,9.98180961608887,-2.0579400062561,0.114329993724823,-1.81403601169586,-1123.5,-6.90000009536743,-894.900024414062,2.18417166871484,-0.15738065116408,0.0806168881152834,ST
10.3,-1.47442245483398,-1.06768524646759,9.7359733581543,-2.33233189582825,0.533540010452271,-1.61586391925812,-1113.90002441406,-1.5,-892.500061035156,2.19761398894611,-0.150104302026774,0.11339540439628,ST
10.3333333333333,-1.66343557834625,-1.45528185367584,9.39204120635986,-1.73781597614288,0.907018005847931,-1.05945801734924,-1113.90002441406,-5.70000028610229,-906.900024414062,2.210118211837,-0.174250413476826,0.156584431378062,ST
10.3666666666667,-1.59704172611237,-2.40094590187073,9.25865459442139,-1.36433792114258,1.2423859834671,-1.53964400291443,-1104.30004882812,-3.30000019073486,-897.300048828125,2.23659262861913,-0.166979427129048,0.255418055540953,ST
10.4,-2.47391939163208,-2.79990720748901,8.91891002655029,-0.541162014007568,0.381099998950958,-2.63721203804016,-1121.10009765625,2.70000004768372,-904.500061035156,2.26263852412476,-0.25686277546461,0.305679808598875,ST
10.4333333333333,-2.86929178237915,-3.02062201499939,8.59232425689697,0.167683988809586,-1.77592599391937,-3.3613018989563,-1116.30004882812,-0.300000011920929,-906.900024414062,2.28784957390488,-0.299798038996847,0.338728753660441,ST
10.4666666666667,-3.30414175987244,-3.2407386302948,7.90685176849365,1.12805593013763,-5.79271984100342,-4.24545383453369,-1118.70007324219,-2.10000014305115,-899.700012207031,2.31691894865893,-0.356113262149338,0.387506575025789,ST
10.5,-2.83459949493408,-3.30653429031372,7.45764636993408,1.74543797969818,-7.59151172637939,-3.94057393074036,-1121.10009765625,-7.50000047683716,-909.300048828125,2.33302731941591,-0.319975980376255,0.414265993360112,ST
10.5333333333333,-2.22868061065674,-3.5433988571167,9.3238525390625,1.87501192092896,-9.2988395690918,-4.08539199829102,-1147.5,-0.900000035762787,-892.500061035156,2.32435920757759,-0.20356829830237,0.360747284547088,ST
10.5666666666667,-0.702219843864441,-3.19707417488098,8.78253364562988,3.07166600227356,-10.5945796966553,-3.22410583496094,-1161.90002441406,2.70000004768372,-887.700012207031,2.32009159213282,-0.0567820574929305,0.343820904951971,ST
10.6,0.256603330373764,-2.67848420143127,8.77655220031738,2.5076379776001,-7.05034971237183,-2.75916385650635,-1188.30004882812,-6.30000019073486,-880.500061035156,2.32292935071672,0.0404064502680953,0.292180292991964,ST
10.6333333333333,0.500645637512207,-2.32258915901184,9.33402061462402,2.02745199203491,-3.67380380630493,-1.6920839548111,-1181.10009765625,-5.10000038146973,-885.300048828125,2.32954598737194,0.0587748650269063,0.240717467282034,ST
10.6666666666667,0.373839348554611,-2.11264085769653,9.24788856506348,1.54726600646973,-2.27897787094116,-1.14329993724823,-1190.70007324219,-9.30000019073486,-897.300048828125,2.33383840640712,0.0438931712951885,0.222074420556289,ST
10.7,0.337950766086578,-2.01215291023254,9.14441013336182,0.846041977405548,-2.25611186027527,-0.87652999162674,-1193.10009765625,-3.30000019073486,-899.700012207031,2.33625156713289,0.0402962109502552,0.215172690001743,ST
10.7333333333333,-0.0322997197508812,-2.10426688194275,9.81492805480957,0.990859985351562,-3.33081388473511,-0.701223969459534,-1193.10009765625,-12.3000001907349,-880.500061035156,2.33621632313654,0.0031819371458762,0.20953814040386,ST
10.7666666666667,-0.28710862994194,-1.36914920806885,9.88191986083984,2.54574799537659,-3.84910988807678,0.434453994035721,-1207.5,-10.5,-866.100036621094,2.32895102460228,-0.0219986564633174,0.133864551607844,ST
10.8,0.206957474350929,-0.439635097980499,9.23891639709473,4.00917196273804,-3.83386588096619,1.82165801525116,-1197.90002441406,-11.7000007629395,-885.300048828125,2.31454682736908,0.0285384576850956,0.0413325224814912,ST
10.8333333333333,1.04615211486816,1.05512416362762,8.46133041381836,4.04728174209595,-3.59758400917053,2.83538389205933,-1209.90002441406,-11.1000003814697,-875.700012207031,2.30777476723481,0.128181512170508,-0.129322662585721,ST
10.8666666666667,1.35120499134064,1.66463184356689,9.38247108459473,3.21648383140564,-2.88873791694641,3.62045001983643,-1217.10009765625,-10.5,-861.300048828125,2.29241163737918,0.146709216149534,-0.179797850201938,ST
10.9,1.96789038181305,1.41999137401581,10.4268283843994,1.44817996025085,-2.34757590293884,3.49849796295166,-1217.10009765625,-17.1000003814697,-873.300048828125,2.26426667359846,0.189257257314008,-0.137369649276846,ST
10.9333333333333,2.47631192207336,1.30335354804993,10.4118747711182,-0.868907988071442,-1.45580196380615,2.03507399559021,-1221.90002441406,-11.1000003814697,-878.100036621094,2.25037178708439,0.234313854544959,-0.122388162734914,ST
10.9666666666667,2.18142747879028,0.670518279075623,10.2126932144165,-1.40244793891907,0.304879993200302,1.43293595314026,-1231.5,-11.1000003814697,-880.500061035156,2.23026942411474,0.209938677964025,-0.0632973312424757,ST
11.0,1.672407746315,-0.0598142966628075,10.9615678787231,-2.24848985671997,1.265251994133,0.655492007732391,-1207.5,-6.90000009536743,-875.700012207031,2.21540166729309,0.14972097954838,0.0089229019420043,ST
11.0333333333333,1.25370764732361,-0.385802209377289,9.47398662567139,-1.40244793891907,1.53202199935913,1.51677799224854,-1231.5,-10.5,-875.700012207031,2.20265962252151,0.128936305799402,0.0430584306271121,ST
11.0666666666667,1.04375946521759,-0.702219843864441,8.93685436248779,-1.60061991214752,2.81251788139343,2.31708788871765,-1221.90002441406,-12.3000001907349,-873.300048828125,2.18598092750578,0.110922186186722,0.0811483415058447,ST
11.1,1.08682572841644,-1.29378318786621,7.73937177658081,-2.89635992050171,4.65704202651978,2.86587190628052,-1214.70007324219,-8.10000038146973,-882.900024414062,2.16406690020592,0.128576262190436,0.170052877116276,ST
11.1333333333333,0.476121813058853,-1.9589182138443,8.1305570602417,-3.72715783119202,5.73174381256104,2.72105383872986,-1195.5,-8.70000076293945,-882.900024414062,2.14994188204206,0.0466347242878239,0.242510390053814,ST
11.1666666666667,0.0400755777955055,-3.14802646636963,8.24719524383545,-4.22258806228638,6.51680994033813,1.37958192825317,-1188.30004882812,-7.50000047683716,-887.700012207031,2.15295778729,-0.0062885953079788,0.370430720068597,ST
11.2,-0.0215331465005875,-3.65226101875305,8.21728801727295,-4.09301376342773,6.47869968414307,-0.129574000835419,-1178.70007324219,-4.5,-894.900024414062,2.17084722811267,-0.0125506569804305,0.424869137711347,ST
11.2333333333333,-0.202172324061394,-4.07455015182495,9.16654109954834,-3.29270386695862,5.81558609008789,-0.579271972179413,-1169.10009765625,0.300000011920929,-882.900024414062,2.18882623261308,-0.0287849603754661,0.424169203888498,ST
11.2666666666667,-0.839792728424072,-3.95851016044617,10.1696271896362,-0.67835795879364,2.88111591339111,-0.525918006896973,-1159.5,0.300000011920929,-892.500061035156,2.19598229616858,-0.0806050670825587,0.373134823288157,ST
11.3,-0.92472904920578,-3.86699438095093,9.63249397277832,0.609759986400604,1.40244793891907,0.388722002506256,-1164.30004882812,-2.10000014305115,-902.100036621094,2.19804383823454,-0.0912858692518812,0.380653404274127,ST
11.3333333333333,-0.837400138378143,-3.25748658180237,8.55822944641113,1.41006994247437,1.12805593013763,1.15854394435883,-1152.30004882812,-10.5,-878.100036621094,2.19281910088817,-0.093721458675819,0.361359823513481,ST
11.3666666666667,-0.92472904920578,-3.05830502510071,8.93386363983154,1.38720393180847,1.84452390670776,1.79879200458527,-1161.90002441406,-4.5,-894.900024414062,2.18353955958316,-0.101583429165439,0.327623208708596,ST
11.4,-1.44331896305084,-2.67728805541992,9.54576396942139,1.59299790859222,2.00458598136902,2.33233189582825,-1152.30004882812,-7.50000047683716,-890.100036621094,2.16733418407506,-0.148460871731086,0.270929651056671,ST
11.4333333333333,-1.73162388801575,-2.1712589263916,9.71922492980957,1.85214591026306,1.63110792636871,2.9420919418335,-1152.30004882812,-4.5,-904.500061035156,2.1449457265058,-0.175720041020073,0.216458096619767,ST
11.4666666666667,-2.24183988571167,-1.84646737575531,10.4980068206787,1.81403601169586,1.76830399036407,3.51374197006226,-1142.70007324219,-0.300000011920929,-892.500061035156,2.11891690446832,-0.210961519789426,0.170343449141122,ST
11.5,-1.78605496883392,-1.04734838008881,9.36033916473389,1.88263392448425,1.99696397781372,3.45276594161987,-1135.5,-3.90000009536743,-899.700012207031,2.08898401731207,-0.191774880244591,0.107818236893628,ST
11.5333333333333,-1.33744764328003,0.0974973067641258,9.00384616851807,2.38568592071533,1.96647596359253,4.07014799118042,-1145.10009765625,0.300000011920929,-887.700012207031,2.0452425791388,-0.151341313270829,-0.0145952405149069,ST
11.5666666666667,-0.82962429523468,0.610703945159912,8.14072608947754,2.9344699382782,1.16616594791412,4.43600368499756,-1157.10009765625,-11.7000007629395,-892.500061035156,2.00991805740529,-0.103214212103533,-0.0801521012683057,ST
11.6,-0.823044717311859,0.624461233615875,8.45355415344238,2.11129403114319,1.2423859834671,4.03965997695923,-1130.70007324219,-10.5,-892.500061035156,1.9854347728709,-0.0984627793753977,-0.0781568943006291,ST
11.6333333333333,-1.11015331745148,0.406139075756073,9.09895133972168,0.525918006896973,1.87501192092896,2.5076379776001,-1140.30004882812,-9.30000019073486,-904.500061035156,1.97103448063546,-0.124191546242199,-0.0462836886168217,ST
11.6666666666667,-2.15152025222778,0.185424327850342,9.95489311218262,-0.426831990480423,1.6692179441452,1.36433792114258,-1128.30004882812,-6.30000019073486,-909.300048828125,1.96560520618466,-0.215008153207318,-0.0186130126325291,ST
11.7,-2.18681073188782,-0.60651695728302,10.4196510314941,-1.31098401546478,1.90549993515015,1.60824191570282,-1125.90002441406,-7.50000047683716,-892.500061035156,1.97011223505541,-0.21005812288674,0.0591882679244315,ST
11.7333333333333,-2.25559711456299,-1.04256319999695,11.2971267700195,-1.61586391925812,2.65245604515076,0.960371971130371,-1116.30004882812,-6.30000019073486,-887.700012207031,1.97064211973406,-0.201132996710129,0.0941593369695804,ST
11.7666666666667,-1.87577641010284,-0.894223749637604,10.5859346389771,-1.11281192302704,2.97257995605469,-0.297257989645004,-1130.70007324219,0.900000035762787,-894.900024414062,1.97136572482214,-0.180148813657204,0.0864837537567774,ST
11.8,-1.3559901714325,-1.24114668369293,9.24848651885986,-0.716467976570129,2.77440786361694,-1.16616594791412,-1109.10009765625,-6.90000009536743,-909.300048828125,1.98815516076184,-0.149162736006033,0.13455571002353,ST
11.8333333333333,-1.2238005399704,-1.65865051746368,6.97554349899292,-1.2576299905777,2.15702605247498,-2.86587190628052,-1116.30004882812,0.900000035762787,-897.300048828125,2.02325679195095,-0.171312955962009,0.235369541698919,ST
11.8666666666667,-2.35249638557434,-2.31122446060181,7.56052732467651,-2.19513607025146,2.56861400604248,-3.30032587051392,-1101.90002441406,-5.10000038146973,-882.900024414062,2.05872209953795,-0.290337499355238,0.30165907028704,ST
11.9,-2.86929178237915,-2.67011022567749,7.42534685134888,-2.24848985671997,2.15702605247498,-3.17075204849243,-1101.90002441406,0.300000011920929,-899.700012207031,2.09228583327399,-0.349787984704269,0.350943239979782,ST
11.9333333333333,-3.54758596420288,-3.47042560577393,7.70826864242554,-1.90549993515015,2.20275783538818,-1.29574000835419,-1097.10009765625,-1.5,-904.500061035156,2.12824502224535,-0.399480638771533,0.427205895555747,ST
11.9666666666667,-3.97705268859863,-3.66781258583069,9.31069374084473,-1.6768399477005,2.23324584960938,-0.480185985565186,-1092.30004882812,0.300000011920929,-899.700012207031,2.11390528282266,-0.381755338265861,0.379498725731546,ST
12.0,-3.77906727790833,-3.68814945220947,9.28018856048584,-0.403965979814529,0.762199997901917,0.0609759986400604,-1087.5,0.900000035762787,-897.300048828125,2.11423705095851,-0.363164671292568,0.379138322622898,ST
12.0333333333333,-4.23126316070557,-3.97525811195374,10.2079076766968,0.274392008781433,0.480185985565186,0.815553963184357,-1089.90002441406,-2.10000014305115,-892.500061035156,2.1080704636678,-0.369847249970892,0.370549554015844,ST
12.0666666666667,-3.78684306144714,-3.19707417488098,9.68991661071777,1.44817996025085,-0.663114011287689,1.17378795146942,-1077.90002441406,-2.10000014305115,-899.700012207031,2.08356874978958,-0.355022562572019,0.315712228665207,ST
12.1,-3.61218547821045,-2.81366443634033,9.46979999542236,2.4847719669342,-2.00458598136902,2.36281991004944,-1094.70007324219,-2.70000004768372,-890.100036621094,2.06082694540099,-0.348429699611678,0.283078023296911,ST
12.1333333333333,-3.34122657775879,-2.46733975410461,9.07083797454834,2.79727387428284,-2.43141794204712,2.68294382095337,-1092.30004882812,3.90000009536743,-894.900024414062,2.03938529499339,-0.33873628905613,0.259009853251005,ST
12.1666666666667,-2.10965037345886,-1.65506160259247,6.96238422393799,2.97257995605469,-3.22410583496094,2.0731840133667,-1104.30004882812,-3.90000009536743,-897.300048828125,2.0184057591194,-0.282708158837977,0.227171511325635,ST
12.2,-2.28490614891052,-1.25729656219482,7.46602058410645,1.90549993515015,-3.64331603050232,1.62348592281342,-1097.10009765625,-0.900000035762787,-890.100036621094,1.99013394794489,-0.287248245213671,0.163165317099721,ST
12.2333333333333,-2.68984889984131,-1.12450873851776,8.77954292297363,1.6844619512558,-4.12350177764893,0.914639949798584,-1111.5,2.70000004768372,-892.500061035156,1.97286144006283,-0.288080396963906,0.124054003373758,ST
12.2666666666667,-2.49186372756958,-0.595152258872986,8.99846267700195,1.77592599391937,-4.6341757774353,0.564027965068817,-1123.5,2.70000004768372,-899.700012207031,1.95366885686055,-0.261914142010166,0.0632808110635531,ST
12.3,-2.07136917114258,-0.0400755777955055,8.34828186035156,2.27135586738586,-4.64179801940918,0.221037998795509,-1128.30004882812,-0.300000011920929,-897.300048828125,1.94004697614372,-0.235437800713688,0.0014931062529902,ST
12.3333333333333,-2.18561434745789,-0.104675017297268,9.26104736328125,1.42531394958496,-3.65855979919434,-0.0609759986400604,-1135.5,-3.90000009536743,-897.300048828125,1.94396469067422,-0.225483873071065,0.0087334567520314,ST
12.3666666666667,-2.0671820640564,0.358885794878006,10.0386333465576,0.685979962348938,-3.84148788452148,-0.87652999162674,-1133.10009765625,-4.5,-921.300048828125,1.94168110113708,-0.196613475183064,-0.0361115478986093,ST
12.4,-0.900205194950104,0.419896364212036,9.53140830993652,0.510673999786377,-4.48935794830322,-0.213415995240211,-1140.30004882812,-7.50000047683716,-887.700012207031,1.94354912999326,-0.0872315663386597,-0.0447764319616446,ST
12.4333333333333,-0.2613884806633,0.36725977063179,8.68204498291016,0.0609759986400604,-4.15398979187012,-0.403965979814529,-1154.70007324219,2.10000014305115,-916.500061035156,1.94760604169554,-0.0234208239523333,-0.0423773584873067,ST
12.4666666666667,0.66932201385498,-0.756650865077972,10.1929540634155,-1.98934197425842,-1.70732796192169,-0.92988395690918,-1140.30004882812,-2.70000004768372,-897.300048828125,1.95127427858772,0.067673742266907,0.0764237091164679,ST
12.5,-1.24772620201111,-0.275145769119263,12.3684005737305,0.381099998950958,-0.419209986925125,-0.106707997620106,-1152.30004882812,0.300000011920929,-890.100036621094,1.95121109065641,-0.0985388512938955,0.022003265367332,ST
12.5333333333333,-0.491673529148102,0.0358885787427425,10.7211141586304,1.21951997280121,-0.564027965068817,0.182927995920181,-1157.10009765625,-3.90000009536743,-899.700012207031,1.9484737256237,-0.0452386628071848,-0.0052885401448293,ST
12.5666666666667,-0.625059425830841,-0.840988993644714,8.96078014373779,-0.716467976570129,0.503051996231079,-1.07470202445984,-1154.70007324219,-9.30000019073486,-892.500061035156,1.96087689738777,-0.0697472709039419,0.0937326687769787,ST
12.6,-0.369652360677719,-1.24652993679047,8.54148197174072,-2.0731840133667,1.12043392658234,-2.37806391716003,-1154.70007324219,0.900000035762787,-894.900024414062,1.97915987764652,-0.0444464500903628,0.148062020966284,ST
12.6333333333333,-0.971384167671204,-1.6664263010025,8.85969352722168,-2.41617393493652,1.09756803512573,-2.58385801315308,-1147.5,3.30000019073486,-902.100036621094,1.99823993602118,-0.107594639733542,0.190114345292971,ST
12.6666666666667,-1.20645439624786,-2.03428435325623,8.07672500610352,-1.54726600646973,0.160062000155449,-2.30946588516235,-1149.90002441406,-7.50000047683716,-885.300048828125,2.01987892973693,-0.142872133020211,0.24956022278851,ST
12.7,-1.29079258441925,-2.73351335525513,7.28478336334229,-1.6692179441452,1.32622802257538,-1.6615959405899,-1147.5,4.5,-885.300048828125,2.04788283732689,-0.165293880439295,0.361085046399687,ST
12.7333333333333,-1.74597930908203,-2.82323479652405,7.85481357574463,-1.18140995502472,3.46038794517517,-1.37958192825317,-1135.5,-0.300000011920929,-904.500061035156,2.05985208893941,-0.210586987253241,0.348160722239705,ST
12.7666666666667,-2.1951847076416,-2.95482635498047,8.59172534942627,-0.419209986925125,3.83386588096619,-0.586893975734711,-1125.90002441406,-3.90000009536743,-899.700012207031,2.06766063936925,-0.24277098829209,0.332886868688931,ST
12.8,-3.42197585105896,-3.42377042770386,10.4944181442261,0.160062000155449,4.12350177764893,0.861285984516144,-1133.10009765625,-2.70000004768372,-887.700012207031,2.06614947464515,-0.307114239628567,0.315551238817339,ST
12.8333333333333,-2.85493636131287,-3.57091355323792,10.3771820068359,0.937505960464478,3.08691000938416,1.35671591758728,-1113.90002441406,0.300000011920929,-894.900024414062,2.0698391448809,-0.260778625309407,0.329532501206328,ST
12.8666666666667,-2.83878660202026,-2.94106888771057,9.97941780090332,1.83690190315247,2.56861400604248,2.53812599182129,-1128.30004882812,-2.70000004768372,-894.900024414062,2.05045448291534,-0.271793303804025,0.283138265789607,ST
12.9,-2.52057456970215,-2.22748446464539,10.09485912323,2.9344699382782,2.24086785316467,4.03203773498535,-1104.30004882812,0.300000011920929,-899.700012207031,2.0158134344323,-0.244819999555941,0.211418338397453,ST
12.9333333333333,-1.92721664905548,-2.00676965713501,9.68692588806152,3.27745985984802,1.39482593536377,4.34454011917114,-1106.70007324219,-0.300000011920929,-892.500061035156,1.99238477172834,-0.196877599968001,0.197328607260702,ST
12.9666666666667,-1.23935222625732,-2.0492377281189,8.19455909729004,2.71343183517456,0.579271972179413,3.353679895401,-1109.10009765625,-6.90000009536743,-911.700012207031,1.98219105091048,-0.148552447953521,0.239056005481733,ST
13.0,-1.61498606204987,-1.263876080513,8.65333461761475,2.080806016922,-0.495429992675781,2.09605002403259,-1111.5,-2.10000014305115,-890.100036621094,1.95431987852867,-0.182002748483596,0.141578624117355,ST
13.0333333333333,-2.51818180084229,-0.730930685997009,8.24480247497559,2.5076379776001,-0.945127964019775,2.26373386383057,-1101.90002441406,-2.70000004768372,-892.500061035156,1.92977599458404,-0.293054664821788,0.0833561023882314,ST
13.0666666666667,-3.47162175178528,-0.433653652667999,8.13235187530518,1.99696397781372,0.0,3.69666981697083,-1099.5,-6.90000009536743,-904.500061035156,1.90038183114237,-0.401934568363577,0.0475363389667447,ST
13.1,-2.76162600517273,-0.587376415729523,8.75920581817627,1.05183601379395,-1.11281192302704,3.55185198783875,-1106.70007324219,-8.10000038146973,-902.100036621094,1.88623339716398,-0.304428143622534,0.0629263231834716,ST
13.1333333333333,-2.58816456794739,-0.506028950214386,8.22685813903809,0.907018005847931,-3.49849796295166,1.96647596359253,-1123.5,-0.900000035762787,-890.100036621094,1.87353620790035,-0.298437647952769,0.0587305703316485,ST
13.1666666666667,-2.12460374832153,0.0735715851187706,8.71195220947266,0.137196004390717,-4.39789390563965,-0.0228659994900227,-1116.30004882812,-2.10000014305115,-902.100036621094,1.85615948743393,-0.232344547984051,-0.0078526188400849,ST
13.2,-1.96549785137177,0.446214646100998,9.54038047790527,-0.236281991004944,-4.68753004074097,-0.403965979814529,-1113.90002441406,0.300000011920929,-887.700012207031,1.85137711367293,-0.195278521399967,-0.0456449952645399,ST
13.2333333333333,-0.754856407642365,0.277538329362869,10.3365087509155,-0.457319974899292,-3.09453201293945,-0.266770005226135,-1128.30004882812,6.30000019073486,-882.900024414062,1.8559374245053,-0.0690491880222599,-0.0262388724061079,ST
13.2666666666667,-0.0089721446856856,0.0861325860023499,9.62950325012207,-0.99848198890686,-0.907018005847931,-0.777444005012512,-1135.5,-0.300000011920929,-882.900024414062,1.86146844537712,-0.0002121501436027,-0.0074292928491662,ST
13.3,-1.16518247127533,-0.332567483186722,10.8718461990356,-1.97409796714783,4.24545383453369,-0.739333987236023,-1125.90002441406,-3.90000009536743,-892.500061035156,1.86816688978597,-0.112901036167436,0.0337560356926811,ST
13.3333333333333,-1.86321532726288,-0.900205194950104,10.7037687301636,-1.96647596359253,4.78661584854126,-0.884151995182037,-1121.10009765625,-2.70000004768372,-894.900024414062,1.88200924830514,-0.179356502853939,0.0872591128432211,ST
13.3666666666667,-1.93439435958862,-1.20226740837097,10.68044090271,-2.47714996337891,3.60520601272583,-1.2347639799118,-1104.30004882812,-1.5,-887.700012207031,1.89454097543376,-0.184019575096303,0.116584604202092,ST
13.4,-1.33744764328003,-1.05213344097137,8.87404918670654,-1.36433792114258,2.10367202758789,-1.29574000835419,-1121.10009765625,-0.900000035762787,-899.700012207031,1.90347041872031,-0.152329237772396,0.120756661518985,ST
13.4333333333333,-1.41460812091827,-0.79672646522522,7.51865720748901,-0.0533539988100529,1.53202199935913,-0.701223969459534,-1109.10009765625,0.300000011920929,-902.100036621094,1.90633440755232,-0.187059127808727,0.106129000260011,ST
13.4666666666667,-1.66582822799683,-0.57062840461731,6.00296306610107,1.6768399477005,0.99848198890686,0.419209986925125,-1109.10009765625,3.30000019073486,-897.300048828125,1.90381278133869,-0.270813222623592,0.0917804846984588,ST
13.5,-3.67499041557312,-1.25131511688232,7.73638105392456,0.609759986400604,1.37195992469788,0.945127964019775,-1097.10009765625,-4.5,-887.700012207031,1.92403331880584,-0.439026839214938,0.157822414951471,ST
13.5333333333333,-4.8916130065918,-1.70769822597504,8.51994895935059,-0.3125019967556,1.2500079870224,0.609759986400604,-1104.30004882812,-1.5,-890.100036621094,1.93928482087766,-0.514144391816713,0.19750122158457,ST
13.5666666666667,-4.70379638671875,-2.24183988571167,9.1988410949707,-1.43293595314026,1.05945801734924,0.92988395690918,-1099.5,-6.90000009536743,-894.900024414062,1.95155594326798,-0.463894590546889,0.240456700066999,ST
13.6,-5.0734486579895,-2.67549347877502,10.198935508728,-1.41006994247437,-0.114329993724823,1.31098401546478,-1099.5,4.5,-902.100036621094,1.94653313241486,-0.448951314695395,0.257811280188329,ST
13.6333333333333,-4.3245735168457,-2.99609804153442,10.8048543930054,-1.54726600646973,-1.6768399477005,1.29574000835419,-1101.90002441406,-3.90000009536743,-897.300048828125,1.93847266994421,-0.366909959310516,0.271873239483152,ST
13.6666666666667,-2.93688201904297,-2.948246717453,9.39263916015625,-1.39482593536377,-5.16009378433228,0.434453994035721,-1097.10009765625,5.70000028610229,-914.100036621094,1.93482496256079,-0.282598737734333,0.305173864801365,ST
13.7,-1.97387182712555,-2.70898962020874,8.37938499450684,0.167683988809586,-7.1418137550354,0.724089980125427,-1109.10009765625,-5.10000038146973,-899.700012207031,1.91885876454633,-0.209913386180605,0.311229677074793,ST
13.7333333333333,-0.156115308403969,-2.67489528656006,7.80815839767456,0.556405961513519,-4.57319974899292,1.47104597091675,-1125.90002441406,-4.5,-899.700012207031,1.90081569530672,-0.0134202026739456,0.328873659591824,ST
13.7666666666667,-0.0693845823407173,-2.34950566291809,8.44458293914795,0.289635986089706,0.472563982009888,2.24848985671997,-1116.30004882812,-4.5,-902.100036621094,1.88735248875568,-0.009818373767928,0.271529618106192,ST
13.8,-0.948654770851135,-2.5175838470459,9.67077541351318,0.106707997620106,3.98630595207214,2.62196803092957,-1125.90002441406,0.900000035762787,-904.500061035156,1.87687527528771,-0.101404873056737,0.25444461790406,ST
13.8333333333333,-1.5743123292923,-2.43803071975708,8.95121002197266,0.137196004390717,4.55795574188232,2.02745199203491,-1113.90002441406,5.10000038146973,-909.300048828125,1.87365218482526,-0.175778830803115,0.265313498595875,ST
13.8666666666667,-2.63182902336121,-2.33993530273438,10.0015487670898,0.0457319989800453,4.61893177032471,0.861285984516144,-1109.10009765625,-3.90000009536743,-909.300048828125,1.86776311591458,-0.258004343940825,0.230283660985124,ST
13.9,-3.25808477401733,-2.08931350708008,9.57806301116943,0.663114011287689,3.65855979919434,-0.0076219998300075,-1123.5,-7.50000047683716,-904.500061035156,1.86925655308348,-0.326252991424422,0.214275043209104,ST
13.9333333333333,-3.73958992958069,-1.80280292034149,8.90754508972168,0.952749967575073,2.62959003448486,-0.472563982009888,-1092.30004882812,7.50000047683716,-897.300048828125,1.87285959630943,-0.394273451288223,0.198839363322411,ST
13.9666666666667,-3.3268711566925,-1.48100197315216,8.42484378814697,0.693601965904236,1.93598794937134,-0.92988395690918,-1085.10009765625,-1.5,-892.500061035156,1.87259169592929,-0.374216004421796,0.173966532393339,ST
14.0,-3.02301454544067,-0.793137550354004,7.23394107818604,0.114329993724823,0.899396002292633,-2.0731840133667,-1097.10009765625,-4.5,-906.900024414062,1.86351523788493,-0.394744610748354,0.110970217439708,ST
14.0333333333333,-3.23415899276733,-0.624461233615875,7.63828563690186,0.487807989120483,1.83690190315247,-2.62959003448486,-1077.90002441406,-0.300000011920929,-892.500061035156,1.87016079161213,-0.402051263897149,0.0831217583173369,ST
14.0666666666667,-4.44360399246216,-0.821250319480896,9.0253791809082,2.03507399559021,2.64483404159546,-1.6692179441452,-1077.90002441406,-5.10000038146973,-902.100036621094,1.88888878207035,-0.459502239777431,0.0887464706311003,ST
14.1,-4.90596866607666,-0.788950562477112,9.75511360168457,2.82776188850403,2.15702605247498,-0.967993974685669,-1075.5,0.900000035762787,-894.900024414062,1.89807841048345,-0.468184697337369,0.0769147737216432,ST
14.1333333333333,-4.95561456680298,-0.14355431497097,10.146897315979,3.24697184562683,0.525918006896973,0.259148001670837,-1073.10009765625,-1.5,-899.700012207031,1.87557108330727,-0.455366860839006,0.0090986094284359,ST
14.1666666666667,-4.4501838684082,0.344530344009399,10.77614402771,2.79727387428284,-2.83538389205933,2.40855193138123,-1080.30004882812,-0.900000035762787,-909.300048828125,1.84902185319603,-0.386869538001626,-0.0381558328937556,ST
14.2,-3.00746297836304,0.300865918397903,9.69470119476318,1.77592599391937,-5.64790201187134,2.19513607025146,-1077.90002441406,-6.30000019073486,-902.100036621094,1.84153117540714,-0.291855989652614,-0.0352305915279695,ST
14.2333333333333,-1.99959194660187,-0.0526365824043751,8.71733570098877,-0.0533539988100529,-7.88114786148071,1.99696397781372,-1094.70007324219,-8.70000076293945,-909.300048828125,1.83795038064524,-0.212232044087937,0.0051066555227612,ST
14.2666666666667,-1.18133234977722,-0.209948182106018,7.71245527267456,-0.708845973014832,-7.84303760528564,1.76830399036407,-1101.90002441406,-6.30000019073486,-894.900024414062,1.82828110813237,-0.138979839938034,0.0277605858265923,ST
14.3,-0.157311603426933,-0.690257012844086,7.70707225799561,-1.56251001358032,-4.70277404785156,0.6250039935112,-1121.10009765625,2.70000004768372,-899.700012207031,1.82650901059855,-0.0137994327071432,0.0912331530990823,ST
14.3333333333333,-0.951645493507385,-0.937888205051422,8.55882740020752,-2.08842802047729,-2.04269599914551,-0.106707997620106,-1125.90002441406,-6.30000019073486,-885.300048828125,1.82580915661323,-0.105832052854743,0.112611350772745,ST
14.3666666666667,-2.07974314689636,-1.73581087589264,9.62471866607666,-2.37806391716003,0.663114011287689,-0.724089980125427,-1123.5,-3.90000009536743,-892.500061035156,1.83929390832739,-0.20952964223327,0.18225839885428,ST
14.4,-1.9068797826767,-2.167072057724,8.54088306427002,-2.59148001670837,0.754577994346619,-1.87501192092896,-1116.30004882812,-2.10000014305115,-894.900024414062,1.86334353142971,-0.213551427634636,0.253022952947337,ST
14.4333333333333,-2.39735698699951,-2.75983166694641,8.15089416503906,-2.9420919418335,0.960371971130371,-2.95733594894409,-1118.70007324219,-0.300000011920929,-906.900024414062,1.89668673858938,-0.270916927072141,0.332109434249232,ST
14.4666666666667,-3.04514575004578,-3.20006489753723,9.30291748046875,-3.00306797027588,1.77592599391937,-3.17075204849243,-1099.5,-3.90000009536743,-885.300048828125,1.91467516929995,-0.300901352091613,0.338399522204086,ST
14.5,-2.89381575584412,-3.28141236305237,9.48415470123291,-1.80641400814056,0.807931959629059,-2.20275783538818,-1106.70007324219,5.70000028610229,-887.700012207031,1.92542386795776,-0.281040416457775,0.337446381174542,NLL
14.5333333333333,-2.86929178237915,-3.53442692756653,9.71264553070068,-0.846041977405548,0.114329993724823,-0.304879993200302,-1101.90002441406,-8.10000038146973,-906.900024414062,1.92953535679736,-0.27090125533342,0.350501705857437,NLL
14.5666666666667,-2.31062626838684,-3.52246403694153,9.48355674743652,-0.114329993724823,-0.129574000835419,0.6250039935112,-1113.90002441406,2.70000004768372,-897.300048828125,1.92670860381121,-0.22527957816007,0.355519479590815,NLL
14.6,-2.27533578872681,-3.64807391166687,10.2258520126343,0.228659987449646,-0.388722002506256,1.15092194080353,-1113.90002441406,3.30000019073486,-892.500061035156,1.91591976243236,-0.206754584886364,0.341930928489119,NLL
14.6333333333333,-2.01933073997498,-3.23535537719727,9.53499698638916,1.80641400814056,-0.990859985351562,1.81403601169586,-1116.30004882812,-0.900000035762787,-902.100036621094,1.90119945165924,-0.197377403915947,0.32342132484426,NLL
14.6666666666667,-1.66762256622314,-2.73052263259888,9.1922607421875,2.56099200248718,-1.30336201190948,2.40092992782593,-1116.30004882812,3.90000009536743,-897.300048828125,1.87885768198368,-0.171374190967846,0.283756101411535,NLL
14.7,-1.43434679508209,-2.07017278671265,7.91702032089233,2.80489587783813,-2.080806016922,2.73629784584045,-1118.70007324219,-3.90000009536743,-911.700012207031,1.85633950305907,-0.171194804601438,0.250316352984118,NLL
14.7333333333333,-1.69453907012939,-1.23217451572418,7.3404107093811,2.17989206314087,-2.68294382095337,2.86587190628052,-1133.10009765625,5.70000028610229,-906.900024414062,1.8193184985619,-0.219753619342943,0.161795733846832,NLL
14.7666666666667,-2.54270577430725,-0.857138872146606,8.22984886169434,1.54726600646973,-2.14940404891968,3.20123982429504,-1130.70007324219,-5.70000028610229,-887.700012207031,1.78533167902344,-0.294071896517901,0.100071936918693,NLL
14.8,-2.9422652721405,-0.448009073734283,8.52353763580322,1.11281192302704,-1.44817996025085,3.3689239025116,-1130.70007324219,2.70000004768372,-894.900024414062,1.74939564697182,-0.329474860873394,0.048908103543152,NLL
14.8333333333333,-2.61807179450989,-0.218920320272446,8.29743957519531,0.937505960464478,-0.99848198890686,3.55947399139404,-1133.10009765625,-1.5,-904.500061035156,1.72151508428668,-0.304262138341958,0.0230858051180365,NLL
14.8666666666667,-2.72035431861877,-0.28710862994194,9.36990928649902,0.304879993200302,-1.19665396213531,3.54422998428345,-1137.90002441406,-4.5,-906.900024414062,1.70181281515943,-0.28080988750094,0.0282283854763379,NLL
14.9,-2.80050539970398,-0.267369896173477,10.3676118850708,-0.304879993200302,-2.5076379776001,3.30794787406921,-1130.70007324219,2.10000014305115,-899.700012207031,1.67976687920813,-0.259768347602704,0.0247875426854911,NLL
14.9333333333333,-3.05890321731567,0.628648281097412,10.5697841644287,-0.731711983680725,-4.83997011184692,4.72563982009888,-1130.70007324219,-7.50000047683716,-914.100036621094,1.62684450316635,-0.272234264051884,-0.0595389392203427,NLL
14.9666666666667,-2.41290879249573,0.400157660245895,9.93336009979248,-1.52439999580383,-4.29880809783936,8.36895561218262,-1125.90002441406,-5.10000038146973,-885.300048828125,1.57882650544832,-0.230507826045223,-0.0412071788993641,NLL
15.0,-0.763828575611115,-0.565843224525452,8.9775276184082,-5.25918006896973,-1.6615959405899,11.8140993118286,-1157.10009765625,-3.90000009536743,-892.500061035156,1.50787642125683,-0.0840865195131087,0.0696083696994567,NLL
15.0333333333333,-0.573020994663239,-1.19209897518158,9.63189601898193,-7.10370397567749,0.548784017562866,12.9802656173706,-1159.5,0.900000035762787,-904.500061035156,1.42824883318589,-0.0631195525468784,0.133322924818264,NLL
15.0666666666667,-0.429466664791107,-1.95233869552612,9.10493278503418,-7.157057762146,2.40092992782593,13.2241697311401,-1145.10009765625,10.5,-887.700012207031,1.35172157943799,-0.0552476916518443,0.221432192555192,NLL
15.1,-1.0916109085083,-2.30165410041809,9.85440540313721,-6.05948972702026,3.14026403427124,12.5305681228638,-1133.10009765625,11.7000007629395,-887.700012207031,1.26753878300837,-0.117534687375792,0.237599141780426,NLL
15.1333333333333,-0.754856407642365,-2.69642853736877,8.25736331939697,-3.87197589874268,2.18751406669617,10.7012882232666,-1140.30004882812,16.5,-887.700012207031,1.21333782051598,-0.0963741203542756,0.319761124330235,NLL
15.1666666666667,-2.43264746665955,-2.92850804328918,9.25686073303223,-3.33843588829041,2.41617393493652,8.56712818145752,-1133.10009765625,11.7000007629395,-894.900024414062,1.16101076953241,-0.252154657673361,0.309124199653324,NLL
15.2,-2.73949480056763,-2.81187009811401,8.26394367218018,-2.74391984939575,1.56251001358032,5.75461006164551,-1121.10009765625,15.9000005722046,-892.500061035156,1.12845067561491,-0.309497935215759,0.329861870546428,NLL
15.2333333333333,-3.00985550880432,-2.82981443405151,8.405104637146,-1.89787793159485,1.52439999580383,3.76526784896851,-1113.90002441406,21.9000015258789,-890.100036621094,1.10431882371827,-0.331579334003483,0.326262328304969,NLL
15.2666666666667,-3.24432754516602,-2.67848420143127,8.09765911102295,-0.503051996231079,1.54726600646973,1.51677799224854,-1116.30004882812,22.5,-885.300048828125,1.09534196751794,-0.366445503943022,0.319767664620374,NLL
15.3,-3.43932199478149,-3.21741104125977,9.14919471740723,0.716467976570129,1.79879200458527,-0.114329993724823,-1116.30004882812,11.1000003814697,-904.500061035156,1.10707312763187,-0.343967673176988,0.337132202652504,NLL
15.3333333333333,-3.21442031860352,-3.45607018470764,9.36691856384277,0.907018005847931,0.503051996231079,-2.52288198471069,-1106.70007324219,17.7000007629395,-909.300048828125,1.13088301916491,-0.311020873527771,0.353199364106851,NLL
15.3666666666667,-3.66601824760437,-2.98054647445679,8.692214012146,2.18751406669617,-0.198172003030777,-4.28356409072876,-1106.70007324219,14.1000003814697,-880.500061035156,1.15137624693512,-0.376044827789128,0.329539314150624,NLL
15.4,-2.99849081039429,-3.10974526405334,8.59292221069336,2.59148001670837,0.342989981174469,-3.99392795562744,-1109.10009765625,19.5,-890.100036621094,1.18509990353625,-0.316011406556335,0.344759407678755,NLL
15.4333333333333,-3.24911260604858,-3.11692309379578,9.37349891662598,2.26373386383057,0.228659987449646,-5.03814172744751,-1121.10009765625,15.3000001907349,-892.500061035156,1.21308507582665,-0.315381963203541,0.320054592856178,NLL
15.4666666666667,-3.37950778007507,-3.03796815872192,9.20841121673584,2.41617393493652,-0.0914639979600906,-5.87656164169312,-1109.10009765625,17.7000007629395,-899.700012207031,1.25404852000314,-0.331877332042291,0.317802160611504,NLL
15.5,-2.28550434112549,-3.02959418296814,8.32435607910156,2.10367202758789,-0.754577994346619,-7.66010999679565,-1130.70007324219,15.9000005722046,-892.500061035156,1.30875189618041,-0.247757992115669,0.34812015849687,NLL
15.5333333333333,-2.40632915496826,-2.80648684501648,8.61864185333252,2.81251788139343,-2.29422187805176,-11.9512958526611,-1113.90002441406,11.1000003814697,-890.100036621094,1.3700116736817,-0.249171476105031,0.315033998056822,NLL
15.5666666666667,-3.09000658988953,-2.2352602481842,8.4948263168335,4.44362592697144,-3.49087595939636,-13.9711256027222,-1128.30004882812,11.1000003814697,-904.500061035156,1.44278947238476,-0.325421887421405,0.257433924663079,NLL
15.6,-2.88903045654297,-1.32249414920807,8.24540042877197,6.45583391189575,-2.82776188850403,-11.4329996109009,-1130.70007324219,5.70000028610229,-890.100036621094,1.48758691462039,-0.325026177448591,0.155417081591445,NLL
15.6333333333333,-2.54988360404968,-0.647788822650909,7.95051622390747,6.6235179901123,-2.23324584960938,-9.67994022369385,-1133.10009765625,5.10000038146973,-906.900024414062,1.53874397942622,-0.304344498475067,0.0755389138735937,NLL
15.6666666666667,-2.27174711227417,0.335558205842972,7.66520214080811,4.67990779876709,-0.67835795879364,-6.11284399032593,-1137.90002441406,2.10000014305115,-887.700012207031,1.54857521377647,-0.287352185476365,-0.0472220703516383,NLL
15.7,-2.119220495224,-0.07656230032444,9.86158275604248,1.73781597614288,-0.129574000835419,-3.58996200561523,-1135.5,11.1000003814697,-899.700012207031,1.58627703305464,-0.212361977370877,0.005465492210078,NLL
15.7333333333333,-1.42477655410767,-0.361278355121613,11.0064287185669,0.0609759986400604,-0.868907988071442,-2.87349390983582,-1137.90002441406,-8.70000076293945,-906.900024414062,1.6088559698808,-0.128036252873633,0.0330283663951616,NLL
15.7666666666667,-1.11972367763519,-1.06409633159637,11.9933643341064,-0.899396002292633,-0.472563982009888,-2.74391984939575,-1154.70007324219,-0.900000035762787,-887.700012207031,1.63152803541312,-0.0919416973488568,0.0898019572760678,NLL
15.8,-0.552085936069489,-1.71906292438507,11.5124578475952,-1.28811800479889,-0.548784017562866,-3.69666981697083,-1145.10009765625,9.90000057220459,-892.500061035156,1.65790057044406,-0.0460724296251157,0.150031528575873,NLL
15.8333333333333,-0.675901532173157,-1.96370339393616,11.1386184692383,-0.602137982845306,-0.792688012123108,-3.84148788452148,-1140.30004882812,3.90000009536743,-902.100036621094,1.68211464383873,-0.0570270702799971,0.175596946562851,NLL
15.8666666666667,-0.0741697251796722,-1.53304040431976,9.05409049987793,1.14329993724823,-2.78965187072754,-3.62045001983643,-1145.10009765625,3.30000019073486,-890.100036621094,1.70217828243103,-0.0027976825702773,0.16586434901068,NLL
15.9,-0.555076658725739,-0.964804589748383,6.75722122192383,2.0731840133667,-3.76526784896851,-2.98020195960999,-1154.70007324219,-6.30000019073486,-885.300048828125,1.71705626571489,-0.0730382054796847,0.138833918751903,NLL
15.9333333333333,-0.992917358875275,-1.15082705020905,6.75123977661133,1.31860601902008,-2.53050398826599,-1.46342396736145,-1164.30004882812,5.70000028610229,-892.500061035156,1.7275476774848,-0.138392741469264,0.166432654781361,NLL
15.9666666666667,-1.49475932121277,-1.81895279884338,8.43979740142822,0.221037998795509,-1.53964400291443,-0.434453994035721,-1157.10009765625,0.900000035762787,-890.100036621094,1.73539246064621,-0.16828023383565,0.21135829443516,NLL
16.0,-2.05701375007629,-2.0432562828064,8.44996547698975,-0.472563982009888,-2.20275783538818,-0.716467976570129,-1159.5,1.5,-892.500061035156,1.74119382535651,-0.227690099330232,0.237867675118219,NLL
16.0333333333333,-2.12041687965393,-2.2250919342041,8.16405296325684,-0.396344006061554,-1.85976791381836,-0.533540010452271,-1154.70007324219,4.5,-880.500061035156,1.74749096922707,-0.242027515898614,0.266533306954572,NLL
16.0666666666667,-1.91764640808105,-3.03916454315186,9.54337120056152,-0.663114011287689,-1.56251001358032,-0.617381989955902,-1169.10009765625,-2.10000014305115,-885.300048828125,1.75649959182648,-0.186936333875794,0.308979917938428,NLL
16.1,-1.53064787387848,-3.56433391571045,11.3258371353149,-0.190549999475479,-3.39941191673279,-0.99848198890686,-1173.90002441406,-1.5,-887.700012207031,1.75529744727735,-0.122817276963424,0.3052588617571,NLL
16.1333333333333,-0.543711960315704,-3.78145980834961,11.2761917114258,0.846041977405548,-6.61589574813843,-1.78354799747467,-1183.5,-1.5,-882.900024414062,1.75456154551845,-0.0348352104584427,0.321856735679669,NLL
16.1666666666667,0.855344474315643,-3.42556476593018,8.94881725311279,2.66770005226135,-6.88266563415527,-1.56251001358032,-1185.90002441406,-8.70000076293945,-882.900024414062,1.74655702567826,0.0995650181240905,0.360612856292607,NLL
16.2,1.15621042251587,-2.8501513004303,8.36921691894531,2.89635992050171,-3.49087595939636,-0.701223969459534,-1188.30004882812,-3.90000009536743,-885.300048828125,1.74555720587005,0.13575507970837,0.323743123425084,NLL
16.2333333333333,1.36615860462189,-2.25798964500427,8.94104099273682,3.3460578918457,-1.48628997802734,1.08232402801514,-1200.30004882812,-7.50000047683716,-873.300048828125,1.74360189028614,0.149053694899301,0.242406741312766,ST
16.2666666666667,1.08503139019012,-1.75435328483582,8.35844993591309,3.16313004493713,-0.87652999162674,2.01220798492432,-1202.70007324219,-1.5,-875.700012207031,1.7329468538072,0.127420394470615,0.202344156089218,ST
16.3,1.09519982337952,-1.33864402770996,8.31418704986572,2.13416004180908,0.449698001146317,2.31708788871765,-1212.30004882812,-6.30000019073486,-885.300048828125,1.72312042915136,0.127904675996552,0.156969476653752,ST
16.3333333333333,0.687266290187836,-0.942075192928314,9.11270809173584,1.47866797447205,1.73781597614288,2.080806016922,-1209.90002441406,-5.10000038146973,-892.500061035156,1.71608551942571,0.0721727980231558,0.101365643124602,ST
16.3666666666667,-0.0263182912021875,-0.452794224023819,9.94831371307373,1.07470202445984,2.58385801315308,2.19513607025146,-1200.30004882812,-7.50000047683716,-873.300048828125,1.70455101445111,-0.0065047837448584,0.044193662152296,ST
16.4,-0.375633776187897,-0.277538329362869,9.66718673706055,0.25152599811554,3.82624387741089,2.98782396316528,-1197.90002441406,-7.50000047683716,-875.700012207031,1.6860644991495,-0.0451708113523633,0.0282422780872383,ST
16.4333333333333,-0.28710862994194,-0.234472051262856,9.82808685302734,-1.265251994133,5.84607410430908,3.50611996650696,-1176.30004882812,-3.30000019073486,-885.300048828125,1.66441671017811,-0.0396238709157686,0.0258560988593006,ST
16.4666666666667,0.272155046463013,-0.0825437307357788,10.0326519012451,-0.983237981796265,5.28966808319092,3.50611996650696,-1181.10009765625,-0.900000035762787,-885.300048828125,1.64053079676335,0.0173992158792683,0.0101530778393704,ST
16.5,-0.227892473340034,-0.134582161903381,9.35316181182861,-0.594515979290009,4.13874578475952,3.39178991317749,-1169.10009765625,1.5,-880.500061035156,1.61936653458448,-0.0310713775882071,0.0151968470950692,ST
16.5333333333333,-0.144750595092773,-0.644798099994659,9.94532299041748,-0.87652999162674,4.59606599807739,3.08691000938416,-1164.30004882812,-2.70000004768372,-882.900024414062,1.60150517893815,-0.0229434412238329,0.0657154706096177,ST
16.5666666666667,-0.709995687007904,-1.00069320201874,9.63548469543457,-1.02897000312805,5.13722801208496,2.0579400062561,-1154.70007324219,2.10000014305115,-894.900024414062,1.59291301886567,-0.0818331355625817,0.104661640575715,ST
16.6,-0.753062009811401,-1.53483486175537,9.8316764831543,-0.92988395690918,5.98326969146729,1.56251001358032,-1142.70007324219,0.900000035762787,-892.500061035156,1.5922949166144,-0.086218760895456,0.155758442936273,ST
16.6333333333333,-1.86381351947784,-1.61917304992676,10.3927345275879,-0.724089980125427,5.39637565612793,0.78506600856781,-1137.90002441406,-0.900000035762787,-890.100036621094,1.59196882496461,-0.183690987494407,0.155837758265213,ST
16.6666666666667,-2.13058519363403,-1.53184413909912,10.6583099365234,-0.0609759986400604,3.76526784896851,1.45580196380615,-1133.10009765625,2.10000014305115,-882.900024414062,1.58383102199612,-0.201984080475944,0.142692808052136,ST
16.7,-1.54978847503662,-1.42298209667206,8.99367809295654,0.342989981174469,1.79117000102997,1.45580196380615,-1113.90002441406,-2.70000004768372,-890.100036621094,1.57938624175207,-0.172433885135195,0.155804970025899,ST
16.7333333333333,-1.65625786781311,-1.263876080513,7.76628828048706,0.632625997066498,1.76068198680878,1.82165801525116,-1104.30004882812,-0.300000011920929,-887.700012207031,1.5714652995913,-0.210532999491308,0.159612187133122,ST
16.7666666666667,-2.28610253334045,-1.53722739219666,8.46312522888184,0.381099998950958,3.20886182785034,1.82927989959717,-1118.70007324219,0.900000035762787,-890.100036621094,1.56878407734094,-0.265172283983721,0.17820448964562,ST
16.8,-2.5175838470459,-1.78545677661896,8.35007572174072,0.0533539988100529,3.30794787406921,0.731711983680725,-1113.90002441406,-1.5,-885.300048828125,1.57735805701913,-0.292345690524054,0.210209230120755,ST
16.8333333333333,-3.23595356941223,-1.81356954574585,8.1664457321167,0.342989981174469,3.46800994873047,-0.579271972179413,-1104.30004882812,-3.30000019073486,-894.900024414062,1.5889579279613,-0.373932648153838,0.218731129292061,ST
16.8666666666667,-3.17015767097473,-2.40872168540955,7.75970888137817,0.236281991004944,3.71191382408142,-1.18140995502472,-1106.70007324219,-4.5,-899.700012207031,1.6329250263405,-0.377571493194195,0.301244157332134,ST
16.9,-3.61577415466309,-2.60431456565857,9.07801628112793,-0.0304879993200302,3.08691000938416,-1.52439999580383,-1099.5,1.5,-899.700012207031,1.63932860555944,-0.370167905577985,0.281248731964968,ST
16.9333333333333,-3.40044283866882,-2.68805456161499,8.75980377197266,-0.0304879993200302,1.16616594791412,-1.03659200668335,-1092.30004882812,-5.70000028610229,-894.900024414062,1.65325872117166,-0.356933407611714,0.2984511204217,ST
16.9666666666667,-3.69712162017822,-2.79392576217651,9.41058349609375,-0.144817993044853,1.93598794937134,-0.144817993044853,-1092.30004882812,0.900000035762787,-887.700012207031,1.65387554287717,-0.363278200238163,0.289424913311947,ST
17.0,-3.09479165077209,-2.65156769752502,8.47568607330322,-0.114329993724823,1.89787793159485,-0.0838419944047928,-1097.10009765625,-1.5,-899.700012207031,1.66233043583291,-0.338744140258451,0.303622671353054,ST
17.0333333333333,-3.83768534660339,-2.84656238555908,9.24489784240723,-0.274392008781433,1.85214591026306,0.510673999786377,-1073.10009765625,-4.5,-899.700012207031,1.66051289108155,-0.380601029763073,0.299259787814897,ST
17.0666666666667,-4.04464292526245,-2.62046432495117,9.02418327331543,-0.228659987449646,0.228659987449646,0.297257989645004,-1080.30004882812,0.300000011920929,-897.300048828125,1.65230568429436,-0.406751244802196,0.282988438424169,ST
17.1,-4.43881893157959,-1.83091568946838,8.64914703369141,-0.381099998950958,-2.42379593849182,2.27897787094116,-1085.10009765625,-1.5,-894.900024414062,1.602654188512,-0.461533971654197,0.207594391937336,ST
17.1333333333333,-4.13795328140259,-1.4080286026001,7.95948839187622,-1.2500079870224,-4.64179801940918,4.32929611206055,-1080.30004882812,3.90000009536743,-890.100036621094,1.55180672510785,-0.466439372202969,0.173071173581233,ST
17.1666666666667,-3.60560584068298,-1.25610029697418,8.16824054718018,-2.89635992050171,-5.434485912323,5.70125579833984,-1089.90002441406,2.70000004768372,-899.700012207031,1.49830659457042,-0.404307061412831,0.153011986700983,ST
17.2,-2.2711489200592,-1.1316864490509,8.45176029205322,-2.42379593849182,-4.19210004806519,5.28966808319092,-1106.70007324219,2.10000014305115,-890.100036621094,1.45263254774705,-0.256120899470448,0.134814710575965,ST
17.2333333333333,-1.8105788230896,-1.01624488830566,9.258056640625,-1.14329993724823,-2.36281991004944,4.47411394119263,-1101.90002441406,-4.5,-892.500061035156,1.41451230478137,-0.189357171143704,0.109945286541659,ST
17.2666666666667,-1.64668762683868,-0.707004964351654,9.51824951171875,-0.0838419944047928,-1.63110792636871,3.06404399871826,-1106.70007324219,0.300000011920929,-902.100036621094,1.3880695867683,-0.168667076386688,0.0737833774082926,ST
17.3,-1.59405100345612,-0.699827253818512,9.31428241729736,0.0838419944047928,-0.731711983680725,2.30946588516235,-1101.90002441406,6.30000019073486,-890.100036621094,1.3734906173094,-0.168063359466341,0.0741449151727827,ST
17.3333333333333,-2.00676965713501,-0.758445262908936,9.6283073425293,-0.442075997591019,0.754577994346619,1.74543797969818,-1104.30004882812,5.10000038146973,-904.500061035156,1.36267850687621,-0.206081896408926,0.0787321056630258,ST
17.3666666666667,-2.01275110244751,-1.19090270996094,9.60856914520264,-1.19665396213531,1.42531394958496,0.823175966739655,-1101.90002441406,3.90000009536743,-890.100036621094,1.36600351417159,-0.207600276403917,0.12482274647548,ST
17.4,-3.13606357574463,-1.77169942855835,10.3981170654297,-1.16616594791412,1.82165801525116,0.777444005012512,-1097.10009765625,7.50000047683716,-914.100036621094,1.3722699274356,-0.29131782436,0.169992106865305,ST
17.4333333333333,-3.03079032897949,-1.88594484329224,9.73657131195068,-0.129574000835419,1.18140995502472,0.609759986400604,-1099.5,8.10000038146973,-887.700012207031,1.3755884614336,-0.298765693097777,0.19122006151381,ST
17.4666666666667,-2.71257829666138,-1.84287846088409,9.17252254486084,0.342989981174469,0.541162014007568,0.495429992675781,-1094.70007324219,3.30000019073486,-890.100036621094,1.37566720751926,-0.283482052577252,0.197405399164628,ST
17.5,-2.5056209564209,-1.74777376651764,7.5491623878479,0.846041977405548,-1.21951997280121,0.487807989120483,-1097.10009765625,0.300000011920929,-892.500061035156,1.38095236626611,-0.310524741477968,0.225266400782554,ST
17.5333333333333,-3.06667900085449,-1.96789038181305,8.31239318847656,0.342989981174469,-0.472563982009888,1.18903195858002,-1097.10009765625,9.90000057220459,-899.700012207031,1.3757374873382,-0.343996745839111,0.231013509559321,ST
17.5666666666667,-2.71317648887634,-2.15570735931396,7.98640489578247,0.0914639979600906,0.274392008781433,1.12043392658234,-1094.70007324219,0.300000011920929,-904.500061035156,1.38006563462272,-0.318219221916788,0.26251079799119,ST
17.6,-3.01703310012817,-2.43444180488586,7.76389598846436,-0.556405961513519,1.53202199935913,0.342989981174469,-1097.10009765625,1.5,-909.300048828125,1.3934350196396,-0.357330373206029,0.304379656960945,ST
17.6333333333333,-3.39027428627014,-2.58696842193604,7.39783239364624,-0.152439996600151,1.82927989959717,-0.304879993200302,-1101.90002441406,7.50000047683716,-902.100036621094,1.41040108056792,-0.410467014004337,0.336927351435515,ST
