seconds,sensor_accX_m_s_,sensor_accY_m_s_,sensor_accZ_m_s_,sensor_gyroX___s_,sensor_gyroY___s_,sensor_gyroZ___s_,sensor_magX__T_,sensor_magY__T_,sensor_magZ__T_,sensor_yaw___,sensor_pitch___,sensor_roll___,label1
0.0,0.966000914573669,-0.952243626117706,9.4907341003418,0.144817993044853,-0.0685980021953583,0.495429992675781,-1219.5,-7.50000047683716,-870.900024414062,-0.173479226645675,0.100549567504014,0.0994814061027809,ST
0.0333333333333333,0.967795312404633,-0.980954468250275,9.51166915893555,0.106707997620106,-0.0762199983000755,0.510673999786377,-1229.10009765625,-2.70000004768372,-880.500061035156,-0.175265381205801,0.10086122871244,0.102242193920255,ST
0.0666666666666667,0.958823204040527,-0.999496877193451,9.54277324676514,0.167683988809586,-0.213415995240211,0.46494197845459,-1224.30004882812,-5.10000038146973,-873.300048828125,-0.177048292233584,0.0999824702107818,0.103961076063818,ST
0.1,1.02342259883881,-0.989328503608704,9.53978252410889,0.160062000155449,-0.167683988809586,0.472563982009888,-1233.90002441406,-6.90000009536743,-868.500061035156,-0.178419405039083,0.105629380321827,0.103256025638422,ST
0.133333333333333,0.990524768829346,-1.01624488830566,9.49910831451416,0.114329993724823,-0.129574000835419,0.419209986925125,-1212.30004882812,-8.10000038146973,-878.100036621094,-0.179975960087815,0.103755246898974,0.106024760124065,ST
0.166666666666667,1.01086163520813,-1.05811488628387,9.50449180603027,0.0990860015153885,-0.0762199983000755,0.37347799539566,-1214.70007324219,-0.900000035762787,-880.500061035156,-0.181520458444819,0.105154963853398,0.110127548507213,ST
0.2,0.985739588737488,-1.03239476680756,9.52363204956055,0.0533539988100529,-0.137196004390717,0.297257989645004,-1200.30004882812,-9.30000019073486,-875.700012207031,-0.182279943469384,0.103004879426371,0.108198096559005,ST
0.233333333333333,0.895420014858246,-1.06589078903198,9.44288349151611,0.0990860015153885,-0.0457319989800453,0.342989981174469,-1217.10009765625,-7.50000047683716,-868.500061035156,-0.183718577347284,0.0950113597152289,0.111813384622847,ST
0.266666666666667,0.951645493507385,-1.0276095867157,9.37409687042236,-0.0152439996600151,-0.0076219998300075,0.335367977619171,-1212.30004882812,-6.30000019073486,-882.900024414062,-0.184511132591453,0.0998831205477226,0.109565952752484,ST
0.3,0.892429292201996,-1.08802211284637,9.51286602020264,0.0533539988100529,-0.175305992364883,0.381099998950958,-1214.70007324219,-5.10000038146973,-882.900024414062,-0.186142772842818,0.0938873355406966,0.113392119510246,ST
0.333333333333333,0.964206457138062,-1.09340536594391,9.53679180145264,0.0533539988100529,-0.3125019967556,0.381099998950958,-1214.70007324219,-3.30000019073486,-890.100036621094,-0.187443470553323,0.0997385696781204,0.114038555053991,ST
0.366666666666667,0.887644171714783,-1.0335910320282,9.5684928894043,0.167683988809586,-0.449698001146317,0.503051996231079,-1212.30004882812,-8.70000076293945,-863.700012207031,-0.188511561432172,0.0936113810444947,0.108297008882092,ST
0.4,0.991122901439667,-1.00428199768066,9.44168663024902,0.0685980021953583,-0.495429992675781,0.670735955238342,-1212.30004882812,-9.90000057220459,-870.900024414062,-0.190518403722448,0.103450999450826,0.106246049450389,ST
0.433333333333333,1.10776078701019,-1.05033910274506,9.49611759185791,-0.0381099991500378,-0.396344006061554,0.731711983680725,-1214.70007324219,-3.90000009536743,-863.700012207031,-0.193241212410947,0.114525978032392,0.109897646765292,ST
0.466666666666667,1.04435765743256,-1.09280717372894,9.51765060424805,-0.0,-0.25152599811554,0.708845973014832,-1226.70007324219,-3.90000009536743,-866.100036621094,-0.195915575358655,0.109535280797261,0.113931188353209,ST
0.5,1.0276095867157,-1.08862018585205,9.55234336853027,0.167683988809586,-0.121951997280121,0.792688012123108,-1212.30004882812,-10.5,-873.300048828125,-0.198206115680333,0.106940370494265,0.113413225961096,ST
0.533333333333333,1.0216281414032,-1.09340536594391,9.51226806640625,0.213415995240211,-0.129574000835419,0.800309956073761,-1207.5,-10.5,-873.300048828125,-0.200665040400323,0.106440283969735,0.114113915753119,ST
0.566666666666667,1.03598368167877,-1.07306849956512,9.5146598815918,0.175305992364883,-0.121951997280121,0.746955990791321,-1217.10009765625,-2.10000014305115,-878.100036621094,-0.202701268785523,0.107653172645386,0.11240849345047,ST
0.6,0.968991637229919,-1.03777801990509,9.53499698638916,0.167683988809586,-0.0838419944047928,0.701223969459534,-1217.10009765625,-1.5,-873.300048828125,-0.204398205570456,0.101637153552289,0.108808281127451,ST
0.633333333333333,0.925925314426422,-1.04435765743256,9.5565299987793,0.144817993044853,-0.152439996600151,0.571649968624115,-1207.5,-3.90000009536743,-880.500061035156,-0.206105877357834,0.09691322269628,0.108712624170329,ST
0.666666666666667,0.945065915584564,-1.0575168132782,9.53559494018555,0.213415995240211,-0.167683988809586,0.525918006896973,-1221.90002441406,-2.70000004768372,-878.100036621094,-0.207939722527079,0.0982089013892045,0.110001757945543,ST
0.7,0.894821882247925,-1.01504862308502,9.43929386138916,0.282013982534409,-0.0533539988100529,0.472563982009888,-1200.30004882812,-5.10000038146973,-870.900024414062,-0.209106924618205,0.0945512980590692,0.10715421276933,ST
0.733333333333333,0.794932007789612,-0.983945190906525,9.57806301116943,0.198172003030777,-0.221037998795509,0.46494197845459,-1209.90002441406,2.10000014305115,-873.300048828125,-0.21019918666835,0.0841609538525839,0.102730019027189,ST
0.766666666666667,0.829026162624359,-0.982150733470917,9.41716289520264,0.167683988809586,-0.37347799539566,0.739333987236023,-1212.30004882812,-2.70000004768372,-873.300048828125,-0.212535955295624,0.0873527987093155,0.10360592726024,ST
0.8,0.83560574054718,-0.957028746604919,9.51166915893555,-0.0609759986400604,-0.434453994035721,0.907018005847931,-1229.10009765625,-3.30000019073486,-863.700012207031,-0.215003518215818,0.0877237585976259,0.100945568986434,ST
0.833333333333333,0.899008870124817,-0.980356335639954,9.47099590301514,-0.121951997280121,-0.525918006896973,1.12805593013763,-1212.30004882812,-2.10000014305115,-870.900024414062,-0.218547491079207,0.0938876747575609,0.103196009108446,ST
0.866666666666667,0.967197179794312,-1.00607645511627,9.46920108795166,-0.190549999475479,-0.533540010452271,1.2500079870224,-1219.5,-6.90000009536743,-868.500061035156,-0.222486609523432,0.100834578813858,0.105974699068939,ST
0.9,1.03299295902252,-1.11434030532837,9.521240234375,-0.182927995920181,-0.365855991840363,1.16616594791412,-1221.90002441406,-9.30000019073486,-870.900024414062,-0.226859860302175,0.106814711538791,0.115552106318677,ST
0.933333333333333,1.0975923538208,-1.16936945915222,9.48594951629639,-0.121951997280121,-0.327746003866196,0.937505960464478,-1221.90002441406,-0.900000035762787,-885.300048828125,-0.230583215596824,0.113859914132578,0.122252385566726,ST
0.966666666666667,1.07725548744202,-1.19748222827911,9.533203125,-0.0457319989800453,-0.282013982534409,0.579271972179413,-1205.10009765625,-2.10000014305115,-863.700012207031,-0.232596233318732,0.112265142312225,0.124765284806178,ST
1.0,1.01744115352631,-1.20107114315033,9.52901554107666,0.121951997280121,-0.236281991004944,0.228659987449646,-1212.30004882812,-7.50000047683716,-866.100036621094,-0.233411129046322,0.106759819278511,0.125156967106728,ST
1.03333333333333,0.960019469261169,-1.15441596508026,9.51226806640625,0.198172003030777,-0.25152599811554,0.198172003030777,-1219.5,4.5,-856.500061035156,-0.233752108964758,0.100948758695891,0.120968338580378,ST
1.06666666666667,0.988132178783417,-1.16099548339844,9.49611759185791,0.205793991684914,-0.213415995240211,0.236281991004944,-1217.10009765625,-5.70000028610229,-866.100036621094,-0.234640967700443,0.102976145185448,0.12130026572911,ST
1.1,0.951645493507385,-1.1597992181778,9.49013614654541,0.266770005226135,-0.160062000155449,0.274392008781433,-1224.30004882812,2.70000004768372,-873.300048828125,-0.235545167198975,0.0999082405945604,0.121208186175723,ST
1.13333333333333,0.967197179794312,-1.13467717170715,9.51765060424805,0.358233988285065,-0.0685980021953583,0.457319974899292,-1217.10009765625,-5.10000038146973,-868.500061035156,-0.236705146859547,0.100498394236999,0.118531910615348,ST
1.16666666666667,0.923532724380493,-1.12091994285583,9.51047325134277,0.388722002506256,-0.0685980021953583,0.480185985565186,-1219.5,-4.5,-861.300048828125,-0.238050967476187,0.0967482261726742,0.116968727527837,ST
1.2,0.948056638240814,-1.13527536392212,9.47578048706055,0.3125019967556,-0.0228659994900227,0.442075997591019,-1226.70007324219,-5.70000028610229,-866.100036621094,-0.23964218490693,0.0987067845763387,0.11856123876808,ST
1.23333333333333,0.901401460170746,-1.09460163116455,9.55473613739014,0.472563982009888,-0.152439996600151,0.480185985565186,-1221.90002441406,-5.10000038146973,-868.500061035156,-0.240881008266581,0.0941689398352256,0.113883789339517,ST
1.26666666666667,0.936093747615814,-1.04017066955566,9.48834228515625,0.396344006061554,-0.160062000155449,0.571649968624115,-1197.90002441406,-9.90000057220459,-878.100036621094,-0.242331227986891,0.0974893535354115,0.109211192087018,ST
1.3,0.940280735492706,-1.02880585193634,9.46082782745361,0.403965979814529,-0.0457319989800453,0.594515979290009,-1209.90002441406,-6.90000009536743,-858.900024414062,-0.244026549312856,0.0983219499425565,0.107917431680716,ST
1.33333333333333,0.921140193939209,-0.97557121515274,9.47996807098389,0.335367977619171,-0.0381099991500378,0.525918006896973,-1214.70007324219,-3.30000019073486,-890.100036621094,-0.245137263099291,0.0965974614924804,0.102843656583631,ST
1.36666666666667,0.900803327560425,-1.01564681529999,9.47578048706055,0.190549999475479,-0.129574000835419,0.442075997591019,-1217.10009765625,-1.5,-873.300048828125,-0.246792282253163,0.0946848103092439,0.106022601503167,ST
1.4,0.928916037082672,-1.04495573043823,9.50808048248291,0.167683988809586,-0.190549999475479,0.426831990480423,-1209.90002441406,-3.30000019073486,-866.100036621094,-0.248551287837272,0.0968236547181409,0.10892511271572,ST
1.43333333333333,0.961813926696777,-1.0796480178833,9.47697734832764,0.114329993724823,-0.304879993200302,0.266770005226135,-1219.5,-8.10000038146973,-878.100036621094,-0.249904806376942,0.100528652380202,0.112818399441304,ST
1.46666666666667,0.993515491485596,-1.07306849956512,9.54396915435791,0.160062000155449,-0.259148001670837,0.175305992364883,-1209.90002441406,-2.10000014305115,-875.700012207031,-0.250437500692876,0.103094976115169,0.111869277767966,ST
1.5,0.947458446025848,-1.07306849956512,9.497314453125,0.213415995240211,-0.213415995240211,0.137196004390717,-1214.70007324219,0.900000035762787,-866.100036621094,-0.250984467871777,0.0996830464235219,0.112125194304439,ST
1.53333333333333,0.930710434913635,-1.04734838008881,9.47219181060791,0.274392008781433,-0.160062000155449,0.289635986089706,-1219.5,2.10000014305115,-875.700012207031,-0.251730945716729,0.097859742306271,0.110024944287892,ST
1.56666666666667,0.958225011825562,-1.00129127502441,9.46680927276611,0.228659987449646,-0.175305992364883,0.350611984729767,-1214.70007324219,-5.70000028610229,-875.700012207031,-0.252451889503185,0.100221234392327,0.105666024686953,ST
1.6,0.977365612983704,-1.00488018989563,9.50508975982666,0.167683988809586,-0.236281991004944,0.335367977619171,-1209.90002441406,-5.10000038146973,-875.700012207031,-0.253477981003041,0.101976128912633,0.105176484619638,ST
1.63333333333333,1.00428199768066,-1.02521705627441,9.56729698181152,0.175305992364883,-0.182927995920181,0.320124000310898,-1202.70007324219,-5.10000038146973,-875.700012207031,-0.254711844918046,0.104009856366987,0.106363603922373,ST
1.66666666666667,0.930710434913635,-1.02880585193634,9.45364952087402,0.259148001670837,-0.144817993044853,0.327746003866196,-1205.10009765625,-5.70000028610229,-873.300048828125,-0.255908922314919,0.0985962552069162,0.10778538154521,ST
1.7,0.955832481384277,-1.0634982585907,9.69230842590332,0.114329993724823,-0.228659987449646,0.167683988809586,-1214.70007324219,-3.90000009536743,-880.500061035156,-0.256603466188809,0.0981514849278529,0.108941733420818,ST
1.73333333333333,0.956430613994598,-1.02342259883881,9.52482891082764,0.358233988285065,-0.160062000155449,0.3125019967556,-1214.70007324219,-2.70000004768372,-875.700012207031,-0.257521870878229,0.0995600264107208,0.106734506489811,ST
1.76666666666667,0.891233026981354,-1.01086163520813,9.49851036071777,0.3125019967556,0.0304879993200302,0.419209986925125,-1229.10009765625,-5.10000038146973,-870.900024414062,-0.258695003884558,0.0938010984181677,0.105707750459344,ST
1.8,0.903794050216675,-0.999496877193451,9.49312686920166,0.3125019967556,0.228659987449646,0.472563982009888,-1214.70007324219,1.5,-870.900024414062,-0.260034568105105,0.0939036975820939,0.104576297231734,ST
1.83333333333333,0.827829897403717,-1.01265609264374,9.51884746551514,0.289635986089706,0.236281991004944,0.3125019967556,-1207.5,-10.5,-875.700012207031,-0.261059625113831,0.0867379940880803,0.105414417804091,ST
1.86666666666667,0.781174719333649,-0.964206457138062,9.53798770904541,0.335367977619171,0.25152599811554,0.297257989645004,-1209.90002441406,-8.70000076293945,-878.100036621094,-0.261535909398011,0.0816164198173191,0.100906078322433,ST
1.9,0.765622973442078,-0.970187902450562,9.45783710479736,0.259148001670837,0.152439996600151,0.3125019967556,-1207.5,-6.30000019073486,-873.300048828125,-0.2625076713896,0.0802487306809748,0.101689771710259,ST
1.93333333333333,0.730332553386688,-0.970786035060883,9.60079288482666,0.221037998795509,0.0152439996600151,0.121951997280121,-1207.5,-4.5,-870.900024414062,-0.262814256367163,0.0761343689278158,0.100576733399124,ST
1.96666666666667,0.742295444011688,-0.988730311393738,9.49791240692139,0.282013982534409,-0.0685980021953583,0.167683988809586,-1214.70007324219,-2.10000014305115,-870.900024414062,-0.263629031734248,0.0775145960320142,0.102991324075036,ST
2.0,0.699827253818512,-0.995309889316559,9.55114650726318,0.266770005226135,-0.205793991684914,0.190549999475479,-1207.5,-9.90000057220459,-880.500061035156,-0.26433880811512,0.0736277468887344,0.103344924409383,ST
2.03333333333333,0.771006286144257,-0.955234348773956,9.49372482299805,0.304879993200302,-0.25152599811554,0.25152599811554,-1221.90002441406,-2.70000004768372,-868.500061035156,-0.265008700073715,0.0801636837447462,0.10019893537251,ST
2.06666666666667,0.763828575611115,-0.91276615858078,9.55114650726318,0.304879993200302,-0.182927995920181,0.304879993200302,-1202.70007324219,-1.5,-873.300048828125,-0.265679156514695,0.0797616430252972,0.0954171012084593,ST
2.1,0.797324597835541,-0.921140193939209,9.57626914978027,0.289635986089706,-0.289635986089706,0.350611984729767,-1214.70007324219,0.300000011920929,-875.700012207031,-0.266829752346774,0.0826785408823893,0.0954398223464575,ST
2.13333333333333,0.830222427845001,-0.869101762771606,9.43092060089111,0.365855991840363,-0.3125019967556,0.358233988285065,-1197.90002441406,-4.5,-866.100036621094,-0.267756513272639,0.0872656114853421,0.0918313779342238,ST
2.16666666666667,0.885251581668854,-0.910971760749817,9.62711143493652,0.129574000835419,-0.304879993200302,0.282013982534409,-1205.10009765625,-0.900000035762787,-870.900024414062,-0.268856398206839,0.0911657409213191,0.0938519387653756,ST
2.2,0.914560616016388,-0.875083148479462,9.48594951629639,0.213415995240211,-0.381099998950958,0.304879993200302,-1229.10009765625,-3.90000009536743,-882.900024414062,-0.269709787813173,0.0956278742066835,0.0919679045848193,ST
2.23333333333333,0.925925314426422,-0.881064593791962,9.50030517578125,0.0304879993200302,-0.282013982534409,0.175305992364883,-1202.70007324219,-5.10000038146973,-868.500061035156,-0.270333695537148,0.0969922420005164,0.0923908609420477,ST
2.26666666666667,0.869101762771606,-0.893625617027283,9.51765060424805,0.121951997280121,-0.167683988809586,0.205793991684914,-1217.10009765625,-11.1000003814697,-880.500061035156,-0.271147360684066,0.0915752320222839,0.093327307095019,ST
2.3,0.869101762771606,-0.92472904920578,9.52004337310791,0.0914639979600906,-0.236281991004944,0.236281991004944,-1214.70007324219,-2.10000014305115,-868.500061035156,-0.272255102052315,0.0910496572057204,0.0963491992002296,ST
2.33333333333333,0.860129594802856,-0.967197179794312,9.52781963348389,0.152439996600151,-0.259148001670837,0.236281991004944,-1207.5,-8.70000076293945,-875.700012207031,-0.273401615816429,0.0901269909005212,0.100321622760498,ST
2.36666666666667,0.837400138378143,-0.987534046173096,9.52183818817139,0.198172003030777,-0.25152599811554,0.221037998795509,-1214.70007324219,-9.30000019073486,-873.300048828125,-0.274365007403426,0.087985604449125,0.102668941142073,ST
2.4,0.910373628139496,-0.979758203029633,9.64146614074707,0.221037998795509,-0.335367977619171,0.221037998795509,-1212.30004882812,-3.90000009536743,-870.900024414062,-0.275014766807426,0.0933672631211552,0.101162040864965,ST
2.43333333333333,0.91575688123703,-0.914560616016388,9.57088565826416,0.335367977619171,-0.297257989645004,0.182927995920181,-1217.10009765625,-5.10000038146973,-878.100036621094,-0.275186408281963,0.0951661185887852,0.0955871209715695,ST
2.46666666666667,0.83859646320343,-0.885251581668854,9.521240234375,0.350611984729767,-0.114329993724823,0.289635986089706,-1214.70007324219,-6.90000009536743,-873.300048828125,-0.275888943126508,0.0885702290917982,0.0925759506984635,ST
2.5,0.872092425823212,-0.830222427845001,9.49432373046875,0.320124000310898,-0.0685980021953583,0.46494197845459,-1200.30004882812,-10.5,-866.100036621094,-0.276980131451182,0.0910055878533675,0.0873648193285283,ST
2.53333333333333,0.852353751659393,-0.851157426834106,9.49791240692139,0.198172003030777,-0.167683988809586,0.510673999786377,-1226.70007324219,-11.1000003814697,-873.300048828125,-0.278669187476672,0.0895811513246121,0.0888769648383484,ST
2.56666666666667,0.878073871135712,-0.854148149490356,9.54277324676514,0.213415995240211,-0.137196004390717,0.449698001146317,-1212.30004882812,-6.90000009536743,-880.500061035156,-0.280135100477152,0.0913318205842166,0.08895939102233,ST
2.6,0.82663357257843,-0.854746282100677,9.51346397399902,0.304879993200302,-0.182927995920181,0.396344006061554,-1212.30004882812,-4.5,-873.300048828125,-0.281482296673731,0.0871346273959793,0.089116040188316,ST
2.63333333333333,0.850559294223785,-0.881064593791962,9.56191349029541,0.0914639979600906,-0.236281991004944,0.266770005226135,-1214.70007324219,-5.10000038146973,-863.700012207031,-0.282529934150954,0.0885020415158344,0.0914102102653694,ST
2.66666666666667,0.830222427845001,-0.910971760749817,9.51944541931152,0.213415995240211,-0.289635986089706,0.350611984729767,-1224.30004882812,-3.30000019073486,-870.900024414062,-0.283941908511015,0.0872422433614231,0.0945936922857688,ST
2.7,0.887644171714783,-0.948056638240814,9.51166915893555,0.137196004390717,-0.182927995920181,0.381099998950958,-1229.10009765625,-1.5,-880.500061035156,-0.285470299897646,0.0920918606014876,0.0985506627838546,ST
2.73333333333333,0.809885561466217,-0.866111040115356,9.54755783081055,0.213415995240211,-0.106707997620106,0.365855991840363,-1209.90002441406,-9.30000019073486,-868.500061035156,-0.286008895252215,0.085297835819474,0.0911258882449992,ST
2.76666666666667,0.817063271999359,-0.853550016880035,9.42673301696777,0.175305992364883,-0.0838419944047928,0.472563982009888,-1197.90002441406,-3.90000009536743,-882.900024414062,-0.287345688632647,0.0860607252332299,0.0902085471831121,ST
2.8,0.795530140399933,-0.910971760749817,9.52303409576416,0.0457319989800453,-0.0762199983000755,0.503051996231079,-1205.10009765625,-6.90000009536743,-868.500061035156,-0.28928896681656,0.0833704180116589,0.0947662356808274,ST
2.83333333333333,0.760239720344543,-0.928317904472351,9.50150108337402,0.0609759986400604,-0.152439996600151,0.472563982009888,-1217.10009765625,-8.10000038146973,-873.300048828125,-0.290878207772552,0.0801532761856958,0.0970058290623226,ST
2.86666666666667,0.82364284992218,-0.948056638240814,9.56490421295166,0.0152439996600151,-0.266770005226135,0.396344006061554,-1212.30004882812,-8.10000038146973,-870.900024414062,-0.292218922102644,0.0851047777110902,0.0985842844552369,ST
2.9,0.77579140663147,-0.964804589748383,9.56909084320068,0.121951997280121,-0.396344006061554,0.236281991004944,-1200.30004882812,-1.5,-882.900024414062,-0.293160234355081,0.0816724254941818,0.100079071222701,ST
2.93333333333333,0.791343152523041,-0.941477060317993,9.48894023895264,0.0990860015153885,-0.365855991840363,0.419209986925125,-1207.5,-5.10000038146973,-866.100036621094,-0.294393216032754,0.0831339548668796,0.0989618346114834,ST
2.96666666666667,0.844577848911285,-0.96659904718399,9.56909084320068,0.0762199983000755,-0.327746003866196,0.533540010452271,-1214.70007324219,-6.90000009536743,-870.900024414062,-0.296151200388878,0.0873997015664339,0.100398976859345,ST
3.0,0.902597725391388,-0.977365612983704,9.55952072143555,0.182927995920181,-0.327746003866196,0.541162014007568,-1221.90002441406,-0.300000011920929,-870.900024414062,-0.297935964636077,0.0932194236955576,0.101488502077355,ST
3.03333333333333,0.853550016880035,-0.929514169692993,9.64684963226318,0.342989981174469,-0.297257989645004,0.510673999786377,-1214.70007324219,-6.30000019073486,-870.900024414062,-0.299099293459147,0.088942436864083,0.0963457964747495,ST
3.06666666666667,0.839194595813751,-0.933701157569885,9.87713527679443,0.685979962348938,-0.655492007732391,0.716467976570129,-1212.30004882812,-5.70000028610229,-880.500061035156,-0.301255996936655,0.0858841417099466,0.0936001280012149,ST
3.1,0.845774173736572,-1.03837621212006,10.0583724975586,2.27135586738586,-1.21951997280121,0.792688012123108,-1207.5,-3.90000009536743,-878.100036621094,-0.30481834236909,0.0854940946202628,0.0983081713684765,ST
3.13333333333333,0.573020994663239,-0.540123105049133,10.0888776779175,3.47563195228577,-0.914639949798584,1.11281192302704,-1217.10009765625,-0.300000011920929,-870.900024414062,-0.305694078776278,0.0618256363531428,0.0543978492408721,ST
3.16666666666667,1.02701151371002,-0.837400138378143,9.63070011138916,4.77899408340454,-0.556405961513519,2.84300589561462,-1217.10009765625,-5.70000028610229,-880.500061035156,-0.316793145403223,0.100435371878518,0.0755280457400576,ST
3.2,1.31053125858307,-0.13099330663681,8.35127258300781,2.28659987449646,0.952749967575073,2.00458598136902,-1219.5,-12.9000005722046,-868.500061035156,-0.316467875697186,0.146661458732059,0.0207822452896614,ST
3.23333333333333,0.880466461181641,0.34811919927597,8.24540042877197,-0.548784017562866,3.03355598449707,2.14178204536438,-1214.70007324219,-8.70000076293945,-880.500061035156,-0.315715545337108,0.107257725947939,-0.0325054087906136,ST
3.26666666666667,0.70760315656662,0.198583468794823,8.77774810791016,-4.04728174209595,3.51374197006226,2.73629784584045,-1202.70007324219,-9.30000019073486,-880.500061035156,-0.32458992639088,0.0781987495339482,-0.0171570738325953,ST
3.3,0.16269488632679,-0.443822085857391,9.1210823059082,-6.92839765548706,2.25611186027527,2.9268479347229,-1205.10009765625,-5.70000028610229,-878.100036621094,-0.335574178954447,0.021784716366114,0.0511102379611598,ST
3.33333333333333,0.246434897184372,-1.42776727676392,10.0176982879639,-7.24090003967285,1.13567793369293,3.05642199516296,-1193.10009765625,-5.70000028610229,-887.700012207031,-0.346005490358384,0.0217380895544534,0.142313314530027,ST
3.36666666666667,0.216527760028839,-2.11144471168518,10.4848480224609,-3.86435389518738,0.762199997901917,1.53964400291443,-1217.10009765625,-3.30000019073486,-878.100036621094,-0.350880575529642,0.0188904943712474,0.196967294655354,ST
3.4,0.2105463296175,-2.21671795845032,10.4268283843994,-0.861285984516144,0.175305992364883,0.731711983680725,-1205.10009765625,2.70000004768372,-875.700012207031,-0.353145995530682,0.0191527594560786,0.209375121377776,ST
3.43333333333333,0.293090045452118,-1.96549785137177,9.89029407501221,2.42379593849182,-0.259148001670837,-1.16616594791412,-1205.10009765625,-6.30000019073486,-875.700012207031,-0.349625310198205,0.0286534714328182,0.193920324822127,ST
3.46666666666667,-0.167480036616325,-1.37034559249878,9.70427131652832,3.76526784896851,-0.46494197845459,-2.16464805603027,-1202.70007324219,-6.30000019073486,-873.300048828125,-0.342751022507747,-0.010955838317042,0.14018054332652,ST
3.5,-0.307445496320724,-0.642405569553375,8.79808521270752,3.47563195228577,-1.05183601379395,-1.6615959405899,-1200.30004882812,-7.50000047683716,-892.500061035156,-0.339389775621803,-0.0298094854268007,0.0767874106343835,ST
3.53333333333333,-0.317613929510117,-0.493467956781387,8.97573375701904,1.6844619512558,-0.945127964019775,-0.792688012123108,-1205.10009765625,-3.90000009536743,-870.900024414062,-0.337809642042199,-0.0330786817679123,0.0553675295512171,ST
3.56666666666667,-0.117834165692329,-0.39537250995636,8.99965953826904,0.480185985565186,-1.21189796924591,-0.426831990480423,-1197.90002441406,-11.1000003814697,-875.700012207031,-0.336973525719399,-0.0139217951483886,0.0447360458274087,ST
3.6,-0.543113827705383,-0.221911042928696,9.49252891540527,-0.167683988809586,-0.632625997066498,-0.221037998795509,-1217.10009765625,-0.900000035762787,-880.500061035156,-0.337002280330972,-0.0503363224264636,0.0265294904754703,ST
3.63333333333333,-0.729136288166046,-0.382213354110718,9.54038047790527,-0.0990860015153885,-0.739333987236023,-0.0914639979600906,-1207.5,-5.10000038146973,-890.100036621094,-0.336050971808776,-0.0724813505404671,0.0388603929628832,ST
3.66666666666667,-1.29438138008118,-0.360680222511292,9.82808685302734,-0.426831990480423,-1.31098401546478,-0.731711983680725,-1205.10009765625,2.10000014305115,-861.300048828125,-0.334276144574435,-0.12150023168772,0.0377267711428178,ST
3.7,-1.91405749320984,-0.586778283119202,10.3323221206665,-0.358233988285065,-2.23324584960938,-1.2423859834671,-1212.30004882812,-3.30000019073486,-880.500061035156,-0.328683054233273,-0.171124794139623,0.0549550193020421,ST
3.73333333333333,-2.2113344669342,-0.521580696105957,9.37409687042236,0.289635986089706,-4.00154972076416,-2.37044191360474,-1212.30004882812,-2.10000014305115,-866.100036621094,-0.322310469368254,-0.216949379719909,0.0557420815108091,ST
3.76666666666667,-2.08632278442383,-0.53234726190567,8.40151596069336,0.160062000155449,-3.03355598449707,-2.47714996337891,-1226.70007324219,-5.70000028610229,-868.500061035156,-0.314190318628025,-0.234625918141514,0.0628244896193874,ST
3.8,-1.42058956623077,-0.630442678928375,8.24839115142822,0.0152439996600151,-3.14026403427124,-2.44666194915771,-1209.90002441406,-6.30000019073486,-868.500061035156,-0.304988866226493,-0.172440778485437,0.0753556012764038,ST
3.83333333333333,-0.299071490764618,-1.01265609264374,8.3040189743042,-0.449698001146317,-4.46649169921875,-2.46190595626831,-1231.5,-9.90000057220459,-868.500061035156,-0.294866133341908,-0.0471190694622279,0.116097504529073,ST
3.86666666666667,0.546702682971954,-1.31830716133118,9.1629524230957,-0.236281991004944,-6.34912586212158,-2.45428395271301,-1233.90002441406,-0.300000011920929,-856.500061035156,-0.290043841159542,0.0568744142114784,0.140052622638604,ST
3.9,2.00318074226379,-1.69693160057068,8.53908920288086,-0.129574000835419,-8.429931640625,-2.41617393493652,-1255.5,-5.70000028610229,-868.500061035156,-0.293948035053718,0.222953783866057,0.190369109376478,ST
3.93333333333333,1.94217026233673,-1.43315052986145,7.62153768539429,0.266770005226135,-6.86742162704468,-1.89025592803955,-1250.70007324219,-12.3000001907349,-866.100036621094,-0.291460659022838,0.253075656572723,0.185853776003766,ST
3.96666666666667,1.99480676651001,-1.60900461673737,8.94104099273682,-0.198172003030777,-5.37350988388062,-0.647870004177094,-1262.70007324219,-1.5,-839.700012207031,-0.290754399436684,0.229290634313033,0.179510212868949,ST
4.0,2.81486082077026,-1.76332545280457,8.38835716247559,0.0228659994900227,-7.66773176193237,0.205793991684914,-1260.30004882812,2.10000014305115,-844.500061035156,-0.302521295957441,0.31857292725619,0.204696082470325,ST
4.03333333333333,3.61697053909302,-2.08991146087646,8.52592945098877,-0.182927995920181,-6.76071405410767,0.289635986089706,-1286.70007324219,-8.10000038146973,-837.300048828125,-0.318569906854723,0.39170884578019,0.237190191782479,ST
4.06666666666667,3.82931137084961,-2.1832218170166,9.40101337432861,0.731711983680725,-6.40247964859009,0.647870004177094,-1274.70007324219,-9.90000057220459,-842.100036621094,-0.32258183453832,0.388702365165347,0.229342139279249,ST
4.1,5.15479612350464,-2.4996395111084,8.87524509429932,1.32622802257538,-5.15247201919556,1.45580196380615,-1296.30004882812,-11.1000003814697,-827.700012207031,-0.348936391060551,0.502725566819612,0.269116062201375,ST
4.13333333333333,5.28878021240234,-2.11024832725525,9.28437519073486,1.6615959405899,-3.15550804138184,2.27897787094116,-1303.5,-6.30000019073486,-837.300048828125,-0.339607922477166,0.510325657821376,0.229627719789722,ST
4.16666666666667,6.05918836593628,-2.14793133735657,10.206711769104,2.16464805603027,-1.74543797969818,3.09453201293945,-1305.90002441406,0.900000035762787,-813.300048828125,-0.341540325516843,0.525712089947903,0.21012013934774,ST
4.2,6.22965908050537,-2.05402302742004,9.57746505737305,2.4847719669342,-0.891773998737335,3.3613018989563,-1301.10009765625,-7.50000047683716,-815.700012207031,-0.354042916253417,0.561201140595403,0.21059234825749,ST
4.23333333333333,5.78464078903198,-1.86740231513977,9.88909816741943,2.39330792427063,2.11891603469849,3.65093803405762,-1293.90002441406,-10.5,-813.300048828125,-0.355211321100983,0.521234142568534,0.188121691107995,ST
4.26666666666667,5.17991828918457,-1.81416761875153,9.98659515380859,2.54574799537659,3.71953582763672,3.49087595939636,-1305.90002441406,-0.900000035762787,-834.900024414062,-0.362236793446289,0.470488749174024,0.178863520631497,ST
4.3,4.88981866836548,-1.77887713909149,9.66838264465332,2.10367202758789,5.60216999053955,3.14026403427124,-1289.10009765625,-6.90000009536743,-844.500061035156,-0.370790649442874,0.453604269017478,0.179908134159912,ST
4.33333333333333,4.19477653503418,-1.45348739624023,10.3131809234619,2.080806016922,5.66314601898193,2.85824990272522,-1296.30004882812,-3.30000019073486,-832.500061035156,-0.363433877002702,0.383328009406634,0.143377965059516,ST
4.36666666666667,4.0476336479187,-0.771006286144257,9.93336009979248,2.46190595626831,5.26680183410645,3.17837381362915,-1291.5,-5.10000038146973,-844.500061035156,-0.351009978818352,0.377244716071882,0.0842774856878521,ST
4.4,3.59304475784302,-0.418700069189072,9.90644359588623,1.90549993515015,5.15247201919556,2.23324584960938,-1269.90002441406,-5.70000028610229,-842.100036621094,-0.344593199839097,0.34372462816762,0.0460761020342615,ST
4.43333333333333,1.99600315093994,0.135180309414864,10.314377784729,1.72257196903229,3.85673189163208,1.82165801525116,-1269.90002441406,-2.70000004768372,-849.300048828125,-0.336267942512346,0.205931321706996,-0.0073298020571453,ST
4.46666666666667,2.71437287330627,0.769810020923615,9.25566387176514,0.701223969459534,2.40092992782593,0.815553963184357,-1267.5,-2.70000004768372,-846.900024414062,-0.323772104241498,0.270245062191995,-0.0732204005936059,ST
4.5,2.56722974777222,1.68496870994568,9.05349159240723,-0.106707997620106,1.95885396003723,-1.95123195648193,-1262.70007324219,-2.70000004768372,-856.500061035156,-0.293360241261478,0.268473163587664,-0.169514214683312,ST
4.53333333333333,2.56005191802979,1.85185062885284,7.26683902740479,-1.77592599391937,0.754577994346619,-4.19210004806519,-1253.10009765625,-5.10000038146973,-866.100036621094,-0.259466891168626,0.319928782907955,-0.239924397245826,ST
4.56666666666667,3.06129574775696,1.07306849956512,7.16754722595215,-4.09301376342773,-1.2500079870224,-5.61741399765015,-1265.10009765625,-8.70000076293945,-856.500061035156,-0.26810860782145,0.389390022204656,-0.158521584534464,ST
4.6,1.85185062885284,0.366661638021469,9.25387001037598,-4.32929611206055,-0.564027965068817,-5.17533779144287,-1262.70007324219,-5.10000038146973,-870.900024414062,-0.28281097795902,0.2237142072126,-0.0505256812578275,ST
4.63333333333333,1.85603761672974,0.349315494298935,9.46800518035889,-2.9116039276123,-0.907018005847931,-4.35978412628174,-1257.90002441406,0.900000035762787,-863.700012207031,-0.271398429681076,0.198363192260347,-0.0355175031278571,ST
4.66666666666667,2.05581736564636,-0.291295617818832,8.33272933959961,-3.353679895401,0.167683988809586,-3.55185198783875,-1255.5,-8.10000038146973,-854.100036621094,-0.27325082814182,0.235759298279491,0.0291580652279143,ST
4.7,1.59584546089172,-1.25071692466736,10.2695169448853,-4.48173570632935,1.2347639799118,-3.24697184562683,-1262.70007324219,-5.70000028610229,-854.100036621094,-0.278296486392889,0.16291542261593,0.114753590481538,ST
4.73333333333333,1.64848208427429,-2.30823373794556,9.16594314575195,-4.74850606918335,0.983237981796265,-2.67532205581665,-1262.70007324219,-9.90000057220459,-858.900024414062,-0.288072909452939,0.170882588416328,0.23520909053341,ST
4.76666666666667,1.65386533737183,-3.74317860603333,10.7677698135376,-4.66466379165649,2.29422187805176,-0.25152599811554,-1255.5,-6.30000019073486,-858.900024414062,-0.298021104872941,0.144600119064055,0.327954767737186,ST
4.8,1.43434679508209,-3.75035643577576,9.01640701293945,-1.20427596569061,3.67380380630493,-0.304879993200302,-1257.90002441406,0.300000011920929,-854.100036621094,-0.301083067422394,0.140555457123174,0.389100546192939,ST
4.83333333333333,1.7806715965271,-4.03208160400391,8.29564476013184,-1.10518991947174,4.2302098274231,0.548784017562866,-1248.30004882812,0.300000011920929,-868.500061035156,-0.30598998480069,0.177809368104201,0.445099741798146,ST
4.86666666666667,2.32857060432434,-3.91245317459106,8.42723655700684,-1.2423859834671,4.43600368499756,-0.243903994560242,-1238.70007324219,-5.70000028610229,-858.900024414062,-0.29748472529666,0.231099677411695,0.437163125309203,ST
4.9,2.06359314918518,-3.35797452926636,8.88062858581543,-0.0762199983000755,4.69515180587769,0.304879993200302,-1221.90002441406,0.900000035762787,-880.500061035156,-0.277858748919878,0.208942285126496,0.369214017919031,ST
4.93333333333333,2.07854676246643,-2.21552157402039,10.4657077789307,1.60824191570282,3.7881338596344,1.6920839548111,-1219.5,-11.7000007629395,-875.700012207031,-0.252340335307201,0.188309410736979,0.227984387008733,ST
4.96666666666667,1.74897003173828,-0.257799625396729,8.22267150878906,4.1463680267334,3.58996200561523,2.28659987449646,-1205.10009765625,-9.90000057220459,-885.300048828125,-0.225176217345353,0.201777369803902,0.0451182182788063,ST
5.0,-0.344530344009399,0.988730311393738,7.2686333656311,4.02441596984863,5.44972991943359,3.04117798805237,-1207.5,-6.30000019073486,-885.300048828125,-0.220765956410051,-0.020711984365315,-0.116776994437668,ST
5.03333333333333,-3.75215077400208,-0.139965459704399,11.2492752075195,1.22714197635651,10.0076856613159,5.16009378433228,-1205.10009765625,-3.30000019073486,-878.100036621094,-0.21982180558376,-0.307061995747521,-0.0055162051047206,ST
5.06666666666667,-2.26337289810181,-1.29737210273743,10.4519500732422,-0.403965979814529,6.99699592590332,2.55336999893188,-1173.90002441406,-5.10000038146973,-897.300048828125,-0.195838960994707,-0.234072472478824,0.108744615912946,ST
5.1,-1.8566358089447,-1.81416761875153,9.92319202423096,-0.716467976570129,6.14333200454712,0.830797970294952,-1176.30004882812,-3.30000019073486,-885.300048828125,-0.181926748289482,-0.196971271696193,0.174933558557987,ST
5.13333333333333,-1.90628159046173,-1.48040390014648,8.58095932006836,0.670735955238342,7.67535400390625,0.731711983680725,-1161.90002441406,-4.5,-904.500061035156,-0.180750404234199,-0.224617667182315,0.170579119936607,ST
5.16666666666667,-3.17195224761963,-1.18851006031036,8.48824691772461,1.89025592803955,7.71346378326416,0.83841997385025,-1149.90002441406,-3.90000009536743,-899.700012207031,-0.186645048312983,-0.349927327575204,0.140460990696062,ST
5.2,-3.5954372882843,-1.57191967964172,9.16474628448486,0.358233988285065,4.41313791275024,1.29574000835419,-1130.70007324219,-6.30000019073486,-894.900024414062,-0.179036774500881,-0.374034788322699,0.165793793984683,ST
5.23333333333333,-3.84964823722839,-1.96071267127991,9.1689338684082,0.0838419944047928,2.37044191360474,-0.160062000155449,-1128.30004882812,-5.10000038146973,-897.300048828125,-0.162137949332874,-0.391518969918349,0.206093889557205,ST
5.26666666666667,-4.56383085250854,-2.18202567100525,8.99965953826904,0.327746003866196,3.22410583496094,-0.861285984516144,-1135.5,-2.70000004768372,-890.100036621094,-0.1462130081036,-0.453361693416483,0.234082486028492,ST
5.3,-5.10156154632568,-1.96011447906494,9.34418964385986,0.701223969459534,2.69056582450867,-0.78506600856781,-1113.90002441406,-0.900000035762787,-887.700012207031,-0.15251500857015,-0.489411159299526,0.210518183347947,ST
5.33333333333333,-4.58356952667236,-1.36436414718628,8.59770679473877,0.960371971130371,0.304879993200302,0.503051996231079,-1123.5,-10.5,-902.100036621094,-0.174738257285847,-0.485931254131793,0.16272541454609,ST
5.36666666666667,-3.46564030647278,-1.56534016132355,8.08150959014893,0.304879993200302,-0.533540010452271,1.97409796714783,-1125.90002441406,-9.30000019073486,-909.300048828125,-0.169708022791948,-0.409172630634175,0.186020594382889,ST
5.4,-2.66532516479492,-1.57670485973358,7.95709609985352,-0.541162014007568,-2.02745199203491,2.62196803092957,-1128.30004882812,-1.5,-894.900024414062,-0.176194391077847,-0.324962909116498,0.193833415111788,ST
5.43333333333333,-1.61678040027618,-1.31770896911621,7.91761827468872,-0.6250039935112,-0.586893975734711,3.96343994140625,-1125.90002441406,0.300000011920929,-894.900024414062,-0.194670324051271,-0.215950736994115,0.168186037489838,ST
5.46666666666667,-1.33086812496185,-1.29497957229614,8.02229309082031,-1.11281192302704,0.167683988809586,3.65093803405762,-1121.10009765625,-6.30000019073486,-892.500061035156,-0.206609983167286,-0.170715812222185,0.161826397694429,ST
5.5,-1.2058562040329,-2.00019001960754,8.76040172576904,-1.49391198158264,1.11281192302704,3.68142580986023,-1118.70007324219,-0.900000035762787,-897.300048828125,-0.208966118014789,-0.140319051598025,0.21932482538902,ST
5.53333333333333,-1.59345293045044,-2.12819266319275,9.19943904876709,-1.34909391403198,1.02134799957275,3.09453201293945,-1118.70007324219,-5.70000028610229,-909.300048828125,-0.216235836888269,-0.166098346150189,0.227609595587081,ST
5.56666666666667,-2.22568988800049,-1.81775653362274,9.84304046630859,-0.182927995920181,1.73781597614288,3.07928800582886,-1118.70007324219,-6.30000019073486,-904.500061035156,-0.231321703676389,-0.21517849944643,0.188184533576273,ST
5.6,-3.31311392784119,-1.48339462280273,10.2031230926514,1.38720393180847,2.99544596672058,3.26221585273743,-1123.5,-0.300000011920929,-902.100036621094,-0.248369911280537,-0.303195559028257,0.147119354160546,ST
5.63333333333333,-3.45906090736389,-1.37034559249878,10.5219326019287,1.21189796924591,1.78354799747467,2.27897787094116,-1121.10009765625,-5.70000028610229,-909.300048828125,-0.258722520418954,-0.316939863805863,0.128672111323155,ST
5.66666666666667,-4.05122232437134,-1.15800476074219,11.0734205245972,0.99848198890686,0.25152599811554,1.82927989959717,-1123.5,-1.5,-909.300048828125,-0.270320543306799,-0.345333312191746,0.105071194054688,ST
5.7,-2.16408133506775,-1.34342908859253,9.23353290557861,0.914639949798584,-0.46494197845459,1.28049600124359,-1109.10009765625,-3.30000019073486,-904.500061035156,-0.263827882603668,-0.243321477433577,0.137407092296416,ST
5.73333333333333,-2.10606145858765,-1.41161739826202,8.78911304473877,0.777444005012512,-0.304879993200302,-0.289635986089706,-1109.10009765625,-11.1000003814697,-909.300048828125,-0.258418304756182,-0.233289888885302,0.155220865524568,ST
5.76666666666667,-2.34651494026184,-1.1675751209259,7.1226863861084,0.46494197845459,0.365855991840363,-2.09605002403259,-1111.5,-6.90000009536743,-902.100036621094,-0.250217709179622,-0.304183273130667,0.161810081018626,ST
5.8,-3.62175559997559,-1.44989860057831,7.30870914459229,-0.83841997385025,1.70732796192169,-2.5076379776001,-1118.70007324219,0.900000035762787,-921.300048828125,-0.232015577419801,-0.434076053887781,0.194076913099544,ST
5.83333333333333,-4.10146617889404,-1.72624063491821,8.16704368591309,-0.99848198890686,1.06708002090454,-1.89787793159485,-1116.30004882812,-3.90000009536743,-909.300048828125,-0.221285650104509,-0.454631294940223,0.209388810575507,ST
5.86666666666667,-4.49923133850098,-1.64070618152618,8.87883472442627,-0.381099998950958,-0.754577994346619,-1.14329993724823,-1128.30004882812,-8.70000076293945,-899.700012207031,-0.228854575181691,-0.459824541588809,0.187648118378508,ST
5.9,-5.27681732177734,-0.995309889316559,9.3477783203125,2.62196803092957,-2.95733594894409,1.55488801002502,-1116.30004882812,-0.900000035762787,-897.300048828125,-0.266270308523133,-0.501375844097466,0.110171015670457,ST
5.93333333333333,-4.29765701293945,-0.356493204832077,8.51516342163086,4.17685604095459,-4.46649169921875,2.98020195960999,-1113.90002441406,-9.30000019073486,-887.700012207031,-0.300747113268818,-0.465272931694283,0.0421632269143444,ST
5.96666666666667,-4.20733785629272,-0.01914057508111,9.09356784820557,4.12350177764893,-5.52594995498657,3.3613018989563,-1121.10009765625,-2.70000004768372,-909.300048828125,-0.323378108853448,-0.429361784071321,-0.0011594246637774,ST
6.0,-4.18879508972168,0.435448080301285,9.21798133850098,3.62045001983643,-5.95278167724609,3.02593398094177,-1118.70007324219,-5.10000038146973,-906.900024414062,-0.346306205522222,-0.417273920090492,-0.0488554351694477,ST
6.03333333333333,-3.18451309204102,0.730332553386688,8.29684162139893,2.25611186027527,-6.52443170547485,2.61434602737427,-1135.5,-6.90000009536743,-894.900024414062,-0.364679970626894,-0.360884292921203,-0.0880711868811873,ST
6.06666666666667,-3.15041899681091,0.824241042137146,9.12467098236084,0.487807989120483,-5.24393606185913,1.36433792114258,-1149.90002441406,-7.50000047683716,-904.500061035156,-0.367755003282484,-0.326389245553225,-0.0910782839045692,ST
6.1,-2.72693371772766,0.610703945159912,9.45364952087402,-0.548784017562866,-4.39027214050293,0.777444005012512,-1152.30004882812,2.10000014305115,-897.300048828125,-0.362355725229254,-0.279806644495926,-0.0674332002008793,ST
6.13333333333333,-1.88953363895416,0.622666835784912,9.02717399597168,-1.03659200668335,-3.98630595207214,0.0152439996600151,-1152.30004882812,-8.10000038146973,-890.100036621094,-0.362256051963295,-0.206932672584992,-0.067008304891152,ST
6.16666666666667,-1.11134958267212,0.477318078279495,8.62522125244141,-1.27287399768829,-3.00306797027588,-0.0762199983000755,-1176.30004882812,-5.10000038146973,-892.500061035156,-0.360075965647893,-0.134086257645412,-0.0548710104065687,ST
6.2,-0.488682806491852,-0.245238617062569,9.87115383148193,-2.95733594894409,-2.24848985671997,-1.63110792636871,-1173.90002441406,-11.7000007629395,-906.900024414062,-0.349031448753574,-0.0575088210029603,0.0187795960844309,ST
6.23333333333333,0.188415035605431,-0.70162171125412,9.87892913818359,-3.65093803405762,-1.99696397781372,-2.72867584228516,-1171.5,-0.900000035762787,-899.700012207031,-0.340497415743452,0.0119298927508258,0.0693899942944508,ST
6.26666666666667,-0.0705808699131012,-0.869101762771606,10.5602140426636,-3.15550804138184,-0.495429992675781,-3.23934984207153,-1185.90002441406,0.300000011920929,-899.700012207031,-0.331344263605588,-0.0030066145376169,0.0851598621606354,ST
6.3,0.536534249782562,-1.08084440231323,10.983699798584,-2.08842802047729,0.632625997066498,-2.84300589561462,-1166.70007324219,0.900000035762787,-885.300048828125,-0.323166300726187,0.0410714223323708,0.0993567100293656,ST
6.33333333333333,1.22499680519104,-1.38948607444763,10.6906089782715,-2.02745199203491,0.67835795879364,-3.23934984207153,-1171.5,3.90000009536743,-887.700012207031,-0.315312577338426,0.102982390779182,0.127801176658835,ST
6.36666666666667,1.12510693073273,-1.81596207618713,9.68752384185791,-1.99696397781372,0.739333987236023,-3.7957558631897,-1161.90002441406,-0.300000011920929,-892.500061035156,-0.309222439439074,0.112097399115547,0.179892164165001,ST
6.4,-0.299669623374939,-1.89551508426666,9.497314453125,-1.99696397781372,1.95885396003723,-3.01831197738647,-1166.70007324219,-4.5,-899.700012207031,-0.299670169545337,-0.0163574868302314,0.198044000326006,ST
6.43333333333333,-1.1095552444458,-2.1371648311615,9.32026386260986,-1.75305998325348,2.76678586006165,-1.21951997280121,-1171.5,-5.70000028610229,-914.100036621094,-0.293100333849267,-0.106782520973017,0.22487257140849,ST
6.46666666666667,-1.02521705627441,-2.44939541816711,9.1749153137207,-1.69970595836639,2.29422187805176,0.37347799539566,-1149.90002441406,-2.70000004768372,-899.700012207031,-0.289334677631964,-0.111030847786812,0.259358664428839,ST
6.5,-1.73521280288696,-2.2591860294342,8.71554088592529,-0.685979962348938,2.59910202026367,0.632625997066498,-1159.5,1.5,-902.100036621094,-0.290085796256434,-0.185285082934489,0.255379450620774,ST
6.53333333333333,-2.31122446060181,-1.97387182712555,7.75193309783936,0.137196004390717,4.68753004074097,2.0579400062561,-1137.90002441406,1.5,-906.900024414062,-0.293596514101146,-0.275882732500021,0.249634784751481,ST
6.56666666666667,-2.89800262451172,-2.10486507415771,7.90206670761108,-0.0685980021953583,5.8689398765564,3.17075204849243,-1142.70007324219,-1.5,-909.300048828125,-0.295517431041752,-0.342335411905017,0.258249347211667,ST
6.6,-3.75753402709961,-2.15451097488403,9.02478122711182,-0.693601965904236,5.82320785522461,3.29270386695862,-1125.90002441406,-0.900000035762787,-899.700012207031,-0.309137118568962,-0.390260988392302,0.23689501724757,ST
6.63333333333333,-3.39505958557129,-1.96908664703369,8.81842136383057,-0.434453994035721,4.51222372055054,3.01831197738647,-1128.30004882812,2.10000014305115,-899.700012207031,-0.320462644596356,-0.371245023598733,0.221482883868496,ST
6.66666666666667,-3.5332305431366,-1.68616509437561,9.09655857086182,0.426831990480423,4.25307607650757,3.26221585273743,-1123.5,-4.5,-921.300048828125,-0.339395689178203,-0.372970583729625,0.185966000887233,ST
6.7,-3.18152236938477,-1.61558413505554,8.68563365936279,1.09756803512573,3.48325395584106,3.04879999160767,-1101.90002441406,2.70000004768372,-911.700012207031,-0.346334872082579,-0.355353940792695,0.181190580462654,ST
6.73333333333333,-3.80538558959961,-1.50133883953094,9.03315544128418,0.716467976570129,2.16464805603027,2.4847719669342,-1101.90002441406,1.5,-902.100036621094,-0.357197910103494,-0.392499566227051,0.164594489954538,ST
6.76666666666667,-3.5392119884491,-1.57012534141541,8.69281196594238,0.647870004177094,1.09756803512573,2.14940404891968,-1101.90002441406,-3.30000019073486,-902.100036621094,-0.357834966883799,-0.384812807978018,0.174642439308013,ST
6.8,-3.14264321327209,-2.07854676246643,9.02896785736084,-0.3125019967556,0.746955990791321,1.88263392448425,-1094.70007324219,1.5,-904.500061035156,-0.34704949712171,-0.336012207292506,0.219482479863817,ST
6.83333333333333,-2.78375744819641,-2.17963290214539,9.29633808135986,-1.02134799957275,0.0381099991500378,1.15854394435883,-1109.10009765625,3.90000009536743,-911.700012207031,-0.347812670388807,-0.29118898560242,0.229879986436202,ST
6.86666666666667,-2.27832651138306,-2.11682796478271,9.64984035491943,-0.846041977405548,0.0990860015153885,1.05183601379395,-1101.90002441406,-6.90000009536743,-906.900024414062,-0.35414861785156,-0.235851549638181,0.218690421942365,ST
6.9,-1.99660122394562,-1.90568351745605,9.31009578704834,-0.0838419944047928,1.43293595314026,1.2423859834671,-1092.30004882812,3.30000019073486,-909.300048828125,-0.360053160725747,-0.213474231466872,0.203971113892924,ST
6.93333333333333,-1.65326714515686,-1.83211195468903,8.85191822052002,-0.518296003341675,2.63721203804016,0.518296003341675,-1104.30004882812,-3.90000009536743,-916.500061035156,-0.360091370913611,-0.189348317946605,0.204865790491442,ST
6.96666666666667,-2.67429733276367,-1.87398195266724,8.28188800811768,-1.2500079870224,3.7957558631897,-0.746955990791321,-1087.5,-1.5,-902.100036621094,-0.351781393254871,-0.29911383432511,0.223406451325825,ST
7.0,-3.30773067474365,-2.10845398902893,7.84703779220581,-1.08232402801514,3.58996200561523,-0.78506600856781,-1075.5,2.10000014305115,-904.500061035156,-0.335594289709243,-0.382268751918225,0.260862435917182,ST
7.03333333333333,-4.39575290679932,-2.13955736160278,8.08689308166504,-0.571649968624115,3.40703392028809,-0.899396002292633,-1075.5,-1.5,-899.700012207031,-0.331350818086112,-0.476680576468581,0.261156003665337,ST
7.06666666666667,-4.80189180374146,-2.06359314918518,7.16874361038208,1.39482593536377,2.97257995605469,-0.388722002506256,-1058.70007324219,-1.5,-909.300048828125,-0.318040602324682,-0.565923147592922,0.277074469607745,ST
7.1,-5.27562093734741,-1.95114243030548,7.17951011657715,1.95123195648193,3.14788603782654,0.0228659994900227,-1061.10009765625,-4.5,-899.700012207031,-0.319574354289902,-0.615573979223639,0.264608378125266,ST
7.13333333333333,-5.93298006057739,-1.25310957431793,7.79021406173706,3.01831197738647,2.27897787094116,1.31860601902008,-1061.10009765625,-0.900000035762787,-906.900024414062,-0.374152851757879,-0.645403768024907,0.166221704377445,ST
7.16666666666667,-6.04483270645142,-1.01504862308502,7.29076480865479,3.55947399139404,0.282013982534409,2.75154185295105,-1044.30004882812,5.10000038146973,-904.500061035156,-0.394010361490394,-0.682839588391182,0.133558272267939,ST
7.2,-6.34450244903564,-0.652574002742767,9.04990291595459,2.82776188850403,-1.34147191047668,3.70429182052612,-1053.90002441406,-8.10000038146973,-897.300048828125,-0.435530476254276,-0.618502393644133,0.0715072916419811,ST
7.23333333333333,-6.10943222045898,-0.237462759017944,9.6881217956543,2.41617393493652,-3.60520601272583,3.68142580986023,-1051.5,3.90000009536743,-914.100036621094,-0.467770736832132,-0.564809253212849,0.0233273937990754,ST
7.26666666666667,-5.47121381759644,0.837998330593109,9.50449180603027,1.38720393180847,-5.72412204742432,4.18447780609131,-1061.10009765625,-2.10000014305115,-894.900024414062,-0.529702909411061,-0.516798246729221,-0.0807908415649232,ST
7.3,-4.05062437057495,1.3338588476181,9.41237735748291,-0.411587983369827,-5.98326969146729,3.72715783119202,-1075.5,-0.300000011920929,-914.100036621094,-0.563063158092304,-0.406178701003571,-0.135530808744622,ST
7.33333333333333,-3.12051177024841,1.43434679508209,8.93805027008057,-1.47866797447205,-4.76375007629395,3.18599581718445,-1075.5,-2.10000014305115,-904.500061035156,-0.578299113439653,-0.334146997562863,-0.155106085113254,ST
7.36666666666667,-2.69403600692749,1.01504862308502,8.3100004196167,-2.56861400604248,-3.56709599494934,3.24697184562683,-1082.70007324219,-0.300000011920929,-904.500061035156,-0.578109320768838,-0.308452248957755,-0.123527894577349,ST
7.4,-1.94396460056305,-0.099889874458313,7.57847166061401,-5.34302186965942,-2.28659987449646,3.89484190940857,-1089.90002441406,7.50000047683716,-899.700012207031,-0.558049517124063,-0.254875729945117,0.0028296778857623,ST
7.43333333333333,-1.88355219364166,-0.705808699131012,7.94453477859497,-7.09608173370361,-0.800309956073761,3.81862187385559,-1104.30004882812,1.5,-899.700012207031,-0.554033452654225,-0.233825171256339,0.0881833550176701,ST
7.46666666666667,-2.67668986320496,-1.68137991428375,9.13364315032959,-7.02748394012451,0.967993974685669,4.22258806228638,-1092.30004882812,6.30000019073486,-899.700012207031,-0.54818361459258,-0.277748496233813,0.180147009808094,ST
7.5,-2.21791410446167,-2.31182265281677,9.401611328125,-6.59302997589111,0.472563982009888,3.23172783851624,-1085.10009765625,0.900000035762787,-904.500061035156,-0.545868515895444,-0.234133588028108,0.24176022892877,ST
7.53333333333333,-3.12709140777588,-2.20475506782532,9.63787746429443,-4.90094566345215,0.899396002292633,2.27897787094116,-1085.10009765625,12.9000005722046,-894.900024414062,-0.557279387080126,-0.298686419340714,0.233756319599936,ST
7.56666666666667,-3.64448523521423,-2.22688627243042,8.93984508514404,-2.75916385650635,2.33233189582825,2.14178204536438,-1094.70007324219,12.9000005722046,-899.700012207031,-0.560009810158255,-0.370303112951931,0.246033289065728,ST
7.6,-3.61876487731934,-2.33156132698059,8.38895511627197,-2.14178204536438,2.9192259311676,0.731711983680725,-1080.30004882812,14.7000007629395,-909.300048828125,-0.552899468273806,-0.395254091784803,0.270956004090362,ST
7.63333333333333,-4.04524087905884,-2.41051626205444,7.43132829666138,-1.43293595314026,2.46952795982361,-0.907018005847931,-1068.30004882812,14.1000003814697,-911.700012207031,-0.533706713258629,-0.469746875552424,0.311058748411101,ST
7.66666666666667,-3.9579119682312,-2.56005191802979,6.46054220199585,-1.29574000835419,1.47866797447205,-1.85214591026306,-1061.10009765625,16.5,-906.900024414062,-0.501081705346399,-0.512407598357018,0.371956354659397,ST
7.7,-4.70977783203125,-3.08881020545959,7.81114912033081,-1.31860601902008,1.84452390670776,-1.19665396213531,-1085.10009765625,14.7000007629395,-897.300048828125,-0.494772062194917,-0.513136328972915,0.379457242541,ST
7.73333333333333,-4.69721698760986,-3.53023982048035,8.13594055175781,-0.899396002292633,0.266770005226135,-1.53964400291443,-1068.30004882812,21.3000011444092,-914.100036621094,-0.478206974643263,-0.48980360091521,0.408310470918283,ST
7.76666666666667,-4.80966758728027,-3.21442031860352,8.66589546203613,0.335367977619171,-2.13416004180908,-0.480185985565186,-1075.5,12.9000005722046,-909.300048828125,-0.500409188947378,-0.477949903827795,0.361576689939795,ST
7.8,-4.49085760116577,-3.17434477806091,8.82260894775391,1.35671591758728,-3.30032587051392,0.655492007732391,-1075.5,14.7000007629395,-902.100036621094,-0.511430910514201,-0.445536092385019,0.343671861295078,ST
7.83333333333333,-3.83648896217346,-2.98293900489807,8.5905294418335,1.69970595836639,-3.71191382408142,1.60824191570282,-1085.10009765625,18.3000011444092,-909.300048828125,-0.521803212213948,-0.400966714325557,0.331117828235403,ST
7.86666666666667,-3.29337525367737,-3.09239912033081,8.90515232086182,1.07470202445984,-3.17837381362915,1.99696397781372,-1077.90002441406,12.9000005722046,-904.500061035156,-0.529354245609205,-0.339381623731932,0.330580476136835,ST
7.9,-2.68745636940002,-3.16716694831848,9.29035663604736,0.144817993044853,-2.04269599914551,1.60061991214752,-1097.10009765625,12.3000001907349,-897.300048828125,-0.536462780211955,-0.273414416069647,0.327583781787344,ST
7.93333333333333,-2.25619530677795,-3.5433988571167,9.28437519073486,0.121951997280121,-1.59299790859222,0.861285984516144,-1097.10009765625,12.3000001907349,-904.500061035156,-0.532462888807571,-0.226791825307248,0.359961015191461,ST
7.96666666666667,-2.56304264068604,-3.05172538757324,8.87703990936279,0.99848198890686,-1.74543797969818,-1.19665396213531,-1106.70007324219,8.10000038146973,-899.700012207031,-0.536565216304203,-0.258099795249768,0.333757545393315,ST
8.0,-2.0731635093689,-3.01224803924561,8.25736331939697,1.14329993724823,-1.71494996547699,-2.10367202758789,-1099.5,12.9000005722046,-904.500061035156,-0.528754622123232,-0.231698542657837,0.346428552805598,ST
8.03333333333333,-1.8506543636322,-2.84177732467651,7.8416543006897,1.6692179441452,-1.75305998325348,-4.45124769210815,-1104.30004882812,11.7000007629395,-904.500061035156,-0.517649227539314,-0.215375210926372,0.34619304549852,ST
8.06666666666667,-3.69831800460815,-1.9206371307373,8.68922328948975,4.1463680267334,-1.70732796192169,-7.29425382614136,-1101.90002441406,13.5000009536743,-909.300048828125,-0.528163574459697,-0.367838140044232,0.230645977839688,ST
8.1,-4.09608316421509,-1.57012534141541,8.06595802307129,5.22106981277466,-1.21189796924591,-6.03662395477295,-1104.30004882812,8.70000076293945,-902.100036621094,-0.520949461503389,-0.447738989386137,0.192867090296316,ST
8.13333333333333,-3.76830077171326,-0.825437307357788,8.62821197509766,5.37350988388062,-0.0609759986400604,-5.23631381988525,-1125.90002441406,5.70000028610229,-906.900024414062,-0.538016729271977,-0.413902538121282,0.102743043320749,ST
8.16666666666667,-3.22757935523987,-0.331969350576401,8.49183559417725,5.3506441116333,-0.358233988285065,-4.16923379898071,-1104.30004882812,8.10000038146973,-904.500061035156,-0.544359572675282,-0.368995353470577,0.0419363220731503,ST
8.2,-3.86101293563843,-0.345128506422043,10.0745220184326,4.1463680267334,-0.830797970294952,-3.05642199516296,-1111.5,1.5,-899.700012207031,-0.535617706025322,-0.364764364408382,0.0306439821161522,ST
8.23333333333333,-2.65695118904114,-0.315221339464188,9.377685546875,2.55336999893188,-2.9268479347229,-1.18903195858002,-1123.5,0.300000011920929,-904.500061035156,-0.530074921171083,-0.280838829205419,0.0298607820811363,ST
8.26666666666667,-2.36326289176941,-0.0328978635370731,10.0529890060425,1.50153398513794,-1.98934197425842,-0.388722002506256,-1116.30004882812,-0.300000011920929,-892.500061035156,-0.534404529142749,-0.234621445241872,0.0047012986449159,ST
8.3,-1.47143173217773,-0.226696193218231,9.97044563293457,1.04421401023865,0.160062000155449,0.228659987449646,-1121.10009765625,-2.10000014305115,-906.900024414062,-0.531730652915597,-0.158629168689371,0.0187070935165691,ST
8.33333333333333,-1.02103006839752,-0.524571359157562,9.08638954162598,0.137196004390717,1.92836594581604,-0.335367977619171,-1111.5,3.30000019073486,-902.100036621094,-0.525830012729948,-0.120946522864819,0.0523155710443722,ST
8.36666666666667,-1.49356305599213,-0.535936117172241,9.35675048828125,-0.87652999162674,3.70429182052612,-1.05183601379395,-1116.30004882812,-2.70000004768372,-894.900024414062,-0.521684129606531,-0.158940803160297,0.0582322104557393,ST
8.4,-2.09050965309143,-0.759641587734222,9.6223258972168,-1.73019397258759,3.87959790229797,-1.32622802257538,-1113.90002441406,-2.70000004768372,-909.300048828125,-0.514265368107432,-0.211632385275248,0.0790950326938388,ST
8.43333333333333,-2.32019662857056,-0.884653449058533,9.0193977355957,-2.24848985671997,2.5000159740448,-1.37195992469788,-1097.10009765625,3.30000019073486,-902.100036621094,-0.506701913430913,-0.248923698684952,0.0992239295439145,ST
8.46666666666667,-2.92970418930054,-1.61977112293243,8.41826438903809,-0.952749967575073,2.40092992782593,-1.06708002090454,-1101.90002441406,-2.70000004768372,-911.700012207031,-0.480972791469081,-0.32183301136155,0.179656426394666,ST
8.5,-3.25569224357605,-1.83988773822784,7.87096357345581,-0.579271972179413,2.21037983894348,-1.60061991214752,-1092.30004882812,0.300000011920929,-902.100036621094,-0.460641175245144,-0.377404452412622,0.224800796995486,ST
8.53333333333333,-3.5093047618866,-1.8949168920517,7.30631637573242,-0.3125019967556,1.6615959405899,-2.13416004180908,-1082.70007324219,7.50000047683716,-902.100036621094,-0.443838508523771,-0.429030391647273,0.251902980533871,ST
8.56666666666667,-4.21272087097168,-2.39137554168701,7.65862274169922,-0.0838419944047928,1.98934197425842,-2.0731840133667,-1077.90002441406,-3.30000019073486,-902.100036621094,-0.417320304715463,-0.478152042256258,0.297711058034035,ST
8.6,-4.02550220489502,-2.48408770561218,7.4151782989502,0.144817993044853,2.66770005226135,-2.44666194915771,-1094.70007324219,5.70000028610229,-902.100036621094,-0.397877969935267,-0.478444937380031,0.322062269864387,ST
8.63333333333333,-4.26535749435425,-3.29756212234497,8.56839847564697,-0.0152439996600151,3.24697184562683,-2.56099200248718,-1085.10009765625,1.5,-909.300048828125,-0.369681596634876,-0.443685127366479,0.364450743519957,ST
8.66666666666667,-4.32337760925293,-3.43932199478149,9.38845252990723,-0.144817993044853,2.33233189582825,-3.53660798072815,-1085.10009765625,8.70000076293945,-909.300048828125,-0.362564508149595,-0.414348291315751,0.355918284215685,ST
8.7,-4.39216375350952,-3.30653429031372,8.99606990814209,1.47104597091675,0.403965979814529,-1.70732796192169,-1063.5,0.900000035762787,-904.500061035156,-0.357980670317967,-0.42730869529697,0.351694345114794,ST
8.73333333333333,-4.08950328826904,-3.3029453754425,9.02478122711182,1.86738991737366,-0.769822001457214,0.167683988809586,-1080.30004882812,1.5,-894.900024414062,-0.358422304974065,-0.403966816035815,0.347747710236541,ST
8.76666666666667,-3.70489764213562,-3.19946670532227,9.09356784820557,2.09605002403259,-2.4923939704895,2.60672402381897,-1080.30004882812,1.5,-902.100036621094,-0.369952361607307,-0.369666129973567,0.334453386857005,ST
8.8,-3.2186074256897,-2.71616721153259,10.0248765945435,2.34757590293884,-4.83234786987305,3.62807202339172,-1070.70007324219,-2.10000014305115,-921.300048828125,-0.403083641137908,-0.304384674918164,0.267905858554449,ST
8.83333333333333,-0.922336459159851,-2.73231720924377,8.10842609405518,2.11129403114319,-7.63724374771118,3.07166600227356,-1087.5,0.300000011920929,-909.300048828125,-0.407761814504599,-0.118698582946293,0.314546529664585,ST
8.86666666666667,-0.665733098983765,-2.25679349899292,8.02049922943115,1.83690190315247,-5.63265800476074,0.655492007732391,-1089.90002441406,3.90000009536743,-904.500061035156,-0.417435635131739,-0.0771055308066881,0.276643584293018,ST
8.9,-1.4241783618927,-1.83031749725342,8.30282211303711,1.63110792636871,-3.11739802360535,-0.0152439996600151,-1109.10009765625,-0.300000011920929,-904.500061035156,-0.425148873120139,-0.149388440247563,0.222521334762467,ST
8.93333333333333,-1.8327100276947,-1.66283750534058,8.28966331481934,1.28049600124359,-2.01982998847961,0.0304879993200302,-1113.90002441406,0.300000011920929,-882.900024414062,-0.429834380779139,-0.201827850351357,0.199258468019975,ST
8.96666666666667,-3.39864826202393,-1.29856836795807,8.16824054718018,1.29574000835419,-1.62348592281342,0.205793991684914,-1111.5,-4.5,-899.700012207031,-0.440948781780349,-0.365423002139314,0.160573730339129,ST
9.0,-4.15888786315918,-0.447410941123962,9.4853515625,1.37195992469788,0.37347799539566,2.9420919418335,-1099.5,-3.90000009536743,-894.900024414062,-0.486783237636762,-0.408424569450215,0.0565526755311372,ST
9.03333333333333,-3.49674391746521,-0.427074074745178,9.84244251251221,2.01220798492432,0.289635986089706,4.48173570632935,-1121.10009765625,-6.30000019073486,-902.100036621094,-0.502926591722727,-0.350879458911504,0.0395324252453092,ST
9.06666666666667,-2.8663010597229,-0.0903195887804031,9.66898155212402,2.30946588516235,-1.61586391925812,4.74088382720947,-1123.5,-9.30000019073486,-902.100036621094,-0.525747941501468,-0.291952307403034,0.006334149118422,ST
9.1,-2.74966335296631,0.0251220054924488,10.1600561141968,2.30946588516235,-2.46190595626831,4.11588001251221,-1121.10009765625,-2.70000004768372,-902.100036621094,-0.538850046007984,-0.264295973662464,-0.0064897190975452,ST
9.13333333333333,-1.89790761470795,0.194994613528252,9.71085071563721,2.30184388160706,-2.76678586006165,3.33843588829041,-1113.90002441406,-2.70000004768372,-894.900024414062,-0.55034338191202,-0.198323007092923,-0.0227985711375698,ST
9.16666666666667,-0.724351167678833,0.640611112117767,9.32863807678223,1.95123195648193,-1.93598794937134,2.14940404891968,-1121.10009765625,-8.70000076293945,-897.300048828125,-0.561832389293709,-0.0893575275409426,-0.0662135142192799,ST
9.2,-1.08921837806702,0.465953379869461,10.7833213806152,0.46494197845459,0.663114011287689,0.907018005847931,-1121.10009765625,0.900000035762787,-897.300048828125,-0.562603677186864,-0.0999930457229335,-0.0471371552191202,ST
9.23333333333333,-1.23935222625732,0.607713282108307,10.4459686279297,-0.282013982534409,1.265251994133,-0.762199997901917,-1118.70007324219,-5.70000028610229,-897.300048828125,-0.561672813427522,-0.117447670930562,-0.0560818906174733,ST
9.26666666666667,-1.40683221817017,0.198583468794823,9.91481781005859,-0.922261953353882,1.05183601379395,-1.13567793369293,-1121.10009765625,-7.50000047683716,-906.900024414062,-0.554688215271342,-0.139401523306217,-0.0232875453988649,ST
9.3,-1.65565979480743,-0.375035643577576,10.0087261199951,-0.792688012123108,-0.67835795879364,-0.129574000835419,-1118.70007324219,-10.5,-890.100036621094,-0.546670359990889,-0.159527482608613,0.0304433328794782,ST
9.33333333333333,-1.83689701557159,-0.420494496822357,9.46979999542236,-0.228659987449646,-2.72105383872986,-0.754577994346619,-1116.30004882812,-3.90000009536743,-909.300048828125,-0.542792290451857,-0.182955056700873,0.043002511283074,ST
9.36666666666667,-0.944467723369598,-0.875681281089783,6.93845844268799,-0.640248000621796,-2.04269599914551,0.602137982845306,-1121.10009765625,-0.300000011920929,-902.100036621094,-0.533720581055172,-0.137901286341732,0.115243366599015,ST
9.4,-1.32488667964935,-1.20406174659729,7.42056179046631,-2.33233189582825,1.47866797447205,-0.152439996600151,-1125.90002441406,-6.30000019073486,-911.700012207031,-0.52688835423615,-0.172765963696263,0.1596633504633,ST
9.43333333333333,-2.04804158210754,-1.25729656219482,7.20702457427979,-2.56099200248718,3.91008591651917,-0.967993974685669,-1116.30004882812,-4.5,-899.700012207031,-0.520578323658949,-0.264937872414047,0.175419590959902,ST
9.46666666666667,-2.5797905921936,-2.33215951919556,7.86498212814331,-3.04879999160767,5.25155782699585,-2.43903994560242,-1116.30004882812,-1.5,-914.100036621094,-0.483951832054558,-0.306183440154594,0.279169796412919,ST
9.5,-3.29158067703247,-2.99550008773804,9.03315544128418,-3.56709599494934,4.5808219909668,-4.70277404785156,-1101.90002441406,2.70000004768372,-894.900024414062,-0.456316103415465,-0.334354498852966,0.324014418750928,ST
9.53333333333333,-3.97645449638367,-3.76650619506836,9.12945652008057,-2.00458598136902,2.29422187805176,-5.21344804763794,-1099.5,3.30000019073486,-909.300048828125,-0.420606592048341,-0.376620781530905,0.38839013728374,ST
9.56666666666667,-4.56024217605591,-4.05241870880127,10.3030128479004,-1.49391198158264,0.830797970294952,-3.84148788452148,-1099.5,-5.10000038146973,-897.300048828125,-0.414540154827298,-0.387824043797352,0.381224965521136,ST
9.6,-4.45197820663452,-3.73241209983826,10.1893653869629,0.365855991840363,-1.90549993515015,-1.39482593536377,-1097.10009765625,-0.300000011920929,-894.900024414062,-0.422375134031172,-0.38570421775445,0.355031695569134,ST
9.63333333333333,-3.3747227191925,-3.68874764442444,9.51705265045166,1.31860601902008,-4.08539199829102,1.59299790859222,-1094.70007324219,-2.10000014305115,-909.300048828125,-0.425940650855174,-0.322651708348011,0.364395628013896,ST
9.66666666666667,-2.39795517921448,-3.1988685131073,8.62163257598877,1.34909391403198,-5.06100797653198,1.93598794937134,-1109.10009765625,0.300000011920929,-904.500061035156,-0.438916970757343,-0.255971501042982,0.352624000979411,ST
9.7,-1.4301598072052,-2.74607443809509,8.2980375289917,1.30336201190948,-5.60979175567627,1.59299790859222,-1116.30004882812,-1.5,-894.900024414062,-0.455166476489985,-0.164744906458285,0.320110072702229,ST
9.73333333333333,-0.837400138378143,-2.09350037574768,8.55882740020752,1.09756803512573,-6.71498203277588,0.487807989120483,-1123.5,-5.10000038146973,-899.700012207031,-0.470680797534973,-0.0946190987185004,0.248620283408511,ST
9.76666666666667,-1.04435765743256,-1.35539197921753,8.536696434021,2.40092992782593,-5.69363403320312,2.34757590293884,-1133.10009765625,-2.70000004768372,-890.100036621094,-0.489020969438564,-0.109312797501269,0.163819702428438,ST
9.8,-1.37572884559631,-0.96360832452774,9.29155254364014,2.46190595626831,-3.14026403427124,3.09453201293945,-1140.30004882812,-5.70000028610229,-906.900024414062,-0.505058606887542,-0.137105380603754,0.107145672503687,ST
9.83333333333333,-1.1478363275528,-0.141161739826202,8.8997688293457,2.9344699382782,-2.53812599182129,3.56709599494934,-1161.90002441406,-4.5,-892.500061035156,-0.525596302274035,-0.125892831893684,0.0230487607911912,ST
9.86666666666667,-0.446214646100998,0.250621914863586,9.55114650726318,2.5000159740448,0.0457319989800453,3.54422998428345,-1149.90002441406,-5.70000028610229,-892.500061035156,-0.540387204259835,-0.0551756639582805,-0.0252347163317251,ST
9.9,-0.696238398551941,0.351708054542542,10.8580894470215,2.18751406669617,0.342989981174469,3.12502002716064,-1157.10009765625,-5.10000038146973,-892.500061035156,-0.549597239189188,-0.0631709009911697,-0.0350076879004036,ST
9.93333333333333,-0.0227294322103262,0.0807493031024933,10.5817470550537,0.602137982845306,0.975615978240967,1.70732796192169,-1154.70007324219,-3.90000009536743,-909.300048828125,-0.553661108039491,-0.011822229480025,-0.0122930193971096,ST
9.96666666666667,-0.524571359157562,0.22968690097332,10.7713584899902,-0.114329993724823,2.21037983894348,0.846041977405548,-1147.5,3.30000019073486,-890.100036621094,-0.55668285990926,-0.0481129041510329,-0.0202283236382846,ST
10.0,-1.39486944675446,-0.126208171248436,10.8646688461304,-0.724089980125427,3.55185198783875,0.945127964019775,-1125.90002441406,-5.70000028610229,-892.500061035156,-0.557202970995853,-0.122286399839521,0.0082290523189898,ST
10.0333333333333,-1.52047944068909,-0.209948182106018,10.1791973114014,-0.914639949798584,2.94971394538879,0.571649968624115,-1135.5,0.900000035762787,-916.500061035156,-0.557519961145575,-0.149796221970656,0.0204759168864427,ST
10.0666666666667,-1.66762256622314,-0.138769164681435,8.80825328826904,0.320124000310898,3.07928800582886,1.34909391403198,-1130.70007324219,-0.900000035762787,-911.700012207031,-0.562092838667536,-0.187539328410194,0.0154468363901919,ST
10.1,-1.44989860057831,-0.820053994655609,8.1012487411499,0.137196004390717,3.33081388473511,1.76830399036407,-1118.70007324219,0.300000011920929,-909.300048828125,-0.552984976772571,-0.183032744048741,0.0887351290830744,ST
10.1333333333333,-1.72504436969757,-1.31950342655182,7.82131767272949,-0.457319974899292,3.14788603782654,0.3125019967556,-1113.90002441406,-2.10000014305115,-909.300048828125,-0.538980198855609,-0.21577362868507,0.159422263962685,ST
10.1666666666667,-1.98882532119751,-1.58149003982544,7.73817539215088,-0.731711983680725,5.7850980758667,-0.190549999475479,-1109.10009765625,-8.10000038146973,-902.100036621094,-0.526845636153976,-0.251810426374097,0.198304935613902,ST
10.2,-3.08761405944824,-1.94396460056305,7.29196119308472,-0.823175966739655,7.53815793991089,-1.59299790859222,-1104.30004882812,-5.10000038146973,-904.500061035156,-0.499601800223739,-0.384371152580821,0.256844734637568,ST
10.2333333333333,-3.18092441558838,-2.67908239364624,7.80038261413574,-1.19665396213531,6.85979986190796,-2.17989206314087,-1082.70007324219,0.300000011920929,-909.300048828125,-0.462779772786715,-0.379033825651287,0.327427670594991,ST
10.2666666666667,-4.18341207504272,-3.27961802482605,9.30291748046875,-1.42531394958496,4.69515180587769,-3.82624387741089,-1065.90002441406,2.70000004768372,-911.700012207031,-0.443890656520148,-0.403409204040393,0.343152443063802,ST
10.3,-4.68226337432861,-3.02181839942932,9.39443397521973,-0.449698001146317,2.4847719669342,-3.17837381362915,-1065.90002441406,-4.5,-890.100036621094,-0.44398777884295,-0.440517740720524,0.318391298758637,ST
10.3333333333333,-4.47231483459473,-3.10256767272949,9.1749153137207,0.266770005226135,0.167683988809586,-0.25152599811554,-1063.5,-1.5,-904.500061035156,-0.439980372721058,-0.433567962457225,0.325058748669316,ST
10.3666666666667,-4.33534002304077,-3.13606357574463,9.25985145568848,0.160062000155449,-1.19665396213531,1.29574000835419,-1082.70007324219,1.5,-906.900024414062,-0.444030836030868,-0.418485759229435,0.325018447698358,ST
10.4,-3.69891619682312,-2.60132384300232,8.88062858581543,-0.0457319989800453,-1.57775402069092,1.75305998325348,-1061.10009765625,-5.70000028610229,-909.300048828125,-0.464170430110776,-0.383542582775111,0.288624864267556,ST
10.4333333333333,-3.10974526405334,-2.30404663085938,8.41646957397461,-0.243903994560242,-1.19665396213531,1.35671591758728,-1080.30004882812,2.70000004768372,-909.300048828125,-0.475855727167046,-0.346296114874033,0.269308802220061,ST
10.4666666666667,-3.14264321327209,-1.30634427070618,7.99118995666504,0.495429992675781,-1.79117000102997,1.51677799224854,-1070.70007324219,2.70000004768372,-909.300048828125,-0.514320232494658,-0.365355138881455,0.172780509297742,ST
10.5,-2.98114466667175,-1.20406174659729,8.0115270614624,0.937505960464478,-1.59299790859222,3.353679895401,-1070.70007324219,-3.30000019073486,-911.700012207031,-0.532411647256489,-0.352314631785903,0.148188434378026,ST
10.5333333333333,-3.17793369293213,-0.739304721355438,9.31667518615723,1.47866797447205,-0.396344006061554,3.58234000205994,-1075.5,0.900000035762787,-918.900024414062,-0.562189905001852,-0.331086186548947,0.0843108256677581,ST
10.5666666666667,-3.36754488945007,-0.194396466016769,9.48894023895264,2.36281991004944,0.381099998950958,3.71953582763672,-1073.10009765625,0.900000035762787,-906.900024414062,-0.59134988436212,-0.340733405462319,0.0216507963936012,ST
10.6,-3.22099995613098,0.191405743360519,9.70128059387207,2.72105383872986,-0.297257989645004,3.62807202339172,-1065.90002441406,-3.90000009536743,-890.100036621094,-0.612291261171708,-0.322750314043251,-0.0201248806723931,ST
10.6333333333333,-2.47212481498718,0.205761179327965,9.86038684844971,1.53964400291443,-0.891773998737335,2.62196803092957,-1082.70007324219,-3.30000019073486,-904.500061035156,-0.619389764696455,-0.254567804821119,-0.0241565287450109,ST
10.6666666666667,-1.64967834949493,0.253014475107193,9.03794002532959,0.190549999475479,-1.34147191047668,1.08994603157043,-1065.90002441406,-2.10000014305115,-894.900024414062,-0.623103208414667,-0.188399894335121,-0.0280853409436756,ST
10.7,-2.42128276824951,-0.0005981429712846,9.47458457946777,-1.41769194602966,0.37347799539566,-0.350611984729767,-1085.10009765625,0.900000035762787,-902.100036621094,-0.617128742615621,-0.244142304003993,-0.0006573682908794,ST
10.7333333333333,-2.61209034919739,-0.565245091915131,8.90515232086182,-1.90549993515015,1.38720393180847,-0.830797970294952,-1073.10009765625,-6.90000009536743,-909.300048828125,-0.600301266016076,-0.28254401793137,0.0598077456666707,ST
10.7666666666667,-3.86101293563843,-1.275838971138,9.71503829956055,-1.61586391925812,1.86738991737366,-0.617381989955902,-1068.30004882812,0.300000011920929,-899.700012207031,-0.579034242219089,-0.366472958818442,0.124376447537212,ST
10.8,-3.96867871284485,-1.57730305194855,9.533203125,-0.952749967575073,1.06708002090454,-1.15092194080353,-1085.10009765625,-1.5,-914.100036621094,-0.562717762584129,-0.388386470179011,0.161619370264854,ST
10.8333333333333,-4.14752340316772,-1.57730305194855,8.69879341125488,-0.419209986925125,-1.15854394435883,-1.91312193870544,-1058.70007324219,-2.70000004768372,-911.700012207031,-0.551556256820173,-0.430538866811349,0.179089502490203,ST
10.8666666666667,-3.61039090156555,-1.99600315093994,8.99487400054932,-1.05183601379395,-1.99696397781372,-1.42531394958496,-1061.10009765625,2.70000004768372,-909.300048828125,-0.535420751563193,-0.376626084811025,0.216143824292476,ST
10.9,-2.34113168716431,-2.25619530677795,7.74056816101074,-1.56251001358032,-3.05642199516296,-2.21037983894348,-1075.5,1.5,-899.700012207031,-0.512135699577545,-0.287231968290734,0.279648082183698,ST
10.9333333333333,-2.25081205368042,-2.47990083694458,7.79320478439331,-0.78506600856781,-0.716467976570129,-1.70732796192169,-1077.90002441406,5.70000028610229,-909.300048828125,-0.501027750216723,-0.268725333937256,0.306879625930699,ST
10.9666666666667,-2.2532045841217,-2.74846696853638,7.73099803924561,-0.396344006061554,0.365855991840363,-1.69970595836639,-1092.30004882812,-2.10000014305115,-914.100036621094,-0.488231905192425,-0.267805806345562,0.33820374184954,ST
11.0,-2.84895491600037,-2.47691011428833,8.25915813446045,0.0076219998300075,-0.0152439996600151,-1.34909391403198,-1077.90002441406,-2.10000014305115,-911.700012207031,-0.496080202993389,-0.31157976636395,0.29837870384924,ST
11.0333333333333,-3.48777174949646,-2.38838481903076,8.92608737945557,1.00610399246216,-1.08232402801514,0.922261953353882,-1085.10009765625,0.300000011920929,-904.500061035156,-0.509648506218602,-0.353541161134218,0.263969707969943,ST
11.0666666666667,-3.45248126983643,-2.26756000518799,8.58036136627197,1.01372599601746,-1.40244793891907,1.18140995502472,-1094.70007324219,0.300000011920929,-914.100036621094,-0.515214922026737,-0.367051014816738,0.256731647831943,ST
11.1,-3.52007126808167,-2.05103230476379,9.12168025970459,0.708845973014832,-0.221037998795509,1.83690190315247,-1082.70007324219,6.90000009536743,-899.700012207031,-0.531152356548748,-0.361355591454776,0.22383928430323,ST
11.1333333333333,-3.61876487731934,-1.71786665916443,9.96506214141846,0.807931959629059,0.78506600856781,1.82165801525116,-1082.70007324219,-2.10000014305115,-894.900024414062,-0.551474427230519,-0.347771216829276,0.17570959574744,ST
11.1666666666667,-3.53143620491028,-1.48578715324402,9.42972373962402,0.891773998737335,0.87652999162674,1.79117000102997,-1085.10009765625,2.70000004768372,-916.500061035156,-0.56189415017402,-0.35534344717387,0.156233816617861,ST
11.2,-3.08043622970581,-1.23875403404236,8.76698112487793,0.708845973014832,0.754577994346619,1.75305998325348,-1080.30004882812,-2.70000004768372,-892.500061035156,-0.570935644608896,-0.339094003970392,0.140551936750976,ST
11.2333333333333,-3.40104103088379,-0.946860313415527,8.65931606292725,0.411587983369827,0.37347799539566,1.98171997070312,-1080.30004882812,-1.5,-911.700012207031,-0.58576481068479,-0.368680021726631,0.111512853451605,ST
11.2666666666667,-3.20784068107605,-0.644199967384338,8.27351379394531,0.525918006896973,0.342989981174469,1.82165801525116,-1063.5,-2.10000014305115,-904.500061035156,-0.601215119557008,-0.369611590716838,0.0804341445415083,ST
11.3,-2.74009299278259,-0.689060688018799,7.74056816101074,0.0914639979600906,0.670735955238342,1.22714197635651,-1077.90002441406,-1.5,-894.900024414062,-0.602016113610895,-0.344287553329946,0.0868933633164588,ST
11.3333333333333,-2.9201340675354,-0.901401460170746,8.76279449462891,-0.853663980960846,0.693601965904236,-0.0762199983000755,-1070.70007324219,-3.90000009536743,-911.700012207031,-0.5975079268086,-0.324167223662393,0.101944598074247,ST
11.3666666666667,-3.12649321556091,-1.10297560691833,9.54157638549805,-1.05183601379395,-1.02134799957275,-1.44817996025085,-1075.5,-2.10000014305115,-902.100036621094,-0.590552140911569,-0.314190147534853,0.115558262904795,ST
11.4,-3.2066445350647,-1.0395724773407,9.06665134429932,-0.419209986925125,-2.26373386383057,-2.18751406669617,-1077.90002441406,0.900000035762787,-916.500061035156,-0.585587700460967,-0.330919007875039,0.115967232034741,ST
11.4333333333333,-3.86759233474731,-1.20286548137665,9.36332988739014,-0.0457319989800453,-1.60061991214752,-1.83690190315247,-1089.90002441406,-7.50000047683716,-904.500061035156,-0.577357363041083,-0.378254642846948,0.127159328706811,ST
11.4666666666667,-3.83947968482971,-1.18731379508972,9.39084434509277,-0.0762199983000755,-1.51677799224854,-1.31098401546478,-1089.90002441406,-1.5,-899.700012207031,-0.57445855510376,-0.381945813464853,0.12673221312177,ST
11.5,-3.63371849060059,-1.20824885368347,9.13782978057861,-0.152439996600151,-1.58537602424622,0.579271972179413,-1085.10009765625,2.70000004768372,-911.700012207031,-0.575279603221931,-0.374126302820003,0.130590320285587,LD
11.5333333333333,-3.14563393592834,-1.19688403606415,9.28078651428223,-0.381099998950958,-0.350611984729767,1.14329993724823,-1082.70007324219,0.900000035762787,-894.900024414062,-0.579794016129835,-0.329753638508447,0.128473382859564,LD
11.5666666666667,-2.18202567100525,-1.33864402770996,8.75980377197266,-0.594515979290009,0.160062000155449,0.564027965068817,-1080.30004882812,0.300000011920929,-894.900024414062,-0.575769638983887,-0.253713799763322,0.149268167938014,LD
11.6,-3.10854911804199,-1.85304689407349,8.81184196472168,-1.02897000312805,-0.0152439996600151,-1.6920839548111,-1092.30004882812,-0.300000011920929,-899.700012207031,-0.557192364437998,-0.321278604062272,0.201604080972551,LD
11.6333333333333,-2.91953587532043,-2.13895916938782,8.37400150299072,-0.3125019967556,-1.18140995502472,-3.10977602005005,-1092.30004882812,-3.90000009536743,-914.100036621094,-0.535699566752628,-0.32236818965422,0.245869452351587,LD
11.6666666666667,-3.79103016853333,-2.66353058815002,8.28069114685059,0.0990860015153885,-2.95733594894409,-3.42227792739868,-1092.30004882812,5.10000038146973,-911.700012207031,-0.508321859228553,-0.394079547727182,0.304038952122728,LD
11.7,-2.68147492408752,-2.79332756996155,8.06954669952393,0.525918006896973,-4.42075967788696,-2.46190595626831,-1089.90002441406,3.30000019073486,-914.100036621094,-0.496038879898813,-0.306139453678736,0.329870878412316,LD
11.7333333333333,-1.92422592639923,-3.24014043807983,8.9177131652832,1.43293595314026,-7.23327779769897,-3.19361782073975,-1106.70007324219,2.70000004768372,-904.500061035156,-0.489361067047711,-0.199162378894127,0.344539323247937,LD
11.7666666666667,-1.80878436565399,-3.51409006118774,9.79399299621582,1.93598794937134,-10.3201875686646,-4.49697971343994,-1111.5,1.5,-899.700012207031,-0.486699981258869,-0.158800452751811,0.341773245537053,LD
11.8,-0.812876284122467,-3.00387406349182,9.17670917510986,4.72563982009888,-13.1022176742554,-8.24700355529785,-1121.10009765625,2.70000004768372,-902.100036621094,-0.47809764274474,-0.0713558413658608,0.313133124571878,LD
11.8333333333333,-1.18312680721283,-2.28430795669556,9.57985782623291,5.71649980545044,-11.2881813049316,-9.42841339111328,-1159.5,-2.10000014305115,-899.700012207031,-0.46557997460801,-0.0930061300271556,0.236997007803748,LD
11.8666666666667,-0.211742609739304,-0.410924226045609,9.01222038269043,6.41772365570068,-8.16316223144531,-7.40858364105225,-1171.5,-4.5,-882.900024414062,-0.456625216816466,-0.0195410973118342,0.0620361080361122,LD
11.9,1.33326065540314,-0.418101936578751,7.8416543006897,4.52746772766113,-4.12350177764893,-3.72715783119202,-1176.30004882812,-4.5,-894.900024414062,-0.446540526068792,0.149203125856409,0.0470086477529549,LD
11.9333333333333,0.223107323050499,-0.934299349784851,10.3520603179932,1.6920839548111,-2.9344699382782,-3.12502002716064,-1176.30004882812,-9.90000057220459,-897.300048828125,-0.44190537454192,0.0435124367764244,0.0813938660955168,LD
11.9666666666667,0.215331465005875,-1.33565330505371,9.67436408996582,1.78354799747467,-3.55185198783875,-3.20886182785034,-1173.90002441406,-10.5,-897.300048828125,-0.435246296189798,0.030571052022362,0.127827391815313,LD
12.0,0.453392386436462,-1.0216281414032,8.00255489349365,2.29422187805176,-3.32319188117981,-2.34757590293884,-1185.90002441406,-20.7000007629395,-878.100036621094,-0.429532373602027,0.0587116381544364,0.123377731935774,LD
12.0333333333333,0.915158748626709,-0.64838695526123,9.63608360290527,1.65397393703461,-3.22410583496094,-1.42531394958496,-1188.30004882812,-13.5000009536743,-882.900024414062,-0.422497086289296,0.0954753570870847,0.0710075461696853,LD
12.0666666666667,0.488682806491852,0.147143170237541,9.90285491943359,2.37044191360474,-2.33995389938354,2.12653803825378,-1200.30004882812,-12.3000001907349,-885.300048828125,-0.423309427257422,0.059069322566118,-0.0066483735886852,LD
12.1,1.02222633361816,0.504234552383423,8.98231315612793,0.746955990791321,-0.358233988285065,4.29118585586548,-1200.30004882812,-12.9000005722046,-873.300048828125,-0.432839891900182,0.107692952572271,-0.0508115383947165,LD
12.1333333333333,0.643601834774017,0.665134966373444,9.2520751953125,-0.67835795879364,1.92836594581604,7.09608173370361,-1205.10009765625,-10.5,-873.300048828125,-0.451853959689995,0.072242486008702,-0.067047716670776,LD
12.1666666666667,0.55866551399231,0.425279647111893,9.37409687042236,-1.90549993515015,3.43752193450928,10.0534181594849,-1181.10009765625,-5.10000038146973,-885.300048828125,-0.482333184487648,0.056760666121811,-0.0444656817237012,LD
12.2,0.463560789823532,0.0059814294800162,9.59540939331055,-2.62959003448486,4.53508996963501,11.4711093902588,-1181.10009765625,-8.10000038146973,-878.100036621094,-0.51833334966319,0.0426022877910421,-0.001307800408305,LD
12.2333333333333,0.677695989608765,-0.702219843864441,10.1343364715576,-3.04879999160767,5.07625198364258,10.1677474975586,-1190.70007324219,-1.5,-880.500061035156,-0.552467613019173,0.0552918018580811,0.0671372791426173,LD
12.2666666666667,0.613694667816162,-1.0916109085083,9.99975395202637,-2.72867584228516,4.64179801940918,8.24700355529785,-1173.90002441406,-4.5,-890.100036621094,-0.576640216234003,0.0519745004934789,0.107837824559399,LD
12.3,-0.440831363201141,-1.57790112495422,10.6056728363037,-2.43141794204712,4.69515180587769,5.49546194076538,-1154.70007324219,1.5,-902.100036621094,-0.591263571159394,-0.0376498265141753,0.146266593010732,LD
12.3333333333333,-0.526963949203491,-1.69872605800629,10.5877285003662,-1.50915598869324,4.17685604095459,4.02441596984863,-1154.70007324219,-3.90000009536743,-902.100036621094,-0.601037501270306,-0.0551069130117126,0.15966157438011,LD
12.3666666666667,0.091515876352787,-1.71906292438507,9.64266300201416,-0.884151995182037,2.84300589561462,2.17989206314087,-1166.70007324219,0.900000035762787,-902.100036621094,-0.605453954998584,-0.0041581640502,0.17545679875543,LD
12.4,-0.822446584701538,-1.32847559452057,9.52004337310791,-0.525918006896973,2.38568592071533,1.57775402069092,-1145.10009765625,-3.90000009536743,-909.300048828125,-0.610205043832171,-0.0782986240206525,0.144327029063025,LD
12.4333333333333,-0.554478526115417,-1.06708705425262,8.37759017944336,-0.289635986089706,2.9344699382782,2.30184388160706,-1147.5,3.30000019073486,-904.500061035156,-0.616802872603715,-0.0721332503064822,0.12929693899985,LD
12.4666666666667,-0.772800743579865,-1.3721399307251,8.76638317108154,-1.45580196380615,4.984787940979,1.42531394958496,-1133.10009765625,-1.5,-894.900024414062,-0.617320867214186,-0.0934944815426878,0.15487863934828,LD
12.5,-2.08034133911133,-1.78844749927521,8.52832221984863,-1.6844619512558,6.14333200454712,0.365855991840363,-1128.30004882812,0.300000011920929,-897.300048828125,-0.607995089787956,-0.228621953858933,0.203912997158399,LD
12.5333333333333,-2.83459949493408,-1.9206371307373,7.56351804733276,-1.08994603157043,6.37961387634277,-0.121951997280121,-1118.70007324219,0.900000035762787,-902.100036621094,-0.593079028020708,-0.341473651417328,0.244904756259807,LD
12.5666666666667,-3.80598378181458,-2.38300156593323,8.60069751739502,-0.975615978240967,6.29577207565308,0.602137982845306,-1111.5,2.10000014305115,-916.500061035156,-0.582610753101963,-0.404164017518438,0.268942749599352,LD
12.6,-3.67439222335815,-2.29806518554688,9.14261531829834,-0.259148001670837,5.03051996231079,0.525918006896973,-1104.30004882812,-3.30000019073486,-909.300048828125,-0.588051052987183,-0.383604921645772,0.25012373036515,LD
12.6333333333333,-3.46564030647278,-2.75504660606384,9.62531661987305,0.503051996231079,1.95123195648193,1.57013201713562,-1099.5,-3.90000009536743,-904.500061035156,-0.58187286949221,-0.34352722141372,0.273675332263521,LD
12.6666666666667,-2.99789261817932,-2.40991806983948,9.34718036651611,0.945127964019775,-0.800309956073761,0.304879993200302,-1099.5,3.30000019073486,-906.900024414062,-0.588816434575761,-0.305794461153652,0.253508064505552,LD
12.7,-2.8962082862854,-2.3997495174408,9.03016471862793,1.20427596569061,-0.6250039935112,0.78506600856781,-1097.10009765625,-0.900000035762787,-911.700012207031,-0.589363754065815,-0.300669529798426,0.256654713343551,LD
12.7333333333333,-2.92133021354675,-2.13058519363403,9.37529277801514,0.746955990791321,0.945127964019775,1.57775402069092,-1097.10009765625,-3.90000009536743,-892.500061035156,-0.601310693296537,-0.297706028070281,0.226192089512031,LD
12.7666666666667,-3.11094164848328,-2.44999361038208,10.5793542861938,0.121951997280121,0.990859985351562,1.51677799224854,-1109.10009765625,-1.5,-906.900024414062,-0.604545938757084,-0.283500526957621,0.226644430970447,LD
12.8,-2.97935009002686,-2.23047518730164,9.68572902679443,0.632625997066498,-0.533540010452271,0.0914639979600906,-1099.5,2.10000014305115,-906.900024414062,-0.604977954258478,-0.289435064932512,0.225331289371,LD
12.8333333333333,-2.52595782279968,-1.39666378498077,8.06236934661865,1.39482593536377,-2.24848985671997,-0.525918006896973,-1099.5,-3.30000019073486,-897.300048828125,-0.617610237891813,-0.294632174091369,0.176759443696097,LD
12.8666666666667,-2.54270577430725,-1.04316139221191,7.55454587936401,2.24848985671997,-3.95581793785095,-1.05183601379395,-1092.30004882812,-1.5,-892.500061035156,-0.625658381260603,-0.312032221490748,0.13943074701642,LD
12.9,-3.71267342567444,-1.68496870994568,8.84055328369141,2.57623600959778,-7.88876962661743,-2.19513607025146,-1130.70007324219,-0.900000035762787,-904.500061035156,-0.607823332957305,-0.368286742554692,0.178050553882982,LD
12.9333333333333,-2.97935009002686,-1.04794645309448,8.51037788391113,2.90398192405701,-11.9360513687134,-4.07776975631714,-1123.5,0.900000035762787,-892.500061035156,-0.61620163827172,-0.320311000090491,0.126846212127821,LD
12.9666666666667,-2.39496445655823,-0.39238178730011,7.82909345626831,4.23783206939697,-11.5930614471436,-6.31863784790039,-1137.90002441406,-0.300000011920929,-921.300048828125,-0.618227920009176,-0.28080979395983,0.0549555979519244,LD
13.0,-1.41460812091827,0.265575468540192,9.00324821472168,3.3613018989563,-8.00309944152832,-6.75309181213379,-1147.5,-0.300000011920929,-904.500061035156,-0.613684314215944,-0.159310174877044,-0.0222951824126956,LD
13.0333333333333,-0.681882977485657,0.379222631454468,10.6337862014771,2.29422187805176,-7.53815793991089,-6.40247964859009,-1164.30004882812,-9.30000019073486,-909.300048828125,-0.595573974256996,-0.0657910041525698,-0.0364461679575019,LD
13.0666666666667,0.0239257179200649,1.06469452381134,10.0494003295898,2.27897787094116,-8.11742973327637,-5.57168197631836,-1173.90002441406,-5.10000038146973,-897.300048828125,-0.579659203789432,0.0046471496313451,-0.0995699682224365,LD
13.1,0.496458679437637,1.23995041847229,9.87474250793457,0.0762199983000755,-3.55185198783875,-2.12653803825378,-1197.90002441406,-15.3000001907349,-890.100036621094,-0.571151671853505,0.0500933786744659,-0.122471292715068,LD
13.1333333333333,1.2818204164505,0.855942606925964,10.0846900939941,-2.46952795982361,-2.12653803825378,-0.87652999162674,-1173.90002441406,-3.30000019073486,-878.100036621094,-0.570390257138625,0.119576852114867,-0.0858391886246808,LD
13.1666666666667,1.15860295295715,-0.0107665732502937,10.1157941818237,-3.39941191673279,-1.2576299905777,-0.937505960464478,-1185.90002441406,-3.90000009536743,-890.100036621094,-0.575828437702991,0.116625751694031,-0.0039467398344422,LD
13.2,0.736912131309509,-0.181237325072289,9.80356311798096,-2.77440786361694,-1.73019397258759,-0.647870004177094,-1188.30004882812,-6.30000019073486,-887.700012207031,-0.575473017790869,0.082526788790098,0.0200830615080878,LD
13.2333333333333,0.602928102016449,-0.976169347763062,8.76638317108154,-2.38568592071533,-2.32470989227295,0.807931959629059,-1190.70007324219,-2.10000014305115,-887.700012207031,-0.584107865439395,0.0736077709199956,0.102341415627845,LD
13.2666666666667,0.45937380194664,-1.51031100749969,9.60497951507568,-3.03355598449707,-1.83690190315247,1.62348592281342,-1197.90002441406,-2.70000004768372,-885.300048828125,-0.592113625548154,0.0531869806633068,0.153465840281051,LD
13.3,1.10536825656891,-1.75435328483582,8.71793365478516,-2.9116039276123,-1.21189796924591,1.90549993515015,-1195.5,0.300000011920929,-880.500061035156,-0.601058803617638,0.115398261779989,0.19716207285459,LD
13.3333333333333,0.51440292596817,-2.9021897315979,9.45305156707764,-3.71953582763672,1.51677799224854,1.21951997280121,-1190.70007324219,-0.900000035762787,-885.300048828125,-0.610719746943264,0.0566549194013638,0.29199832523402,LD
13.3666666666667,-0.196190893650055,-3.56553030014038,10.0159044265747,-2.11891603469849,0.99848198890686,0.548784017562866,-1200.30004882812,0.900000035762787,-878.100036621094,-0.612323421800826,-0.0127265641704187,0.340356167165055,LD
13.4,0.733921408653259,-3.58287644386292,8.50977993011475,-0.396344006061554,0.274392008781433,0.0,-1188.30004882812,-0.300000011920929,-880.500061035156,-0.613381025818575,0.0664819328615657,0.391188034680985,LD
13.4333333333333,0.70162171125412,-3.21561670303345,9.20183181762695,0.914639949798584,-0.144817993044853,-0.556405961513519,-1181.10009765625,-4.5,-902.100036621094,-0.608833851848663,0.0716433662315161,0.342171665667655,LD
13.4666666666667,0.953439891338348,-2.44939541816711,8.70955944061279,2.69818782806396,0.228659987449646,1.38720393180847,-1188.30004882812,0.300000011920929,-890.100036621094,-0.608009705458032,0.100745787401438,0.276856256060711,LD
13.5,0.400157660245895,-2.51399493217468,10.7887048721313,1.90549993515015,2.080806016922,2.98782396316528,-1193.10009765625,-7.50000047683716,-887.700012207031,-0.61268495184356,0.0387993275239521,0.231284720169482,LD
13.5333333333333,0.790146887302399,-1.97147917747498,9.83945178985596,0.800309956073761,2.88111591339111,4.07776975631714,-1197.90002441406,-8.70000076293945,-875.700012207031,-0.621469398545748,0.0683211742726707,0.200742643823524,LD
13.5666666666667,0.637022256851196,-2.08811712265015,9.81732082366943,-0.663114011287689,5.67076778411865,4.79423809051514,-1185.90002441406,-2.10000014305115,-887.700012207031,-0.63298154616973,0.0537275582097508,0.209968223072436,LD
13.6,0.0005981429712846,-2.36565542221069,9.83825588226318,-0.556405961513519,6.6387619972229,4.61893177032471,-1169.10009765625,4.5,-902.100036621094,-0.642779192937611,-0.0052889271271318,0.233845863014423,LD
13.6333333333333,-0.566441416740417,-2.2232973575592,9.91840648651123,0.434453994035721,6.49394369125366,3.58234000205994,-1154.70007324219,3.30000019073486,-897.300048828125,-0.648969650040684,-0.0596206731993751,0.22151472490257,LD
13.6666666666667,-1.79502701759338,-1.61977112293243,9.11330604553223,2.5152599811554,5.26680183410645,3.52898597717285,-1154.70007324219,0.900000035762787,-899.700012207031,-0.660257703789437,-0.182472424721931,0.177788726647941,LD
13.7,-1.66044485569,-1.23396897315979,8.77296257019043,2.75154185295105,3.60520601272583,3.70429182052612,-1142.70007324219,-2.10000014305115,-892.500061035156,-0.674591731030961,-0.191113852104684,0.139816581051077,LD
13.7333333333333,-1.90747797489166,-0.832016885280609,8.82081413269043,2.37806391716003,2.17227005958557,3.88721990585327,-1133.10009765625,3.90000009536743,-887.700012207031,-0.692286787255131,-0.213120079739351,0.0954983950744922,LD
13.7666666666667,-1.6903520822525,-0.0490477234125137,8.58095932006836,1.57775402069092,1.81403601169586,3.82624387741089,-1140.30004882812,-0.300000011920929,-911.700012207031,-0.718539081297652,-0.200018266190364,0.0142593999456434,LD
13.8,-1.25251138210297,0.17525589466095,9.29873085021973,0.762199997901917,1.40244793891907,4.72563982009888,-1133.10009765625,-5.70000028610229,-897.300048828125,-0.73735541927714,-0.144233245852836,-0.0170316642135779,LD
13.8333333333333,0.0717771574854851,0.331969350576401,9.54935264587402,0.0533539988100529,0.586893975734711,3.68904781341553,-1113.90002441406,-6.30000019073486,-890.100036621094,-0.749874905151296,-0.01089410806237,-0.032994937726755,LD
13.8666666666667,-0.116637878119946,0.686069965362549,9.93096733093262,-0.144817993044853,0.87652999162674,2.09605002403259,-1133.10009765625,-2.10000014305115,-909.300048828125,-0.756590354891232,-0.0127664060694375,-0.0642837366953038,LD
13.9,-0.35410064458847,-0.241051614284515,10.0811014175415,-1.14329993724823,3.49087595939636,0.861285984516144,-1118.70007324219,2.10000014305115,-902.100036621094,-0.75750458607246,-0.0379017167775109,0.0153793575590014,LD
13.9333333333333,-1.38111209869385,-0.715378999710083,10.2437963485718,-1.73019397258759,5.57930374145508,-0.762199997901917,-1106.70007324219,2.10000014305115,-916.500061035156,-0.750924115896716,-0.129089751073571,0.0651146077681731,LD
13.9666666666667,-3.25987911224365,-1.02521705627441,10.3694067001343,-1.18140995502472,7.0732159614563,-0.92988395690918,-1101.90002441406,0.300000011920929,-911.700012207031,-0.740113672901904,-0.296699794725807,0.0976663170436828,LD
14.0,-3.46623849868774,-1.42896354198456,10.2126932144165,-0.990859985351562,5.70125579833984,-0.160062000155449,-1094.70007324219,-2.10000014305115,-909.300048828125,-0.726583707616576,-0.33009426801478,0.136567825951393,LD
14.0333333333333,-3.45547199249268,-1.5563679933548,9.10971736907959,-0.861285984516144,3.61282801628113,0.0152439996600151,-1092.30004882812,2.10000014305115,-909.300048828125,-0.715898905433028,-0.35946096585652,0.166388546220149,LD
14.0666666666667,-3.73420667648315,-1.49117040634155,7.92359972000122,-0.693601965904236,2.33233189582825,-0.0152439996600151,-1089.90002441406,0.900000035762787,-906.900024414062,-0.708358513339695,-0.428612500825826,0.185056633566141,LD
14.1,-2.53014469146729,-1.79562520980835,6.4814772605896,-0.92988395690918,1.49391198158264,-0.350611984729767,-1080.30004882812,-3.90000009536743,-926.100036621094,-0.67801469207529,-0.371306383722611,0.260888512328912,LD
14.1333333333333,-2.43025493621826,-1.93858134746552,6.13096523284912,-0.914639949798584,1.07470202445984,-1.71494996547699,-1085.10009765625,6.90000009536743,-911.700012207031,-0.658721578911774,-0.363533256012089,0.30265146348773,LD
14.1666666666667,-2.58218312263489,-2.18262362480164,5.62493658065796,-0.320124000310898,1.28049600124359,-1.6844619512558,-1082.70007324219,-0.900000035762787,-911.700012207031,-0.631362269936395,-0.39987275440216,0.362627199444308,LD
14.2,-4.12957906723022,-2.62943649291992,7.88651514053345,-0.716467976570129,2.9344699382782,-1.34909391403198,-1082.70007324219,0.900000035762787,-909.300048828125,-0.639792290595098,-0.458115940407087,0.329123056455932,LD
14.2333333333333,-4.84794855117798,-3.5272490978241,9.72101974487305,-0.830797970294952,3.23172783851624,-0.236281991004944,-1075.5,6.90000009536743,-916.500061035156,-0.629336482341764,-0.445521826808579,0.347745648125848,LD
14.2666666666667,-4.73190927505493,-3.94654726982117,10.7480306625366,-0.586893975734711,2.00458598136902,-0.663114011287689,-1058.70007324219,-2.70000004768372,-914.100036621094,-0.624366512450887,-0.401622708280423,0.353105253703119,LD
14.3,-5.7744722366333,-3.77547836303711,11.3677072525024,1.70732796192169,0.198172003030777,0.922261953353882,-1051.5,9.90000057220459,-902.100036621094,-0.637510839255944,-0.444438494626369,0.321283204709623,LD
14.3333333333333,-5.21341419219971,-3.41300368309021,11.1410112380981,3.04117798805237,-1.73019397258759,2.4923939704895,-1068.30004882812,2.70000004768372,-906.900024414062,-0.653406728864557,-0.422043562594027,0.29331899519853,ST
14.3666666666667,-3.69831800460815,-2.14494061470032,8.50798606872559,3.97106194496155,-5.54119396209717,3.7881338596344,-1061.10009765625,6.30000019073486,-902.100036621094,-0.682979914537259,-0.394785782676241,0.242885947440429,ST
14.4,-2.71915793418884,-1.43434679508209,7.85541152954102,2.85824990272522,-7.06559371948242,4.1311240196228,-1080.30004882812,-11.1000003814697,-909.300048828125,-0.71664111575075,-0.327958339590953,0.181654096512688,ST
14.4333333333333,-0.288903057575226,-0.185424327850342,5.06268215179443,1.2576299905777,-6.08997774124146,1.47866797447205,-1092.30004882812,-0.900000035762787,-902.100036621094,-0.749554273366207,-0.0747268517665309,0.0483243085937311,ST
14.4666666666667,-1.42597281932831,-0.206957474350929,7.53301239013672,-0.3125019967556,-1.13567793369293,1.73019397258759,-1097.10009765625,-3.90000009536743,-904.500061035156,-0.757302236538768,-0.172276180440701,0.0300051616290323,ST
14.5,-2.47930264472961,-0.761435985565186,8.96257400512695,-0.846041977405548,1.88263392448425,1.21189796924591,-1104.30004882812,-2.70000004768372,-906.900024414062,-0.750647067899673,-0.258841084027301,0.0780850555666699,ST
14.5333333333333,-3.04095888137817,-0.597544848918915,8.42185306549072,-0.746955990791321,3.21648383140564,1.06708002090454,-1082.70007324219,2.10000014305115,-902.100036621094,-0.755174745674367,-0.338895528778208,0.0725676873385124,ST
14.5666666666667,-3.84725570678711,-0.778183996677399,9.85081672668457,-0.548784017562866,4.00917196273804,2.05031800270081,-1080.30004882812,-2.10000014305115,-894.900024414062,-0.758599696820134,-0.37317175608698,0.0778071323246758,ST
14.6,-4.49982976913452,-0.897812604904175,11.2809762954712,0.3125019967556,0.640248000621796,2.9192259311676,-1085.10009765625,-0.900000035762787,-906.900024414062,-0.766894736295345,-0.379238052929712,0.0769885069380516,ST
14.6333333333333,-3.37890958786011,-1.14664006233215,11.5148506164551,0.899396002292633,-3.58234000205994,2.38568592071533,-1092.30004882812,-0.300000011920929,-911.700012207031,-0.768325293107899,-0.289083377343464,0.09422125033885,ST
14.6666666666667,-2.28490614891052,-0.888242304325104,10.5919160842896,2.05031800270081,-5.45735168457031,0.861285984516144,-1089.90002441406,0.900000035762787,-909.300048828125,-0.773766415389901,-0.214069291420433,0.0815242358404696,ST
14.7,-1.23038005828857,-0.293688207864761,8.58395004272461,2.0731840133667,-4.64179801940918,-0.0152439996600151,-1077.90002441406,-2.70000004768372,-909.300048828125,-0.781323993478336,-0.144981122180558,0.0373599063775438,ST
14.7333333333333,-1.86201906204224,-0.113049022853374,9.16534519195557,0.899396002292633,-1.36433792114258,1.49391198158264,-1097.10009765625,-3.30000019073486,-909.300048828125,-0.78977465153344,-0.192804429673317,0.0129893928364041,ST
14.7666666666667,-1.59763991832733,-0.0400755777955055,8.84473991394043,0.724089980125427,-1.18903195858002,1.76068198680878,-1111.5,1.5,-914.100036621094,-0.796516948061179,-0.178380795228366,0.0038057088999171,ST
14.8,-1.3458217382431,-0.0275145769119263,7.94991827011108,0.297257989645004,-0.37347799539566,1.6768399477005,-1092.30004882812,-3.90000009536743,-899.700012207031,-0.801759527745101,-0.168269737325671,0.0025856721119316,ST
14.8333333333333,-2.08811712265015,-0.371446788311005,8.12696838378906,-0.586893975734711,1.36433792114258,1.20427596569061,-1109.10009765625,-3.90000009536743,-914.100036621094,-0.797737007444126,-0.242144718268984,0.0402418510031281,ST
14.8666666666667,-3.17613911628723,-1.03299295902252,8.81842136383057,-2.45428395271301,2.85824990272522,0.533540010452271,-1092.30004882812,-8.70000076293945,-914.100036621094,-0.780908850487814,-0.334223265910085,0.109591422440667,ST
14.9,-3.15041899681091,-1.89372062683105,8.09407043457031,-3.70429182052612,2.85824990272522,-0.945127964019775,-1099.5,2.70000004768372,-909.300048828125,-0.743066965970793,-0.362643358782216,0.219869330406886,ST
14.9333333333333,-3.13127851486206,-2.70839142799377,7.26324987411499,-4.72563982009888,3.89484190940857,-2.82776188850403,-1085.10009765625,2.70000004768372,-904.500061035156,-0.689017637696779,-0.386164234822167,0.351885159123439,ST
14.9666666666667,-4.05062437057495,-2.43803071975708,8.15268898010254,-4.16161203384399,3.57471799850464,-2.88873791694641,-1070.70007324219,5.70000028610229,-911.700012207031,-0.701389471016639,-0.442035093515143,0.306604696440415,ST
15.0,-3.42137789726257,-3.26825308799744,8.43620872497559,-3.3689239025116,1.37958192825317,-0.724089980125427,-1075.5,4.5,-897.300048828125,-0.678113407386244,-0.374046881345173,0.367138179672685,ST
15.0333333333333,-3.77188968658447,-3.28619742393494,8.35964584350586,-2.14940404891968,0.411587983369827,-0.663114011287689,-1082.70007324219,9.30000019073486,-914.100036621094,-0.674594613394294,-0.394593709417959,0.377265525019657,ST
15.0666666666667,-4.35866785049438,-3.52665090560913,8.84892749786377,-0.914639949798584,0.716467976570129,1.44817996025085,-1056.30004882812,3.30000019073486,-904.500061035156,-0.677549535552488,-0.426267280006285,0.379634793831698,ST
15.1,-4.71934795379639,-3.58825969696045,10.0697364807129,0.564027965068817,0.0762199983000755,3.3689239025116,-1073.10009765625,11.7000007629395,-899.700012207031,-0.69957033259799,-0.419046232362314,0.344358253678199,ST
15.1333333333333,-5.01901769638062,-3.29516959190369,10.4226408004761,2.11891603469849,-0.87652999162674,4.5655779838562,-1068.30004882812,11.7000007629395,-909.300048828125,-0.727182047443384,-0.430204022548597,0.303370492812467,ST
15.1666666666667,-3.9537250995636,-2.42307710647583,8.93864822387695,2.68294382095337,-2.90398192405701,4.64179801940918,-1082.70007324219,5.10000038146973,-923.700012207031,-0.754548156897745,-0.404760758306429,0.262401301831551,ST
15.2,-3.51409006118774,-1.4941611289978,8.21728801727295,2.11129403114319,-4.09301376342773,4.46649169921875,-1085.10009765625,6.30000019073486,-909.300048828125,-0.796426046940577,-0.394545985154705,0.184542413486756,ST
15.2333333333333,-3.14264321327209,-0.601133704185486,7.54557371139526,1.31860601902008,-4.52746772766113,4.60368776321411,-1089.90002441406,6.30000019073486,-911.700012207031,-0.845300719115237,-0.387823614861148,0.0886155455766985,ST
15.2666666666667,-2.64199757575989,-0.483897656202316,7.71066093444824,-0.640248000621796,-4.54271173477173,6.57016372680664,-1097.10009765625,6.30000019073486,-904.500061035156,-0.873423398001542,-0.331225670097564,0.063391130039018,ST
15.3,-3.71028089523315,-0.0269164331257343,8.28427982330322,-1.42531394958496,-2.65245604515076,6.95126390457153,-1082.70007324219,-3.30000019073486,-899.700012207031,-0.913152995610809,-0.405173863488409,0.0095291036728627,ST
15.3333333333333,-2.25081205368042,-0.202172324061394,7.72621297836304,-2.81251788139343,-2.17227005958557,9.16926574707031,-1097.10009765625,5.10000038146973,-918.900024414062,-0.936011611099053,-0.296851150909202,0.0236415736111124,ST
15.3666666666667,-2.73351335525513,-0.435448080301285,9.47578048706055,-4.07776975631714,-1.13567793369293,9.45127964019775,-1097.10009765625,9.30000019073486,-902.100036621094,-0.95946002102966,-0.281635088790659,0.0448712244497825,ST
15.4,-1.33924210071564,-0.879270195960999,9.38426494598389,-5.37350988388062,-0.907018005847931,8.0640754699707,-1094.70007324219,10.5,-916.500061035156,-0.975761201077546,-0.158449148517802,0.093355038809531,ST
15.4333333333333,-2.0671820640564,-0.951645493507385,9.95070648193359,-6.13570976257324,-0.457319974899292,5.90704965591431,-1106.70007324219,3.30000019073486,-909.300048828125,-0.994042301865942,-0.197974601834027,0.102640173865293,ST
15.4666666666667,-2.00976037979126,-1.97805881500244,10.1116065979004,-4.97716569900513,1.41769194602966,4.84759187698364,-1106.70007324219,14.1000003814697,-916.500061035156,-0.993227706832043,-0.196763499702968,0.187084728245729,ST
15.5,-2.41350698471069,-2.14374446868896,9.94173431396484,-3.32319188117981,1.32622802257538,3.90246391296387,-1087.5,13.5000009536743,-894.900024414062,-0.999828644214588,-0.231265084227218,0.212742027974452,ST
15.5333333333333,-3.07325863838196,-2.32318735122681,10.198935508728,-1.32622802257538,1.07470202445984,3.39178991317749,-1094.70007324219,9.90000057220459,-904.500061035156,-1.00672588065557,-0.281085730519174,0.223156869197504,ST
15.5666666666667,-2.89860081672668,-2.12340760231018,9.5625114440918,1.69970595836639,-0.480185985565186,1.18140995502472,-1092.30004882812,12.3000001907349,-899.700012207031,-1.01082957269303,-0.286487443172411,0.216015035952148,ST
15.6,-3.22817754745483,-1.72624063491821,8.20891380310059,3.49087595939636,-1.86738991737366,-0.37347799539566,-1097.10009765625,13.5000009536743,-899.700012207031,-1.01173098525899,-0.353539777685104,0.203189905722397,ST
15.6333333333333,-3.76710438728333,-1.41101932525635,7.49473142623901,3.22410583496094,-0.990859985351562,-0.0381099991500378,-1092.30004882812,9.90000057220459,-904.500061035156,-1.01612699869992,-0.443041174642656,0.183530051606,ST
15.6666666666667,-3.64687776565552,-1.8889354467392,8.48106956481934,0.685979962348938,1.53202199935913,-0.899396002292633,-1092.30004882812,9.90000057220459,-899.700012207031,-0.99905768419012,-0.40472957457596,0.214859536374239,ST
15.7,-3.3866856098175,-1.9828439950943,7.63469696044922,-0.228659987449646,1.53202199935913,-2.20275783538818,-1087.5,9.90000057220459,-909.300048828125,-0.978521895079441,-0.406910817250546,0.250781115855148,ST
15.7333333333333,-3.07804369926453,-2.34352421760559,7.02937602996826,-0.746955990791321,1.69970595836639,-3.30032587051392,-1077.90002441406,8.10000038146973,-899.700012207031,-0.944283961877581,-0.396561226986194,0.315720058249544,ST
15.7666666666667,-4.18221569061279,-2.65754914283752,8.45714378356934,-0.571649968624115,1.92074394226074,-3.39941191673279,-1099.5,10.5,-911.700012207031,-0.937394359433781,-0.436028433979595,0.309522935430812,ST
15.8,-4.23664665222168,-3.23954224586487,9.06665134429932,-0.266770005226135,0.259148001670837,-2.57623600959778,-1085.10009765625,11.7000007629395,-906.900024414062,-0.916879484191374,-0.415730862453632,0.342042773475077,ST
15.8333333333333,-4.43582820892334,-2.57739806175232,8.97692966461182,0.564027965068817,-2.17989206314087,-1.78354799747467,-1094.70007324219,15.9000005722046,-902.100036621094,-0.936241565239062,-0.436443321187224,0.286290868177839,ST
15.8666666666667,-3.90706992149353,-2.66532516479492,8.56899642944336,1.35671591758728,-2.19513607025146,0.640248000621796,-1099.5,15.9000005722046,-902.100036621094,-0.933652287426895,-0.411229397558094,0.296637614972653,ST
15.9,-3.35797452926636,-3.23535537719727,9.62770938873291,0.327746003866196,-1.95885396003723,1.46342396736145,-1101.90002441406,15.9000005722046,-892.500061035156,-0.930693260742743,-0.327789100561585,0.319511515165748,ST
15.9333333333333,-2.70480251312256,-3.08701586723328,9.31428241729736,0.602137982845306,-2.33233189582825,0.358233988285065,-1104.30004882812,11.1000003814697,-906.900024414062,-0.93340244239678,-0.273721912278124,0.318595282574147,ST
15.9666666666667,-2.53672432899475,-2.81725335121155,9.09536170959473,1.17378795146942,-2.16464805603027,-1.63872992992401,-1092.30004882812,14.1000003814697,-899.700012207031,-0.934521847090263,-0.258310030738072,0.301425305763586,ST
16.0,-1.37752330303192,-2.73530769348145,9.10852146148682,1.99696397781372,-3.20123982429504,-5.21344804763794,-1111.5,4.5,-902.100036621094,-0.923623028591517,-0.151141411027251,0.291005880444569,ST
16.0333333333333,-2.48468589782715,-1.46844100952148,9.61335372924805,3.92532992362976,-4.50460195541382,-8.77292156219482,-1099.5,6.90000009536743,-906.900024414062,-0.922974270602716,-0.228591834059665,0.165995256182509,ST
16.0666666666667,-1.62993955612183,-1.06469452381134,8.15508079528809,5.45735168457031,-1.38720393180847,-6.89790964126587,-1123.5,7.50000047683716,-887.700012207031,-0.907159328262768,-0.195587736506769,0.12729701333938,ST
16.1,-1.97566628456116,-0.118432305753231,8.71195220947266,4.93905591964722,0.846041977405548,-6.64638376235962,-1140.30004882812,2.10000014305115,-892.500061035156,-0.905912660758802,-0.220778142731047,0.0214839218909668,ST
16.1333333333333,-2.9320969581604,0.452196091413498,9.53380107879639,4.04728174209595,1.2347639799118,-3.19361782073975,-1113.90002441406,7.50000047683716,-904.500061035156,-0.909984807287053,-0.29116943443864,-0.0441045604775356,ST
16.1666666666667,-2.66592311859131,-0.127404451370239,10.3706026077271,2.03507399559021,0.533540010452271,-0.67835795879364,-1121.10009765625,-4.5,-902.100036621094,-0.894053537605143,-0.257810054940479,0.0019673523446488,ST
16.2,-2.48588228225708,0.0478514358401299,10.3532562255859,0.990859985351562,0.434453994035721,0.503051996231079,-1104.30004882812,-2.10000014305115,-906.900024414062,-0.896578904161926,-0.239288379836072,-0.0054196312364838,ST
16.2333333333333,-1.66523003578186,-0.487486511468887,9.5924186706543,0.564027965068817,1.31098401546478,1.16616594791412,-1111.5,7.50000047683716,-906.900024414062,-0.889472703828144,-0.181632096327589,0.0431392061704548,ST
16.2666666666667,-1.13706982135773,-1.1155366897583,9.61096096038818,-0.632625997066498,1.6844619512558,0.175305992364883,-1106.70007324219,-0.300000011920929,-904.500061035156,-0.88003364108378,-0.128318842789565,0.106808028964312,ST
16.3,-2.22688627243042,-0.812876284122467,9.52004337310791,-1.65397393703461,2.43903994560242,-2.10367202758789,-1111.5,-0.300000011920929,-904.500061035156,-0.87693135299203,-0.218724521217136,0.0913800995603553,ST
16.3333333333333,-2.59474420547485,-0.936093747615814,8.82978630065918,-1.72257196903229,3.52136397361755,-2.46952795982361,-1109.10009765625,3.30000019073486,-909.300048828125,-0.865634959167452,-0.282305599672103,0.107983797338891,ST
16.3666666666667,-2.45238614082336,-1.57012534141541,7.86976718902588,-2.15702605247498,3.90246391296387,-3.31556987762451,-1087.5,6.90000009536743,-899.700012207031,-0.833212183324406,-0.299708524866983,0.189958242010499,ST
16.4,-3.63790559768677,-2.62046432495117,9.00444412231445,-2.27897787094116,3.61282801628113,-3.42227792739868,-1099.5,4.5,-899.700012207031,-0.79592821054726,-0.364587511084745,0.276114978499918,ST
16.4333333333333,-3.5272490978241,-3.06309008598328,8.36921691894531,-1.14329993724823,2.23324584960938,-3.84910988807678,-1085.10009765625,5.70000028610229,-906.900024414062,-0.760488469929717,-0.376598404289493,0.345030806917441,ST
16.4666666666667,-3.75035643577576,-3.09479165077209,7.35356950759888,1.28049600124359,2.24848985671997,-1.89787793159485,-1082.70007324219,3.30000019073486,-911.700012207031,-0.734183859316793,-0.433042026765781,0.390797856673929,ST
16.5,-2.9201340675354,-3.01224803924561,6.6573314666748,2.17227005958557,1.89787793159485,-0.289635986089706,-1080.30004882812,0.900000035762787,-902.100036621094,-0.718192162971761,-0.389797140382285,0.417795410798577,NLL
16.5333333333333,-3.16058754920959,-2.63840866088867,6.96597290039062,2.16464805603027,0.342989981174469,1.15854394435883,-1070.70007324219,-0.900000035762787,-906.900024414062,-0.738348928469035,-0.400905590148899,0.365734156168115,NLL
16.5666666666667,-4.90836143493652,-2.89979720115662,10.708553314209,2.00458598136902,0.670735955238342,3.07928800582886,-1063.5,-0.900000035762787,-911.700012207031,-0.779994044594045,-0.416925365605943,0.27334500384142,NLL
16.6,-3.81615209579468,-2.19757723808289,8.62940883636475,2.54574799537659,-0.327746003866196,2.27135586738586,-1070.70007324219,-0.900000035762787,-892.500061035156,-0.794332207855006,-0.406460533376904,0.246179383548964,NLL
16.6333333333333,-4.37601375579834,-1.84228038787842,9.36811542510986,1.6844619512558,0.190549999475479,3.26983785629272,-1065.90002441406,-1.5,-904.500061035156,-0.820746520878495,-0.427961248321653,0.196569842254002,NLL
16.6666666666667,-4.45377254486084,-1.66941702365875,10.2605447769165,1.51677799224854,-0.0533539988100529,3.7881338596344,-1075.5,-2.10000014305115,-897.300048828125,-0.843169757109246,-0.40880460181114,0.161252382197222,NLL
16.7,-3.23057007789612,-0.996506214141846,8.72032642364502,1.38720393180847,-1.92836594581604,3.37654590606689,-1068.30004882812,-2.10000014305115,-906.900024414062,-0.869951367970434,-0.355906235520672,0.114079123879653,NLL
16.7333333333333,-3.2006630897522,-0.439635097980499,8.11500549316406,0.800309956073761,-3.01068997383118,3.90246391296387,-1077.90002441406,0.900000035762787,-904.500061035156,-0.89988657595492,-0.368521479519483,0.0587173447396909,NLL
16.7666666666667,-3.12170815467834,-0.185424327850342,8.16824054718018,0.304879993200302,-3.25459384918213,5.51070594787598,-1082.70007324219,-1.5,-911.700012207031,-0.927142230296988,-0.36081595757299,0.0238975842114478,NLL
16.8,-3.62414836883545,0.135778456926346,8.92728424072266,-1.34147191047668,-2.55336999893188,6.91315364837646,-1077.90002441406,3.30000019073486,-916.500061035156,-0.960793070004923,-0.378565986385961,-0.0123410848917493,NLL
16.8333333333333,-3.25987911224365,0.324791640043259,9.38127422332764,-2.00458598136902,-2.4923939704895,8.10218620300293,-1092.30004882812,1.5,-902.100036621094,-0.994068017819678,-0.334770243912676,-0.0335888424570486,NLL
16.8666666666667,-2.28550434112549,0.723752975463867,8.80825328826904,-2.74391984939575,-3.33843588829041,7.94974565505981,-1101.90002441406,6.30000019073486,-894.900024414062,-1.02972851343518,-0.258337856761246,-0.0747072765767228,NLL
16.9,-2.8142626285553,0.543113827705383,8.39433860778809,-4.67990779876709,-3.99392795562744,9.22262001037598,-1094.70007324219,3.90000009536743,-906.900024414062,-1.05656908226742,-0.30825199691282,-0.0628073284863003,NLL
16.9333333333333,-3.7312159538269,0.356493204832077,7.63170623779297,-6.85217761993408,-4.72563982009888,11.7836112976074,-1099.5,3.90000009536743,-914.100036621094,-1.08963696630161,-0.427717246215606,-0.0457761649748309,NLL
16.9666666666667,-2.74069118499756,-0.874485015869141,7.85182285308838,-10.6708002090454,-3.21648383140564,15.5488796234131,-1113.90002441406,11.7000007629395,-897.300048828125,-1.08894255262118,-0.343775562461772,0.0973769479512065,NLL
17.0,-2.12221121788025,-2.08153748512268,9.1330451965332,-12.2104434967041,-2.60672402381897,14.6494836807251,-1111.5,17.7000007629395,-894.900024414062,-1.10590375446153,-0.238629315665506,0.221080808632538,NLL
17.0333333333333,-1.90149652957916,-3.20365381240845,10.4375944137573,-9.44365787506104,0.472563982009888,12.6296539306641,-1109.10009765625,23.1000003814697,-890.100036621094,-1.12926306273926,-0.18740956019563,0.298086594099611,NLL
17.0666666666667,-2.10665965080261,-3.30713248252869,10.4202489852905,-5.61741399765015,1.20427596569061,8.01072216033936,-1106.70007324219,17.1000003814697,-897.300048828125,-1.15016690549518,-0.195372846116742,0.31239475591226,NLL
17.1,-2.53313541412354,-3.21142959594727,10.0733261108398,-1.47866797447205,1.07470202445984,4.39789390563965,-1087.5,19.5,-887.700012207031,-1.16241585037351,-0.233343871087941,0.310041336345549,NLL
17.1333333333333,-2.73052263259888,-2.9303023815155,8.57737064361572,1.2347639799118,-0.830797970294952,1.44055795669556,-1097.10009765625,26.7000007629395,-887.700012207031,-1.16244516740829,-0.284075556455083,0.324021515054586,NLL
17.1666666666667,-3.889723777771,-2.19458651542664,8.56361293792725,1.18140995502472,-2.27897787094116,0.221037998795509,-1106.70007324219,23.1000003814697,-897.300048828125,-1.18585495701684,-0.396061861215118,0.257541368375049,NLL
17.2,-3.75334715843201,-2.08153748512268,7.62632274627686,1.33385002613068,-1.94360995292664,2.59910202026367,-1094.70007324219,21.9000015258789,-897.300048828125,-1.19076830598403,-0.435064193762962,0.261134388505739,NLL
17.2333333333333,-2.8441698551178,-2.51519107818604,7.42654323577881,-0.297257989645004,-0.716467976570129,4.16161203384399,-1111.5,19.5,-890.100036621094,-1.18096498387028,-0.360684777926886,0.315974321101869,NLL
17.2666666666667,-2.30763554573059,-3.01703310012817,8.04083633422852,-1.47866797447205,-1.29574000835419,3.45276594161987,-1101.90002441406,23.1000003814697,-894.900024414062,-1.18050076871315,-0.275712343346392,0.353874335906163,NLL
17.3,-3.25210332870483,-2.65096974372864,9.14082050323486,-1.29574000835419,-2.00458598136902,2.83538389205933,-1104.30004882812,20.1000003814697,-885.300048828125,-1.20875749260025,-0.320513694133034,0.292486428134735,NLL
17.3333333333333,-3.33404898643494,-2.3997495174408,9.32445049285889,-0.358233988285065,-1.34909391403198,3.11739802360535,-1104.30004882812,25.5000019073486,-892.500061035156,-1.22986576436246,-0.330911619009103,0.256216163844066,NLL
17.3666666666667,-3.35558199882507,-2.26337289810181,8.98829460144043,-0.228659987449646,-0.731711983680725,2.62959003448486,-1111.5,21.9000015258789,-892.500061035156,-1.24059355230836,-0.345035783331126,0.246859511274163,NLL
17.4,-3.52306199073792,-2.03787302970886,8.83636569976807,-0.25152599811554,0.320124000310898,2.70580983161926,-1113.90002441406,24.9000015258789,-882.900024414062,-1.25507021246402,-0.369269822838586,0.227723444146002,NLL
17.4333333333333,-4.2204966545105,-2.09350037574768,9.32564735412598,-0.0457319989800453,0.594515979290009,2.9268479347229,-1099.5,23.7000007629395,-887.700012207031,-1.2660178034139,-0.412718796656185,0.2198449736197,NLL
17.4666666666667,-3.45846271514893,-1.61558413505554,8.03664875030518,1.2576299905777,-0.213415995240211,2.65245604515076,-1106.70007324219,22.5,-885.300048828125,-1.28034827551131,-0.4015552698567,0.197667073744068,NLL
