seconds,sensor_accX_m_s_,sensor_accY_m_s_,sensor_accZ_m_s_,sensor_gyroX___s_,sensor_gyroY___s_,sensor_gyroZ___s_,sensor_magX__T_,sensor_magY__T_,sensor_magZ__T_,sensor_yaw___,sensor_pitch___,sensor_roll___,label5
0.0,-1.92602038383484,0.638218522071838,9.43450927734375,0.144817993044853,-0.442075997591019,0.0228659994900227,-1097.10009765625,-8.70000076293945,-906.900024414062,2.81793869465004,-0.20015758950564,-0.0677994515213502,ST
0.0333333333333333,-1.97028291225433,0.680686712265015,9.37948036193848,0.160062000155449,-0.342989981174469,0.0304879993200302,-1092.30004882812,-8.70000076293945,-909.300048828125,2.8171795592132,-0.205909786675817,-0.0727141575567763,ST
0.0666666666666667,-1.96729218959808,0.648985147476196,9.3956298828125,0.137196004390717,-0.304879993200302,0.144817993044853,-1101.90002441406,-3.90000009536743,-923.700012207031,2.81708585833792,-0.205378022764498,-0.0692564198452275,ST
0.1,-1.9529367685318,0.644798099994659,9.43510723114014,0.167683988809586,-0.335367977619171,0.198172003030777,-1097.10009765625,-8.10000038146973,-902.100036621094,2.81603558213969,-0.203040120659913,-0.0685913473800944,ST
0.133333333333333,-1.93499255180359,0.617881715297699,9.37589073181152,0.205793991684914,-0.335367977619171,0.243903994560242,-1099.5,-10.5,-897.300048828125,2.8149944796935,-0.20248286886602,-0.0662502248398971,ST
0.166666666666667,-1.93738508224487,0.623863101005554,9.43331241607666,0.190549999475479,-0.304879993200302,0.282013982534409,-1097.10009765625,-9.30000019073486,-911.700012207031,2.81284311206004,-0.201568030926718,-0.0664634294806638,ST
0.2,-1.94755351543427,0.66932201385498,9.44228458404541,0.182927995920181,-0.304879993200302,0.3125019967556,-1099.5,-4.5,-909.300048828125,2.80975736915158,-0.202339600849107,-0.0711787505516971,ST
0.233333333333333,-1.87218749523163,0.573020994663239,9.33521747589111,0.175305992364883,-0.243903994560242,0.304879993200302,-1082.70007324219,-3.90000009536743,-909.300048828125,2.8093542945911,-0.197113579361271,-0.0617274137797683,ST
0.266666666666667,-1.91824448108673,0.66334056854248,9.51645469665527,0.129574000835419,-0.182927995920181,0.236281991004944,-1094.70007324219,-3.90000009536743,-892.500061035156,2.80603204321323,-0.198087949449534,-0.0698802419393922,ST
0.3,-1.90209460258484,0.60950767993927,9.48355674743652,0.236281991004944,-0.243903994560242,0.3125019967556,-1099.5,-3.90000009536743,-916.500061035156,2.8049410948045,-0.197086687184331,-0.0647100527629917,ST
0.333333333333333,-1.96310520172119,0.687864422798157,9.36512470245361,0.320124000310898,-0.190549999475479,0.3125019967556,-1099.5,-11.7000007629395,-911.700012207031,2.80112959462825,-0.205694371799462,-0.0739621298937725,ST
0.366666666666667,-1.95772194862366,0.682481110095978,9.37349891662598,0.3125019967556,-0.129574000835419,0.396344006061554,-1097.10009765625,-4.5,-914.100036621094,2.79837368323556,-0.205093641472996,-0.0733678406309983,ST
0.4,-1.9768625497818,0.665733098983765,9.38845252990723,0.274392008781433,-0.152439996600151,0.533540010452271,-1101.90002441406,-9.30000019073486,-897.300048828125,2.79472211662789,-0.206691489549204,-0.0714647411868625,ST
0.433333333333333,-1.93917953968048,0.64838695526123,9.43570518493652,0.190549999475479,-0.205793991684914,0.495429992675781,-1109.10009765625,-2.10000014305115,-911.700012207031,2.79146835340424,-0.201822845385582,-0.0691183453154605,ST
0.466666666666667,-1.95652568340302,0.66932201385498,9.43510723114014,0.167683988809586,-0.274392008781433,0.449698001146317,-1094.70007324219,-3.90000009536743,-909.300048828125,2.78769755795925,-0.203432701868898,-0.0712627458558399,ST
0.5,-1.92003893852234,0.643601834774017,9.42613506317139,0.167683988809586,-0.37347799539566,0.350611984729767,-1101.90002441406,-9.90000057220459,-899.700012207031,2.78577914329728,-0.199806460003926,-0.0685865649795285,ST
0.533333333333333,-1.94755351543427,0.647190690040588,9.38845252990723,0.129574000835419,-0.388722002506256,0.3125019967556,-1113.90002441406,-2.70000004768372,-902.100036621094,2.78347959744911,-0.203346233726185,-0.0691531754631845,ST
0.566666666666667,-1.92542219161987,0.659153580665588,9.39323711395264,0.129574000835419,-0.335367977619171,0.335367977619171,-1097.10009765625,0.300000011920929,-894.900024414062,2.78082203107166,-0.20107700435176,-0.0703921368391838,ST
0.6,-1.90747797489166,0.598142981529236,9.40938663482666,0.0762199983000755,-0.228659987449646,0.3125019967556,-1082.70007324219,-2.70000004768372,-904.500061035156,2.77976075161309,-0.19918963241401,-0.0637375542505563,ST
0.633333333333333,-1.93798327445984,0.635227859020233,9.41835880279541,0.0533539988100529,-0.175305992364883,0.25152599811554,-1092.30004882812,-5.70000028610229,-906.900024414062,2.77707511549842,-0.202144468354346,-0.0675130426932998,ST
0.666666666666667,-1.95592749118805,0.614292860031128,9.43032169342041,0.0990860015153885,-0.160062000155449,0.3125019967556,-1101.90002441406,-11.7000007629395,-909.300048828125,2.77513758725137,-0.203769736438019,-0.0653352909111259,ST
0.7,-1.99540495872498,0.622666835784912,9.46860313415527,0.121951997280121,-0.175305992364883,0.327746003866196,-1097.10009765625,-6.30000019073486,-921.300048828125,2.77247687307018,-0.206915845944115,-0.0659937970735528,ST
0.733333333333333,-1.96848857402802,0.541917502880096,9.38127422332764,0.152439996600151,-0.160062000155449,0.411587983369827,-1097.10009765625,-11.7000007629395,-906.900024414062,2.77096509929938,-0.206177616798746,-0.0581338225314566,ST
0.766666666666667,-2.00676965713501,0.597544848918915,9.43989276885986,0.0076219998300075,-0.182927995920181,0.3125019967556,-1089.90002441406,-8.10000038146973,-909.300048828125,2.76736888312803,-0.20870008830562,-0.0633270896968581,ST
0.8,-1.95951640605927,0.552085936069489,9.401611328125,0.0228659994900227,-0.289635986089706,0.365855991840363,-1099.5,-2.70000004768372,-906.900024414062,2.76538888305513,-0.204606118854732,-0.0588322696652757,ST
0.833333333333333,-1.92183339595795,0.51440292596817,9.36811542510986,0.0228659994900227,-0.243903994560242,0.327746003866196,-1094.70007324219,-2.70000004768372,-914.100036621094,2.76354383034794,-0.201593680184067,-0.055016180283777,ST
0.866666666666667,-1.94874978065491,0.506627082824707,9.37349891662598,0.0381099991500378,-0.175305992364883,0.304879993200302,-1101.90002441406,-11.7000007629395,-914.100036621094,2.76128557021964,-0.204348380924611,-0.0541716074413466,ST
0.9,-1.95832014083862,0.512010395526886,9.36751747131348,0.0762199983000755,-0.221037998795509,0.297257989645004,-1087.5,-1.5,-902.100036621094,2.75873779073034,-0.205372512950432,-0.0548392380185849,ST
0.933333333333333,-1.95473122596741,0.459971934556961,9.40340518951416,-0.0228659994900227,-0.243903994560242,0.243903994560242,-1092.30004882812,-5.10000038146973,-906.900024414062,2.757941234838,-0.204274612119454,-0.0489349406164438,ST
0.966666666666667,-1.95473122596741,0.425877809524536,9.48714542388916,-0.0076219998300075,-0.221037998795509,0.228659987449646,-1097.10009765625,-3.30000019073486,-909.300048828125,2.75677657822508,-0.202596866132705,-0.0449311744353223,ST
1.0,-1.92960917949677,0.422288924455643,9.48594951629639,0.0762199983000755,-0.358233988285065,0.221037998795509,-1101.90002441406,-12.9000005722046,-911.700012207031,2.7552211755277,-0.199851202413114,-0.0446939938787518,ST
1.03333333333333,-1.94037580490112,0.450999796390533,9.39204120635986,0.129574000835419,-0.365855991840363,0.243903994560242,-1101.90002441406,-8.10000038146973,-914.100036621094,2.7528139614199,-0.202837814007886,-0.0482809303981026,ST
1.06666666666667,-1.94396460056305,0.446214646100998,9.38187217712402,0.121951997280121,-0.213415995240211,0.335367977619171,-1092.30004882812,-5.10000038146973,-897.300048828125,2.75036475358571,-0.203686626814022,-0.0478565443659766,ST
1.1,-1.97566628456116,0.439036935567856,9.40101337432861,0.121951997280121,-0.137196004390717,0.403965979814529,-1097.10009765625,2.10000014305115,-897.300048828125,2.74710614867412,-0.206645141059617,-0.0470262743774475,ST
1.13333333333333,-1.94575905799866,0.398961365222931,9.44707012176514,0.106707997620106,-0.0685980021953583,0.381099998950958,-1094.70007324219,-6.90000009536743,-906.900024414062,2.74473583781956,-0.202804696750644,-0.0425335846662365,ST
1.16666666666667,-1.95592749118805,0.389989227056503,9.49193096160889,0.190549999475479,-0.0762199983000755,0.381099998950958,-1087.5,-5.10000038146973,-906.900024414062,2.74207364201088,-0.202890303868479,-0.0415339305660582,ST
1.2,-1.97207736968994,0.440831363201141,9.42972373962402,0.25152599811554,-0.175305992364883,0.335367977619171,-1077.90002441406,-6.30000019073486,-909.300048828125,2.73837722295882,-0.205607584821774,-0.0472659508803193,ST
1.23333333333333,-1.95712375640869,0.377428203821182,9.33102989196777,0.182927995920181,-0.129574000835419,0.358233988285065,-1087.5,-3.30000019073486,-906.900024414062,2.73686419742942,-0.206329793699287,-0.0408847759104015,ST
1.26666666666667,-1.95174050331116,0.380418926477432,9.43630313873291,0.0838419944047928,-0.106707997620106,0.236281991004944,-1101.90002441406,2.70000004768372,-902.100036621094,2.73512394487338,-0.20360014873475,-0.0405233462004483,ST
1.3,-1.96250712871552,0.366661638021469,9.53439903259277,0.213415995240211,-0.221037998795509,0.289635986089706,-1097.10009765625,-9.90000057220459,-914.100036621094,2.73320094999629,-0.20244931672804,-0.0389124720219617,ST
1.33333333333333,-2.00377893447876,0.403148353099823,9.48295879364014,0.365855991840363,-0.259148001670837,0.274392008781433,-1089.90002441406,-5.70000028610229,-911.700012207031,2.73074849601539,-0.207572288990192,-0.0432119640426147,ST
1.36666666666667,-2.04445266723633,0.506627082824707,9.37529277801514,0.571649968624115,-0.144817993044853,0.46494197845459,-1097.10009765625,-5.70000028610229,-906.900024414062,2.72509779153144,-0.214100304151322,-0.0551452421708495,ST
1.4,-2.04385447502136,0.602928102016449,9.34239482879639,0.564027965068817,-0.160062000155449,0.815553963184357,-1092.30004882812,-5.70000028610229,-904.500061035156,2.71675229794696,-0.214572554793824,-0.0657208983448991,ST
1.43333333333333,-2.10965037345886,0.690257012844086,9.43331241607666,0.480185985565186,-0.350611984729767,0.975615978240967,-1101.90002441406,-2.70000004768372,-914.100036621094,2.70782662379447,-0.218703658382685,-0.0742266053080674,ST
1.46666666666667,-2.11383724212646,0.821848452091217,9.49791240692139,0.37347799539566,-0.99848198890686,1.28811800479889,-1099.5,-10.5,-902.100036621094,2.69556271706856,-0.216273652948587,-0.0873929224678267,ST
1.5,-2.13836121559143,0.92771977186203,9.59600734710693,0.282013982534409,-1.98171997070312,1.55488801002502,-1104.30004882812,-6.90000009536743,-906.900024414062,2.68247846661969,-0.214569250621553,-0.0973619332013642,ST
1.53333333333333,-2.1610906124115,1.05871307849884,9.53140830993652,0.327746003866196,-2.9420919418335,1.73019397258759,-1116.30004882812,-7.50000047683716,-904.500061035156,2.66752477620078,-0.216203676816789,-0.111706967732159,ST
1.56666666666667,-2.05462121963501,1.13348090648651,9.305908203125,0.457319974899292,-3.41465592384338,1.86738991737366,-1111.5,-9.90000057220459,-914.100036621094,2.65386992719795,-0.209459376068605,-0.122511598423226,ST
1.6,-1.73521280288696,1.16398620605469,9.14979267120361,0.426831990480423,-2.9192259311676,1.6768399477005,-1116.30004882812,-7.50000047683716,-911.700012207031,2.64224712972339,-0.180586139668546,-0.127683119220053,ST
1.63333333333333,-1.48339462280273,1.22858572006226,9.30471229553223,0.381099998950958,-2.29422187805176,1.53964400291443,-1116.30004882812,-4.5,-911.700012207031,2.631547209985,-0.152501342213969,-0.132263352789858,ST
1.66666666666667,-1.39486944675446,1.06110560894012,9.10493278503418,-0.0990860015153885,-1.81403601169586,1.2576299905777,-1128.30004882812,-4.5,-894.900024414062,2.62500525577863,-0.147623401288263,-0.116155037835782,ST
1.7,-1.59524726867676,0.980954468250275,9.33880615234375,-0.434453994035721,-1.2576299905777,1.12043392658234,-1118.70007324219,-4.5,-909.300048828125,2.61708877926973,-0.165868669370517,-0.104200328440804,ST
1.73333333333333,-1.64369690418243,0.687266290187836,9.50927734375,-0.762199997901917,-0.868907988071442,0.952749967575073,-1121.10009765625,-3.90000009536743,-906.900024414062,2.61397664398381,-0.169084567215191,-0.0711633970935882,ST
1.76666666666667,-1.77827906608582,0.507823407649994,9.55593204498291,-1.12043392658234,-0.87652999162674,0.746955990791321,-1128.30004882812,3.90000009536743,-897.300048828125,2.60977137588776,-0.182106559571362,-0.0514100300413697,ST
1.8,-1.98404026031494,0.250023752450943,9.2939453125,-1.46342396736145,-0.693601965904236,0.518296003341675,-1125.90002441406,2.10000014305115,-911.700012207031,2.60821856808899,-0.208947324967865,-0.02459193206321,ST
1.83333333333333,-2.20415687561035,0.0149535741657019,9.74075794219971,-1.6920839548111,0.0381099991500378,0.144817993044853,-1147.5,1.5,-909.300048828125,2.60935108812721,-0.222567907168015,0.0012969970067979,ST
1.86666666666667,-2.23346590995789,-0.0819455906748772,10.015305519104,-1.55488801002502,-0.0609759986400604,-0.0076219998300075,-1128.30004882812,-3.30000019073486,-904.500061035156,2.60857861557593,-0.219310094038374,0.0108747780968264,ST
1.9,-2.2711489200592,-0.202172324061394,9.51705265045166,-1.28049600124359,-0.457319974899292,-0.0304879993200302,-1123.5,-2.10000014305115,-911.700012207031,2.60904910422899,-0.233374282665964,0.0234524569702815,ST
1.93333333333333,-2.39795517921448,-0.0951047316193581,9.46321964263916,-0.891773998737335,-0.396344006061554,-0.0990860015153885,-1135.5,2.10000014305115,-904.500061035156,2.60512827756942,-0.247440599329,0.0116712897642686,ST
1.96666666666667,-2.32737421989441,0.0723752975463867,9.80416107177734,-0.396344006061554,-0.807931959629059,0.0914639979600906,-1130.70007324219,-1.5,-897.300048828125,2.5990867004859,-0.231674666170041,-0.0067027962271833,ST
2.0,-2.34053349494934,0.068188302218914,9.0672492980957,0.0457319989800453,-1.61586391925812,0.37347799539566,-1135.5,1.5,-899.700012207031,2.59590410704634,-0.249739536754768,-0.0077580295655334,ST
2.03333333333333,-2.2532045841217,0.108862020075321,8.86148834228516,-0.0304879993200302,-1.50915598869324,0.350611984729767,-1142.70007324219,-0.900000035762787,-918.900024414062,2.59191629290604,-0.24634184942107,-0.0123654149411851,ST
2.06666666666667,-2.05940628051758,0.186620607972145,9.234130859375,0.129574000835419,-2.28659987449646,0.472563982009888,-1137.90002441406,-0.900000035762787,-897.300048828125,2.58625823299712,-0.215410051268652,-0.0205882471349848,ST
2.1,-1.85244882106781,0.189013183116913,8.55763149261475,0.228659987449646,-2.66007804870605,0.609759986400604,-1135.5,2.70000004768372,-909.300048828125,2.58157880788558,-0.208479423727408,-0.0226809279532253,ST
2.13333333333333,-1.38589727878571,0.0155517170205712,9.186279296875,0.0304879993200302,-2.71343183517456,0.739333987236023,-1135.5,3.30000019073486,-911.700012207031,2.57909614020478,-0.145154102831568,-0.0019853646145705,ST
2.16666666666667,-1.25849282741547,0.197387173771858,9.1802978515625,0.137196004390717,-3.51374197006226,0.335367977619171,-1159.5,0.300000011920929,-904.500061035156,2.5742066083602,-0.130099396329035,-0.0217480975676257,ST
2.2,-0.866111040115356,0.0550291538238525,9.24788856506348,0.137196004390717,-3.81862187385559,0.602137982845306,-1140.30004882812,-0.900000035762787,-897.300048828125,2.57112071121722,-0.0868162330231262,-0.0063164183068374,ST
2.23333333333333,-0.600535571575165,-0.072973445057869,9.26104736328125,-0.342989981174469,-4.70277404785156,0.0609759986400604,-1159.5,-6.30000019073486,-894.900024414062,2.57115055199254,-0.0565833343546882,0.0084500828524917,ST
2.26666666666667,-0.394176214933395,-0.148339450359344,9.53021240234375,-0.282013982534409,-5.04576396942139,0.327746003866196,-1159.5,0.900000035762787,-902.100036621094,2.56782642856953,-0.0325829530494393,0.0160179322573144,ST
2.3,-0.113049022853374,-0.395970642566681,9.21798133850098,-0.259148001670837,-5.14484977722168,0.594515979290009,-1173.90002441406,-3.30000019073486,-899.700012207031,2.56148168990612,-0.0033972442358494,0.0433094917499843,ST
2.33333333333333,-0.084936298429966,-0.341539651155472,9.45125675201416,-0.198172003030777,-5.03814172744751,0.388722002506256,-1183.5,-0.300000011920929,-890.100036621094,2.55646485764729,-0.0002258651945427,0.0364836886143037,ST
2.36666666666667,0.319408357143402,-0.409129798412323,9.08818435668945,-0.289635986089706,-4.42838191986084,0.304879993200302,-1190.70007324219,0.900000035762787,-899.700012207031,2.55179948407806,0.0427252139266533,0.0455159720900601,ST
2.4,0.419298231601715,-0.464757084846497,9.86636829376221,-0.388722002506256,-3.91008591651917,0.175305992364883,-1195.5,3.30000019073486,-894.900024414062,2.54856989383655,0.0492170981466926,0.047776144326594,ST
2.43333333333333,0.910971760749817,-0.760837852954865,9.66240119934082,-0.144817993044853,-4.65704202651978,0.152439996600151,-1190.70007324219,2.70000004768372,-882.900024414062,2.54186032760731,0.101713928260206,0.0788755790514439,ST
2.46666666666667,1.19090270996094,-0.772800743579865,9.17012977600098,-0.0304879993200302,-4.39789390563965,-0.495429992675781,-1202.70007324219,6.90000009536743,-880.500061035156,2.54238045681507,0.136329558173567,0.0840857165501102,ST
2.5,1.22559499740601,-0.52636581659317,10.1762065887451,0.647870004177094,-4.16161203384399,0.160062000155449,-1217.10009765625,-3.30000019073486,-880.500061035156,2.54262870193291,0.126964410505064,0.0507141868734226,ST
2.53333333333333,1.9708811044693,-1.02342259883881,9.73836612701416,0.503051996231079,-4.22258806228638,0.396344006061554,-1221.90002441406,-0.300000011920929,-868.500061035156,2.52629225947839,0.205686716636229,0.103998325357835,ST
2.56666666666667,1.87517821788788,-0.684275567531586,10.04700756073,0.243903994560242,-3.29270386695862,0.129574000835419,-1219.5,-0.300000011920929,-880.500061035156,2.52981690566412,0.189857981206745,0.0677843387120308,ST
2.6,1.76930689811707,-0.806296706199646,10.0027446746826,0.754577994346619,-2.02745199203491,1.40244793891907,-1221.90002441406,-5.70000028610229,-873.300048828125,2.51196252145865,0.177864610938509,0.079592001034229,ST
2.63333333333333,1.98822724819183,-0.91575688123703,10.0284652709961,0.564027965068817,-1.22714197635651,1.29574000835419,-1224.30004882812,-5.10000038146973,-878.100036621094,2.49712484645786,0.196812066377056,0.0905387497324791,ST
2.66666666666667,1.62993955612183,-0.722556710243225,9.98958587646484,0.937505960464478,-0.87652999162674,1.03659200668335,-1233.90002441406,3.30000019073486,-866.100036621094,2.48990449727091,0.162805595348303,0.0709327192980719,ST
2.7,1.57610678672791,-0.660947978496552,10.3209571838379,1.12805593013763,-0.228659987449646,0.754577994346619,-1219.5,-4.5,-868.500061035156,2.48322286083086,0.151577678357426,0.0622096430763596,ST
2.73333333333333,1.66044485569,-0.406139075756073,10.234824180603,1.47104597091675,-1.12805593013763,0.640248000621796,-1241.10009765625,0.300000011920929,-863.700012207031,2.47921939654074,0.162607694085128,0.0373509148861842,ST
2.76666666666667,1.96729218959808,-0.442027658224106,9.64565372467041,1.58537602424622,-0.800309956073761,0.952749967575073,-1217.10009765625,-3.30000019073486,-870.900024414062,2.46611557693293,0.202266419504613,0.0433729470229501,ST
2.8,1.98045134544373,-0.439036935567856,9.63488674163818,1.40244793891907,0.0609759986400604,0.586893975734711,-1219.5,-0.900000035762787,-880.500061035156,2.45875522784763,0.202371497356599,0.0432973095576639,ST
2.83333333333333,1.90030026435852,-0.479710668325424,9.52303409576416,1.10518991947174,-0.0457319989800453,0.152439996600151,-1238.70007324219,-0.900000035762787,-866.100036621094,2.45454927002376,0.196798638499128,0.0484434183377833,ST
2.86666666666667,1.63173401355743,-0.39836323261261,10.2222633361816,1.04421401023865,0.0609759986400604,0.198172003030777,-1226.70007324219,-2.70000004768372,-866.100036621094,2.45337703979947,0.158148306534588,0.0372103652644341,ST
2.9,1.65565979480743,-0.324791640043259,10.2623386383057,1.36433792114258,-0.388722002506256,0.182927995920181,-1224.30004882812,-2.70000004768372,-880.500061035156,2.45108656551179,0.160539825173619,0.0293316680731085,ST
2.93333333333333,2.03966760635376,-0.314623206853867,10.1684303283691,1.73781597614288,0.259148001670837,-0.0457319989800453,-1221.90002441406,-2.70000004768372,-873.300048828125,2.44895923980533,0.1973290791066,0.0278827896546497,ST
2.96666666666667,2.18740892410278,-0.0161498598754406,9.99257659912109,1.63110792636871,0.548784017562866,-0.724089980125427,-1217.10009765625,-6.30000019073486,-856.500061035156,2.45813879842254,0.214503304905932,-0.0014334862255864,ST
3.0,1.77708280086517,0.250621914863586,9.68752384185791,1.95885396003723,0.701223969459534,-0.960371971130371,-1217.10009765625,-1.5,-868.500061035156,2.46880907176224,0.180146513025413,-0.0295397233772031,ST
3.03333333333333,1.87577641010284,0.13398402929306,9.57208156585693,1.35671591758728,1.00610399246216,-0.861285984516144,-1217.10009765625,-4.5,-870.900024414062,2.47196178109364,0.191701081416688,-0.0166639001500861,ST
3.06666666666667,2.08213567733765,0.477318078279495,8.82081413269043,0.990859985351562,0.487807989120483,-1.36433792114258,-1217.10009765625,-6.90000009536743,-868.500061035156,2.48964969649203,0.230400842288389,-0.0562364857680568,ST
3.1,0.416307508945465,1.50552582740784,9.56370830535889,1.50153398513794,3.58996200561523,-0.442075997591019,-1214.70007324219,-3.90000009536743,-868.500061035156,2.50178959891759,0.0369711321750056,-0.158594323291884,ST
3.13333333333333,0.300267785787582,1.95592749118805,9.75690841674805,2.4847719669342,4.69515180587769,0.823175966739655,-1207.5,-6.30000019073486,-875.700012207031,2.48682106071952,0.0224471919990176,-0.202044085823653,ST
3.16666666666667,-0.500047504901886,2.63601613044739,9.65103721618652,2.96495795249939,6.12808799743652,0.579271972179413,-1200.30004882812,-4.5,-885.300048828125,2.46830724260792,-0.059773202907147,-0.271854777390409,ST
3.2,-0.665733098983765,2.74786877632141,9.47757530212402,2.37806391716003,6.6387619972229,0.0457319989800453,-1200.30004882812,-9.30000019073486,-882.900024414062,2.45243910913601,-0.0784099875740557,-0.286569268980854,ST
3.23333333333333,-1.00846910476685,2.62465143203735,8.95838737487793,1.28049600124359,6.04424571990967,-0.899396002292633,-1178.70007324219,-11.7000007629395,-873.300048828125,2.44609356099453,-0.118097938697997,-0.287412436969629,ST
3.26666666666667,-1.00308573246002,2.09290218353271,8.73288726806641,0.121951997280121,5.7698540687561,-1.45580196380615,-1166.70007324219,-6.90000009536743,-875.700012207031,2.45248694527872,-0.121616099034792,-0.235546982469515,ST
3.3,-1.6263507604599,2.08034133911133,8.3578519821167,-0.663114011287689,5.18296003341675,-1.98934197425842,-1171.5,-10.5,-892.500061035156,2.45667532325738,-0.196153304308797,-0.242550510706236,ST
3.33333333333333,-1.77827906608582,1.55995690822601,8.17123126983643,-1.12805593013763,5.41161966323853,-1.265251994133,-1145.10009765625,-10.5,-892.500061035156,2.46762173349678,-0.220229432469338,-0.186719214502214,ST
3.36666666666667,-1.80220472812653,1.3201014995575,8.52114486694336,-1.51677799224854,4.96954393386841,-1.20427596569061,-1140.30004882812,-10.5,-890.100036621094,2.47596201606045,-0.214944118715807,-0.150976000975244,ST
3.4,-1.78126978874207,1.01445043087006,9.37469482421875,-1.2576299905777,3.85673189163208,-0.556405961513519,-1130.70007324219,-6.30000019073486,-904.500061035156,2.48396333535133,-0.193555181565551,-0.10566126018667,ST
3.43333333333333,-1.41221559047699,0.680088579654694,9.20063495635986,-1.28049600124359,2.73629784584045,-0.381099998950958,-1135.5,-3.30000019073486,-909.300048828125,2.48950940017982,-0.156796852843114,-0.0715829202124834,ST
3.46666666666667,-1.20645439624786,0.608311414718628,9.49193096160889,-1.39482593536377,1.6920839548111,-0.472563982009888,-1130.70007324219,-5.70000028610229,-916.500061035156,2.49244505454666,-0.129236003174334,-0.0615074931100977,ST
3.5,-1.00727272033691,0.738706588745117,9.51824951171875,-1.13567793369293,1.2347639799118,-0.518296003341675,-1128.30004882812,-8.70000076293945,-902.100036621094,2.49338497857357,-0.107390365664256,-0.075358609837938,ST
3.53333333333333,-1.00667464733124,0.439036935567856,9.76767444610596,-0.907018005847931,1.34909391403198,-0.602137982845306,-1118.70007324219,-5.70000028610229,-906.900024414062,2.50054718518062,-0.105000880119975,-0.0433142078661738,ST
3.56666666666667,-1.55457353591919,0.660947978496552,9.60677433013916,-1.17378795146942,2.24086785316467,-1.18140995502472,-1111.5,-6.30000019073486,-906.900024414062,2.5054626294177,-0.164023970222304,-0.0663192146595406,ST
3.6,-2.54749083518982,0.745286166667938,10.0320539474487,-0.609759986400604,3.92532992362976,-0.647870004177094,-1116.30004882812,-7.50000047683716,-906.900024414062,2.50593101925131,-0.254714442707652,-0.0729126525977777,ST
3.63333333333333,-2.55407047271729,0.47851437330246,8.51576137542725,-0.87652999162674,4.58844375610352,-1.13567793369293,-1106.70007324219,-9.30000019073486,-904.500061035156,2.51607383588214,-0.298948208835627,-0.054178909953898,ST
3.66666666666667,-3.1928870677948,0.40853163599968,9.56789493560791,-1.50915598869324,5.18296003341675,-1.44055795669556,-1106.70007324219,-3.90000009536743,-926.100036621094,2.52650247756193,-0.330875923981858,-0.0393454320402657,ST
3.7,-2.65455842018127,0.0747678726911545,8.83816051483154,-1.63110792636871,3.51374197006226,-1.89025592803955,-1092.30004882812,-3.90000009536743,-914.100036621094,2.54823280002924,-0.298002590744027,-0.0046986968499308,ST
3.73333333333333,-3.17255020141602,0.0885251611471176,8.40450668334961,-1.91312193870544,2.69818782806396,-2.59148001670837,-1087.5,-0.900000035762787,-916.500061035156,2.56318398185663,-0.365497737360753,-0.0054828645123409,ST
3.76666666666667,-3.03557562828064,-0.0502440109848976,9.43929386138916,-1.75305998325348,2.94971394538879,-2.0731840133667,-1085.10009765625,-10.5,-894.900024414062,2.581241334845,-0.316333199491356,0.0095540774218839,ST
3.8,-2.72813010215759,-0.379820793867111,8.97633171081543,-1.53202199935913,0.792688012123108,-2.00458598136902,-1068.30004882812,-4.5,-899.700012207031,2.60587922383306,-0.296060933265901,0.0459902420339694,ST
3.83333333333333,-2.94645237922668,-0.711790144443512,9.75631046295166,-0.960371971130371,0.899396002292633,-1.51677799224854,-1061.10009765625,0.900000035762787,-906.900024414062,2.6263127845238,-0.293930761920742,0.0753091558582621,ST
3.86666666666667,-2.69343781471252,-0.834409415721893,10.0171003341675,-1.13567793369293,-0.990859985351562,-2.37806391716003,-1065.90002441406,-0.300000011920929,-916.500061035156,2.64724249153037,-0.259769273768193,0.0861376486602299,ST
3.9,-2.84955310821533,-0.614292860031128,9.77066516876221,-0.350611984729767,-1.76068198680878,-1.41769194602966,-1075.5,-5.10000038146973,-923.700012207031,2.65219738711594,-0.27999285698287,0.0640822408864672,ST
3.93333333333333,-2.64020299911499,-0.622068703174591,9.70068264007568,0.25152599811554,-1.37195992469788,-0.617381989955902,-1077.90002441406,-1.5,-904.500061035156,2.6571110998056,-0.262794777778319,0.0638485130921452,ST
3.96666666666667,-2.52835035324097,-0.645994424819946,9.26224422454834,0.586893975734711,-1.16616594791412,-0.0228659994900227,-1070.70007324219,-0.900000035762787,-914.100036621094,2.65919391569073,-0.26383010280088,0.0685686762934569,ST
4.0,-2.32976698875427,-0.665733098983765,9.35136699676514,0.297257989645004,-1.21189796924591,-0.0457319989800453,-1085.10009765625,3.30000019073486,-904.500061035156,2.66001473828975,-0.241479910450392,0.0705329932906355,ST
4.03333333333333,-2.73530769348145,-0.732127010822296,8.45534896850586,0.381099998950958,-0.846041977405548,0.0228659994900227,-1070.70007324219,-2.70000004768372,-923.700012207031,2.6643233840298,-0.310145593518732,0.0856151350374581,ST
4.06666666666667,-2.53552794456482,-0.760239720344543,9.32325458526611,-0.182927995920181,-0.525918006896973,-0.198172003030777,-1092.30004882812,0.300000011920929,-894.900024414062,2.66408906031403,-0.263868573207451,0.0817640389878273,ST
4.1,-2.70300817489624,-0.700425446033478,9.17431735992432,0.381099998950958,-0.983237981796265,0.152439996600151,-1082.70007324219,-0.900000035762787,-914.100036621094,2.66139832045366,-0.283993334342625,0.0754335730101321,ST
4.13333333333333,-2.88783431053162,-0.814670741558075,9.58105373382568,0.670735955238342,-0.891773998737335,0.396344006061554,-1094.70007324219,-3.30000019073486,-897.300048828125,2.66142836383243,-0.290248359188618,0.0833897644836376,ST
4.16666666666667,-2.82443118095398,-0.375035643577576,9.58942794799805,0.967993974685669,-1.91312193870544,0.381099998950958,-1089.90002441406,-0.300000011920929,-909.300048828125,2.64679623113521,-0.282933118837096,0.0372592297675428,ST
4.2,-2.66412878036499,-0.596348524093628,9.20841121673584,0.975615978240967,-1.64635193347931,0.884151995182037,-1094.70007324219,-5.70000028610229,-911.700012207031,2.64797101171909,-0.278307283595729,0.0624130971883446,ST
4.23333333333333,-2.70898962020874,-0.424083352088928,9.35675048828125,0.419209986925125,-0.975615978240967,0.594515979290009,-1080.30004882812,-5.10000038146973,-918.900024414062,2.63865695106868,-0.279884345203367,0.0442857792629443,ST
4.26666666666667,-2.60610890388489,-0.316417634487152,9.0193977355957,0.647870004177094,-0.693601965904236,0.746955990791321,-1089.90002441406,-3.30000019073486,-918.900024414062,2.63054432025146,-0.27995410367565,0.0335667518175992,ST
4.3,-2.38060903549194,-0.472532957792282,8.96855545043945,0.769822001457214,-0.182927995920181,0.99848198890686,-1097.10009765625,-5.10000038146973,-918.900024414062,2.62846615955469,-0.258934478706347,0.0507874231691995,ST
4.33333333333333,-2.64080119132996,-0.53234726190567,9.12467098236084,0.571649968624115,0.503051996231079,0.708845973014832,-1097.10009765625,-0.300000011920929,-909.300048828125,2.62555336448236,-0.282173563455596,0.0569250603831455,ST
4.36666666666667,-2.77358889579773,-0.476121813058853,9.50987529754639,0.556405961513519,0.46494197845459,0.419209986925125,-1101.90002441406,-6.90000009536743,-911.700012207031,2.6213113031603,-0.284288070316865,0.0488673658973073,ST
4.4,-2.88843250274658,-0.282323479652405,9.17611122131348,1.04421401023865,0.25152599811554,0.792688012123108,-1085.10009765625,3.30000019073486,-916.500061035156,2.61161408730472,-0.305250545063735,0.0285542239311489,ST
4.43333333333333,-2.90936732292175,-0.35410064458847,9.14919471740723,1.08994603157043,0.602137982845306,0.99848198890686,-1099.5,-8.70000076293945,-911.700012207031,2.60811902702778,-0.308774716130949,0.0362313197466885,ST
4.46666666666667,-2.82981443405151,-0.354698777198792,8.79748725891113,0.724089980125427,0.693601965904236,0.762199997901917,-1085.10009765625,0.900000035762787,-897.300048828125,2.60471826311398,-0.312225755842716,0.0386134441065721,ST
4.5,-3.16058754920959,-0.29009935259819,8.97872447967529,0.92988395690918,0.846041977405548,1.10518991947174,-1082.70007324219,-8.70000076293945,-909.300048828125,2.59580823210357,-0.33976658026483,0.0300327189342726,ST
4.53333333333333,-3.02480912208557,-0.497056812047958,8.77356147766113,0.716467976570129,1.06708002090454,1.33385002613068,-1097.10009765625,-5.10000038146973,-904.500061035156,2.59524007510018,-0.333508459368148,0.0545260065189979,ST
4.56666666666667,-3.11512851715088,-0.245836764574051,9.26702880859375,0.495429992675781,0.617381989955902,1.21189796924591,-1077.90002441406,-0.900000035762787,-906.900024414062,2.57705590288176,-0.325326207463027,0.0250113042303115,ST
4.6,-3.26167368888855,-0.358885794878006,9.07861423492432,1.00610399246216,0.830797970294952,1.80641400814056,-1089.90002441406,1.5,-914.100036621094,2.56794438520977,-0.346205915197159,0.0366275017688997,ST
4.63333333333333,-3.01882767677307,-0.363072782754898,9.09835243225098,0.571649968624115,0.975615978240967,1.6920839548111,-1082.70007324219,-3.30000019073486,-911.700012207031,2.55569354354684,-0.321983408262677,0.0379220727172968,ST
4.66666666666667,-3.2006630897522,-0.152526453137398,9.24250507354736,0.67835795879364,0.6250039935112,1.71494996547699,-1068.30004882812,-1.5,-902.100036621094,2.53609121549383,-0.334435752990336,0.014342458927882,ST
4.7,-3.28858995437622,-0.34811919927597,8.73228931427002,0.800309956073761,1.09756803512573,1.98171997070312,-1080.30004882812,-7.50000047683716,-914.100036621094,2.53052503036208,-0.361887213219106,0.037112794366979,ST
4.73333333333333,-3.21741104125977,-0.215331465005875,9.16414833068848,0.503051996231079,1.35671591758728,1.92836594581604,-1077.90002441406,-2.70000004768372,-923.700012207031,2.51121204405646,-0.340051051638972,0.0214813561241338,ST
4.76666666666667,-3.11333417892456,-0.142956167459488,8.90156364440918,0.87652999162674,0.586893975734711,2.39330792427063,-1065.90002441406,-4.5,-894.900024414062,2.49149726338014,-0.337499864687071,0.01308915318287,ST
4.8,-2.93748021125793,-0.279332756996155,8.40390872955322,1.00610399246216,0.731711983680725,2.35519790649414,-1070.70007324219,-7.50000047683716,-911.700012207031,2.47947940229023,-0.337491516423636,0.0300225216686587,ST
4.83333333333333,-2.79452395439148,-0.32838049530983,8.74126148223877,0.632625997066498,0.716467976570129,2.02745199203491,-1070.70007324219,-5.70000028610229,-914.100036621094,2.46642435385428,-0.310661410327042,0.0353105841936015,ST
4.86666666666667,-2.86151599884033,-0.0358885787427425,8.93685436248779,0.754577994346619,-0.221037998795509,1.71494996547699,-1070.70007324219,-7.50000047683716,-911.700012207031,2.44406336971232,-0.309500225271292,0.0018236284720853,ST
4.9,-2.60012745857239,-0.0496458671987057,8.83696460723877,1.06708002090454,-0.403965979814529,2.0731840133667,-1063.5,-9.30000019073486,-914.100036621094,2.4297853510428,-0.285518134505362,0.0026890762814193,ST
4.93333333333333,-2.66113805770874,0.0233275759965181,8.81602954864502,1.19665396213531,-0.541162014007568,2.0579400062561,-1065.90002441406,-6.30000019073486,-916.500061035156,2.41331691782773,-0.292174123536032,-0.0057928900729993,ST
4.96666666666667,-2.72035431861877,0.258995920419693,9.25865459442139,1.35671591758728,-0.564027965068817,2.02745199203491,-1070.70007324219,-2.10000014305115,-921.300048828125,2.39187565248111,-0.284588711880777,-0.0313210677398876,ST
5.0,-2.9063766002655,0.342137783765793,9.42912578582764,1.64635193347931,-0.548784017562866,2.23324584960938,-1061.10009765625,-11.7000007629395,-911.700012207031,2.37387465835391,-0.297680535366974,-0.0403155110144102,ST
5.03333333333333,-2.67310094833374,0.394176214933395,9.377685546875,1.34909391403198,-0.663114011287689,1.69970595836639,-1085.10009765625,-4.5,-926.100036621094,2.36187111906166,-0.276216127997532,-0.0451784530757506,ST
5.06666666666667,-2.86749744415283,0.605320692062378,9.98300647735596,1.32622802257538,-0.411587983369827,1.56251001358032,-1077.90002441406,-10.5,-909.300048828125,2.34721791806233,-0.278327549312626,-0.0635955469475086,ST
5.1,-2.6037163734436,0.574815392494202,9.4075927734375,1.22714197635651,-0.899396002292633,1.31860601902008,-1085.10009765625,0.300000011920929,-902.100036621094,2.3395172270154,-0.267843694499195,-0.0637710532430531,ST
5.13333333333333,-3.03916454315186,0.715378999710083,9.4847526550293,0.952749967575073,-0.99848198890686,0.975615978240967,-1075.5,-0.900000035762787,-916.500061035156,2.33036047230408,-0.307336234102244,-0.0774197592350282,ST
5.16666666666667,-3.07864189147949,0.952243626117706,9.5864372253418,1.13567793369293,-0.655492007732391,1.34147191047668,-1073.10009765625,-5.70000028610229,-906.900024414062,2.31552686736389,-0.307939965214193,-0.101635044039386,ST
5.2,-2.61209034919739,0.943869590759277,9.37349891662598,1.16616594791412,-1.02134799957275,1.6692179441452,-1075.5,-13.5000009536743,-909.300048828125,2.30492057346974,-0.26849626997271,-0.103138601935379,ST
5.23333333333333,-2.7921314239502,1.01205790042877,9.37708759307861,1.05945801734924,-1.37958192825317,1.60824191570282,-1075.5,-11.7000007629395,-914.100036621094,2.2935399869569,-0.285079998035577,-0.110086156669007,ST
5.26666666666667,-2.97755575180054,1.04794645309448,9.32863807678223,0.853663980960846,-1.265251994133,1.50915598869324,-1097.10009765625,-8.10000038146973,-897.300048828125,2.2833661501518,-0.304610054101493,-0.114092347349897,ST
5.3,-2.95841503143311,1.05512416362762,9.00444412231445,0.579271972179413,-0.952749967575073,1.6844619512558,-1094.70007324219,-15.3000001907349,-904.500061035156,2.27002796380896,-0.313411344375459,-0.118533588795074,ST
5.33333333333333,-3.06608080863953,1.06050753593445,8.98410701751709,0.381099998950958,-0.922261953353882,1.82165801525116,-1089.90002441406,-8.10000038146973,-899.700012207031,2.25538885069945,-0.32478771181091,-0.119162680432318,ST
5.36666666666667,-3.34960055351257,1.08024621009827,9.58105373382568,0.335367977619171,-1.39482593536377,2.21800184249878,-1077.90002441406,-5.70000028610229,-914.100036621094,2.24078138572293,-0.331489254096625,-0.114098998759553,ST
5.4,-2.99490189552307,1.05572235584259,9.46501445770264,0.198172003030777,-1.6844619512558,2.34757590293884,-1109.10009765625,-12.9000005722046,-914.100036621094,2.22412048303954,-0.301369277500307,-0.112595753473465,ST
5.43333333333333,-2.69283962249756,1.1436493396759,9.49851036071777,0.25152599811554,-2.43903994560242,1.99696397781372,-1099.5,-11.7000007629395,-909.300048828125,2.20662311836642,-0.269754207431698,-0.121073618808229,ST
5.46666666666667,-2.46195650100708,1.19927668571472,9.10074520111084,0.487807989120483,-3.27745985984802,1.97409796714783,-1109.10009765625,-11.7000007629395,-906.900024414062,2.19121633576625,-0.255933564434851,-0.132555012643772,ST
5.5,-2.49724698066711,1.47083353996277,8.95061111450195,0.541162014007568,-3.14788603782654,2.0731840133667,-1118.70007324219,-6.90000009536743,-916.500061035156,2.171288191546,-0.26262768188413,-0.164457896838789,ST
5.53333333333333,-2.12759447097778,1.50672209262848,8.94642448425293,0.388722002506256,-2.86587190628052,2.18751406669617,-1101.90002441406,-6.30000019073486,-906.900024414062,2.15622979138573,-0.224838650214809,-0.168195134669867,ST
5.56666666666667,-1.83450448513031,1.44272089004517,8.81722545623779,-0.320124000310898,-2.78965187072754,1.44817996025085,-1125.90002441406,-4.5,-887.700012207031,2.14818292744018,-0.197344020920094,-0.161981000326934,ST
5.6,-1.7405960559845,1.54679775238037,9.31966590881348,-0.243903994560242,-1.99696397781372,1.20427596569061,-1125.90002441406,-9.30000019073486,-897.300048828125,2.1400374603122,-0.178466480291543,-0.164312203175017,ST
5.63333333333333,-1.56294763088226,1.30335354804993,9.34718036651611,-0.3125019967556,-1.31860601902008,0.6250039935112,-1123.5,-6.90000009536743,-894.900024414062,2.14035097877912,-0.161730179647769,-0.138188303003686,ST
5.66666666666667,-1.84347665309906,1.52406823635101,9.64326095581055,-0.594515979290009,-0.853663980960846,-0.0076219998300075,-1123.5,-8.70000076293945,-890.100036621094,2.13760960685044,-0.185133707256884,-0.155647590341911,ST
5.7,-1.85962653160095,1.51389980316162,9.30471229553223,-0.175305992364883,-0.121951997280121,0.403965979814529,-1140.30004882812,-9.90000057220459,-897.300048828125,2.13275396245026,-0.194429341616356,-0.161106667746926,ST
5.73333333333333,-1.71786665916443,1.31950342655182,9.281982421875,-0.221037998795509,0.503051996231079,0.274392008781433,-1116.30004882812,-15.9000005722046,-914.100036621094,2.13305221906193,-0.182044188345049,-0.140967089491949,ST
5.76666666666667,-1.64608943462372,1.22559499740601,9.33521747589111,-0.701223969459534,0.640248000621796,-0.457319974899292,-1118.70007324219,-8.10000038146973,-899.700012207031,2.13721411309362,-0.174311848405214,-0.129231904379449,ST
5.8,-1.74298858642578,1.34641981124878,9.1868782043457,-0.6250039935112,0.442075997591019,-0.632625997066498,-1118.70007324219,-9.30000019073486,-894.900024414062,2.13833008624306,-0.186453265921288,-0.144210246193029,ST
5.83333333333333,-1.43195426464081,0.999496877193451,8.91352653503418,-0.792688012123108,0.78506600856781,-0.541162014007568,-1111.5,-4.5,-899.700012207031,2.14685724137705,-0.159845142908405,-0.110239193619285,ST
5.86666666666667,-1.58866775035858,0.991122901439667,8.76997184753418,-1.36433792114258,1.08994603157043,-1.01372599601746,-1121.10009765625,-3.30000019073486,-906.900024414062,2.15240714420213,-0.18013094841016,-0.109874497921012,ST
5.9,-1.6664263010025,0.866111040115356,9.62770938873291,-1.34909391403198,1.2347639799118,-0.6250039935112,-1111.5,-8.70000076293945,-899.700012207031,2.15868832515561,-0.172972807422677,-0.0872637080052549,ST
5.93333333333333,-1.48698341846466,0.772202551364899,9.21140193939209,-1.29574000835419,0.259148001670837,-0.815553963184357,-1111.5,-10.5,-897.300048828125,2.16463333523041,-0.16009644749704,-0.081165994375888,ST
5.96666666666667,-2.24483060836792,0.82962429523468,9.72161769866943,-0.907018005847931,0.78506600856781,-0.571649968624115,-1106.70007324219,-2.10000014305115,-892.500061035156,2.16688896406713,-0.22745565063826,-0.0833418571041691,ST
6.0,-2.04983592033386,0.681284844875336,10.1480932235718,-0.342989981174469,0.861285984516144,-0.381099998950958,-1109.10009765625,-1.5,-909.300048828125,2.17266352700585,-0.200471837700408,-0.0663537766394516,ST
6.03333333333333,-1.82014906406403,0.765024840831757,9.86337757110596,-0.198172003030777,-0.228659987449646,-0.762199997901917,-1116.30004882812,-3.30000019073486,-914.100036621094,2.17696502124456,-0.181699057954564,-0.076785944259229,ST
6.06666666666667,-2.07256531715393,0.814072608947754,9.17072772979736,-0.37347799539566,-0.342989981174469,-0.967993974685669,-1116.30004882812,-3.90000009536743,-914.100036621094,2.18276959474567,-0.220895640439933,-0.0874744465065753,ST
6.1,-1.93200182914734,0.790146887302399,9.16773700714111,-0.609759986400604,0.182927995920181,-0.891773998737335,-1111.5,3.90000009536743,-906.900024414062,2.18984895978141,-0.207431062290161,-0.0845959173638284,ST
6.13333333333333,-1.61199533939362,0.471336662769318,8.96436882019043,-1.05945801734924,-0.129574000835419,-1.11281192302704,-1118.70007324219,-4.5,-911.700012207031,2.20421781360277,-0.177627778659918,-0.0504143144114567,ST
6.16666666666667,-2.107257604599,0.442625790834427,9.06964206695557,-1.27287399768829,-0.205793991684914,-1.09756803512573,-1111.5,-7.50000047683716,-899.700012207031,2.21204164633673,-0.22763618252547,-0.046107287870655,ST
6.2,-2.20834374427795,0.190807610750198,9.39024639129639,-0.960371971130371,0.472563982009888,-0.388722002506256,-1111.5,-1.5,-906.900024414062,2.21958866981189,-0.231758800657879,-0.0185527756649431,ST
6.23333333333333,-2.13178157806396,0.0759641602635384,9.305908203125,-1.05183601379395,0.403965979814529,-0.670735955238342,-1101.90002441406,-0.300000011920929,-902.100036621094,2.22609632526324,-0.225909856365272,-0.006083755435545,ST
6.26666666666667,-2.26038217544556,0.115441590547562,10.003342628479,-0.746955990791321,-0.0685980021953583,-0.868907988071442,-1106.70007324219,-8.10000038146973,-897.300048828125,2.23115144293891,-0.22212107085343,-0.0098838602454252,ST
6.3,-1.80698990821838,-0.0657957270741463,9.6941032409668,-0.434453994035721,-0.907018005847931,-0.868907988071442,-1106.70007324219,1.5,-894.900024414062,2.2413296163987,-0.182784669542557,0.0077812133563096,ST
6.33333333333333,-1.83330821990967,0.120824880897999,8.64615631103516,-0.190549999475479,-1.44817996025085,-1.31860601902008,-1121.10009765625,1.5,-914.100036621094,2.24922349900086,-0.206396116637305,-0.0131260575418714,ST
6.36666666666667,-1.90508532524109,0.0,8.656325340271,0.25152599811554,-0.274392008781433,-0.853663980960846,-1106.70007324219,-2.10000014305115,-902.100036621094,2.2598535720349,-0.2161291370017,-0.0001376963693914,ST
6.4,-2.50143384933472,0.0645994395017624,9.97642707824707,0.259148001670837,0.297257989645004,-0.792688012123108,-1106.70007324219,-2.10000014305115,-914.100036621094,2.26598564545245,-0.24614559408457,-0.0065709991123928,ST
6.43333333333333,-2.71257829666138,0.0101684303954244,10.6152429580688,0.182927995920181,0.0,-0.739333987236023,-1099.5,-2.70000004768372,-911.700012207031,2.27394274740689,-0.25017360811752,-0.0009613854016505,ST
6.46666666666667,-2.39915156364441,0.001794428913854,10.3197603225708,0.167683988809586,-0.891773998737335,-0.67835795879364,-1101.90002441406,0.900000035762787,-916.500061035156,2.28071161443734,-0.226896403673798,-0.0001938256259258,ST
6.5,-2.16288495063782,-0.147143170237541,10.0613632202148,0.221037998795509,-1.40244793891907,-0.449698001146317,-1109.10009765625,-6.90000009536743,-914.100036621094,2.28817197395118,-0.209293864707619,0.0143742883287177,ST
6.53333333333333,-2.01155471801758,-0.215331465005875,9.79997444152832,0.304879993200302,-1.06708002090454,-0.144817993044853,-1097.10009765625,-5.70000028610229,-914.100036621094,2.29128344428552,-0.200548076480851,0.0214690058797674,ST
6.56666666666667,-1.87398195266724,-0.278734624385834,8.91233062744141,0.548784017562866,-0.701223969459534,0.137196004390717,-1118.70007324219,-3.30000019073486,-909.300048828125,2.29266604544218,-0.205926510577702,0.0302354479098394,ST
6.6,-2.13656663894653,-0.30325847864151,8.48406028747559,0.769822001457214,0.327746003866196,0.457319974899292,-1111.5,1.5,-918.900024414062,2.29119055276321,-0.247100173934575,0.0341848088181466,ST
6.63333333333333,-2.07017278671265,-0.260790348052979,9.00623893737793,0.564027965068817,1.08232402801514,0.777444005012512,-1116.30004882812,-2.70000004768372,-902.100036621094,2.28434998365997,-0.227807845133901,0.027674845480919,ST
6.66666666666667,-2.18561434745789,-0.151330173015594,9.5032958984375,0.846041977405548,0.83841997385025,1.265251994133,-1116.30004882812,2.10000014305115,-892.500061035156,2.27183325624321,-0.227521455559327,0.013961613727581,ST
6.7,-2.07555603981018,-0.192602038383484,9.31846904754639,1.20427596569061,0.434453994035721,1.39482593536377,-1094.70007324219,-1.5,-911.700012207031,2.26332508864936,-0.219934203824236,0.018013281570622,ST
6.73333333333333,-1.81117689609528,-0.196789041161537,9.29155254364014,1.2347639799118,0.381099998950958,1.08232402801514,-1106.70007324219,-4.5,-911.700012207031,2.25645490567637,-0.193237740279523,0.0186521814015274,ST
6.76666666666667,-1.78725123405457,0.188415035605431,9.40938663482666,1.73781597614288,0.0,0.884151995182037,-1094.70007324219,-5.70000028610229,-902.100036621094,2.243837310025,-0.187650537378084,-0.0232444049491154,ST
6.8,-1.76153099536896,0.272155046463013,9.15756893157959,2.40092992782593,-0.106707997620106,1.15854394435883,-1097.10009765625,-3.30000019073486,-909.300048828125,2.23587718033541,-0.189696558139442,-0.0342606157431084,ST
6.83333333333333,-1.77169942855835,0.380418926477432,9.34598350524902,2.37806391716003,-0.0533539988100529,0.975615978240967,-1094.70007324219,-0.900000035762787,-899.700012207031,2.22941927960949,-0.187032263432668,-0.0451265674207449,ST
6.86666666666667,-1.77050316333771,0.554478526115417,9.36452674865723,1.98934197425842,-0.358233988285065,0.647870004177094,-1106.70007324219,-6.30000019073486,-902.100036621094,2.22401653674886,-0.185849463376565,-0.0627753089500865,ST
6.9,-2.13178157806396,0.727940022945404,10.1887674331665,1.63872992992401,-0.350611984729767,0.663114011287689,-1094.70007324219,-9.90000057220459,-906.900024414062,2.21920559172981,-0.205001109817412,-0.0743863735091881,ST
6.93333333333333,-1.96430146694183,0.754258275032043,9.74075794219971,1.21951997280121,-0.670735955238342,0.777444005012512,-1104.30004882812,-11.1000003814697,-897.300048828125,2.2141165811081,-0.197155894340184,-0.0796467995676707,ST
6.96666666666667,-1.88594484329224,0.808091163635254,9.2227668762207,0.800309956073761,-0.746955990791321,0.792688012123108,-1109.10009765625,-8.10000038146973,-904.500061035156,2.20749832485956,-0.199530948860106,-0.0890252945516902,ST
7.0,-1.80639171600342,0.713584542274475,9.00324821472168,0.663114011287689,-0.274392008781433,0.693601965904236,-1111.5,-5.70000028610229,-906.900024414062,2.20463396121185,-0.19683771339305,-0.08050471490305,ST
7.03333333333333,-1.94516098499298,0.595152258872986,8.93027496337891,0.541162014007568,0.144817993044853,0.556405961513519,-1104.30004882812,-5.70000028610229,-892.500061035156,2.20344225356452,-0.214150100785817,-0.0677362669877955,ST
7.06666666666667,-2.01634001731873,0.681284844875336,9.2879638671875,0.449698001146317,-0.0381099991500378,0.129574000835419,-1106.70007324219,-8.70000076293945,-906.900024414062,2.20186106704768,-0.213138554151961,-0.0740373277146441,ST
7.1,-2.02650833129883,0.780576586723328,9.33940410614014,0.83841997385025,-0.228659987449646,0.228659987449646,-1101.90002441406,-11.1000003814697,-904.500061035156,2.19933033117137,-0.212522626775432,-0.0849002136873222,ST
7.13333333333333,-2.37642192840576,0.946860313415527,9.22456073760986,1.04421401023865,0.0381099991500378,0.243903994560242,-1109.10009765625,-1.5,-916.500061035156,2.19501090518756,-0.250801292773274,-0.104172160525085,ST
7.16666666666667,-2.80708503723145,1.04495573043823,9.98121166229248,1.27287399768829,0.815553963184357,0.586893975734711,-1104.30004882812,-12.9000005722046,-887.700012207031,2.19142361542872,-0.274016226474372,-0.106858453803921,ST
7.2,-2.78256106376648,0.880466461181641,10.3221530914307,0.861285984516144,0.396344006061554,0.693601965904236,-1099.5,-3.90000009536743,-897.300048828125,2.1925875240048,-0.263014579568505,-0.0869855601610488,ST
7.23333333333333,-2.5175838470459,1.08204066753387,9.497314453125,0.282013982534409,-0.594515979290009,0.78506600856781,-1097.10009765625,-7.50000047683716,-911.700012207031,2.18023931200804,-0.256361482760106,-0.114193502005443,ST
7.26666666666667,-2.19817543029785,1.00607645511627,9.42254638671875,0.160062000155449,-0.960371971130371,1.12043392658234,-1104.30004882812,-3.90000009536743,-890.100036621094,2.17352053657557,-0.226122709635041,-0.107070601097741,ST
7.3,-1.92602038383484,0.732127010822296,8.65453052520752,-0.0533539988100529,-1.63110792636871,0.685979962348938,-1099.5,-9.90000057220459,-902.100036621094,2.17380825816471,-0.215310194519462,-0.0845645477475438,ST
7.33333333333333,-1.8967113494873,0.86491471529007,9.00564098358154,-0.0762199983000755,-0.87652999162674,0.739333987236023,-1106.70007324219,-4.5,-892.500061035156,2.16579205453848,-0.205035288083268,-0.0958239158420727,ST
7.36666666666667,-1.95413303375244,0.846970438957214,9.35854530334473,0.282013982534409,-0.716467976570129,1.04421401023865,-1104.30004882812,-5.10000038146973,-894.900024414062,2.1582971244903,-0.203625726383388,-0.0911060273046208,ST
7.4,-1.76272737979889,0.959421336650848,9.55413722991943,0.297257989645004,-0.952749967575073,1.01372599601746,-1113.90002441406,-4.5,-914.100036621094,2.14913927876409,-0.179780614134498,-0.10086909409476,ST
7.43333333333333,-1.5964435338974,1.28361487388611,9.33701133728027,0.434453994035721,-1.17378795146942,1.05183601379395,-1104.30004882812,-10.5,-902.100036621094,2.13566749185488,-0.165542198436908,-0.137563378928551,ST
7.46666666666667,-1.46844100952148,1.22021162509918,8.95121002197266,0.411587983369827,-1.05183601379395,1.08994603157043,-1106.70007324219,-9.90000057220459,-909.300048828125,2.12820015371003,-0.159072077448546,-0.136466186190745,ST
7.5,-1.62096750736237,1.10596632957458,9.28497314453125,-0.213415995240211,-0.533540010452271,0.571649968624115,-1109.10009765625,-9.90000057220459,-911.700012207031,2.1263026350417,-0.170587703087122,-0.118362451447103,ST
7.53333333333333,-1.44571161270142,1.00488018989563,9.20661640167236,-0.6250039935112,0.0,0.0990860015153885,-1116.30004882812,-5.10000038146973,-897.300048828125,2.12619354741231,-0.154853772701554,-0.107666522948775,ST
7.56666666666667,-1.51569426059723,0.73451954126358,9.54755783081055,-0.807931959629059,0.175305992364883,-0.304879993200302,-1113.90002441406,-11.7000007629395,-904.500061035156,2.13259442760712,-0.157321544679817,-0.0753706807251642,ST
7.6,-1.65027642250061,0.800315320491791,9.67436408996582,-0.762199997901917,-0.175305992364883,-0.495429992675781,-1109.10009765625,-5.10000038146973,-914.100036621094,2.13510931877481,-0.168140069072932,-0.0810477465270282,ST
7.63333333333333,-1.55457353591919,0.632237136363983,9.8017692565918,-0.769822001457214,-0.175305992364883,-0.381099998950958,-1113.90002441406,-10.5,-897.300048828125,2.14031715157675,-0.156735349092296,-0.0630058789519149,ST
7.66666666666667,-1.36376595497131,0.455784946680069,8.88242340087891,-1.14329993724823,-0.403965979814529,-0.693601965904236,-1109.10009765625,-8.70000076293945,-897.300048828125,2.14760140282389,-0.151509374822978,-0.0490961899122721,ST
7.7,-1.8889354467392,0.46236452460289,9.6163444519043,-1.10518991947174,0.282013982534409,-0.335367977619171,-1106.70007324219,-6.90000009536743,-914.100036621094,2.14918468025245,-0.194208006549744,-0.0460087911925682,ST
7.73333333333333,-1.20824885368347,0.0173461455851793,9.06844520568848,-1.40244793891907,-0.0685980021953583,-0.259148001670837,-1121.10009765625,-6.30000019073486,-906.900024414062,2.15728557765141,-0.132413588429437,0.000538042904224,ST
7.76666666666667,-1.58448076248169,-0.0352904349565506,9.03315544128418,-1.41769194602966,-0.0990860015153885,-0.304879993200302,-1111.5,-2.10000014305115,-914.100036621094,2.15876767648789,-0.173362590283575,0.0064593805637614,ST
7.8,-1.80519545078278,-0.0251220054924488,8.99188327789307,-1.04421401023865,0.381099998950958,-0.259148001670837,-1109.10009765625,-7.50000047683716,-914.100036621094,2.15892182889065,-0.198724634187044,0.0047121137669105,ST
7.83333333333333,-2.44401216506958,0.0669920146465302,10.1528787612915,-0.388722002506256,0.78506600856781,0.426831990480423,-1097.10009765625,-2.70000004768372,-911.700012207031,2.15207050089288,-0.237511228884846,-0.0060804353823131,ST
7.86666666666667,-2.19159579277039,0.0,10.3155736923218,-0.548784017562866,0.221037998795509,0.564027965068817,-1116.30004882812,-5.10000038146973,-892.500061035156,2.14745972495843,-0.209772229458551,0.0007372753392622,ST
7.9,-1.7166702747345,-0.0789548754692078,9.84603118896484,-0.762199997901917,-0.327746003866196,0.525918006896973,-1109.10009765625,-3.90000009536743,-916.500061035156,2.14339245491701,-0.172140100657244,0.0091673631185508,ST
7.93333333333333,-1.73162388801575,-0.142956167459488,9.1450080871582,-0.846041977405548,-0.449698001146317,0.434453994035721,-1116.30004882812,-5.70000028610229,-918.900024414062,2.13954196080236,-0.186314208878099,0.016947123948257,ST
7.96666666666667,-2.18023109436035,-0.15312460064888,9.51166915893555,-0.518296003341675,0.396344006061554,0.609759986400604,-1109.10009765625,-4.5,-914.100036621094,2.13344852361351,-0.225907729410705,0.0167610128243779,ST
8.0,-1.93319809436798,-0.309838056564331,9.50927734375,-0.282013982534409,0.853663980960846,0.716467976570129,-1106.70007324219,-0.300000011920929,-909.300048828125,2.13050771754239,-0.202047922092966,0.0327775691260644,ST
8.03333333333333,-2.2191104888916,-0.0843381583690643,9.61993312835693,0.0457319989800453,0.716467976570129,0.442075997591019,-1104.30004882812,0.300000011920929,-892.500061035156,2.1217858634759,-0.227897873878227,0.0085709306894968,ST
8.06666666666667,-2.02710652351379,-0.0346922911703587,9.48355674743652,0.381099998950958,0.510673999786377,0.746955990791321,-1109.10009765625,-3.90000009536743,-914.100036621094,2.11492573857886,-0.211514757376364,0.0027278298018445,ST
8.1,-1.98224580287933,-0.2613884806633,9.61514854431152,0.525918006896973,-0.0076219998300075,0.670735955238342,-1089.90002441406,-2.10000014305115,-918.900024414062,2.11453403759622,-0.203264568124061,0.0259903697074099,ST
8.13333333333333,-1.97805881500244,-0.345128506422043,8.72870063781738,0.449698001146317,-0.304879993200302,0.152439996600151,-1109.10009765625,3.30000019073486,-914.100036621094,2.11666815426147,-0.222115417255357,0.0386379213177642,ST
8.16666666666667,-2.35130000114441,-0.225499898195267,9.53679180145264,0.602137982845306,0.602137982845306,0.243903994560242,-1106.70007324219,-10.5,-904.500061035156,2.11227064266538,-0.242674216460292,0.0225306908430928,ST
8.2,-2.3997495174408,-0.275743901729584,9.76528167724609,0.640248000621796,0.518296003341675,0.685979962348938,-1099.5,-5.70000028610229,-914.100036621094,2.10846305628744,-0.24181314654557,0.026819152951766,ST
8.23333333333333,-2.13895916938782,-0.293090045452118,9.533203125,0.617381989955902,0.282013982534409,0.769822001457214,-1109.10009765625,-6.30000019073486,-909.300048828125,2.10382431248426,-0.221195685644538,0.0293517816079029,ST
8.26666666666667,-2.32139277458191,-0.0598142966628075,9.4967155456543,0.907018005847931,0.236281991004944,0.922261953353882,-1094.70007324219,-6.90000009536743,-909.300048828125,2.0922215870329,-0.240109736284666,0.0043840210283825,ST
8.3,-2.19339036941528,-0.0185424312949181,9.22515869140625,1.21189796924591,0.647870004177094,1.2500079870224,-1094.70007324219,-8.70000076293945,-930.900024414062,2.08299163259343,-0.234571083098392,-0.0006138051012992,ST
8.33333333333333,-1.98523652553558,0.0711790099740028,9.22336483001709,1.2347639799118,0.884151995182037,1.37195992469788,-1106.70007324219,-11.1000003814697,-906.900024414062,2.07120586412553,-0.213559810622099,-0.0103754149434758,ST
8.36666666666667,-1.96609592437744,0.353502482175827,9.51406192779541,1.28049600124359,0.426831990480423,1.53202199935913,-1101.90002441406,-5.70000028610229,-914.100036621094,2.05428070982382,-0.204308876457408,-0.0398607484518378,ST
8.4,-1.99719941616058,0.404344648122787,8.88900279998779,1.47866797447205,0.0152439996600151,1.54726600646973,-1104.30004882812,-3.90000009536743,-914.100036621094,2.04120863856895,-0.220667081293523,-0.0486318115910201,ST
8.43333333333333,-1.88415038585663,0.43724250793457,8.94881725311279,1.07470202445984,0.685979962348938,1.15092194080353,-1089.90002441406,-4.5,-921.300048828125,2.03212474008038,-0.208388971888489,-0.0511301556263144,ST
8.46666666666667,-2.07675242424011,0.552085936069489,9.24968338012695,0.907018005847931,0.228659987449646,0.983237981796265,-1089.90002441406,-10.5,-902.100036621094,2.02279950222155,-0.220753112968684,-0.0615725246682509,ST
8.5,-2.61807179450989,0.719565987586975,9.56430625915527,0.716467976570129,0.129574000835419,0.754577994346619,-1094.70007324219,-2.70000004768372,-921.300048828125,2.01378786121519,-0.266550853942968,-0.0766914882159011,ST
8.53333333333333,-2.10845398902893,0.742295444011688,9.7240104675293,0.381099998950958,-0.640248000621796,0.632625997066498,-1089.90002441406,-3.30000019073486,-921.300048828125,2.00914384360191,-0.211792230825276,-0.0770721763990206,ST
8.56666666666667,-2.23226952552795,0.83560574054718,9.44527530670166,0.663114011287689,-0.952749967575073,0.533540010452271,-1092.30004882812,-3.90000009536743,-909.300048828125,2.00369281949095,-0.229446650836553,-0.0895625574657497,ST
8.6,-2.1892032623291,0.864316582679749,8.79688835144043,0.815553963184357,0.37347799539566,0.205793991684914,-1101.90002441406,-5.70000028610229,-923.700012207031,2.00103445514703,-0.24336205958408,-0.0994417243503979,ST
8.63333333333333,-2.59534239768982,1.01385235786438,9.35196495056152,0.655492007732391,1.12805593013763,-0.190549999475479,-1092.30004882812,-7.50000047683716,-909.300048828125,2.00064401212351,-0.271129330162248,-0.109076281263697,ST
8.66666666666667,-2.90099334716797,1.22439861297607,10.0027446746826,0.807931959629059,0.472563982009888,0.0152439996600151,-1080.30004882812,-4.5,-918.900024414062,1.99815462576579,-0.281088505572962,-0.123219145466673,ST
8.7,-2.503826379776,1.23875403404236,9.16773700714111,0.853663980960846,-0.419209986925125,0.449698001146317,-1075.5,-5.10000038146973,-909.300048828125,1.99330281692963,-0.26351146884391,-0.135965256176108,ST
8.73333333333333,-2.41470313072205,1.07725548744202,9.1151008605957,0.579271972179413,-0.556405961513519,0.495429992675781,-1092.30004882812,-8.70000076293945,-909.300048828125,1.99542562370111,-0.25620362805874,-0.118886137424256,ST
8.76666666666667,-2.49664878845215,1.04974091053009,9.45484638214111,0.434453994035721,-0.503051996231079,-0.0533539988100529,-1092.30004882812,-3.30000019073486,-911.700012207031,1.99921246721426,-0.25579820056377,-0.11130132669183,ST
8.8,-2.22748446464539,0.952841758728027,9.47039794921875,0.480185985565186,-0.518296003341675,-0.0076219998300075,-1094.70007324219,-12.9000005722046,-916.500061035156,2.00326875493235,-0.229020962858623,-0.101101580316234,ST
8.83333333333333,-2.23645663261414,0.906784772872925,9.23592567443848,0.282013982534409,-0.693601965904236,-0.335367977619171,-1092.30004882812,-3.30000019073486,-911.700012207031,2.00824041892096,-0.235324607471687,-0.0981943441282151,ST
8.86666666666667,-2.20176434516907,0.963010191917419,9.52303409576416,0.228659987449646,-0.472563982009888,-0.259148001670837,-1094.70007324219,-5.70000028610229,-909.300048828125,2.01078465420944,-0.225338417619243,-0.101054078255191,ST
8.9,-2.31541132926941,1.05033910274506,9.28856182098389,0.46494197845459,-0.693601965904236,-0.0228659994900227,-1101.90002441406,-9.30000019073486,-914.100036621094,2.00983340137566,-0.24158624372047,-0.113349399645862,ST
8.93333333333333,-2.13895916938782,0.742893576622009,8.93326568603516,-0.0076219998300075,-0.190549999475479,-0.175305992364883,-1104.30004882812,-3.90000009536743,-899.700012207031,2.01873947525247,-0.233937559265427,-0.0829145632277483,ST
8.96666666666667,-2.47750806808472,0.925327181816101,9.353759765625,-0.320124000310898,0.289635986089706,-0.358233988285065,-1097.10009765625,-3.90000009536743,-921.300048828125,2.01733972354504,-0.258253462971633,-0.097876358701278,ST
9.0,-1.97985327243805,0.789548695087433,8.89259147644043,0.0381099991500378,0.221037998795509,0.0914639979600906,-1094.70007324219,-11.7000007629395,-914.100036621094,2.01857529617469,-0.218655577478144,-0.0886758567039623,ST
9.03333333333333,-1.83928966522217,0.632835268974304,8.50439643859863,-0.327746003866196,0.358233988285065,-0.190549999475479,-1085.10009765625,-6.30000019073486,-894.900024414062,2.02260820060341,-0.213081763843762,-0.07366553202597,ST
9.06666666666667,-2.63003468513489,0.645994424819946,9.64146614074707,-0.617381989955902,0.655492007732391,-0.525918006896973,-1094.70007324219,-9.30000019073486,-902.100036621094,2.02719071108881,-0.266805844699749,-0.0656154465095336,ST
9.1,-2.78734636306763,0.570030272006989,10.2754983901978,-0.533540010452271,0.899396002292633,-0.175305992364883,-1080.30004882812,-1.5,-914.100036621094,2.02994730839273,-0.266084882794297,-0.0544491097325945,ST
9.13333333333333,-2.52894854545593,0.419896364212036,9.90106105804443,-0.6250039935112,0.274392008781433,0.0533539988100529,-1082.70007324219,-5.10000038146973,-916.500061035156,2.0313907127468,-0.25037330764116,-0.0413542467904653,ST
9.16666666666667,-2.05462121963501,0.327184200286865,9.34718036651611,-0.724089980125427,-0.297257989645004,-0.182927995920181,-1092.30004882812,-7.50000047683716,-904.500061035156,2.03341337055655,-0.215820181971011,-0.0336703636944503,ST
9.2,-2.00497531890869,0.340941488742828,8.91053581237793,-0.388722002506256,-0.602137982845306,-0.403965979814529,-1070.70007324219,-9.30000019073486,-909.300048828125,2.03555489412657,-0.22013673817361,-0.0373916849662253,ST
9.23333333333333,-2.34531855583191,0.250023752450943,8.79270172119141,-0.0838419944047928,0.243903994560242,-0.571649968624115,-1075.5,-6.30000019073486,-914.100036621094,2.04245959368206,-0.260938522444653,-0.0280374624855577,ST
9.26666666666667,-2.4715268611908,0.266173630952835,9.34957313537598,-0.0533539988100529,0.617381989955902,-0.586893975734711,-1087.5,-2.10000014305115,-918.900024414062,2.04707726173121,-0.2594445195279,-0.0281044293352564,ST
9.3,-2.42247915267944,0.241649761795998,9.38127422332764,-0.152439996600151,-0.160062000155449,-0.579271972179413,-1087.5,-5.70000028610229,-897.300048828125,2.052350625006,-0.252388133654513,-0.0252314565125952,ST
9.33333333333333,-2.58278131484985,0.147143170237541,8.96078014373779,-0.221037998795509,-0.205793991684914,-0.243903994560242,-1085.10009765625,-9.30000019073486,-909.300048828125,2.05633904066917,-0.280168876542398,-0.0159326752545931,ST
9.36666666666667,-2.43623638153076,-0.0083740018308162,9.20960712432861,-0.731711983680725,0.0304879993200302,-0.0304879993200302,-1082.70007324219,2.70000004768372,-909.300048828125,2.05976500099349,-0.258714598466097,0.0021559701512483,ST
9.4,-2.73112082481384,-0.0885251611471176,9.68991661071777,-0.495429992675781,0.129574000835419,0.335367977619171,-1075.5,-7.50000047683716,-918.900024414062,2.05785429507833,-0.274906122993797,0.0098169506011301,ST
9.43333333333333,-2.75085949897766,-0.397765070199966,9.85859203338623,-0.205793991684914,0.37347799539566,0.327746003866196,-1082.70007324219,-3.90000009536743,-916.500061035156,2.06267875760754,-0.272576847428852,0.0405019115257805,ST
9.46666666666667,-2.5857720375061,-0.284716039896011,9.8197135925293,-0.236281991004944,-0.289635986089706,-0.0609759986400604,-1085.10009765625,-8.70000076293945,-918.900024414062,2.05968375220404,-0.25688723100248,0.0294363369494669,ST
9.5,-2.22748446464539,-0.360680222511292,9.0253791809082,0.403965979814529,-0.724089980125427,0.289635986089706,-1075.5,-0.900000035762787,-904.500061035156,2.06019308227912,-0.240570381497954,0.0390813179548225,ST
9.53333333333333,-2.45537686347961,-0.317015767097473,8.74365425109863,0.525918006896973,-0.548784017562866,0.457319974899292,-1080.30004882812,-3.90000009536743,-916.500061035156,2.05640444783107,-0.272588289864478,0.0351003516242245,ST
9.56666666666667,-2.76282238960266,-0.103478737175465,9.08938026428223,0.0381099991500378,-0.525918006896973,0.617381989955902,-1085.10009765625,-1.5,-906.900024414062,2.04459176289594,-0.294110824183884,0.0110480936217684,ST
9.6,-2.81187009811401,-0.109460160136223,9.82330226898193,0.190549999475479,-0.0304879993200302,1.36433792114258,-1082.70007324219,-6.30000019073486,-918.900024414062,2.03346499867437,-0.278782488012628,0.010129934101525,ST
9.63333333333333,-2.08692073822021,-0.234472051262856,9.18986892700195,0.0304879993200302,-0.640248000621796,1.32622802257538,-1080.30004882812,-11.7000007629395,-902.100036621094,2.02524648320563,-0.222260413998295,0.0249019396349229,ST
9.66666666666667,-2.29208397865295,-0.0035888578277081,8.84055328369141,0.487807989120483,-0.182927995920181,1.00610399246216,-1075.5,-11.1000003814697,-904.500061035156,2.01177698421884,-0.253287161816324,-0.0008353340394703,ST
9.7,-2.45118999481201,-0.0113647161051631,8.96795749664307,0.92988395690918,1.09756803512573,0.967993974685669,-1085.10009765625,-2.10000014305115,-909.300048828125,2.00581215388836,-0.268687288187598,-0.0008199894046011,ST
9.73333333333333,-2.46016192436218,-0.0699827298521996,9.0552864074707,0.663114011287689,1.2500079870224,0.724089980125427,-1085.10009765625,-8.10000038146973,-909.300048828125,2.00307315996016,-0.26746381316059,0.0062153516408308,ST
9.76666666666667,-2.82263660430908,0.126208171248436,10.0482034683228,0.426831990480423,1.06708002090454,0.403965979814529,-1068.30004882812,-11.1000003814697,-904.500061035156,1.99534779773596,-0.275664327187511,-0.0134619082512548,ST
9.8,-2.43862891197205,0.134582161903381,9.41835880279541,0.823175966739655,-0.121951997280121,0.510673999786377,-1068.30004882812,-3.90000009536743,-906.900024414062,1.99226030662333,-0.25316294658981,-0.0159489376302769,ST
9.83333333333333,-2.57440733909607,0.132189601659775,9.32923603057861,1.16616594791412,-1.06708002090454,0.579271972179413,-1087.5,-8.10000038146973,-916.500061035156,1.99007522596256,-0.26731089352083,-0.0164720666361318,ST
9.86666666666667,-2.51997637748718,0.177648469805717,9.36632061004639,1.09756803512573,-1.57775402069092,0.67835795879364,-1087.5,-5.70000028610229,-911.700012207031,1.98590824119616,-0.260018334882605,-0.0211696116994705,ST
9.9,-2.66053986549377,0.295482635498047,9.73417854309082,0.975615978240967,-1.56251001358032,0.579271972179413,-1082.70007324219,-9.30000019073486,-899.700012207031,1.98078665301733,-0.263918666969583,-0.0322719093500879,ST
9.93333333333333,-2.30763554573059,0.579600512981415,9.51346397399902,1.34147191047668,-1.46342396736145,0.716467976570129,-1080.30004882812,-3.90000009536743,-914.100036621094,1.97057013036468,-0.234989453482311,-0.0633761212582565,ST
9.96666666666667,-2.08333206176758,0.782969176769257,8.61206245422363,1.65397393703461,-2.02745199203491,0.861285984516144,-1092.30004882812,-4.5,-906.900024414062,1.96111116727458,-0.232753286386797,-0.0937569715777467,ST
10.0,-2.35189819335938,0.900205194950104,8.16405296325684,1.75305998325348,-1.29574000835419,1.06708002090454,-1085.10009765625,-7.50000047683716,-887.700012207031,1.95221808279591,-0.27637208439327,-0.113310569933355,ST
10.0333333333333,-2.49186372756958,1.31770896911621,9.22097206115723,1.76068198680878,-0.160062000155449,1.37958192825317,-1097.10009765625,-8.70000076293945,-916.500061035156,1.93596516601207,-0.260800752317304,-0.145591021153329,ST
10.0666666666667,-2.89082503318787,1.59165847301483,9.70427131652832,2.31708788871765,0.167683988809586,1.84452390670776,-1092.30004882812,-3.90000009536743,-902.100036621094,1.92026058548261,-0.285604946150656,-0.167504544560173,ST
10.1,-2.67609167098999,1.5563679933548,9.99018383026123,2.13416004180908,0.983237981796265,1.81403601169586,-1092.30004882812,-13.5000009536743,-911.700012207031,1.91004262922763,-0.259972855395692,-0.159185244447666,ST
10.1333333333333,-2.10008001327515,1.60003244876862,9.92199516296387,1.46342396736145,0.0076219998300075,1.36433792114258,-1101.90002441406,-3.90000009536743,-909.300048828125,1.90052473371657,-0.20575685116176,-0.162922361777772,ST
10.1666666666667,-2.27294325828552,1.87816894054413,9.54636192321777,0.907018005847931,-1.31860601902008,0.92988395690918,-1087.5,-5.10000038146973,-902.100036621094,1.88907959214381,-0.22690720793344,-0.196076212700343,ST
10.2,-1.75315701961517,1.68676316738129,8.77116870880127,0.663114011287689,-1.34909391403198,0.983237981796265,-1094.70007324219,-14.7000007629395,-906.900024414062,1.88518966315006,-0.191266677859219,-0.191397866667583,ST
10.2333333333333,-1.81177508831024,1.45827257633209,8.1066312789917,-0.0838419944047928,-0.480185985565186,0.236281991004944,-1094.70007324219,-14.1000003814697,-914.100036621094,1.88640087347263,-0.215586456900038,-0.177909717858832,ST
10.2666666666667,-1.80041038990021,1.19748222827911,8.63060474395752,-0.525918006896973,0.442075997591019,-0.381099998950958,-1099.5,-8.70000076293945,-906.900024414062,1.89672000224425,-0.204637962407361,-0.13691599657621,ST
10.3,-2.55347228050232,1.22140789031982,9.56011867523193,-0.571649968624115,1.19665396213531,-1.05183601379395,-1077.90002441406,-8.70000076293945,-902.100036621094,1.90554664915767,-0.26115521197661,-0.125688041536606,ST
10.3333333333333,-2.43623638153076,1.05392789840698,9.67974758148193,-0.564027965068817,1.28049600124359,-1.14329993724823,-1087.5,-14.7000007629395,-914.100036621094,1.91734920182622,-0.247641164889936,-0.107073157908762,ST
10.3666666666667,-2.31720590591431,0.911569893360138,9.29035663604736,-0.861285984516144,0.518296003341675,-1.15854394435883,-1073.10009765625,-7.50000047683716,-914.100036621094,1.92796759507474,-0.244410306958214,-0.0958413418036048,ST
10.4,-1.98643279075623,0.656162858009338,9.12048435211182,-1.10518991947174,-0.121951997280121,-1.06708002090454,-1092.30004882812,-11.7000007629395,-911.700012207031,1.94133614829476,-0.213879745447042,-0.0695248793372267,ST
10.4333333333333,-2.06419134140015,0.683079302310944,8.27112102508545,-1.52439999580383,-0.685979962348938,-1.56251001358032,-1080.30004882812,-6.90000009536743,-914.100036621094,1.94962196630287,-0.242724450150332,-0.0790183341784156,ST
10.4666666666667,-2.83998274803162,0.650181412696838,9.67556095123291,-1.13567793369293,0.884151995182037,-0.685979962348938,-1073.10009765625,-8.10000038146973,-914.100036621094,1.95613471811081,-0.286469608919734,-0.0648081824789817,ST
10.5,-1.58208811283112,0.13398402929306,8.05160236358643,-1.6692179441452,0.228659987449646,-0.914639949798584,-1077.90002441406,-2.70000004768372,-911.700012207031,1.97299545386286,-0.194645353264105,-0.0135354435442735,ST
10.5333333333333,-3.02181839942932,0.507225215435028,9.50030517578125,-1.85214591026306,0.495429992675781,-1.16616594791412,-1089.90002441406,-7.50000047683716,-906.900024414062,1.96904973893678,-0.308230686467207,-0.0493848305367141,ST
10.5666666666667,-2.67609167098999,0.355895072221756,9.84842395782471,-1.18140995502472,0.25152599811554,-0.442075997591019,-1075.5,-8.70000076293945,-909.300048828125,1.97427051494774,-0.265727053976263,-0.0338918143628957,ST
10.6,-2.72095227241516,0.129198879003525,9.42075157165527,-1.28049600124359,-0.480185985565186,-0.6250039935112,-1073.10009765625,-6.90000009536743,-899.700012207031,1.98281548360372,-0.28030565066314,-0.0111895582804357,ST
10.6333333333333,-2.96379852294922,0.293688207864761,9.44527530670166,-0.800309956073761,-0.0152439996600151,-0.426831990480423,-1073.10009765625,-5.10000038146973,-897.300048828125,1.97914043993462,-0.303877195894368,-0.0294243947475525,ST
10.6666666666667,-3.07146406173706,0.203966751694679,9.78023529052734,-0.381099998950958,0.739333987236023,-0.0685980021953583,-1065.90002441406,-2.70000004768372,-902.100036621094,1.98135529172115,-0.305521011949275,-0.0201803763794851,ST
10.7,-1.81835460662842,-0.244042336940765,8.76518726348877,-0.937505960464478,-0.152439996600151,-0.442075997591019,-1070.70007324219,-1.5,-906.900024414062,1.9958022782207,-0.204435756412945,0.0295102683351622,ST
10.7333333333333,-2.71796154975891,0.180041030049324,8.88601207733154,-0.777444005012512,-0.983237981796265,-1.07470202445984,-1068.30004882812,-4.5,-899.700012207031,1.99116763852054,-0.294870567858228,-0.0182023016005761,ST
10.7666666666667,-3.26705694198608,-0.1722651720047,9.46142578125,-0.0609759986400604,0.907018005847931,0.129574000835419,-1068.30004882812,-4.5,-902.100036621094,2.00126650745256,-0.333923934066785,0.0181520712000843,ST
10.8,-2.70898962020874,-0.406139075756073,9.69769191741943,-1.00610399246216,0.632625997066498,-0.663114011287689,-1068.30004882812,0.300000011920929,-928.500061035156,2.01263574020902,-0.273285501113198,0.0439240463068153,ST
10.8333333333333,-3.07864189147949,-0.171068891882896,9.51705265045166,-0.144817993044853,0.236281991004944,-0.121951997280121,-1065.90002441406,-1.5,-911.700012207031,2.00591964590977,-0.313125748869653,0.0183609207783731,ST
10.8666666666667,-2.70360612869263,-0.556272983551025,9.24549579620361,-0.152439996600151,0.548784017562866,0.106707997620106,-1065.90002441406,-6.90000009536743,-897.300048828125,2.01723063803858,-0.285042872007702,0.0602204040609573,ST
10.9,-2.33694458007812,-0.334960073232651,9.18388748168945,-0.335367977619171,-0.792688012123108,-0.304879993200302,-1070.70007324219,-6.30000019073486,-916.500061035156,2.01276025501612,-0.247685682377021,0.0372083595454055,ST
10.9333333333333,-2.28430795669556,-0.254808902740479,8.50977993011475,0.259148001670837,-1.6615959405899,0.0838419944047928,-1068.30004882812,-1.5,-909.300048828125,2.01023327906109,-0.259221676628339,0.0294353729424998,ST
10.9666666666667,-2.52715396881104,-0.403746515512466,8.64615631103516,0.815553963184357,-0.769822001457214,0.518296003341675,-1077.90002441406,-3.30000019073486,-916.500061035156,2.01174337792234,-0.282712822201631,0.0449202946126645,ST
11.0,-2.60551071166992,-0.43724250793457,9.33043193817139,0.640248000621796,-0.25152599811554,0.388722002506256,-1080.30004882812,-3.30000019073486,-894.900024414062,2.00985402129009,-0.271631248975368,0.0455151948190502,ST
11.0333333333333,-2.85254383087158,-0.204564899206161,9.91721057891846,0.472563982009888,-0.266770005226135,0.419209986925125,-1065.90002441406,-3.90000009536743,-916.500061035156,2.00017133064276,-0.279558046337542,0.0196189927473852,ST
11.0666666666667,-2.19578289985657,-0.129797026515007,8.79329967498779,1.05183601379395,-1.28049600124359,1.05945801734924,-1089.90002441406,3.30000019073486,-916.500061035156,1.99093555789714,-0.242515828591812,0.0124667935104421,ST
11.1,-2.34172964096069,-0.1214230209589,8.55703353881836,1.08994603157043,-1.32622802257538,1.08994603157043,-1089.90002441406,-6.30000019073486,-916.500061035156,1.98374689848846,-0.264760457534214,0.0117637143050898,ST
11.1333333333333,-2.48707842826843,0.163891181349754,9.07502555847168,1.37958192825317,-0.480185985565186,1.22714197635651,-1075.5,-0.900000035762787,-911.700012207031,1.96790038301186,-0.266563712541888,-0.0209816131324497,ST
11.1666666666667,-2.36744999885559,-0.0783567279577255,9.36811542510986,1.20427596569061,-0.297257989645004,1.2423859834671,-1065.90002441406,-5.70000028610229,-909.300048828125,1.96685032402866,-0.247064664647443,0.0056484162747207,ST
11.2,-2.34830927848816,-0.0299071483314037,9.68572902679443,0.724089980125427,-0.228659987449646,0.769822001457214,-1077.90002441406,1.5,-909.300048828125,1.96072268632166,-0.237481689901587,0.0015064696273232,ST
11.2333333333333,-2.39436626434326,0.161498606204987,9.64984035491943,0.777444005012512,-0.937505960464478,0.670735955238342,-1068.30004882812,-6.90000009536743,-916.500061035156,1.95210479673784,-0.241513679932107,-0.0183237976902178,ST
11.2666666666667,-1.95712375640869,0.03828115016222,8.32914066314697,0.92988395690918,-1.31860601902008,0.602137982845306,-1075.5,0.900000035762787,-914.100036621094,1.9513541481728,-0.228489014661998,-0.0064725162202746,ST
11.3,-2.551677942276,0.298473328351974,9.18986892700195,1.10518991947174,-0.137196004390717,0.175305992364883,-1087.5,0.300000011920929,-909.300048828125,1.94550063746175,-0.270351009225142,-0.0344091099292681,ST
11.3333333333333,-2.77299070358276,0.461766362190247,9.21259784698486,1.47104597091675,0.358233988285065,0.342989981174469,-1077.90002441406,-6.30000019073486,-906.900024414062,1.94105847547879,-0.292586810042028,-0.0528095209316113,ST
11.3666666666667,-3.36754488945007,0.731528878211975,10.3394994735718,1.82927989959717,1.09756803512573,0.731711983680725,-1063.5,-8.10000038146973,-911.700012207031,1.93273378310258,-0.315909080109329,-0.0742526365544124,ST
11.4,-3.28799200057983,0.818857729434967,10.7845182418823,1.85976791381836,0.914639949798584,1.13567793369293,-1080.30004882812,-2.10000014305115,-909.300048828125,1.92528395037185,-0.296582236313034,-0.0796653058883596,ST
11.4333333333333,-2.4816951751709,0.808689296245575,9.79160022735596,1.2423859834671,-1.09756803512573,0.884151995182037,-1089.90002441406,-9.30000019073486,-914.100036621094,1.92000141718918,-0.245503289696325,-0.0849052428054323,ST
11.4666666666667,-2.20176434516907,0.69264954328537,9.06605339050293,0.724089980125427,-1.82927989959717,0.655492007732391,-1073.10009765625,-4.5,-914.100036621094,1.91889541237954,-0.234334977390755,-0.0777479354183826,ST
11.5,-2.45836758613586,0.770408153533936,8.9536018371582,0.548784017562866,-1.6920839548111,0.335367977619171,-1077.90002441406,-5.10000038146973,-894.900024414062,1.91625767383839,-0.263972749038346,-0.0868620268715609,ST
11.5333333333333,-1.33625137805939,0.430662930011749,7.82311201095581,0.243903994560242,-1.53964400291443,-0.160062000155449,-1080.30004882812,-4.5,-916.500061035156,1.92553678895827,-0.166498047702876,-0.0554242555850419,ST
11.5666666666667,-1.734614610672,0.468944102525711,8.03724670410156,0.3125019967556,-1.2423859834671,-0.518296003341675,-1085.10009765625,-5.70000028610229,-897.300048828125,1.93047239584276,-0.209992368489177,-0.0585992007210111,ST
11.6,-2.41589951515198,0.57660984992981,8.75262641906738,0.46494197845459,-0.487807989120483,-0.503051996231079,-1097.10009765625,-3.90000009536743,-914.100036621094,1.93412453980641,-0.267824994148661,-0.0663209040094032,ST
11.6333333333333,-2.69104528427124,0.700425446033478,9.65342903137207,0.533540010452271,-0.0914639979600906,0.289635986089706,-1080.30004882812,-14.7000007629395,-926.100036621094,1.93109958428557,-0.270981559714127,-0.0734806172460033,ST
11.6666666666667,-2.80887937545776,0.715378999710083,10.3095922470093,0.342989981174469,-0.472563982009888,0.830797970294952,-1089.90002441406,-3.30000019073486,-918.900024414062,1.92610001378714,-0.264479790953737,-0.0702615452185108,ST
11.7,-2.8040943145752,0.496458679437637,11.1858720779419,-0.0152439996600151,-0.396344006061554,1.28811800479889,-1085.10009765625,-5.10000038146973,-911.700012207031,1.92183623063328,-0.244644488387789,-0.0449426467090391,ST
11.7333333333333,-1.92781484127045,0.359483927488327,9.81014251708984,-0.792688012123108,-1.54726600646973,0.701223969459534,-1094.70007324219,-8.10000038146973,-923.700012207031,1.91706777916168,-0.19130215945242,-0.0354861850979986,ST
11.7666666666667,-1.98703098297119,0.461168229579926,9.05708122253418,-0.525918006896973,-1.65397393703461,0.609759986400604,-1104.30004882812,-10.5,-899.700012207031,1.90870231577311,-0.212708456768283,-0.0501173671038818,ST
11.8,-2.07435989379883,0.350511789321899,8.76997184753418,0.221037998795509,0.289635986089706,0.967993974685669,-1092.30004882812,-0.300000011920929,-911.700012207031,1.90201711363132,-0.232499403683842,-0.0407452451938676,ST
11.8333333333333,-2.167072057724,0.278136491775513,8.66529750823975,0.358233988285065,1.38720393180847,0.754577994346619,-1094.70007324219,-7.50000047683716,-914.100036621094,1.89786201740233,-0.247278505107083,-0.0330825728696328,ST
11.8666666666667,-2.7622241973877,0.377428203821182,9.60737228393555,0.350611984729767,1.82165801525116,0.731711983680725,-1082.70007324219,-4.5,-906.900024414062,1.88960651562058,-0.282836716910064,-0.0402748028809061,ST
11.9,-2.50263023376465,0.394176214933395,9.0612678527832,0.289635986089706,1.06708002090454,0.884151995182037,-1082.70007324219,-6.30000019073486,-916.500061035156,1.88141324872247,-0.271050870343679,-0.0444202815484716,ST
11.9333333333333,-2.51040601730347,0.245836764574051,9.1868782043457,0.0838419944047928,0.365855991840363,1.08994603157043,-1089.90002441406,-0.900000035762787,-914.100036621094,1.87694255160257,-0.267251909549957,-0.0274666592560278,ST
11.9666666666667,-2.62046432495117,0.208153754472733,9.74913215637207,-0.358233988285065,-0.487807989120483,0.823175966739655,-1085.10009765625,-14.7000007629395,-911.700012207031,1.87056440180273,-0.261653228269584,-0.0211122889014519,ST
12.0,-1.89790761470795,-0.0430662930011749,9.36273193359375,-0.647870004177094,-1.32622802257538,0.891773998737335,-1080.30004882812,-8.70000076293945,-918.900024414062,1.86736685342627,-0.197789863475253,0.0053743808936195,ST
12.0333333333333,-2.04026556015015,-0.110656447708607,9.44168663024902,-0.518296003341675,-2.0579400062561,0.716467976570129,-1092.30004882812,-11.1000003814697,-911.700012207031,1.86160460929585,-0.209200405507233,0.0123327140181318,ST
12.0666666666667,-1.90388906002045,-0.261986613273621,9.00085544586182,-0.167683988809586,-1.27287399768829,0.594515979290009,-1080.30004882812,-5.10000038146973,-906.900024414062,1.85946586239646,-0.206181627089371,0.0291194423884322,ST
12.1,-2.03727507591248,-0.297875195741653,8.80406665802002,-0.0304879993200302,0.274392008781433,0.304879993200302,-1089.90002441406,-7.50000047683716,-909.300048828125,1.85760464652582,-0.227749016863193,0.0337501460342546,ST
12.1333333333333,-2.46195650100708,-0.167480036616325,9.40220928192139,0.0685980021953583,0.945127964019775,0.266770005226135,-1092.30004882812,-2.10000014305115,-909.300048828125,1.85174674870266,-0.257658857485236,0.0176084450718334,ST
12.1666666666667,-2.53014469146729,-0.1722651720047,9.85560131072998,0.274392008781433,0.617381989955902,0.541162014007568,-1092.30004882812,-3.30000019073486,-909.300048828125,1.84733923723376,-0.252357757853516,0.0167605921230549,ST
12.2,-2.39137554168701,-0.0352904349565506,9.78920745849609,0.167683988809586,0.0457319989800453,0.510673999786377,-1082.70007324219,-7.50000047683716,-911.700012207031,1.83984341368934,-0.239695540131254,0.0031157549590432,ST
12.2333333333333,-2.56543517112732,-0.0047851437702775,10.0176982879639,-0.0533539988100529,-0.266770005226135,0.922261953353882,-1087.5,-5.70000028610229,-914.100036621094,1.83128850208765,-0.250211194053482,0.0001669193775013,ST
12.2666666666667,-2.36744999885559,0.0071777156554162,10.006932258606,-0.304879993200302,-0.564027965068817,1.00610399246216,-1089.90002441406,-6.90000009536743,-921.300048828125,1.82121670210605,-0.231347477597636,-0.0005979729907127,ST
12.3,-1.95951640605927,0.0825437307357788,8.21968078613281,-0.236281991004944,-1.33385002613068,0.861285984516144,-1092.30004882812,-4.5,-921.300048828125,1.8107548259656,-0.231670638680492,-0.0099669380907213,ST
12.3333333333333,-2.0612006187439,-0.0257201474159956,8.07792091369629,0.289635986089706,0.0914639979600906,1.03659200668335,-1092.30004882812,0.300000011920929,-914.100036621094,1.80509193894881,-0.249967371529703,0.002197928960471,ST
12.3666666666667,-2.48588228225708,0.0245238617062569,8.9057502746582,0.3125019967556,0.92988395690918,0.716467976570129,-1089.90002441406,-5.70000028610229,-902.100036621094,1.79831230716054,-0.27376278670955,-0.0036366785276836,ST
12.4,-2.46674156188965,0.0041870009154081,9.66000938415527,0.236281991004944,0.937505960464478,0.78506600856781,-1080.30004882812,-2.10000014305115,-926.100036621094,1.7923354155074,-0.251675198293617,-0.001201546722598,ST
12.4333333333333,-2.28370976448059,-0.0789548754692078,9.44527530670166,0.403965979814529,0.0076219998300075,0.663114011287689,-1080.30004882812,3.90000009536743,-914.100036621094,1.78967203846638,-0.237279801905022,0.0073528815030664,ST
12.4666666666667,-2.40931987762451,0.084936298429966,9.42434024810791,0.480185985565186,-0.442075997591019,0.350611984729767,-1087.5,-8.10000038146973,-923.700012207031,1.78360054709898,-0.249470787111757,-0.0099615045651677,ST
12.5,-2.57679986953735,0.265575468540192,9.70546817779541,0.617381989955902,-1.00610399246216,0.663114011287689,-1085.10009765625,-9.30000019073486,-918.900024414062,1.77492408110654,-0.257611884314504,-0.0286799992094324,ST
12.5333333333333,-2.28370976448059,0.364867210388184,9.44288349151611,0.792688012123108,-1.12043392658234,0.952749967575073,-1092.30004882812,-3.90000009536743,-914.100036621094,1.76588466975472,-0.235141621125806,-0.0403611717616729,ST
12.5666666666667,-2.04146194458008,0.406139075756073,9.25087928771973,0.92988395690918,-1.2423859834671,0.983237981796265,-1092.30004882812,0.300000011920929,-892.500061035156,1.75822107407376,-0.214781570089744,-0.0458425058272354,ST
12.6,-2.07615423202515,0.501243829727173,8.98470592498779,1.00610399246216,-0.708845973014832,0.632625997066498,-1094.70007324219,-3.30000019073486,-909.300048828125,1.75228771515589,-0.225438445604554,-0.0577090086763042,ST
12.6333333333333,-2.40393662452698,0.805698573589325,9.61155986785889,1.02897000312805,-0.457319974899292,0.525918006896973,-1080.30004882812,-4.5,-909.300048828125,1.7437122092758,-0.243357258865396,-0.0855930436526854,ST
12.6666666666667,-2.47451758384705,1.05931115150452,9.74374866485596,1.40244793891907,-0.495429992675781,1.01372599601746,-1092.30004882812,-2.10000014305115,-918.900024414062,1.73246867915588,-0.246242623114052,-0.111095064724793,ST
12.7,-2.29627084732056,0.984543323516846,9.77245998382568,1.43293595314026,-0.457319974899292,1.16616594791412,-1101.90002441406,-11.1000003814697,-918.900024414062,1.72778402709736,-0.228705266352557,-0.103380890236592,ST
12.7333333333333,-2.1030707359314,0.894223749637604,9.41895771026611,0.99848198890686,-0.769822001457214,0.533540010452271,-1089.90002441406,-2.10000014305115,-902.100036621094,1.72732250202603,-0.217326361555128,-0.0965911157941446,ST
12.7666666666667,-2.27234506607056,0.88285905122757,9.47398662567139,0.594515979290009,-0.541162014007568,0.228659987449646,-1104.30004882812,-5.70000028610229,-906.900024414062,1.72758031738063,-0.233408091733728,-0.094036953786579,ST
12.8,-2.15211844444275,0.931308627128601,9.2167854309082,0.243903994560242,-0.472563982009888,0.167683988809586,-1094.70007324219,-5.10000038146973,-897.300048828125,1.72535678779749,-0.227423556387354,-0.10116997072649,DLL
12.8333333333333,-2.11622977256775,0.794333875179291,8.93505954742432,0.175305992364883,-0.358233988285065,0.495429992675781,-1092.30004882812,-5.70000028610229,-916.500061035156,1.7245493352484,-0.230970516502149,-0.0891927121546963,DLL
12.8666666666667,-2.07495808601379,0.819455862045288,8.9954719543457,0.0685980021953583,-0.144817993044853,0.434453994035721,-1089.90002441406,-7.50000047683716,-909.300048828125,1.72071227192794,-0.225491241998671,-0.0911287123429198,DLL
12.9,-2.18202567100525,0.904990315437317,9.05229568481445,0.297257989645004,-0.0381099991500378,0.6250039935112,-1092.30004882812,-6.90000009536743,-928.500061035156,1.71399303554457,-0.235204847281828,-0.100396776330956,DLL
12.9333333333333,-2.36087036132812,0.982748925685883,9.51585674285889,0.495429992675781,0.282013982534409,0.800309956073761,-1099.5,-12.9000005722046,-902.100036621094,1.70720983028059,-0.242278574609213,-0.104121258841411,DLL
12.9666666666667,-2.03248977661133,0.748875021934509,9.77066516876221,0.198172003030777,-0.144817993044853,0.716467976570129,-1085.10009765625,-3.30000019073486,-911.700012207031,1.70727682084801,-0.204222460830351,-0.077138067391916,DLL
13.0,-2.03488230705261,0.788352429866791,9.65043830871582,0.0304879993200302,-1.19665396213531,0.228659987449646,-1085.10009765625,-7.50000047683716,-911.700012207031,1.70521552017727,-0.205029331494036,-0.0816048740554799,DLL
13.0333333333333,-2.10008001327515,0.818857729434967,8.9655647277832,0.3125019967556,-1.2423859834671,0.304879993200302,-1080.30004882812,-1.5,-914.100036621094,1.70203161880355,-0.226907640548859,-0.091678157699505,DLL
13.0666666666667,-2.2711489200592,0.789548695087433,9.1808967590332,0.320124000310898,0.144817993044853,0.823175966739655,-1104.30004882812,-4.5,-914.100036621094,1.69684743569304,-0.241742417117551,-0.0867170027470552,DLL
13.1,-2.39496445655823,0.824839174747467,9.35615253448486,0.0838419944047928,0.221037998795509,1.21189796924591,-1097.10009765625,-3.30000019073486,-909.300048828125,1.68628786866081,-0.249845362069477,-0.0886203748540765,DLL
13.1333333333333,-2.29746723175049,0.711192011833191,9.29215145111084,-0.0609759986400604,0.0762199983000755,1.63110792636871,-1077.90002441406,-5.10000038146973,-914.100036621094,1.6752979841469,-0.241640810812343,-0.0770123371759635,DLL
13.1666666666667,-2.15211844444275,0.620872378349304,8.45774173736572,-0.594515979290009,-0.830797970294952,1.50153398513794,-1104.30004882812,-3.30000019073486,-909.300048828125,1.66180102521633,-0.246882575193106,-0.0728765397622907,DLL
13.2,-2.6096978187561,0.687266290187836,9.32744121551514,-0.609759986400604,-0.213415995240211,2.24086785316467,-1085.10009765625,-2.10000014305115,-923.700012207031,1.64173737962893,-0.271390291532296,-0.073559396391189,DLL
13.2333333333333,-2.40274024009705,0.479710668325424,9.65701866149902,-0.861285984516144,-0.609759986400604,3.03355598449707,-1092.30004882812,-5.10000038146973,-906.900024414062,1.62092613567041,-0.242312317688144,-0.0494855015797097,DLL
13.2666666666667,-3.07983827590942,0.940878868103027,9.98599720001221,-1.01372599601746,-1.69970595836639,4.30642986297607,-1104.30004882812,-2.10000014305115,-916.500061035156,1.57219230296417,-0.294134122503453,-0.0942375296015743,DLL
13.3,-2.74906516075134,0.672910869121552,8.90455436706543,-0.983237981796265,-1.2423859834671,7.53053569793701,-1099.5,-2.70000004768372,-906.900024414062,1.51325760651616,-0.295452591792349,-0.0776866769106784,DLL
13.3333333333333,-2.67429733276367,0.610105812549591,9.24370193481445,-1.34909391403198,-0.342989981174469,9.35981559753418,-1106.70007324219,-3.30000019073486,-904.500061035156,1.43531589416549,-0.279366081431244,-0.0682397920408321,DLL
13.3666666666667,-2.42188096046448,0.188415035605431,9.34478759765625,-0.0304879993200302,0.0609759986400604,12.3323955535889,-1101.90002441406,-0.900000035762787,-909.300048828125,1.34016390879124,-0.253134177027588,-0.0257569480000719,DLL
13.4,-2.31660771369934,0.091515876352787,8.90335845947266,-0.350611984729767,0.3125019967556,12.5915441513062,-1104.30004882812,5.10000038146973,-914.100036621094,1.23651582812045,-0.254737774315548,-0.0154099954542774,DLL
13.4333333333333,-2.14673519134521,0.214733332395554,9.33701133728027,-1.6920839548111,0.556405961513519,12.7211179733276,-1125.90002441406,0.900000035762787,-916.500061035156,1.12360332205077,-0.226413876619941,-0.0251400211262446,DLL
13.4666666666667,-1.77768087387085,0.266173630952835,9.59660625457764,-2.83538389205933,-0.701223969459534,12.2333097457886,-1106.70007324219,0.900000035762787,-906.900024414062,1.00502119149275,-0.181355763671194,-0.0266901187631473,DLL
13.5,-1.73282015323639,0.294286340475082,9.42613506317139,-3.17075204849243,-1.08994603157043,11.8369655609131,-1116.30004882812,3.30000019073486,-911.700012207031,0.899181510409334,-0.179211686473787,-0.0293972360168153,DLL
13.5333333333333,-1.01026344299316,0.0179442893713713,9.23951435089111,-3.14788603782654,-1.05183601379395,11.1052541732788,-1121.10009765625,9.30000019073486,-911.700012207031,0.804957375129797,-0.107266657546937,0.0013733537266063,DLL
13.5666666666667,-1.36496222019196,0.283519774675369,9.54097843170166,-2.46952795982361,-0.388722002506256,8.90249538421631,-1125.90002441406,8.70000076293945,-902.100036621094,0.722324130933039,-0.140855556955021,-0.0275173696914736,DLL
13.6,-1.13647162914276,0.214733332395554,10.6941986083984,-1.49391198158264,0.121951997280121,7.65248775482178,-1125.90002441406,4.5,-918.900024414062,0.656177367573254,-0.10589560930777,-0.0189158727262421,DLL
13.6333333333333,-0.852951884269714,0.0311034340411425,10.0924663543701,-1.09756803512573,-0.754577994346619,5.39637565612793,-1104.30004882812,11.7000007629395,-897.300048828125,0.61051420738918,-0.0830312707997794,-0.0019938495040315,DLL
13.6666666666667,-1.23755776882172,0.464158952236176,9.82509613037109,-0.777444005012512,-0.724089980125427,2.95733594894409,-1111.5,12.9000005722046,-906.900024414062,0.580027792116815,-0.123562595774883,-0.0463703868217921,DLL
13.7,-1.33684957027435,0.571226537227631,9.45484638214111,-0.228659987449646,-0.922261953353882,2.08842802047729,-1128.30004882812,15.3000001907349,-914.100036621094,0.560533006087274,-0.138347134295797,-0.0604015266157749,DLL
13.7333333333333,-1.15920102596283,0.506627082824707,9.0134162902832,-0.0609759986400604,-0.762199997901917,1.35671591758728,-1130.70007324219,16.5,-918.900024414062,0.549767085513604,-0.126275014148535,-0.0563435925142942,DLL
13.7666666666667,-1.63472473621368,0.759043455123901,9.2879638671875,0.304879993200302,-0.182927995920181,0.99848198890686,-1116.30004882812,8.10000038146973,-899.700012207031,0.537958717303584,-0.173076659588369,-0.0823078169892271,DLL
13.8,-1.77349388599396,0.900803327560425,9.62711143493652,0.442075997591019,0.0990860015153885,1.04421401023865,-1128.30004882812,7.50000047683716,-892.500061035156,0.527597737392257,-0.181381546743258,-0.0943750960274689,DLL
13.8333333333333,-1.70590376853943,1.12331247329712,9.86457347869873,0.6250039935112,-0.46494197845459,1.00610399246216,-1113.90002441406,11.7000007629395,-914.100036621094,0.516898019179346,-0.169183915066997,-0.114708355565373,DLL
13.8666666666667,-1.32967185974121,1.11434030532837,9.65582180023193,0.846041977405548,-0.0838419944047928,1.05945801734924,-1111.5,11.7000007629395,-916.500061035156,0.508726930013212,-0.13567722658518,-0.116618867080625,DLL
13.9,-1.19090270996094,1.05512416362762,10.0679426193237,0.83841997385025,-0.442075997591019,0.937505960464478,-1130.70007324219,6.90000009536743,-909.300048828125,0.503331958560858,-0.116211560405467,-0.10608934266209,DLL
13.9333333333333,-1.36376595497131,1.2238005399704,9.64804649353027,0.655492007732391,-0.967993974685669,0.510673999786377,-1109.10009765625,13.5000009536743,-921.300048828125,0.498072179911389,-0.137478277950251,-0.127354793842849,DLL
13.9666666666667,-1.21841728687286,0.922934591770172,9.43690204620361,0.78506600856781,-0.106707997620106,0.701223969459534,-1121.10009765625,9.90000057220459,-906.900024414062,0.496804148814384,-0.127516666989916,-0.0990843357929558,DLL
14.0,-1.22858572006226,0.970187902450562,9.15577411651611,0.167683988809586,-0.396344006061554,-0.335367977619171,-1128.30004882812,11.7000007629395,-906.900024414062,0.499340304544231,-0.132018988706055,-0.105759884156319,DLL
14.0333333333333,-1.52107763290405,1.0276095867157,9.21798133850098,0.3125019967556,-0.282013982534409,-0.449698001146317,-1118.70007324219,9.30000019073486,-906.900024414062,0.50301001281466,-0.162073028113405,-0.111415722149224,DLL
14.0666666666667,-1.54859220981598,0.945065915584564,8.95061111450195,0.602137982845306,0.282013982534409,-0.579271972179413,-1121.10009765625,12.3000001907349,-914.100036621094,0.509919331658812,-0.170976021364477,-0.106089912144486,DLL
14.1,-1.70351123809814,1.07007777690887,9.30052471160889,0.640248000621796,0.160062000155449,-0.67835795879364,-1133.10009765625,14.1000003814697,-909.300048828125,0.515239441335523,-0.180392294124156,-0.115446129452624,DLL
14.1333333333333,-1.78545677661896,1.13288283348083,10.0494003295898,0.663114011287689,-0.342989981174469,-0.282013982534409,-1128.30004882812,14.1000003814697,-904.500061035156,0.519328753757459,-0.174225127250123,-0.113322082657188,DLL
14.1666666666667,-1.50253510475159,0.971982300281525,9.70546817779541,0.365855991840363,-0.952749967575073,0.228659987449646,-1118.70007324219,13.5000009536743,-906.900024414062,0.520712716594788,-0.151169376524418,-0.100501390137655,DLL
14.2,-1.29019439220428,0.788950562477112,9.09356784820557,-0.213415995240211,-1.28049600124359,0.266770005226135,-1123.5,11.7000007629395,-906.900024414062,0.521164379237889,-0.138177526602796,-0.0862357018231422,DLL
14.2333333333333,-1.21901535987854,0.747080564498901,8.94522857666016,-0.480185985565186,-0.861285984516144,0.0609759986400604,-1128.30004882812,9.30000019073486,-914.100036621094,0.52120815461654,-0.133481704819793,-0.0824924336744002,DLL
14.2666666666667,-0.763828575611115,0.542515695095062,8.42663860321045,-0.708845973014832,-0.708845973014832,0.0457319989800453,-1128.30004882812,5.70000028610229,-918.900024414062,0.522778592551826,-0.0890815388004535,-0.0631028384583295,DLL
14.3,-1.90030026435852,0.923532724380493,9.64385890960693,0.304879993200302,0.365855991840363,0.457319974899292,-1121.10009765625,12.3000001907349,-914.100036621094,0.514419052640044,-0.193991020030464,-0.0960889279572692,DLL
14.3333333333333,-1.75614774227142,0.732725143432617,9.76528167724609,0.548784017562866,0.907018005847931,0.25152599811554,-1123.5,10.5,-899.700012207031,0.516256362200965,-0.179027710300485,-0.0760012893971912,DLL
14.3666666666667,-1.84527111053467,0.732127010822296,9.96984672546387,0.342989981174469,0.419209986925125,-0.106707997620106,-1123.5,8.70000076293945,-921.300048828125,0.517815392688841,-0.183266525016056,-0.0738819392698539,DLL
14.4,-2.11024832725525,0.711192011833191,10.3101902008057,0.350611984729767,0.106707997620106,0.152439996600151,-1121.10009765625,8.70000076293945,-909.300048828125,0.517865488476444,-0.201553223203871,-0.0695477591856047,DLL
14.4333333333333,-1.50552582740784,0.406139075756073,9.4434814453125,-0.495429992675781,-0.83841997385025,-0.0762199983000755,-1116.30004882812,12.3000001907349,-918.900024414062,0.523052032794629,-0.156564921214663,-0.042127806322106,DLL
14.4666666666667,-1.33326065540314,0.233275756239891,8.89019870758057,-1.28049600124359,-1.37958192825317,-0.0533539988100529,-1118.70007324219,11.1000003814697,-930.900024414062,0.524879392010732,-0.146421205802357,-0.0240040254440846,DLL
14.5,-1.73102581501007,0.122619308531284,9.32923603057861,-1.05945801734924,-0.457319974899292,0.190549999475479,-1116.30004882812,9.90000057220459,-904.500061035156,0.523782849091866,-0.182555661893503,-0.0113841775160643,DLL
14.5333333333333,-1.314120054245,-0.226696193218231,8.92668533325195,-0.92988395690918,0.297257989645004,0.129574000835419,-1130.70007324219,17.7000007629395,-909.300048828125,0.527769398062595,-0.146729562566986,0.0268872656825915,DLL
14.5666666666667,-1.70291304588318,-0.0807493031024933,9.18747615814209,-0.724089980125427,0.182927995920181,-0.297257989645004,-1125.90002441406,14.1000003814697,-904.500061035156,0.526478036918386,-0.183488114034899,0.0101907717424806,DLL
14.6,-1.49894630908966,-0.262584775686264,8.89139556884766,-0.327746003866196,0.304879993200302,0.221037998795509,-1116.30004882812,14.1000003814697,-918.900024414062,0.527639796356535,-0.167524888834954,0.0299845587574555,DLL
14.6333333333333,-2.34053349494934,0.111254595220089,9.99078178405762,0.243903994560242,0.335367977619171,0.403965979814529,-1123.5,17.1000003814697,-911.700012207031,0.51644969442831,-0.230527768367859,-0.0116233018014313,DLL
14.6666666666667,-2.1030707359314,-0.0622068680822849,10.5560274124146,0.190549999475479,0.106707997620106,0.685979962348938,-1128.30004882812,17.1000003814697,-916.500061035156,0.514566230301073,-0.196926385393255,0.0052798681295223,DLL
14.7,-2.04863977432251,0.0980954468250275,10.3394994735718,-0.190549999475479,-0.762199997901917,0.350611984729767,-1123.5,20.1000003814697,-914.100036621094,0.508296861247343,-0.194263605589674,-0.009249797851907,DLL
14.7333333333333,-1.61378967761993,0.195592746138573,9.04990291595459,0.434453994035721,-0.342989981174469,0.556405961513519,-1130.70007324219,11.1000003814697,-909.300048828125,0.501366906658524,-0.175823843473402,-0.0225249350459815,DLL
14.7666666666667,-1.76811063289642,0.355895072221756,9.21499061584473,1.34909391403198,0.403965979814529,0.884151995182037,-1109.10009765625,7.50000047683716,-894.900024414062,0.492508351492771,-0.190038260688754,-0.0412121820467172,DLL
14.8,-1.88415038585663,0.455784946680069,9.35256385803223,1.37195992469788,0.510673999786377,0.769822001457214,-1125.90002441406,13.5000009536743,-923.700012207031,0.486147019276007,-0.199366719892649,-0.0513444675469946,DLL
14.8333333333333,-1.83151376247406,0.483897656202316,9.24429988861084,0.78506600856781,-0.0990860015153885,0.327746003866196,-1123.5,12.9000005722046,-921.300048828125,0.484263105326895,-0.19513721518372,-0.0537731331673614,DLL
14.8666666666667,-1.83809340000153,0.531749129295349,9.10194206237793,0.480185985565186,-0.457319974899292,0.266770005226135,-1104.30004882812,8.70000076293945,-916.500061035156,0.481973697356874,-0.198103366937812,-0.0592636530845314,DLL
14.9,-1.61378967761993,0.329576790332794,9.26882362365723,0.0533539988100529,-0.78506600856781,0.3125019967556,-1113.90002441406,12.3000001907349,-916.500061035156,0.483978756612231,-0.170952794780252,-0.0357791993329471,DLL
14.9333333333333,-1.82971930503845,0.455186814069748,9.353759765625,-0.289635986089706,-0.92988395690918,0.297257989645004,-1116.30004882812,9.30000019073486,-918.900024414062,0.479120612998534,-0.191255261149393,-0.0481738545524532,DLL
14.9666666666667,-1.39187872409821,0.343932211399078,9.00803279876709,-0.358233988285065,-1.02897000312805,0.152439996600151,-1133.10009765625,16.5,-906.900024414062,0.479354475485869,-0.151437741108451,-0.0375800911967462,DLL
15.0,-2.26038217544556,0.796128273010254,10.1624488830566,0.365855991840363,-0.556405961513519,0.381099998950958,-1121.10009765625,14.7000007629395,-911.700012207031,0.469273665315059,-0.217129994037195,-0.0789074025604416,DLL
15.0333333333333,-1.78485858440399,0.586180090904236,9.95070648193359,0.297257989645004,-0.632625997066498,0.381099998950958,-1128.30004882812,11.1000003814697,-904.500061035156,0.470644527474179,-0.1761411952849,-0.0595135354116459,DLL
15.0666666666667,-1.31172752380371,0.401353925466537,9.80236721038818,-0.0990860015153885,-0.78506600856781,0.335367977619171,-1128.30004882812,14.7000007629395,-911.700012207031,0.470736357719587,-0.131611608950231,-0.0408555283975522,DLL
15.1,-1.08622765541077,0.678892254829407,9.88849925994873,-0.25152599811554,-1.92074394226074,0.594515979290009,-1123.5,6.90000009536743,-911.700012207031,0.46281794180455,-0.105771045107789,-0.0681601366051381,DLL
15.1333333333333,-1.70231485366821,0.815867006778717,10.1367292404175,0.403965979814529,-1.63110792636871,1.38720393180847,-1121.10009765625,12.3000001907349,-918.900024414062,0.450863462631799,-0.162682028947592,-0.0813424606937537,DLL
15.1666666666667,-0.988730311393738,0.446214646100998,9.7060661315918,-0.0685980021953583,-0.304879993200302,0.967993974685669,-1123.5,12.9000005722046,-918.900024414062,0.446528401686646,-0.100877565217336,-0.0460332136242901,DLL
15.2,-0.43724250793457,0.182433605194092,8.79569244384766,-0.442075997591019,-0.807931959629059,0.495429992675781,-1116.30004882812,9.30000019073486,-906.900024414062,0.444013734872267,-0.0483354269925732,-0.0200585390109637,DLL
15.2333333333333,-0.989926636219025,0.409727931022644,8.18498802185059,-0.198172003030777,-0.434453994035721,0.0152439996600151,-1133.10009765625,15.3000001907349,-918.900024414062,0.441392225588062,-0.119276660117039,-0.0495959763214349,DLL
15.2666666666667,-1.76153099536896,0.547898948192596,9.96865081787109,0.823175966739655,1.05945801734924,0.609759986400604,-1135.5,14.7000007629395,-904.500061035156,0.435852134407549,-0.176288774316105,-0.0565331441620838,DLL
15.3,-1.46305775642395,0.436046212911606,10.054783821106,0.37347799539566,-0.0076219998300075,0.297257989645004,-1130.70007324219,11.1000003814697,-909.300048828125,0.435665315703534,-0.144374481055897,-0.0440864859148504,DLL
15.3333333333333,-0.952841758728027,0.212938904762268,9.69290637969971,-0.0228659994900227,-0.884151995182037,0.388722002506256,-1121.10009765625,11.7000007629395,-906.900024414062,0.435156448959106,-0.0965248339808942,-0.0220419630966299,DLL
15.3666666666667,-1.27284824848175,0.347521066665649,9.31129169464111,-0.0533539988100529,-1.19665396213531,0.0304879993200302,-1125.90002441406,11.1000003814697,-921.300048828125,0.433454475955622,-0.133638565014726,-0.0371938814149087,DLL
15.4,-1.31711077690125,0.336754500865936,9.36033916473389,0.297257989645004,-0.167683988809586,0.442075997591019,-1118.70007324219,11.1000003814697,-902.100036621094,0.430163089139443,-0.139370034023497,-0.0365881789261969,DLL
15.4333333333333,-1.51689052581787,0.387596637010574,9.98061370849609,0.342989981174469,0.670735955238342,0.655492007732391,-1125.90002441406,10.5,-911.700012207031,0.424349531581081,-0.151811381368277,-0.0395883311406614,DLL
15.4666666666667,-1.63053774833679,0.459971934556961,9.83646106719971,0.198172003030777,0.419209986925125,0.419209986925125,-1121.10009765625,14.7000007629395,-906.900024414062,0.419695441584533,-0.164759311040471,-0.0471820776140145,DLL
15.5,-1.65207087993622,0.45638307929039,9.61993312835693,0.243903994560242,0.800309956073761,0.579271972179413,-1125.90002441406,12.9000005722046,-921.300048828125,0.414659609752219,-0.171218462141717,-0.0480154714018311,DLL
15.5333333333333,-1.46545028686523,0.2554070353508,9.46920108795166,-0.129574000835419,0.37347799539566,0.472563982009888,-1128.30004882812,20.1000003814697,-911.700012207031,0.413771288516144,-0.154157960294766,-0.0269226226786783,DLL
15.5666666666667,-1.27524077892303,0.114245310425758,8.96496677398682,-0.480185985565186,-0.190549999475479,0.236281991004944,-1128.30004882812,10.5,-911.700012207031,0.413376171161842,-0.140982843907377,-0.0119995071342649,DLL
15.6,-1.35479378700256,0.0897214487195015,8.01092910766602,-0.609759986400604,-0.190549999475479,-0.144817993044853,-1135.5,6.30000019073486,-909.300048828125,0.414116482374776,-0.167167133576426,-0.0100937880811526,DLL
15.6333333333333,-1.67360401153564,0.202172324061394,8.91891002655029,0.0533539988100529,0.594515979290009,0.114329993724823,-1116.30004882812,16.5,-911.700012207031,0.410835201580225,-0.186445791872685,-0.0227791782779353,DLL
15.6666666666667,-1.87158930301666,0.0179442893713713,9.64385890960693,0.144817993044853,0.724089980125427,0.594515979290009,-1125.90002441406,3.90000009536743,-918.900024414062,0.409840642327137,-0.192932606401002,-0.0023669629060245,DLL
15.7,-1.86919677257538,-0.0406737215816975,10.2414035797119,-0.579271972179413,0.350611984729767,0.0762199983000755,-1118.70007324219,11.1000003814697,-897.300048828125,0.409649287881157,-0.181166983707267,0.0049405383251751,DLL
15.7333333333333,-1.77648460865021,0.0203368607908487,10.0888776779175,-0.670735955238342,-0.685979962348938,0.167683988809586,-1123.5,10.5,-914.100036621094,0.406187575298086,-0.173118885834464,-0.000881583434951,DLL
15.7666666666667,-1.63592100143433,-0.0376830063760281,9.68931770324707,-0.167683988809586,-0.701223969459534,0.426831990480423,-1128.30004882812,14.1000003814697,-909.300048828125,0.402769441704562,-0.166046831928494,0.004049984977057,DLL
15.8,-1.56414389610291,0.0717771574854851,9.1091194152832,0.205793991684914,-0.541162014007568,0.266770005226135,-1111.5,14.1000003814697,-904.500061035156,0.398586348654069,-0.16909623758179,-0.0083016109204069,DLL
15.8333333333333,-1.54619956016541,0.0233275759965181,9.17611122131348,0.525918006896973,0.25152599811554,0.358233988285065,-1135.5,15.9000005722046,-914.100036621094,0.396866310051676,-0.167372998384432,-0.0035717916465313,DLL
15.8666666666667,-1.84706544876099,0.240453481674194,9.46860313415527,0.426831990480423,0.121951997280121,0.0762199983000755,-1116.30004882812,9.30000019073486,-914.100036621094,0.392849723939695,-0.192739526300044,-0.026105459210936,DLL
15.9,-1.3398402929306,-0.001794428913854,9.39204120635986,0.297257989645004,-0.0838419944047928,0.0990860015153885,-1116.30004882812,12.9000005722046,-906.900024414062,0.396674333609115,-0.141680503774979,-0.0004153362612127,DLL
15.9333333333333,-1.59883618354797,0.0155517170205712,9.61155986785889,0.190549999475479,-0.259148001670837,-0.0076219998300075,-1113.90002441406,11.1000003814697,-902.100036621094,0.396771915052146,-0.164327437744151,-0.0019445056487497,DLL
15.9666666666667,-1.89850580692291,0.0622068680822849,9.86218166351318,0.0685980021953583,-0.160062000155449,-0.190549999475479,-1123.5,14.7000007629395,-914.100036621094,0.397729948834684,-0.189833312163609,-0.0063522108549214,DLL
16.0,-1.71009075641632,0.0783567279577255,9.30351543426514,-0.0609759986400604,-0.472563982009888,-0.396344006061554,-1123.5,11.7000007629395,-911.700012207031,0.400795142886063,-0.180974135402566,-0.0081841444814418,DLL
16.0333333333333,-1.71547400951385,-0.0370848625898361,9.29274940490723,0.304879993200302,0.190549999475479,-0.0457319989800453,-1121.10009765625,11.7000007629395,-914.100036621094,0.403767452105234,-0.182874621992073,0.0034448907578948,DLL
16.0666666666667,-1.63950991630554,0.0951047316193581,9.58882999420166,0.3125019967556,-0.259148001670837,-0.205793991684914,-1125.90002441406,12.3000001907349,-914.100036621094,0.403779929699272,-0.168904259272589,-0.0103842217222782,DLL
16.1,-1.58089184761047,0.291893780231476,9.15278339385986,0.701223969459534,-0.907018005847931,-0.144817993044853,-1113.90002441406,14.1000003814697,-911.700012207031,0.402446700405106,-0.169374844766907,-0.0329966914878739,DLL
16.1333333333333,-1.91704821586609,0.61249840259552,9.32504844665527,1.05945801734924,-0.106707997620106,0.243903994560242,-1116.30004882812,8.10000038146973,-911.700012207031,0.395833787823896,-0.202076871533508,-0.0674794987145558,DLL
16.1666666666667,-1.69274461269379,0.539524972438812,9.74733829498291,0.602137982845306,0.114329993724823,0.647870004177094,-1125.90002441406,12.9000005722046,-909.300048828125,0.392803495250462,-0.171862497673847,-0.0565570545042903,DLL
16.2,-1.31531643867493,0.474327385425568,10.0559797286987,-0.0990860015153885,-1.11281192302704,0.510673999786377,-1123.5,17.1000003814697,-904.500061035156,0.38995876811521,-0.128004720461466,-0.0470786844997462,DLL
16.2333333333333,-1.1418548822403,0.487486511468887,9.67316818237305,-0.0304879993200302,-1.31860601902008,0.236281991004944,-1125.90002441406,14.1000003814697,-904.500061035156,0.387980708172524,-0.115053250788915,-0.0503291042302712,DLL
16.2666666666667,-1.39068245887756,0.543113827705383,9.77844142913818,0.571649968624115,-0.632625997066498,0.0457319989800453,-1135.5,15.9000005722046,-909.300048828125,0.387790295325478,-0.139901568839655,-0.0564731776518795,DLL
16.3,-1.25729656219482,0.531749129295349,9.66838264465332,0.777444005012512,-0.442075997591019,0.129574000835419,-1133.10009765625,14.1000003814697,-921.300048828125,0.387788376173684,-0.128358506217388,-0.0563242171964346,DLL
16.3333333333333,-1.08084440231323,0.60950767993927,9.12168025970459,0.609759986400604,-0.701223969459534,0.0457319989800453,-1121.10009765625,6.30000019073486,-899.700012207031,0.387019023709577,-0.116484772752441,-0.0677563105937555,DLL
16.3666666666667,-1.25669836997986,0.625657558441162,9.37230205535889,0.533540010452271,-0.67835795879364,0.190549999475479,-1128.30004882812,6.90000009536743,-899.700012207031,0.386372175545466,-0.131765114834136,-0.0676220988588171,DLL
16.4,-1.06469452381134,0.465953379869461,10.035044670105,0.0533539988100529,-0.891773998737335,0.3125019967556,-1140.30004882812,20.7000007629395,-909.300048828125,0.386605420491125,-0.104077340206787,-0.0465936422496929,DLL
16.4333333333333,-0.824839174747467,0.326586067676544,9.95070648193359,-0.571649968624115,-1.79879200458527,0.182927995920181,-1125.90002441406,11.1000003814697,-899.700012207031,0.386327571325476,-0.0795351004296925,-0.0318425599731807,DLL
16.4666666666667,-0.728538155555725,0.174657747149467,9.46979999542236,-0.137196004390717,-0.564027965068817,0.457319974899292,-1125.90002441406,14.7000007629395,-904.500061035156,0.383094446779392,-0.0757742957429572,-0.0182781476750533,DLL
16.5,-1.01504862308502,0.289501190185547,9.08758640289307,0.190549999475479,0.571649968624115,0.0533539988100529,-1154.70007324219,6.30000019073486,-904.500061035156,0.381362275568376,-0.112083788774029,-0.0321582082774233,DLL
16.5333333333333,-1.44451522827148,0.495860517024994,9.54875469207764,0.92988395690918,1.43293595314026,0.3125019967556,-1142.70007324219,12.9000005722046,-909.300048828125,0.376424873407375,-0.152309683991091,-0.053555894262692,DLL
16.5666666666667,-1.42477655410767,0.366661638021469,9.19345760345459,1.08994603157043,1.15854394435883,0.449698001146317,-1130.70007324219,19.5,-909.300048828125,0.375389016360063,-0.155613320761539,-0.041928436268383,DLL
16.6,-1.57072341442108,0.385802209377289,9.30650615692139,0.0457319989800453,0.350611984729767,-0.449698001146317,-1133.10009765625,7.50000047683716,-909.300048828125,0.379246323354833,-0.167674477853472,-0.0413842211096465,DLL
16.6333333333333,-2.08093929290771,0.644199967384338,9.86218166351318,-0.0076219998300075,0.152439996600151,-0.0990860015153885,-1135.5,6.90000009536743,-902.100036621094,0.375603582214985,-0.207736013641165,-0.0651440900168464,DLL
16.6666666666667,-1.50732028484344,0.257799625396729,9.5146598815918,-0.0685980021953583,-0.0304879993200302,0.769822001457214,-1125.90002441406,12.9000005722046,-909.300048828125,0.375235394584056,-0.157031205358734,-0.027228115040378,DLL
16.7,-1.81835460662842,0.320604622364044,9.84902191162109,-0.579271972179413,-0.411587983369827,0.472563982009888,-1130.70007324219,11.7000007629395,-897.300048828125,0.369698321231245,-0.181667776266644,-0.0316652287934228,DLL
16.7333333333333,-1.25131511688232,0.0490477234125137,9.04033279418945,-0.487807989120483,-0.152439996600151,0.525918006896973,-1125.90002441406,13.5000009536743,-897.300048828125,0.36842009306251,-0.137323206399021,-0.0047341195490754,DLL
16.7666666666667,-1.1998747587204,-0.0927121639251709,8.85072135925293,-0.533540010452271,-0.175305992364883,0.121951997280121,-1121.10009765625,21.9000015258789,-902.100036621094,0.368920571885329,-0.134442829029266,0.0113370500965665,DLL
16.8,-1.74179232120514,0.135778456926346,9.18747615814209,-0.121951997280121,0.106707997620106,-0.0381099991500378,-1128.30004882812,12.3000001907349,-904.500061035156,0.364912289677351,-0.187396262365056,-0.0144882791701108,DLL
16.8333333333333,-1.54320883750916,-0.1214230209589,9.30650615692139,0.0152439996600151,0.556405961513519,0.25152599811554,-1116.30004882812,8.70000076293945,-904.500061035156,0.36738807171999,-0.165309762165648,0.0129218813727246,DLL
16.8666666666667,-1.87996339797974,-0.141161739826202,10.3125829696655,-0.716467976570129,0.0304879993200302,-0.228659987449646,-1130.70007324219,14.1000003814697,-902.100036621094,0.368602622040979,-0.180311761470359,0.0150056125709355,DLL
16.9,-1.43315052986145,-0.38939106464386,10.1385231018066,-0.754577994346619,-0.472563982009888,0.129574000835419,-1113.90002441406,12.9000005722046,-909.300048828125,0.370316543931134,-0.139609705954288,0.0396084391444115,DLL
16.9333333333333,-1.24712812900543,-0.473729223012924,9.81911468505859,-0.807931959629059,-0.99848198890686,0.0762199983000755,-1123.5,23.7000007629395,-909.300048828125,0.369680790344564,-0.124492016242137,0.0495666081637905,DLL
16.9666666666667,-1.37513065338135,-0.248229339718819,9.73776721954346,-0.0152439996600151,-0.647870004177094,-0.0228659994900227,-1135.5,18.9000015258789,-909.300048828125,0.366536506012456,-0.139097961852424,0.0255376011903801,DLL
17.0,-1.33565330505371,-0.10826388001442,9.04870700836182,0.907018005847931,0.221037998795509,-0.160062000155449,-1140.30004882812,18.9000015258789,-906.900024414062,0.367143937692691,-0.146911826550168,0.0104416760879784,DLL
17.0333333333333,-1.42238402366638,-0.0669920146465302,9.33402061462402,1.12043392658234,0.739333987236023,-0.426831990480423,-1123.5,12.3000001907349,-909.300048828125,0.371529602191801,-0.152492622814096,0.0053499446155148,DLL
17.0666666666667,-1.38948607444763,-0.0322997197508812,9.51765060424805,1.05183601379395,0.327746003866196,-0.914639949798584,-1135.5,12.3000001907349,-909.300048828125,0.380156580949796,-0.145551890631549,0.0018010670416453,DLL
17.1,-1.37931764125824,-0.0065795728005468,9.27360820770264,0.922261953353882,0.0,-1.56251001358032,-1123.5,10.5,-906.900024414062,0.39434264931972,-0.147649483015402,-0.0004889574061584,DLL
17.1333333333333,-2.21073651313782,0.328978627920151,10.378378868103,1.2500079870224,0.396344006061554,-1.78354799747467,-1133.10009765625,12.9000005722046,-897.300048828125,0.405661169111904,-0.210412738988798,-0.0331309064562683,DLL
17.1666666666667,-1.83510267734528,0.276940196752548,10.0254745483398,1.06708002090454,-0.0152439996600151,-1.74543797969818,-1116.30004882812,14.1000003814697,-911.700012207031,0.425005428561857,-0.181062738816003,-0.0289248636984268,DLL
17.2,-1.38290655612946,0.186620607972145,9.29155254364014,0.868907988071442,-0.327746003866196,-1.61586391925812,-1130.70007324219,14.1000003814697,-918.900024414062,0.441275392237751,-0.14729245446337,-0.0211963667519987,DLL
17.2333333333333,-1.20226740837097,0.283519774675369,8.78193473815918,1.10518991947174,0.0457319989800453,-1.40244793891907,-1118.70007324219,9.90000057220459,-909.300048828125,0.453993471669391,-0.136162915240529,-0.0338513883686142,DLL
17.2666666666667,-1.58328449726105,0.37025049328804,9.54935264587402,1.12043392658234,0.160062000155449,-1.81403601169586,-1128.30004882812,16.5,-916.500061035156,0.469985123704074,-0.164520461652281,-0.0401705625622192,DLL
17.3,-1.3218959569931,0.204564899206161,9.210205078125,0.647870004177094,-0.0152439996600151,-2.53050398826599,-1118.70007324219,12.3000001907349,-923.700012207031,0.497812527059611,-0.142612660764287,-0.0227200333088943,DLL
17.3333333333333,-1.26925933361053,0.347521066665649,9.74554347991943,0.617381989955902,-0.350611984729767,-2.78202986717224,-1123.5,3.30000019073486,-914.100036621094,0.522106786928595,-0.129013929358414,-0.0360679964321559,DLL
17.3666666666667,-1.47741317749023,0.528160214424133,9.66479396820068,1.00610399246216,-0.579271972179413,-2.17227005958557,-1130.70007324219,9.90000057220459,-906.900024414062,0.541252803273416,-0.150643075336549,-0.055742616747736,DLL
17.4,-1.24772620201111,0.433055520057678,9.55892276763916,0.87652999162674,-0.518296003341675,-1.98171997070312,-1140.30004882812,5.10000038146973,-904.500061035156,0.562376723968166,-0.128948572126117,-0.0463602960490452,DLL
