seconds,sensor_accX_m_s_,sensor_accY_m_s_,sensor_accZ_m_s_,sensor_gyroX___s_,sensor_gyroY___s_,sensor_gyroZ___s_,sensor_magX__T_,sensor_magY__T_,sensor_magZ__T_,sensor_yaw___,sensor_pitch___,sensor_roll___,label2
0.0,-1.06648886203766,0.35110992193222,9.58165264129639,0.0838419944047928,-0.121951997280121,0.0914639979600906,-1135.5,-1.5,-914.100036621094,-2.58925388581761,-0.110438444101476,-0.0368840774918757,ST
0.0333333333333333,-1.08862018585205,0.364269077777863,9.59481143951416,0.137196004390717,-0.0609759986400604,0.137196004390717,-1133.10009765625,-4.5,-904.500061035156,-2.58979847807808,-0.112568260283128,-0.0380927016086036,ST
0.0666666666666667,-1.10895705223083,0.400157660245895,9.57028770446777,0.167683988809586,-0.0457319989800453,0.205793991684914,-1128.30004882812,2.10000014305115,-904.500061035156,-2.59089348554938,-0.114970300155351,-0.0418177532015803,ST
0.1,-1.10835897922516,0.377428203821182,9.5804557800293,0.213415995240211,-0.0914639979600906,0.282013982534409,-1137.90002441406,-5.10000038146973,-904.500061035156,-2.59155335790208,-0.114915233746778,-0.0399859951495376,ST
0.133333333333333,-1.08323693275452,0.393578082323074,9.51884746551514,0.205793991684914,-0.213415995240211,0.335367977619171,-1130.70007324219,-2.10000014305115,-902.100036621094,-2.59277529526771,-0.113009097226478,-0.0415883853472298,ST
0.166666666666667,-1.0916109085083,0.416307508945465,9.51705265045166,0.205793991684914,-0.129574000835419,0.37347799539566,-1130.70007324219,-6.90000009536743,-909.300048828125,-2.59425824099846,-0.113770447590954,-0.0439362342037263,ST
0.2,-1.07306849956512,0.415709376335144,9.53798770904541,0.213415995240211,-0.106707997620106,0.426831990480423,-1137.90002441406,-3.90000009536743,-909.300048828125,-2.595631239012,-0.111895874192008,-0.0440056094008545,ST
0.233333333333333,-1.07067596912384,0.454588651657104,9.53140830993652,0.198172003030777,-0.175305992364883,0.37347799539566,-1133.10009765625,-0.300000011920929,-902.100036621094,-2.59729889503787,-0.111437627440847,-0.0477678896001461,ST
0.266666666666667,-1.01803934574127,0.382811486721039,9.47996807098389,0.144817993044853,-0.190549999475479,0.327746003866196,-1116.30004882812,0.300000011920929,-906.900024414062,-2.5976371788207,-0.106979160653163,-0.0413139017913868,ST
0.3,-1.04615211486816,0.433653652667999,9.65103721618652,0.0990860015153885,-0.228659987449646,0.152439996600151,-1135.5,-3.90000009536743,-904.500061035156,-2.59852452407834,-0.107427957513061,-0.0448658975126162,ST
0.333333333333333,-1.05273163318634,0.420494496822357,9.55832481384277,0.182927995920181,-0.297257989645004,0.190549999475479,-1125.90002441406,-0.300000011920929,-906.900024414062,-2.59902668940823,-0.108922651828368,-0.0443625352903972,ST
0.366666666666667,-1.05392789840698,0.41750380396843,9.52303409576416,0.198172003030777,-0.228659987449646,0.198172003030777,-1135.5,-3.30000019073486,-890.100036621094,-2.59958068066334,-0.109633303081736,-0.0442104818454467,ST
0.4,-1.07247030735016,0.424681514501572,9.54157638549805,0.182927995920181,-0.182927995920181,0.236281991004944,-1149.90002441406,0.300000011920929,-904.500061035156,-2.60040126884653,-0.111343271100183,-0.044795096958557,ST
0.433333333333333,-1.09998488426208,0.46236452460289,9.57088565826416,0.190549999475479,-0.160062000155449,0.266770005226135,-1133.10009765625,-2.10000014305115,-904.500061035156,-2.60161080801602,-0.113755108667274,-0.0483065353973837,ST
0.466666666666667,-1.02940404415131,0.454588651657104,9.52841758728027,0.167683988809586,-0.152439996600151,0.342989981174469,-1133.10009765625,-9.30000019073486,-904.500061035156,-2.6026706619123,-0.107794736622527,-0.0480543472810169,ST
0.5,-1.0455539226532,0.477318078279495,9.57686710357666,0.221037998795509,-0.25152599811554,0.426831990480423,-1133.10009765625,-0.900000035762787,-897.300048828125,-2.60422691608474,-0.108104310593541,-0.0500637656540252,ST
0.533333333333333,-1.00607645511627,0.412718653678894,9.58882999420166,0.190549999475479,-0.259148001670837,0.350611984729767,-1123.5,-3.30000019073486,-902.100036621094,-2.60470562480596,-0.104306266408076,-0.0439597682790375,ST
0.566666666666667,-1.05033910274506,0.467747807502747,9.5744743347168,0.182927995920181,-0.213415995240211,0.266770005226135,-1135.5,-1.5,-904.500061035156,-2.60602373345184,-0.108340566274421,-0.0487096536153333,ST
0.6,-1.07546103000641,0.449803501367569,9.52961349487305,0.160062000155449,-0.137196004390717,0.259148001670837,-1140.30004882812,-3.90000009536743,-909.300048828125,-2.60680170071518,-0.111765994060473,-0.047570190110833,ST
0.633333333333333,-1.07665729522705,0.509019672870636,9.56789493560791,0.205793991684914,-0.0914639979600906,0.320124000310898,-1137.90002441406,-10.5,-904.500061035156,-2.60841304001717,-0.111716521162944,-0.0530286023834779,ST
0.666666666666667,-1.08084440231323,0.528160214424133,9.59600734710693,0.266770005226135,-0.152439996600151,0.419209986925125,-1135.5,-3.30000019073486,-894.900024414062,-2.60997292509049,-0.111690817580102,-0.0553037118935106,ST
0.7,-1.07546103000641,0.533543527126312,9.52243614196777,0.236281991004944,-0.198172003030777,0.457319974899292,-1135.5,-2.70000004768372,-911.700012207031,-2.6117082648876,-0.111885359680701,-0.0563983391449718,ST
0.733333333333333,-1.04017066955566,0.492271661758423,9.53021240234375,0.121951997280121,-0.137196004390717,0.434453994035721,-1140.30004882812,-2.10000014305115,-899.700012207031,-2.61267674256895,-0.108616470709457,-0.0523090687049947,ST
0.766666666666667,-1.03239476680756,0.48150509595871,9.60677433013916,0.0990860015153885,-0.236281991004944,0.381099998950958,-1125.90002441406,-3.30000019073486,-902.100036621094,-2.61371186451172,-0.106669254779483,-0.0505013773625969,ST
0.8,-1.04375946521759,0.494066089391708,9.5266227722168,0.0990860015153885,-0.259148001670837,0.335367977619171,-1123.5,2.70000004768372,-899.700012207031,-2.61493111241922,-0.108334320446402,-0.051908938308977,ST
0.833333333333333,-1.02402079105377,0.488682806491852,9.54097843170166,0.0914639979600906,-0.282013982534409,0.327746003866196,-1133.10009765625,-5.70000028610229,-909.300048828125,-2.61592154308056,-0.106447170596241,-0.0514395192904595,ST
0.866666666666667,-1.03299295902252,0.501841962337494,9.5391845703125,0.0609759986400604,-0.198172003030777,0.350611984729767,-1113.90002441406,-3.90000009536743,-885.300048828125,-2.61719181431175,-0.107262748876519,-0.0526134136224073,ST
0.9,-0.960019469261169,0.41152235865593,9.48594951629639,-0.0304879993200302,-0.190549999475479,0.3125019967556,-1128.30004882812,-0.300000011920929,-897.300048828125,-2.61736908286305,-0.101029897411807,-0.0441932410432816,ST
0.933333333333333,-0.974374890327454,0.379820793867111,9.62711143493652,-0.0838419944047928,-0.190549999475479,0.121951997280121,-1137.90002441406,3.90000009536743,-897.300048828125,-2.61734282835342,-0.100501854943487,-0.0397486292197316,ST
0.966666666666667,-0.985739588737488,0.375035643577576,9.65761661529541,0.0076219998300075,-0.259148001670837,0.0304879993200302,-1140.30004882812,-5.10000038146973,-904.500061035156,-2.61733002737325,-0.101139226809929,-0.0388936521774366,ST
1.0,-1.02342259883881,0.40853163599968,9.46860313415527,0.0838419944047928,-0.243903994560242,0.0533539988100529,-1130.70007324219,-3.30000019073486,-890.100036621094,-2.61786148831892,-0.106596697876246,-0.0428769898688807,ST
1.03333333333333,-1.03119850158691,0.39537250995636,9.5086784362793,0.0457319989800453,-0.129574000835419,0.129574000835419,-1133.10009765625,-5.70000028610229,-904.500061035156,-2.61817505560041,-0.107614934189702,-0.041751250600898,ST
1.06666666666667,-1.10058307647705,0.403746515512466,9.60677433013916,0.0076219998300075,-0.106707997620106,0.221037998795509,-1147.5,-2.70000004768372,-906.900024414062,-2.61901408841685,-0.113341348021288,-0.0420373117742629,ST
1.1,-1.05931115150452,0.364867210388184,9.59182071685791,-0.0076219998300075,-0.129574000835419,0.25152599811554,-1140.30004882812,-2.70000004768372,-906.900024414062,-2.61945879081389,-0.110003323563042,-0.0384156396905188,ST
1.13333333333333,-1.00188946723938,0.338548928499222,9.57985782623291,0.0533539988100529,-0.121951997280121,0.236281991004944,-1140.30004882812,-8.10000038146973,-902.100036621094,-2.61994739736644,-0.104462987759348,-0.0357280868181907,ST
1.16666666666667,-1.02043187618256,0.375633776187897,9.65103721618652,0.144817993044853,-0.205793991684914,0.228659987449646,-1135.5,2.10000014305115,-897.300048828125,-2.62098323549721,-0.104849788026003,-0.0388815228961208,ST
1.2,-1.04375946521759,0.40853163599968,9.56669902801514,0.221037998795509,-0.25152599811554,0.25152599811554,-1125.90002441406,-5.70000028610229,-904.500061035156,-2.62213797009124,-0.107822760757332,-0.0427260463689533,ST
1.23333333333333,-1.03717994689941,0.465355217456818,9.54337120056152,0.297257989645004,-0.106707997620106,0.327746003866196,-1128.30004882812,-5.70000028610229,-909.300048828125,-2.62385026340576,-0.107908224027139,-0.0488071633265883,ST
1.26666666666667,-0.99590802192688,0.506028950214386,9.53499698638916,0.350611984729767,-0.0990860015153885,0.388722002506256,-1128.30004882812,2.10000014305115,-902.100036621094,-2.62551017945908,-0.104096180022482,-0.0532604697510626,ST
1.3,-1.05033910274506,0.644798099994659,9.51047325134277,0.320124000310898,-0.228659987449646,0.419209986925125,-1133.10009765625,-4.5,-911.700012207031,-2.62828917927622,-0.108870156113507,-0.0670835958518532,ST
1.33333333333333,-0.971982300281525,0.773997008800507,9.53380107879639,0.266770005226135,-0.0533539988100529,0.594515979290009,-1140.30004882812,2.70000004768372,-904.500061035156,-2.63167273441741,-0.101739579259571,-0.0803813994672317,ST
1.36666666666667,-0.850559294223785,0.793137550354004,9.50090312957764,0.0533539988100529,-0.144817993044853,0.609759986400604,-1125.90002441406,-2.70000004768372,-914.100036621094,-2.6339742079868,-0.08982384281885,-0.0831969535815847,ST
1.4,-0.921140193939209,0.914560616016388,9.4907341003418,-0.121951997280121,-0.0381099991500378,0.533540010452271,-1123.5,-0.300000011920929,-894.900024414062,-2.63696874103362,-0.0956352748970429,-0.0948870104119959,ST
1.43333333333333,-0.958823204040527,0.971384167671204,9.60497951507568,-0.190549999475479,0.259148001670837,0.754577994346619,-1123.5,-2.70000004768372,-897.300048828125,-2.64029419986814,-0.0990102646060827,-0.100120018527364,ST
1.46666666666667,-0.964206457138062,0.945065915584564,9.5625114440918,-0.327746003866196,0.144817993044853,0.914639949798584,-1133.10009765625,3.30000019073486,-909.300048828125,-2.64340301664281,-0.100003717335021,-0.0982826802241572,ST
1.5,-1.00727272033691,0.965402781963348,9.61574649810791,-0.46494197845459,-0.297257989645004,1.09756803512573,-1128.30004882812,-6.30000019073486,-899.700012207031,-2.64744322714704,-0.102887700895231,-0.0993457318907195,ST
1.53333333333333,-1.10237753391266,0.881662726402283,9.57088565826416,-0.564027965068817,-0.762199997901917,1.41769194602966,-1123.5,-4.5,-918.900024414062,-2.65145388102561,-0.111757960137192,-0.0918774528624533,ST
1.56666666666667,-1.26925933361053,0.790146887302399,9.62950325012207,-0.800309956073761,-0.815553963184357,1.51677799224854,-1140.30004882812,-3.30000019073486,-909.300048828125,-2.65552878993257,-0.127421597496951,-0.0817939354737454,ST
1.6,-1.1777435541153,0.600535571575165,9.32504844665527,-1.04421401023865,-0.899396002292633,1.61586391925812,-1140.30004882812,2.10000014305115,-911.700012207031,-2.65912247211659,-0.123963647054127,-0.0645445208974536,ST
1.63333333333333,-1.1675751209259,0.433653652667999,9.4554443359375,-1.12043392658234,-0.350611984729767,1.60824191570282,-1147.5,4.5,-911.700012207031,-2.6627704572037,-0.12216139392968,-0.0460561134888375,ST
1.66666666666667,-1.01863753795624,0.327782362699509,9.55473613739014,-1.11281192302704,-0.282013982534409,1.31860601902008,-1154.70007324219,3.30000019073486,-892.500061035156,-2.66670594107748,-0.106713741022366,-0.0335252702962658,ST
1.7,-1.17116391658783,0.278734624385834,9.55174541473389,-1.08994603157043,-0.663114011287689,0.846041977405548,-1142.70007324219,-3.30000019073486,-906.900024414062,-2.66934539790838,-0.119482081216154,-0.0279907089682918,ST
1.73333333333333,-1.3458217382431,0.136974737048149,9.60677433013916,-1.15092194080353,-0.426831990480423,0.861285984516144,-1140.30004882812,1.5,-892.500061035156,-2.67097658004138,-0.136689778730056,-0.0138565803391368,ST
1.76666666666667,-1.16817319393158,0.0412718653678894,9.49970626831055,-1.28049600124359,-0.434453994035721,0.754577994346619,-1147.5,6.30000019073486,-916.500061035156,-2.67275452798751,-0.122954918551798,-0.0033226737790652,ST
1.8,-1.13647162914276,-0.0669920146465302,9.60079288482666,-1.40244793891907,-0.83841997385025,0.571649968624115,-1142.70007324219,0.900000035762787,-904.500061035156,-2.67419660350376,-0.11677699829292,0.0085165663842475,ST
1.83333333333333,-1.27045571804047,-0.41152235865593,9.2879638671875,-1.41006994247437,-0.541162014007568,0.396344006061554,-1140.30004882812,6.30000019073486,-890.100036621094,-2.67192352882022,-0.133399061601064,0.0434852601702794,ST
1.86666666666667,-1.35120499134064,-0.592161536216736,9.42912578582764,-1.60061991214752,-0.0381099991500378,-0.0914639979600906,-1142.70007324219,7.50000047683716,-904.500061035156,-2.66961633735776,-0.141334121198841,0.0638702360473999,ST
1.9,-1.53662931919098,-0.620274245738983,9.66599082946777,-1.18903195858002,0.243903994560242,-0.266770005226135,-1157.10009765625,0.900000035762787,-902.100036621094,-2.66892315237139,-0.156493031025102,0.0660570584728239,ST
1.93333333333333,-1.4881796836853,-0.69264954328537,9.60976505279541,-0.693601965904236,0.37347799539566,-0.182927995920181,-1140.30004882812,5.10000038146973,-906.900024414062,-2.66751789434843,-0.154056685041947,0.0727285518695017,ST
1.96666666666667,-1.62993955612183,-0.57361912727356,9.57507228851318,-0.304879993200302,0.365855991840363,-0.129574000835419,-1149.90002441406,-0.300000011920929,-892.500061035156,-2.66897413683321,-0.168008785467334,0.0611848869155113,ST
2.0,-1.72564244270325,-0.489280939102173,9.51765060424805,-0.106707997620106,0.121951997280121,0.274392008781433,-1137.90002441406,2.10000014305115,-894.900024414062,-2.67151327841124,-0.178430037082888,0.0522708236363014,ST
2.03333333333333,-1.57550859451294,-0.33137121796608,9.73058986663818,0.190549999475479,-0.213415995240211,0.846041977405548,-1145.10009765625,0.900000035762787,-894.900024414062,-2.6773179697223,-0.161629717904507,0.0350117288106988,ST
2.06666666666667,-1.43733751773834,-0.397765070199966,9.2520751953125,0.274392008781433,-0.571649968624115,1.14329993724823,-1140.30004882812,0.300000011920929,-914.100036621094,-2.68012219494207,-0.153839699447493,0.0415210631802707,ST
2.1,-1.46186137199402,-0.467747807502747,9.14740085601807,-0.0609759986400604,-0.472563982009888,0.99848198890686,-1142.70007324219,-1.5,-909.300048828125,-2.68231163535707,-0.157195350200201,0.0500647770346462,ST
2.13333333333333,-1.31053125858307,-0.517991840839386,9.19525146484375,-0.114329993724823,-0.274392008781433,0.861285984516144,-1142.70007324219,3.30000019073486,-914.100036621094,-2.68451974424554,-0.142421640580027,0.0556905838209161,ST
2.16666666666667,-1.29258692264557,-0.658555388450623,9.19046688079834,-0.274392008781433,-0.396344006061554,0.274392008781433,-1149.90002441406,5.70000028610229,-904.500061035156,-2.68360361726222,-0.139053820110547,0.0704697017274368,ST
2.2,-1.57491040229797,-0.649583280086517,9.36691856384277,-0.434453994035721,-0.297257989645004,-0.190549999475479,-1142.70007324219,2.70000004768372,-892.500061035156,-2.68331350572362,-0.163238993721315,0.070083575189068,ST
2.23333333333333,-1.77169942855835,-0.70461243391037,9.83227443695068,-0.160062000155449,-0.228659987449646,-0.160062000155449,-1145.10009765625,9.90000057220459,-899.700012207031,-2.68264570359909,-0.176132289433769,0.0717030222564168,ST
2.26666666666667,-1.80399918556213,-0.745884299278259,9.61813926696777,-0.182927995920181,-0.647870004177094,-0.358233988285065,-1142.70007324219,6.30000019073486,-921.300048828125,-2.68068022094334,-0.183066011422649,0.0773070709034763,ST
2.3,-1.89252436161041,-0.673509001731873,9.55353927612305,-0.0685980021953583,-0.830797970294952,-0.495429992675781,-1142.70007324219,3.30000019073486,-902.100036621094,-2.68038600326867,-0.19263301891445,0.0712521907407983,ST
2.33333333333333,-1.66343557834625,-0.686668157577515,9.44647216796875,0.190549999475479,-1.21951997280121,-0.297257989645004,-1154.70007324219,1.5,-906.900024414062,-2.67933159512705,-0.173273084545522,0.0722175909302664,ST
2.36666666666667,-1.46844100952148,-0.74349170923233,9.40460205078125,0.266770005226135,-1.6615959405899,-0.403965979814529,-1145.10009765625,3.90000009536743,-909.300048828125,-2.67730773241808,-0.153442991362158,0.0779364392413611,ST
2.4,-1.31292378902435,-0.554478526115417,9.41656494140625,0.403965979814529,-2.27135586738586,-0.3125019967556,-1149.90002441406,5.10000038146973,-894.900024414062,-2.67914663227635,-0.135623281005161,0.0595102520592217,ST
2.43333333333333,-1.27763342857361,-0.409129798412323,9.13184833526611,0.914639949798584,-2.9420919418335,0.282013982534409,-1140.30004882812,3.90000009536743,-902.100036621094,-2.68234309417071,-0.133892293679571,0.0442079445906654,ST
2.46666666666667,-0.691453278064728,-0.580198705196381,8.89199352264404,0.807931959629059,-3.21648383140564,0.861285984516144,-1154.70007324219,9.90000057220459,-906.900024414062,-2.68376384315476,-0.0775356813400369,0.0618417251961227,ST
2.5,-0.584983825683594,-0.509019672870636,8.95838737487793,0.472563982009888,-3.30032587051392,0.777444005012512,-1169.10009765625,6.30000019073486,-909.300048828125,-2.68747448539934,-0.0609268631907676,0.0563233295524747,ST
2.53333333333333,-0.465355217456818,-0.480308800935745,9.28557109832764,0.746955990791321,-2.83538389205933,1.44817996025085,-1166.70007324219,6.30000019073486,-897.300048828125,-2.69331020530414,-0.0464969680594995,0.050741833400919,ST
2.56666666666667,-0.0005981429712846,-0.503636360168457,9.62053108215332,0.602137982845306,-2.74391984939575,1.39482593536377,-1169.10009765625,3.90000009536743,-909.300048828125,-2.69855684366341,-2.76245691492583e-05,0.0511818567361972,ST
2.6,-0.666929423809052,-0.437840640544891,10.4962129592896,0.396344006061554,-2.72105383872986,1.50153398513794,-1176.30004882812,10.5,-902.100036621094,-2.70437376196328,-0.0534508097341398,0.0418169334621689,ST
2.63333333333333,0.226696193218231,-0.817063271999359,9.64744758605957,0.503051996231079,-1.99696397781372,1.52439999580383,-1171.5,8.70000076293945,-890.100036621094,-2.70941076216633,0.019434747941421,0.0798412306338622,ST
2.66666666666667,0.52636581659317,-1.01564681529999,10.134934425354,0.442075997591019,-1.69970595836639,0.884151995182037,-1178.70007324219,5.70000028610229,-894.900024414062,-2.71366158486071,0.0512732683058697,0.097435878379631,ST
2.7,0.553880393505096,-0.955832481384277,9.09895133972168,0.617381989955902,-1.30336201190948,0.297257989645004,-1178.70007324219,-0.900000035762787,-890.100036621094,-2.71557486493003,0.0616449434029728,0.103071011688954,ST
2.73333333333333,0.240453481674194,-0.950449168682098,10.3329200744629,1.2423859834671,0.106707997620106,0.807931959629059,-1176.30004882812,3.90000009536743,-887.700012207031,-2.71820420908903,0.0255192873554482,0.090527436073516,ST
2.76666666666667,0.515599250793457,-0.904392182826996,10.3478736877441,1.40244793891907,-0.381099998950958,0.541162014007568,-1188.30004882812,4.5,-880.500061035156,-2.72017669849723,0.047947031944686,0.085293531370619,ST
2.8,0.369652360677719,-0.636424124240875,9.65641975402832,1.92836594581604,-0.0838419944047928,0.533540010452271,-1185.90002441406,8.10000038146973,-890.100036621094,-2.72141629933437,0.0391374701908073,0.064547698418646,ST
2.83333333333333,0.30325847864151,-0.802707850933075,9.95848274230957,1.79117000102997,0.78506600856781,0.571649968624115,-1181.10009765625,1.5,-890.100036621094,-2.72392487805532,0.0296770125090807,0.0763694678628509,ST
2.86666666666667,-0.111254595220089,-0.574217259883881,9.99257659912109,1.54726600646973,0.449698001146317,-0.160062000155449,-1188.30004882812,4.5,-890.100036621094,-2.72309855882888,-0.008121211472548,0.0566619198159653,ST
2.9,-0.670518279075623,-0.254210770130157,9.90046215057373,2.03507399559021,1.53202199935913,0.419209986925125,-1169.10009765625,0.300000011920929,-899.700012207031,-2.7252392664936,-0.0651551652085929,0.0249508280665494,ST
2.93333333333333,-0.617283523082733,-0.451597929000854,9.72460842132568,1.57013201713562,1.35671591758728,0.282013982534409,-1181.10009765625,-5.10000038146973,-880.500061035156,-2.72458121613565,-0.0656605113683674,0.0419490156014594,ST
2.96666666666667,-1.13467717170715,-0.0478514358401299,9.92139720916748,1.55488801002502,1.42531394958496,0.0990860015153885,-1171.5,3.30000019073486,-887.700012207031,-2.72753436462041,-0.111777091338252,0.0057153000628506,ST
3.0,-1.01385235786438,-0.183031752705574,9.54516506195068,1.58537602424622,1.44817996025085,0.907018005847931,-1161.90002441406,-0.300000011920929,-902.100036621094,-2.72893908583749,-0.108660557181961,0.0152861890135235,ST
3.03333333333333,-1.21542656421661,-0.224303618073463,9.36512470245361,1.02134799957275,1.48628997802734,0.495429992675781,-1178.70007324219,-1.5,-897.300048828125,-2.72938344474827,-0.129557466493618,0.0214469590396079,ST
3.06666666666667,-1.29497957229614,-0.202172324061394,9.85141468048096,0.731711983680725,1.73019397258759,0.198172003030777,-1157.10009765625,-0.300000011920929,-875.700012207031,-2.72987731921928,-0.133325831298569,0.0194071654899052,ST
3.1,-1.21123957633972,-0.176452174782753,9.98240852355957,0.663114011287689,0.960371971130371,0.129574000835419,-1173.90002441406,-3.30000019073486,-894.900024414062,-2.73031685285949,-0.123310709781569,0.0167333887224671,ST
3.13333333333333,-1.30275535583496,-0.0645994395017624,9.83526515960693,0.632625997066498,0.922261953353882,0.137196004390717,-1164.30004882812,-4.5,-892.500061035156,-2.73178316285741,-0.132396681204562,0.0064570810981927,ST
3.16666666666667,-1.18851006031036,0.416905641555786,11.6745548248291,1.00610399246216,-0.0304879993200302,0.0838419944047928,-1152.30004882812,-0.300000011920929,-890.100036621094,-2.73644758689369,-0.103684342545129,-0.0341634934655813,ST
3.2,-0.48449581861496,0.560459971427917,11.1045246124268,1.18140995502472,-1.08232402801514,0.472563982009888,-1171.5,-9.30000019073486,-899.700012207031,-2.73901579192653,-0.0458900207729708,-0.0512735325813609,ST
3.23333333333333,0.339147061109543,0.70162171125412,8.26155090332031,0.914639949798584,-0.472563982009888,-0.320124000310898,-1159.5,-2.10000014305115,-892.500061035156,-2.73790919105423,0.0350460591578057,-0.083686704424365,ST
3.26666666666667,-0.656162858009338,1.06110560894012,8.15268898010254,0.990859985351562,1.99696397781372,-0.846041977405548,-1157.10009765625,-2.10000014305115,-899.700012207031,-2.73633064641176,-0.0751288757156801,-0.12783563141434,ST
3.3,-1.54679775238037,1.40264523029327,8.95121002197266,1.92074394226074,3.20123982429504,-0.503051996231079,-1152.30004882812,2.10000014305115,-902.100036621094,-2.73872929234807,-0.165724345607229,-0.155969856831157,ST
3.33333333333333,-1.94276833534241,1.74418485164642,8.72690582275391,2.46952795982361,3.3460578918457,-0.25152599811554,-1149.90002441406,-5.10000038146973,-911.700012207031,-2.74615792072681,-0.215776623374186,-0.19755195455952,ST
3.36666666666667,-2.43743252754211,2.04086375236511,8.73946666717529,2.5152599811554,4.26069784164429,0.0914639979600906,-1142.70007324219,-13.5000009536743,-890.100036621094,-2.75540499078026,-0.267290331195464,-0.23093564799929,ST
3.4,-2.94705033302307,2.05701375007629,8.65752124786377,1.98934197425842,5.25155782699585,-0.190549999475479,-1121.10009765625,-3.30000019073486,-887.700012207031,-2.75847593800323,-0.323239608381947,-0.236760556248095,ST
3.43333333333333,-3.76351547241211,2.25798964500427,9.84244251251221,1.78354799747467,6.37961387634277,-0.0838419944047928,-1125.90002441406,-8.70000076293945,-887.700012207031,-2.75872808376481,-0.363956670693383,-0.230125596255907,ST
3.46666666666667,-3.39685392379761,2.00318074226379,9.52901554107666,1.41006994247437,5.54881572723389,0.152439996600151,-1128.30004882812,-7.50000047683716,-887.700012207031,-2.75521760316961,-0.346775810630541,-0.212246496957172,ST
3.5,-3.88075160980225,2.09589290618896,7.99178838729858,0.510673999786377,5.79271984100342,-0.167683988809586,-1113.90002441406,-6.30000019073486,-902.100036621094,-2.77463935090002,-0.440560883683967,-0.254436476797197,ST
3.53333333333333,-3.41719079017639,2.22030663490295,9.07382869720459,0.922261953353882,6.06711196899414,0.602137982845306,-1097.10009765625,-10.5,-906.900024414062,-2.77602731315777,-0.367321067287617,-0.243913522123402,ST
3.56666666666667,-3.08282876014709,1.99779748916626,8.95061111450195,0.92988395690918,3.98630595207214,0.129574000835419,-1085.10009765625,-8.10000038146973,-909.300048828125,-2.77140798364903,-0.334311490024554,-0.223809230257759,ST
3.6,-3.00626659393311,1.96729218959808,7.71664237976074,0.731711983680725,1.60061991214752,-1.10518991947174,-1077.90002441406,-1.5,-894.900024414062,-2.776537130267,-0.361452237549731,-0.248028941089059,ST
3.63333333333333,-3.1647744178772,1.76093292236328,7.49712419509888,0.25152599811554,0.884151995182037,-1.42531394958496,-1082.70007324219,-9.90000057220459,-909.300048828125,-2.76653047705749,-0.38923362595384,-0.231927343471713,ST
3.66666666666667,-3.39326500892639,1.67480027675629,8.18139934539795,-0.160062000155449,0.800309956073761,-1.35671591758728,-1087.5,-5.10000038146973,-897.300048828125,-2.75232171214983,-0.387951306549982,-0.203617719813024,ST
3.7,-2.76401877403259,1.63173401355743,8.98829460144043,-0.205793991684914,-0.434453994035721,-1.6768399477005,-1089.90002441406,-5.10000038146973,-906.900024414062,-2.7390851957995,-0.302154884792136,-0.180468606358095,ST
3.73333333333333,-2.89979720115662,1.24533367156982,8.47448921203613,-1.08232402801514,-1.05945801734924,-2.23324584960938,-1073.10009765625,-6.90000009536743,-894.900024414062,-2.72157089788047,-0.323308448758145,-0.145797933666152,ST
3.76666666666667,-2.76641130447388,1.51509618759155,9.57507228851318,-1.2423859834671,-1.14329993724823,-1.85214591026306,-1082.70007324219,-6.90000009536743,-904.500061035156,-2.71807028141232,-0.280030197971783,-0.153146451084223,ST
3.8,-2.44819927215576,1.13407909870148,7.7758584022522,-0.967993974685669,-1.2423859834671,-2.24848985671997,-1065.90002441406,-9.30000019073486,-911.700012207031,-2.70789608897269,-0.298754600010179,-0.14279515256932,ST
3.83333333333333,-3.76172113418579,1.38230836391449,7.8775429725647,-1.31098401546478,1.32622802257538,-2.39330792427063,-1082.70007324219,-8.10000038146973,-906.900024414062,-2.71132203624231,-0.429570212341559,-0.167194086587265,ST
3.86666666666667,-3.58347463607788,1.62096750736237,9.81433010101318,-0.442075997591019,1.89025592803955,-1.09756803512573,-1075.5,-12.3000001907349,-894.900024414062,-2.70753200371217,-0.354860987990794,-0.162723765673193,ST
3.9,-4.19716930389404,1.11075150966644,9.21857929229736,-0.78506600856781,-0.503051996231079,-1.93598794937134,-1087.5,-11.7000007629395,-906.900024414062,-2.68597872529788,-0.418902549431127,-0.120585848194422,ST
3.93333333333333,-4.40771532058716,1.12091994285583,9.83287239074707,-1.36433792114258,-0.37347799539566,-1.91312193870544,-1082.70007324219,-5.70000028610229,-916.500061035156,-2.67722254548286,-0.418743041513426,-0.110369957449152,ST
3.96666666666667,-3.43094801902771,0.0275145769119263,9.28617000579834,-1.63872992992401,-2.11891603469849,-2.0731840133667,-1085.10009765625,-9.30000019073486,-914.100036621094,-2.63258037882048,-0.355149917660229,-0.0061865056033784,ST
4.0,-3.88254594802856,-0.232677608728409,8.78073883056641,-2.21800184249878,-2.67532205581665,-2.9268479347229,-1073.10009765625,-5.70000028610229,-916.500061035156,-2.61315834001571,-0.406331706716688,0.0289056164539341,ST
4.03333333333333,-3.47760319709778,-0.267369896173477,9.22097206115723,-1.73019397258759,-2.22562384605408,-2.10367202758789,-1094.70007324219,-5.10000038146973,-909.300048828125,-2.60732881898422,-0.361014745044079,0.0329742727587124,ST
4.06666666666667,-2.10247254371643,-0.0628050118684769,8.54566860198975,-0.914639949798584,-4.11588001251221,-2.26373386383057,-1085.10009765625,2.10000014305115,-902.100036621094,-2.60730660667814,-0.24549948736221,0.0120210848518697,ST
4.1,-3.46384596824646,0.504234552383423,9.71862697601318,0.46494197845459,-5.31253385543823,-1.65397393703461,-1082.70007324219,1.5,-894.900024414062,-2.61719359954091,-0.325606647105632,-0.046148459457291,ST
4.13333333333333,-2.98054647445679,0.402550220489502,8.90634918212891,0.914639949798584,-4.76375007629395,-0.266770005226135,-1094.70007324219,-4.5,-914.100036621094,-2.61469961380312,-0.315366444062271,-0.0464555541981059,ST
4.16666666666667,-2.8262255191803,0.320604622364044,10.7264976501465,0.0457319989800453,-4.70277404785156,-0.121951997280121,-1106.70007324219,-3.90000009536743,-887.700012207031,-2.60940515717138,-0.255299432251444,-0.0313075643033202,ST
4.2,-2.21253085136414,0.273949474096298,10.3837623596191,0.167683988809586,-6.22717380523682,-0.320124000310898,-1116.30004882812,-11.7000007629395,-916.500061035156,-2.60659715067552,-0.204108550532433,-0.0269133482426142,ST
4.23333333333333,-1.84885990619659,0.169872596859932,9.83227443695068,0.609759986400604,-7.19516801834106,-0.541162014007568,-1116.30004882812,0.900000035762787,-906.900024414062,-2.6023156006572,-0.176093454681269,-0.0189139765705678,ST
4.26666666666667,-1.21602463722229,-0.287706762552261,8.81483268737793,0.289635986089706,-7.71346378326416,-1.14329993724823,-1130.70007324219,-3.90000009536743,-890.100036621094,-2.59141929524822,-0.128296256359155,0.0277421753235313,ST
4.3,-1.25610029697418,0.250023752450943,9.6283073425293,0.754577994346619,-7.13419198989868,-1.28811800479889,-1128.30004882812,-1.5,-906.900024414062,-2.59253897179795,-0.118108318230313,-0.0228461036189822,ST
4.33333333333333,-0.936691880226135,0.0,8.89917087554932,1.48628997802734,-6.23479604721069,0.800309956073761,-1149.90002441406,-2.70000004768372,-897.300048828125,-2.59269057233044,-0.0956397002721817,-0.0041110840113832,ST
4.36666666666667,-0.590965270996094,0.168676316738129,10.3586397171021,1.12043392658234,-5.81558609008789,1.21951997280121,-1154.70007324219,-9.30000019073486,-885.300048828125,-2.59733979335913,-0.0512216908205382,-0.0170709241475682,ST
4.4,0.610703945159912,0.250621914863586,9.82330226898193,1.05183601379395,-8.51377391815186,1.12805593013763,-1190.70007324219,-3.90000009536743,-890.100036621094,-2.60057257198343,0.0653539380936333,-0.026358017343875,ST
4.43333333333333,0.517991840839386,0.226098045706749,10.1756086349487,0.381099998950958,-8.07169818878174,0.952749967575073,-1181.10009765625,-2.70000004768372,-875.700012207031,-2.60347386428114,0.0650072578495313,-0.0231158065743965,ST
4.46666666666667,0.392979919910431,0.519786238670349,9.86636829376221,0.205793991684914,-7.56864595413208,0.754577994346619,-1188.30004882812,-2.70000004768372,-880.500061035156,-2.60347645704088,0.054097863423865,-0.0502587016814449,ST
4.5,0.748875021934509,0.0927121639251709,9.1802978515625,0.922261953353882,-7.06559371948242,1.73781597614288,-1209.90002441406,-3.30000019073486,-875.700012207031,-2.61173654203994,0.090509581718317,-0.0146868930590306,ST
4.53333333333333,1.17415463924408,0.507823407649994,9.80535793304443,1.19665396213531,-4.79423809051514,1.64635193347931,-1202.70007324219,-7.50000047683716,-875.700012207031,-2.61347141288997,0.124159275361064,-0.0500181959743196,ST
4.56666666666667,1.59046220779419,0.601731836795807,9.57208156585693,1.76830399036407,-4.00154972076416,1.80641400814056,-1212.30004882812,-12.3000001907349,-870.900024414062,-2.61771370848507,0.167211653199569,-0.0640376894161302,ST
4.6,1.76751244068146,0.448607236146927,8.83277702331543,1.265251994133,-3.7957558631897,1.09756803512573,-1233.90002441406,-5.70000028610229,-861.300048828125,-2.62379928340627,0.201447675286544,-0.0534357243173292,ST
4.63333333333333,1.71128702163696,0.568235814571381,9.5505485534668,0.503051996231079,-1.97409796714783,0.823175966739655,-1236.30004882812,-5.70000028610229,-875.700012207031,-2.62545545545692,0.18224801841974,-0.0595271344182112,ST
4.66666666666667,1.98463833332062,0.551487803459167,9.76647853851318,0.442075997591019,-0.701223969459534,1.16616594791412,-1243.5,-8.10000038146973,-861.300048828125,-2.63028892302646,0.200054809199678,-0.0569964080188997,ST
4.7,1.94815170764923,0.541917502880096,9.19704627990723,0.487807989120483,-0.640248000621796,1.07470202445984,-1238.70007324219,-4.5,-861.300048828125,-2.63381873856869,0.208822385850375,-0.05913416421045,ST
4.73333333333333,1.23875403404236,0.434849947690964,9.46441650390625,-0.327746003866196,1.6844619512558,1.02897000312805,-1236.30004882812,-2.10000014305115,-861.300048828125,-2.63962364958732,0.134555841334552,-0.0463158012664022,ST
4.76666666666667,1.07904994487762,0.494066089391708,10.5919160842896,-0.327746003866196,2.25611186027527,1.04421401023865,-1233.90002441406,-10.5,-868.500061035156,-2.64348400771724,0.100912352936063,-0.0458681795325699,ST
4.8,1.0276095867157,0.254210770130157,9.32624530792236,0.37347799539566,1.59299790859222,1.15854394435883,-1221.90002441406,-6.90000009536743,-866.100036621094,-2.64979465549038,0.106531585683184,-0.0290540395751289,ST
4.83333333333333,0.416905641555786,0.473131090402603,9.73896408081055,0.670735955238342,3.12502002716064,1.04421401023865,-1231.5,-6.90000009536743,-875.700012207031,-2.65258201223276,0.0436251570287994,-0.0477446979115773,ST
4.86666666666667,0.885251581668854,0.321800917387009,9.94651985168457,0.640248000621796,2.43141794204712,1.10518991947174,-1212.30004882812,-5.10000038146973,-875.700012207031,-2.65768689198363,0.0808490321689826,-0.0346213816511567,ST
4.9,0.581394970417023,0.375035643577576,8.97513484954834,0.403965979814529,1.19665396213531,0.426831990480423,-1226.70007324219,-2.70000004768372,-866.100036621094,-2.65909867060524,0.0637180338630007,-0.0419247149993619,ST
4.93333333333333,0.863718450069427,0.311034351587296,9.40041446685791,0.472563982009888,2.43903994560242,1.18140995502472,-1219.5,-2.10000014305115,-861.300048828125,-2.664161363471,0.0852518135978923,-0.03446679777264,ST
4.96666666666667,1.22738933563232,0.0909177288413048,9.47518253326416,0.426831990480423,2.17227005958557,1.17378795146942,-1226.70007324219,-6.30000019073486,-880.500061035156,-2.67094983660572,0.121768682405256,-0.0121273108588119,ST
5.0,1.18851006031036,0.401353925466537,9.36093711853027,0.67835795879364,2.080806016922,0.182927995920181,-1207.5,-5.70000028610229,-880.500061035156,-2.66856748879789,0.122506558976072,-0.041785717831586,ST
5.03333333333333,1.29378318786621,0.364269077777863,9.32923603057861,1.41006994247437,2.45428395271301,0.952749967575073,-1202.70007324219,-6.90000009536743,-873.300048828125,-2.67286513579025,0.132493635760541,-0.0412972851589794,ST
5.06666666666667,2.095294713974,0.2613884806633,8.99906063079834,1.31860601902008,1.82927989959717,0.945127964019775,-1205.10009765625,-8.10000038146973,-870.900024414062,-2.67875764653483,0.217101161606554,-0.0319572754431769,ST
5.1,1.74956822395325,0.395970642566681,9.83705902099609,1.60061991214752,1.63110792636871,1.07470202445984,-1197.90002441406,-5.70000028610229,-880.500061035156,-2.68176506878273,0.177086280683075,-0.0416877282609335,ST
5.13333333333333,2.07196736335754,0.193200185894966,9.19585037231445,1.58537602424622,2.14178204536438,0.815553963184357,-1202.70007324219,-6.90000009536743,-885.300048828125,-2.68937008242594,0.214798274637214,-0.0248522839921977,ST
5.16666666666667,1.59225654602051,0.367857933044434,9.32265663146973,1.31098401546478,3.353679895401,0.259148001670837,-1197.90002441406,-8.70000076293945,-878.100036621094,-2.68866369342176,0.167094627880347,-0.0403502298217188,ST
5.2,0.476719945669174,0.87089616060257,9.93515491485596,1.70732796192169,4.1311240196228,0.396344006061554,-1193.10009765625,-8.10000038146973,-870.900024414062,-2.68658049004478,0.0521040507642977,-0.0858438207359349,ST
5.23333333333333,0.101086162030697,0.792539417743683,9.20960712432861,1.72257196903229,4.67228603363037,1.09756803512573,-1171.5,-6.30000019073486,-882.900024414062,-2.69183891478116,0.0074257515038192,-0.0885393033829394,ST
5.26666666666667,-0.244640469551086,0.835007607936859,9.70726203918457,0.975615978240967,4.61893177032471,0.6250039935112,-1171.5,-6.90000009536743,-890.100036621094,-2.69575196379927,-0.0305081052715448,-0.0876156176128557,ST
5.3,-0.68965882062912,1.40922486782074,10.3717994689941,1.11281192302704,2.9420919418335,0.83841997385025,-1169.10009765625,-5.10000038146973,-892.500061035156,-2.70178105927702,-0.0670750614356611,-0.132625031552213,ST
5.33333333333333,-0.815867006778717,1.62575256824493,9.94233226776123,1.60824191570282,2.73629784584045,1.6692179441452,-1171.5,-15.9000005722046,-894.900024414062,-2.71157137317493,-0.0839428312617189,-0.163147197818015,ST
5.36666666666667,-1.02940404415131,1.64549136161804,10.3251438140869,1.74543797969818,2.65245604515076,2.30184388160706,-1159.5,-11.1000003814697,-887.700012207031,-2.72016198706874,-0.100421799347855,-0.161688212799111,ST
5.4,-1.1837249994278,1.82852303981781,10.3801727294922,1.60824191570282,2.64483404159546,2.11891603469849,-1149.90002441406,-8.70000076293945,-882.900024414062,-2.72983109486435,-0.114362691845026,-0.176222722219555,ST
5.43333333333333,-1.1436493396759,1.83211195468903,10.2378149032593,1.44055795669556,2.39330792427063,2.09605002403259,-1140.30004882812,-3.90000009536743,-890.100036621094,-2.73820488836061,-0.113105747560367,-0.179738899386791,ST
5.46666666666667,-1.02581524848938,1.36615860462189,9.70128059387207,0.442075997591019,1.76068198680878,1.04421401023865,-1149.90002441406,-6.30000019073486,-899.700012207031,-2.73904505573879,-0.107476369860776,-0.143343893773493,ST
5.5,-1.44152450561523,1.48100197315216,9.21379470825195,0.152439996600151,1.88263392448425,0.0076219998300075,-1137.90002441406,-8.10000038146973,-899.700012207031,-2.74190404568442,-0.152067782891219,-0.158228602317315,ST
5.53333333333333,-1.44152450561523,1.11972367763519,8.78672027587891,0.106707997620106,2.57623600959778,0.0762199983000755,-1145.10009765625,-4.5,-894.900024414062,-2.73887220905799,-0.164533350123342,-0.129878246176408,ST
5.56666666666667,-1.77349388599396,1.02521705627441,8.58155727386475,-0.304879993200302,2.94971394538879,-0.365855991840363,-1135.5,-15.3000001907349,-892.500061035156,-2.73715516040844,-0.20368925958113,-0.119417733667434,ST
5.6,-1.91405749320984,1.3440272808075,9.00863170623779,-0.365855991840363,2.5000159740448,-0.335367977619171,-1137.90002441406,-7.50000047683716,-897.300048828125,-2.74288579015796,-0.211048061115137,-0.145717981753732,ST
5.63333333333333,-2.08572459220886,1.3960657119751,9.32445049285889,0.137196004390717,2.52288198471069,0.304879993200302,-1133.10009765625,-10.5,-892.500061035156,-2.74571619353463,-0.220998267108356,-0.148810530825318,ST
5.66666666666667,-2.07435989379883,1.32369041442871,9.64565372467041,0.0533539988100529,2.04269599914551,0.282013982534409,-1133.10009765625,-8.10000038146973,-885.300048828125,-2.74536816657492,-0.213860304471875,-0.13744232429759,ST
5.7,-2.05462121963501,1.33026993274689,9.13184833526611,-0.121951997280121,1.54726600646973,0.175305992364883,-1135.5,-8.10000038146973,-909.300048828125,-2.74818394615899,-0.220992737839496,-0.143949204111875,ST
5.73333333333333,-2.53014469146729,1.46425402164459,9.47099590301514,-0.282013982534409,2.01220798492432,0.167683988809586,-1118.70007324219,-6.30000019073486,-906.900024414062,-2.75195007953419,-0.257880252626188,-0.152271597425537,ST
5.76666666666667,-2.11742615699768,1.27404451370239,9.58823204040527,-0.434453994035721,2.03507399559021,0.37347799539566,-1118.70007324219,-6.90000009536743,-897.300048828125,-2.75002956717247,-0.222468778197154,-0.13346026976832,ST
5.8,-1.71367967128754,1.16877138614655,8.71972846984863,-0.67835795879364,1.27287399768829,-0.358233988285065,-1121.10009765625,-9.90000057220459,-914.100036621094,-2.74960300539889,-0.197178637085661,-0.13212727129059,ST
5.83333333333333,-1.95233869552612,1.19209897518158,8.67307281494141,-0.815553963184357,1.43293595314026,-0.800309956073761,-1111.5,-6.90000009536743,-894.900024414062,-2.74868565134068,-0.219829659208213,-0.134683602010412,ST
5.86666666666667,-1.60721015930176,1.20226740837097,8.89498424530029,-0.914639949798584,0.792688012123108,-1.11281192302704,-1116.30004882812,-3.30000019073486,-890.100036621094,-2.74551512103076,-0.182521841662547,-0.132624925353366,ST
5.9,-1.53603112697601,1.53304040431976,8.71554088592529,-0.365855991840363,0.746955990791321,-1.19665396213531,-1106.70007324219,-11.1000003814697,-892.500061035156,-2.74865179370654,-0.174320415380556,-0.169491076456029,ST
5.93333333333333,-1.64848208427429,1.50432956218719,9.01461315155029,-0.182927995920181,1.60061991214752,-0.579271972179413,-1097.10009765625,-11.7000007629395,-897.300048828125,-2.74689189375362,-0.180892232555329,-0.165249572890165,ST
5.96666666666667,-1.97746062278748,1.37991583347321,9.17850399017334,-0.160062000155449,2.00458598136902,-0.121951997280121,-1099.5,-13.5000009536743,-887.700012207031,-2.74478025275669,-0.210464268296339,-0.150489106350149,ST
6.0,-2.76581311225891,1.31651270389557,9.93156623840332,-0.327746003866196,2.85824990272522,0.0914639979600906,-1085.10009765625,-5.10000038146973,-906.900024414062,-2.74264764414822,-0.269900320681214,-0.132767929067906,ST
6.03333333333333,-2.85254383087158,1.30873680114746,9.53200626373291,-0.403965979814529,2.88111591339111,0.0228659994900227,-1085.10009765625,-6.90000009536743,-885.300048828125,-2.7453168221816,-0.291442641865972,-0.135712178494387,ST
6.06666666666667,-2.87646961212158,1.12450873851776,9.25686073303223,-0.434453994035721,2.76678586006165,-0.0609759986400604,-1085.10009765625,-2.70000004768372,-904.500061035156,-2.74260921283435,-0.302880846584188,-0.121676797510414,ST
6.1,-3.08282876014709,0.91276615858078,8.77176666259766,-0.731711983680725,2.33995389938354,-0.320124000310898,-1082.70007324219,-7.50000047683716,-909.300048828125,-2.73769884519473,-0.337014459205533,-0.104127494610004,ST
6.13333333333333,-3.44949054718018,0.616087257862091,9.29095458984375,-1.29574000835419,2.58385801315308,-0.434453994035721,-1073.10009765625,-3.90000009536743,-909.300048828125,-2.72603419253808,-0.357338827586946,-0.0674572909888431,ST
6.16666666666667,-3.37831139564514,0.518589973449707,9.41237735748291,-1.59299790859222,2.24086785316467,-0.602137982845306,-1082.70007324219,-15.9000005722046,-909.300048828125,-2.72150534409769,-0.348849603025108,-0.0532349149625692,ST
6.2,-3.31610465049744,0.266771763563156,9.38067626953125,-1.74543797969818,1.46342396736145,-0.937505960464478,-1075.5,-5.70000028610229,-902.100036621094,-2.71172201010201,-0.342772624721844,-0.0269634905380104,ST
6.23333333333333,-3.69413089752197,0.194994613528252,9.82808685302734,-1.95885396003723,1.19665396213531,-0.617381989955902,-1075.5,-11.1000003814697,-911.700012207031,-2.70867706312274,-0.360289089796987,-0.0167831343302596,ST
6.26666666666667,-3.38309669494629,-0.080151155591011,9.98719310760498,-1.51677799224854,0.579271972179413,-0.228659987449646,-1080.30004882812,-2.10000014305115,-918.900024414062,-2.70119126866334,-0.330575304836292,0.0083400856945901,ST
6.3,-2.7442798614502,-0.379222631454468,9.02777194976807,-1.2500079870224,-0.92988395690918,-0.510673999786377,-1073.10009765625,-1.5,-914.100036621094,-2.69078322045139,-0.296602612540293,0.0411905344171664,ST
6.33333333333333,-3.05770683288574,0.0795530155301094,8.55105209350586,-0.685979962348938,-1.86738991737366,-0.716467976570129,-1080.30004882812,-6.90000009536743,-909.300048828125,-2.70308408910388,-0.336235539628671,-0.0031716712340402,ST
6.36666666666667,-3.23954224586487,-0.0759641602635384,8.81543064117432,0.0228659994900227,-1.05945801734924,0.243903994560242,-1073.10009765625,-3.90000009536743,-916.500061035156,-2.70031453943855,-0.349146372740408,0.0074545970554376,ST
6.4,-2.9081711769104,-0.261986613273621,9.23293495178223,-0.266770005226135,-0.891773998737335,0.403965979814529,-1063.5,-0.900000035762787,-918.900024414062,-2.69578063062453,-0.307266922545986,0.0268693182811388,ST
6.43333333333333,-3.02600526809692,-0.0909177288413048,8.96436882019043,-0.152439996600151,-1.09756803512573,0.396344006061554,-1061.10009765625,3.30000019073486,-918.900024414062,-2.70200916837322,-0.322152298593624,0.0116923768315462,ST
6.46666666666667,-3.04275321960449,-0.0430662930011749,9.2287483215332,0.228659987449646,-0.78506600856781,0.518296003341675,-1077.90002441406,1.5,-899.700012207031,-2.70569021543845,-0.317569044257095,0.0046650241122475,ST
6.5,-3.32388043403625,0.251220047473907,9.58524131774902,1.03659200668335,-0.754577994346619,0.777444005012512,-1080.30004882812,-4.5,-911.700012207031,-2.71701050515521,-0.331337703307058,-0.0261758677527372,ST
6.53333333333333,-2.72813010215759,0.0448607243597507,8.1604642868042,0.945127964019775,-0.586893975734711,0.960371971130371,-1085.10009765625,-6.90000009536743,-923.700012207031,-2.71374394985976,-0.322258839063632,-0.0089709104618882,ST
6.56666666666667,-3.36455416679382,0.195592746138573,8.31837463378906,0.129574000835419,0.945127964019775,0.495429992675781,-1077.90002441406,3.90000009536743,-911.700012207031,-2.71996883035562,-0.380134714373487,-0.022682539088364,ST
6.6,-3.79701161384583,0.570030272006989,9.0911750793457,0.830797970294952,2.37044191360474,1.265251994133,-1075.5,-8.10000038146973,-916.500061035156,-2.73832666173891,-0.397550508295484,-0.0618715424372353,ST
6.63333333333333,-3.77009510993958,0.254210770130157,9.68513107299805,1.34147191047668,3.07928800582886,2.01220798492432,-1058.70007324219,-5.70000028610229,-916.500061035156,-2.73270306429068,-0.377824610117553,-0.0322090613026303,ST
6.66666666666667,-3.51229548454285,0.381017059087753,10.1157941818237,1.08232402801514,2.24848985671997,1.38720393180847,-1051.5,1.5,-918.900024414062,-2.73892704985244,-0.341106338776391,-0.0397866222431221,ST
6.7,-3.15699863433838,0.512010395526886,9.6163444519043,1.60824191570282,0.37347799539566,0.800309956073761,-1053.90002441406,-9.30000019073486,-897.300048828125,-2.744933296942,-0.319000713313728,-0.0553354403459742,ST
6.73333333333333,-2.71437287330627,0.565843224525452,8.31777572631836,1.89787793159485,-0.510673999786377,0.67835795879364,-1068.30004882812,1.5,-909.300048828125,-2.74961652918894,-0.314261909504702,-0.0701308348747278,ST
6.76666666666667,-3.10675454139709,0.742295444011688,7.85062646865845,1.76068198680878,-0.152439996600151,0.861285984516144,-1068.30004882812,-5.10000038146973,-914.100036621094,-2.75875523043278,-0.369418386905135,-0.0953462414975389,ST
6.8,-3.05890321731567,0.762632310390472,8.20353126525879,1.59299790859222,0.663114011287689,1.21951997280121,-1070.70007324219,-1.5,-902.100036621094,-2.76124293462558,-0.357624288964868,-0.0962244535413293,ST
6.83333333333333,-3.48657536506653,0.904990315437317,9.10194206237793,1.57013201713562,1.21189796924591,1.21951997280121,-1070.70007324219,-3.90000009536743,-916.500061035156,-2.76572449841152,-0.365303622954619,-0.10214130639733,ST
6.86666666666667,-3.59663367271423,1.25251138210297,9.63010215759277,1.33385002613068,1.28049600124359,0.960371971130371,-1051.5,-5.10000038146973,-899.700012207031,-2.77768231586467,-0.357361028609461,-0.130118443622387,ST
6.9,-3.42676115036011,1.42716908454895,9.46142578125,1.28049600124359,0.320124000310898,0.815553963184357,-1046.70007324219,-9.30000019073486,-909.300048828125,-2.78593632081982,-0.345436662032577,-0.150470318522785,ST
6.93333333333333,-3.35318946838379,1.27763342857361,9.06904411315918,0.907018005847931,-0.861285984516144,0.685979962348938,-1058.70007324219,-8.10000038146973,-911.700012207031,-2.78401387991159,-0.34896024955497,-0.142672302678274,ST
6.96666666666667,-3.90647172927856,1.43853390216827,9.62950325012207,0.190549999475479,-0.198172003030777,0.594515979290009,-1063.5,-5.70000028610229,-911.700012207031,-2.78763011266827,-0.37816285490339,-0.148427313502675,ST
7.0,-3.64807391166687,1.47621691226959,9.44288349151611,0.335367977619171,-0.327746003866196,1.40244793891907,-1053.90002441406,-8.10000038146973,-892.500061035156,-2.79420000401537,-0.364995925843159,-0.155825709837019,ST
7.03333333333333,-3.25748658180237,1.14424753189087,8.50140571594238,0.106707997620106,-0.320124000310898,1.39482593536377,-1049.10009765625,-11.7000007629395,-894.900024414062,-2.79173882816369,-0.362263284214121,-0.136443774186432,ST
7.06666666666667,-3.54579162597656,1.4080286026001,8.42065715789795,-0.0228659994900227,0.0,0.884151995182037,-1063.5,-11.7000007629395,-899.700012207031,-2.80470992399681,-0.390834875470565,-0.163760479841382,ST
7.1,-3.78624510765076,1.54201257228851,9.02896785736084,0.510673999786377,0.525918006896973,1.32622802257538,-1049.10009765625,-6.30000019073486,-914.100036621094,-2.81102388273367,-0.392336031802519,-0.170391652966632,ST
7.13333333333333,-3.55057668685913,1.4540855884552,8.97035026550293,0.891773998737335,0.0304879993200302,0.960371971130371,-1065.90002441406,-11.7000007629395,-897.300048828125,-2.81050142226621,-0.373635120720895,-0.163422335875017,ST
7.16666666666667,-3.74018788337708,1.77349388599396,9.11689472198486,1.02897000312805,-0.213415995240211,0.602137982845306,-1056.30004882812,-5.10000038146973,-906.900024414062,-2.82132330549504,-0.381501106478029,-0.191505601261869,ST
7.2,-3.73958992958069,1.84048593044281,8.62582015991211,1.28811800479889,-0.533540010452271,0.67835795879364,-1061.10009765625,-12.3000001907349,-902.100036621094,-2.82891370339416,-0.398478313151394,-0.211248156038349,ST
7.23333333333333,-3.74736571311951,1.63532292842865,8.35366439819336,0.746955990791321,0.221037998795509,0.6250039935112,-1058.70007324219,-9.90000057220459,-899.700012207031,-2.82418594259292,-0.413390294162589,-0.196591186691122,ST
7.26666666666667,-3.57809114456177,1.46126329898834,8.25138187408447,-0.152439996600151,0.487807989120483,0.350611984729767,-1051.5,-8.70000076293945,-894.900024414062,-2.8180765726606,-0.405115224040354,-0.177248831123339,ST
7.3,-3.8478536605835,1.30275535583496,8.6383810043335,-0.586893975734711,0.571649968624115,0.0609759986400604,-1049.10009765625,-9.30000019073486,-923.700012207031,-2.80895138596312,-0.415059056628291,-0.15092641423442,ST
7.33333333333333,-3.60560584068298,1.2818204164505,9.02179050445557,-0.663114011287689,0.205793991684914,0.0228659994900227,-1051.5,-10.5,-914.100036621094,-2.80614988634049,-0.380264589956739,-0.140908307139079,ST
7.36666666666667,-3.31431031227112,1.16219174861908,9.12586688995361,-0.442075997591019,-0.701223969459534,0.0,-1061.10009765625,-5.70000028610229,-894.900024414062,-2.80150494614484,-0.347810178286022,-0.127189140975976,ST
7.4,-2.88663792610168,1.23097825050354,8.429030418396,-0.213415995240211,-1.53964400291443,-0.6250039935112,-1051.5,-6.90000009536743,-892.500061035156,-2.80403685088021,-0.325842493748975,-0.142986970552602,ST
7.43333333333333,-3.10854911804199,1.1837249994278,8.47747993469238,0.0304879993200302,-1.05945801734924,-0.548784017562866,-1046.70007324219,-11.7000007629395,-904.500061035156,-2.80036109283911,-0.344770417079202,-0.138782274603237,ST
7.46666666666667,-3.42676115036011,0.946262180805206,8.75322437286377,-0.297257989645004,0.0152439996600151,-0.655492007732391,-1058.70007324219,-9.90000057220459,-899.700012207031,-2.78844549683109,-0.368948341290484,-0.109661673631132,ST
7.5,-3.6731960773468,1.18910825252533,9.55114650726318,-0.25152599811554,0.297257989645004,-0.693601965904236,-1051.5,-3.30000019073486,-904.500061035156,-2.79099941003644,-0.365574431962291,-0.121783091013756,ST
7.53333333333333,-3.09598803520203,0.979160070419312,8.87943267822266,0.457319974899292,-0.945127964019775,-0.663114011287689,-1061.10009765625,-5.70000028610229,-904.500061035156,-2.78421289245449,-0.334874952229279,-0.111103184054148,ST
7.56666666666667,-3.35618019104004,0.988132178783417,8.38656234741211,0.0685980021953583,-0.792688012123108,-1.14329993724823,-1065.90002441406,-5.10000038146973,-909.300048828125,-2.78177613930653,-0.37365514769913,-0.116119450126155,ST
7.6,-3.61218547821045,1.11194777488708,8.91352653503418,0.121951997280121,0.274392008781433,-0.640248000621796,-1051.5,-9.30000019073486,-892.500061035156,-2.78229523072571,-0.382112916468547,-0.12319388055723,ST
7.63333333333333,-3.62355017662048,0.840988993644714,9.29454326629639,0.266770005226135,0.952749967575073,0.0533539988100529,-1051.5,-11.1000003814697,-916.500061035156,-2.77158356915202,-0.372934656276593,-0.0937153267555956,ST
7.66666666666667,-3.23774790763855,0.473131090402603,9.21140193939209,-0.480185985565186,0.0685980021953583,-0.381099998950958,-1046.70007324219,-10.5,-911.700012207031,-2.75673801000741,-0.340191826303888,-0.05319305636244,ST
7.7,-3.36515235900879,0.626853823661804,9.26822566986084,-0.884151995182037,-0.67835795879364,-0.861285984516144,-1058.70007324219,-0.900000035762787,-904.500061035156,-2.7585778794605,-0.345901496203024,-0.0643116257354061,ST
7.73333333333333,-3.73659920692444,0.705210566520691,9.6342887878418,-0.259148001670837,-0.564027965068817,-0.0685980021953583,-1061.10009765625,-5.70000028610229,-904.500061035156,-2.7611520962154,-0.366102013298219,-0.0717907903338218,ST
7.76666666666667,-3.41180753707886,0.503636360168457,9.40280723571777,0.0457319989800453,-0.510673999786377,0.426831990480423,-1061.10009765625,-9.90000057220459,-904.500061035156,-2.75664632327049,-0.348153437810794,-0.0551891938918789,ST
7.8,-3.30653429031372,0.425279647111893,9.28377723693848,0.274392008781433,-0.823175966739655,0.114329993724823,-1058.70007324219,-7.50000047683716,-897.300048828125,-2.75383205352947,-0.341083399392414,-0.0471045387105345,ST
7.83333333333333,-3.36156344413757,0.599339246749878,9.56968975067139,0.274392008781433,-1.12043392658234,-0.213415995240211,-1053.90002441406,-11.7000007629395,-916.500061035156,-2.75737644749349,-0.335795276957642,-0.061431150740732,ST
7.86666666666667,-3.01942563056946,0.772202551364899,8.89139556884766,0.236281991004944,-1.90549993515015,-0.160062000155449,-1061.10009765625,-4.5,-904.500061035156,-2.76367321270823,-0.323827458102211,-0.0851124656028451,ST
7.9,-3.07146406173706,0.697434723377228,8.35426330566406,0.0533539988100529,-1.50915598869324,0.304879993200302,-1065.90002441406,-6.90000009536743,-902.100036621094,-2.76370506261384,-0.346286837043535,-0.0836414393467384,ST
7.93333333333333,-3.14623212814331,0.691453278064728,8.70058727264404,-0.403965979814529,-0.198172003030777,0.884151995182037,-1073.10009765625,-6.90000009536743,-909.300048828125,-2.76560402428609,-0.345577917908572,-0.0795512406728589,ST
7.96666666666667,-3.27303838729858,0.762034118175507,9.05169773101807,-0.37347799539566,0.167683988809586,1.41769194602966,-1056.30004882812,-11.1000003814697,-894.900024414062,-2.7721228576239,-0.345893692453144,-0.0838104253594904,ST
8.0,-2.74308371543884,0.571824669837952,8.53191089630127,-0.0762199983000755,-0.144817993044853,1.60061991214752,-1065.90002441406,-11.1000003814697,-911.700012207031,-2.77302183129131,-0.312440301994475,-0.0687945749481306,ST
8.03333333333333,-2.9303023815155,0.869699895381927,8.23164367675781,0.548784017562866,0.129574000835419,1.09756803512573,-1063.5,-12.9000005722046,-897.300048828125,-2.78763739986573,-0.338380429022885,-0.104246339519846,ST
8.06666666666667,-3.38847994804382,0.83560574054718,9.25686073303223,0.724089980125427,1.08994603157043,1.30336201190948,-1063.5,-10.5,-906.900024414062,-2.78765016355089,-0.350109261331026,-0.0932715026586337,ST
8.1,-3.41001296043396,0.694444000720978,9.85380744934082,-0.0,0.861285984516144,0.899396002292633,-1065.90002441406,-7.50000047683716,-911.700012207031,-2.78396971363938,-0.335260265538342,-0.0729539577314884,ST
8.13333333333333,-3.332852602005,0.949851036071777,9.56490421295166,0.167683988809586,-0.137196004390717,0.975615978240967,-1058.70007324219,-8.10000038146973,-904.500061035156,-2.79494357715019,-0.333553397228506,-0.0974209215799037,ST
8.16666666666667,-3.18570947647095,0.849363029003143,9.28975868225098,0.701223969459534,-0.434453994035721,1.12043392658234,-1065.90002441406,-9.90000057220459,-902.100036621094,-2.79637269712424,-0.328636365788808,-0.0934376002530744,ST
8.2,-2.93568563461304,0.721360445022583,8.9655647277832,0.632625997066498,-0.6250039935112,0.87652999162674,-1065.90002441406,-9.30000019073486,-914.100036621094,-2.79503371669884,-0.315570953085535,-0.0829040969410389,ST
8.23333333333333,-3.04634213447571,1.06469452381134,8.84952545166016,0.67835795879364,-0.304879993200302,0.533540010452271,-1056.30004882812,-9.90000057220459,-904.500061035156,-2.80693526424256,-0.327526303834649,-0.117729061812443,ST
8.26666666666667,-3.32507681846619,1.32488667964935,8.99248123168945,1.20427596569061,0.0685980021953583,0.952749967575073,-1051.5,-9.30000019073486,-906.900024414062,-2.81807607082476,-0.348501762071827,-0.1461324398922,ST
8.3,-3.09000658988953,1.40922486782074,8.49662113189697,1.05183601379395,0.266770005226135,1.08994603157043,-1070.70007324219,-17.1000003814697,-921.300048828125,-2.82714799632681,-0.344918650647002,-0.165334605230094,ST
8.33333333333333,-3.54399704933167,1.66941702365875,9.21259784698486,0.693601965904236,0.487807989120483,1.03659200668335,-1068.30004882812,-16.5,-909.300048828125,-2.83488412740668,-0.36080040057285,-0.179755779952135,ST
8.36666666666667,-3.74736571311951,2.07136917114258,10.1690282821655,0.670735955238342,0.152439996600151,1.10518991947174,-1053.90002441406,-6.30000019073486,-916.500061035156,-2.84497603925881,-0.347716013895335,-0.200747385534808,ST
8.4,-3.11393237113953,2.1610906124115,9.17910194396973,1.10518991947174,-1.08232402801514,1.44817996025085,-1056.30004882812,-6.90000009536743,-916.500061035156,-2.85776099876368,-0.318897859817604,-0.231361974616635,ST
8.43333333333333,-2.90876936912537,1.96310520172119,8.16824054718018,1.12805593013763,-0.884151995182037,1.31860601902008,-1063.5,-7.50000047683716,-909.300048828125,-2.86218555353388,-0.3302646203006,-0.23788108622168,ST
8.46666666666667,-3.33404898643494,2.12639832496643,8.85490894317627,0.716467976570129,0.0685980021953583,0.884151995182037,-1073.10009765625,-14.1000003814697,-911.700012207031,-2.86408584118564,-0.348859706365215,-0.237515976885095,ST
8.5,-3.61278343200684,2.37103867530823,9.64565372467041,1.18140995502472,0.0533539988100529,0.746955990791321,-1061.10009765625,-13.5000009536743,-911.700012207031,-2.86710433292681,-0.348641532176666,-0.243149718986449,ST
8.53333333333333,-3.6253445148468,2.17245531082153,8.70776557922363,1.07470202445984,0.182927995920181,0.617381989955902,-1063.5,-13.5000009536743,-897.300048828125,-2.8690319393071,-0.380762000868608,-0.246484968792819,ST
8.56666666666667,-3.23595356941223,1.89192616939545,8.1132116317749,-0.228659987449646,0.701223969459534,-0.25152599811554,-1068.30004882812,-9.30000019073486,-911.700012207031,-2.8630929754117,-0.372600475862108,-0.230247929629341,ST
8.6,-3.48956608772278,1.7986159324646,8.16524982452393,-0.495429992675781,0.663114011287689,-0.510673999786377,-1053.90002441406,-8.70000076293945,-890.100036621094,-2.85765864123395,-0.394530103328903,-0.217022086658056,ST
8.63333333333333,-3.76770257949829,1.56115317344666,8.36443138122559,-0.548784017562866,0.990859985351562,-0.602137982845306,-1068.30004882812,-14.1000003814697,-916.500061035156,-2.84504687337922,-0.416574632301945,-0.186333000391526,ST
8.66666666666667,-3.71805667877197,1.33445692062378,8.81244087219238,-0.731711983680725,0.823175966739655,-0.983237981796265,-1061.10009765625,-11.7000007629395,-904.500061035156,-2.82909005727376,-0.398138155149428,-0.150735948964624,ST
8.7,-3.69472908973694,1.33565330505371,8.83516979217529,-0.571649968624115,0.0,-1.05183601379395,-1053.90002441406,-13.5000009536743,-914.100036621094,-2.82542126072663,-0.392748185411759,-0.148455474932185,ST
8.73333333333333,-3.5673246383667,1.29019439220428,8.89917087554932,-0.442075997591019,-0.495429992675781,-0.792688012123108,-1061.10009765625,-15.9000005722046,-897.300048828125,-2.82100559870569,-0.378093522207615,-0.143007861954831,ST
8.76666666666667,-3.41360187530518,1.42058956623077,8.4296293258667,-0.282013982534409,-0.724089980125427,-0.762199997901917,-1065.90002441406,-5.10000038146973,-899.700012207031,-2.82626691912874,-0.378824919979904,-0.163789020643475,ST
8.8,-3.40403175354004,1.52885341644287,9.05289363861084,0.106707997620106,-0.716467976570129,-0.365855991840363,-1058.70007324219,-5.10000038146973,-902.100036621094,-2.8256956489067,-0.356178596332724,-0.166869205878886,ST
8.83333333333333,-3.24731826782227,1.51449799537659,9.23293495178223,0.259148001670837,-1.37195992469788,-0.129574000835419,-1049.10009765625,-9.30000019073486,-902.100036621094,-2.82300023702359,-0.333949646121376,-0.163184343168001,ST
8.86666666666667,-3.10854911804199,1.46664655208588,8.46790981292725,-0.0533539988100529,-1.42531394958496,-0.0228659994900227,-1051.5,-6.30000019073486,-906.900024414062,-2.82464844233831,-0.343660436662793,-0.170509342030708,ST
8.9,-3.42855548858643,1.49236667156219,8.94582653045654,-0.190549999475479,-0.419209986925125,0.205793991684914,-1053.90002441406,-8.70000076293945,-902.100036621094,-2.82360536624525,-0.359242782091237,-0.165508546813082,ST
8.93333333333333,-3.24253296852112,1.24054849147797,9.20841121673584,-0.556405961513519,-0.289635986089706,0.632625997066498,-1049.10009765625,-9.30000019073486,-909.300048828125,-2.8161518808625,-0.336775742102583,-0.135500819290959,ST
8.96666666666667,-3.42975187301636,1.1095552444458,9.35914325714111,-1.11281192302704,-0.6250039935112,0.571649968624115,-1077.90002441406,-2.10000014305115,-882.900024414062,-2.81320548273579,-0.346815575790281,-0.118105596240842,ST
9.0,-2.91116189956665,0.835007607936859,8.82799243927002,-1.42531394958496,-0.609759986400604,0.891773998737335,-1068.30004882812,-3.90000009536743,-923.700012207031,-2.80982185481855,-0.318793955944803,-0.0946218005510199,ST
9.03333333333333,-3.51468801498413,0.840390861034393,9.57507228851318,-1.63110792636871,-0.670735955238342,0.754577994346619,-1065.90002441406,-12.3000001907349,-890.100036621094,-2.81111415543671,-0.346518349969286,-0.0859878282398928,ST
9.06666666666667,-3.59483933448792,0.771006286144257,9.60139083862305,-1.30336201190948,-0.274392008781433,1.18140995502472,-1063.5,-9.90000057220459,-911.700012207031,-2.81410284156642,-0.355646146140862,-0.0792688540801887,ST
9.1,-2.93807816505432,0.410924226045609,9.13184833526611,-1.20427596569061,-0.419209986925125,0.99848198890686,-1056.30004882812,-7.50000047683716,-909.300048828125,-2.80814213525897,-0.313021017353704,-0.0456441390282619,ST
9.13333333333333,-2.77358889579773,0.491075366735458,9.22695350646973,-1.18140995502472,-1.48628997802734,0.403965979814529,-1077.90002441406,-11.1000003814697,-902.100036621094,-2.81212995275676,-0.290802644661135,-0.0508632561694719,ST
9.16666666666667,-2.8040943145752,0.467149674892426,8.56301498413086,-0.571649968624115,-1.6844619512558,0.426831990480423,-1061.10009765625,-8.70000076293945,-923.700012207031,-2.81459505723342,-0.311033913001776,-0.0534284866367317,ST
9.2,-3.12529706954956,0.444420218467712,8.8878059387207,-0.815553963184357,-0.335367977619171,-0.121951997280121,-1075.5,-1.5,-897.300048828125,-2.81360543770325,-0.334805112633825,-0.0489059759323764,ST
9.23333333333333,-3.74138426780701,0.929514169692993,9.63488674163818,-0.167683988809586,0.297257989645004,0.381099998950958,-1073.10009765625,-8.10000038146973,-909.300048828125,-2.82985432667742,-0.366210413362159,-0.0918181707465445,ST
9.26666666666667,-3.07983827590942,0.718369722366333,9.35076904296875,0.548784017562866,-0.0838419944047928,1.31860601902008,-1053.90002441406,-6.30000019073486,-906.900024414062,-2.82936090590083,-0.321430127738026,-0.0796020878554108,ST
9.3,-2.77957034111023,0.860129594802856,8.70477485656738,0.3125019967556,-1.20427596569061,0.800309956073761,-1077.90002441406,-9.90000057220459,-916.500061035156,-2.83706809822176,-0.306662280837257,-0.0979278098819982,ST
9.33333333333333,-3.18092441558838,1.22021162509918,8.88003063201904,0.914639949798584,-0.914639949798584,1.10518991947174,-1068.30004882812,-6.30000019073486,-909.300048828125,-2.85101836853381,-0.336259518640569,-0.135003676194665,ST
9.36666666666667,-2.6336236000061,0.973776757717133,9.29035663604736,0.945127964019775,-0.87652999162674,1.12805593013763,-1073.10009765625,-6.30000019073486,-911.700012207031,-2.84557842785904,-0.278299516035506,-0.108915125876099,ST
9.4,-2.64139938354492,1.07187223434448,8.57617378234863,0.182927995920181,-1.6692179441452,-0.198172003030777,-1085.10009765625,-4.5,-909.300048828125,-2.8480508665418,-0.292586787603014,-0.1232701712785,ST
9.43333333333333,-2.98473334312439,0.929514169692993,8.79928112030029,-0.205793991684914,-0.0762199983000755,-0.0762199983000755,-1085.10009765625,-6.90000009536743,-897.300048828125,-2.84291997668992,-0.322273880736375,-0.106523019530727,ST
9.46666666666667,-2.68984889984131,1.02282452583313,9.0792121887207,-0.0838419944047928,0.160062000155449,-0.609759986400604,-1080.30004882812,-5.10000038146973,-897.300048828125,-2.84240139040868,-0.289391789281547,-0.111337492137009,ST
9.5,-3.18750381469727,1.04196500778198,9.0792121887207,0.381099998950958,0.0457319989800453,-0.457319974899292,-1080.30004882812,-9.30000019073486,-904.500061035156,-2.84144068440839,-0.331568548138485,-0.114364477362074,ST
9.53333333333333,-2.95901322364807,0.90977543592453,9.18747615814209,0.0685980021953583,0.37347799539566,-0.640248000621796,-1080.30004882812,-8.10000038146973,-906.900024414062,-2.83482973334287,-0.31279320659369,-0.0999054468992409,ST
9.56666666666667,-3.10974526405334,1.24652993679047,9.44647216796875,-0.0685980021953583,-0.685979962348938,-0.975615978240967,-1082.70007324219,-5.70000028610229,-909.300048828125,-2.8400337900631,-0.314348705072422,-0.12771243502254,ST
9.6,-3.1528115272522,1.41879510879517,9.73537540435791,0.434453994035721,-1.04421401023865,-0.274392008781433,-1077.90002441406,-9.90000057220459,-906.900024414062,-2.84309902633947,-0.308930894073637,-0.143656690864539,ST
9.63333333333333,-2.94166707992554,1.61319160461426,9.5864372253418,0.945127964019775,-1.36433792114258,0.121951997280121,-1070.70007324219,-7.50000047683716,-916.500061035156,-2.84847910863904,-0.293045761118446,-0.166089367683167,ST
9.66666666666667,-2.30524301528931,1.28720366954803,8.53729438781738,1.05945801734924,-1.01372599601746,0.350611984729767,-1092.30004882812,-6.30000019073486,-909.300048828125,-2.84448775716214,-0.262151337879174,-0.152885813770201,ST
9.7,-2.41350698471069,1.24413740634918,8.52054691314697,0.564027965068817,-0.449698001146317,-0.510673999786377,-1068.30004882812,-6.30000019073486,-902.100036621094,-2.84034295129658,-0.271681530276883,-0.14635333149851,ST
9.73333333333333,-2.89680647850037,1.73282015323639,9.17670917510986,0.518296003341675,-0.724089980125427,-0.655492007732391,-1097.10009765625,-14.7000007629395,-904.500061035156,-2.84769412920405,-0.297432434774723,-0.183728023168315,ST
9.76666666666667,-2.88364720344543,1.61917304992676,9.16055965423584,0.746955990791321,-0.701223969459534,0.114329993724823,-1073.10009765625,-4.5,-911.700012207031,-2.8447724692713,-0.299221166098984,-0.176761022509151,ST
9.8,-2.84656238555908,1.43913197517395,9.37888145446777,0.190549999475479,-0.320124000310898,-0.190549999475479,-1075.5,-8.10000038146973,-916.500061035156,-2.83735104777063,-0.291711045938984,-0.154656032387122,ST
9.83333333333333,-2.85254383087158,1.40982294082642,9.53439903259277,0.160062000155449,-0.503051996231079,-0.472563982009888,-1075.5,-3.30000019073486,-897.300048828125,-2.83335625013051,-0.287432683443672,-0.14751180276084,ST
9.86666666666667,-2.88723611831665,1.36855113506317,9.44407939910889,0.335367977619171,-0.670735955238342,-0.411587983369827,-1075.5,-8.10000038146973,-904.500061035156,-2.83036512456408,-0.292347629008548,-0.144479001763394,ST
9.9,-2.56124830245972,1.10297560691833,8.05818176269531,-0.525918006896973,-1.71494996547699,-1.00610399246216,-1077.90002441406,-4.5,-892.500061035156,-2.82402238745185,-0.30152623008181,-0.135280698162491,ST
9.93333333333333,-3.20963525772095,1.1615936756134,8.4296293258667,-0.99848198890686,-1.16616594791412,-0.990859985351562,-1077.90002441406,-8.10000038146973,-894.900024414062,-2.82110973413271,-0.354162575741148,-0.134539700941156,ST
9.96666666666667,-3.06189393997192,1.02820777893066,9.41118144989014,-0.800309956073761,-0.114329993724823,-0.152439996600151,-1087.5,-9.90000057220459,-909.300048828125,-2.81331911486448,-0.316401435989693,-0.109762345513438,ST
10.0,-2.6037163734436,0.637620389461517,10.1534767150879,-0.884151995182037,-1.62348592281342,-0.236281991004944,-1087.5,-6.90000009536743,-911.700012207031,-2.80043317338368,-0.253997772455482,-0.0653471433835032,ST
10.0333333333333,-2.68446564674377,0.665134966373444,9.81014251708984,-0.983237981796265,-2.33995389938354,-0.472563982009888,-1080.30004882812,2.10000014305115,-906.900024414062,-2.79929351701126,-0.261730237521253,-0.0656564496944853,ST
10.0666666666667,-2.10426688194275,0.593357801437378,9.30112361907959,-0.777444005012512,-1.84452390670776,-0.0685980021953583,-1092.30004882812,-4.5,-902.100036621094,-2.79855927868964,-0.222395410941213,-0.0625553896302964,ST
10.1,-2.1252019405365,0.479112505912781,8.57138919830322,-0.655492007732391,-1.52439999580383,0.259148001670837,-1085.10009765625,-12.3000001907349,-906.900024414062,-2.79803365662759,-0.238402292676572,-0.0554735424707258,ST
10.1333333333333,-2.6037163734436,0.450999796390533,9.26344013214111,-0.365855991840363,0.121951997280121,0.746955990791321,-1089.90002441406,-2.10000014305115,-902.100036621094,-2.79924298547537,-0.270637073454109,-0.0490120775525432,ST
10.1666666666667,-1.40922486782074,0.462962657213211,8.3877592086792,-0.236281991004944,-0.800309956073761,0.541162014007568,-1089.90002441406,-6.90000009536743,-916.500061035156,-2.80228361344755,-0.174356516230836,-0.0543795161879427,ST
10.2,-2.64678263664246,0.507225215435028,9.0612678527832,-0.129574000835419,-0.0152439996600151,0.868907988071442,-1089.90002441406,-5.70000028610229,-892.500061035156,-2.80564794666934,-0.273753593134645,-0.0559267544391779,ST
10.2333333333333,-2.60551071166992,0.410326063632965,11.0782060623169,-0.480185985565186,0.861285984516144,1.09756803512573,-1097.10009765625,-4.5,-906.900024414062,-2.80572411804785,-0.235119977062297,-0.0379814960484866,ST
10.2666666666667,-2.28370976448059,0.397166937589645,9.92977142333984,-0.449698001146317,-0.37347799539566,1.43293595314026,-1101.90002441406,-4.5,-914.100036621094,-2.81153337336392,-0.225884566378416,-0.0396304809656888,ST
10.3,-2.48229336738586,0.260790348052979,9.41477012634277,-0.632625997066498,0.236281991004944,1.2347639799118,-1082.70007324219,-12.9000005722046,-911.700012207031,-2.81375897365651,-0.255619702619204,-0.0280901040702172,ST
10.3333333333333,-2.1012761592865,0.0065795728005468,9.9853982925415,-0.846041977405548,0.381099998950958,1.12043392658234,-1089.90002441406,0.900000035762787,-909.300048828125,-2.81228781370325,-0.211999474174765,-0.0019522560027066,ST
10.3666666666667,-1.62276184558868,0.177050322294235,8.32914066314697,-0.754577994346619,-1.05183601379395,-0.0838419944047928,-1097.10009765625,-3.90000009536743,-902.100036621094,-2.81576188087591,-0.192488843350023,-0.0182844216228602,ST
10.4,-2.7741870880127,-0.0634031519293785,9.1569709777832,-0.282013982534409,1.34909391403198,0.25152599811554,-1092.30004882812,-2.70000004768372,-916.500061035156,-2.81128334281539,-0.28936161191809,0.0054922108691254,LD
10.4333333333333,-2.71497106552124,0.0269164331257343,9.84842395782471,-0.602137982845306,1.95123195648193,-0.259148001670837,-1082.70007324219,-7.50000047683716,-909.300048828125,-2.81278106941424,-0.273679447842401,-0.0010284817718746,LD
10.4666666666667,-2.96798539161682,0.433055520057678,9.24848651885986,0.663114011287689,1.71494996547699,0.754577994346619,-1087.5,-3.90000009536743,-916.500061035156,-2.82748456585829,-0.310201854790071,-0.0447861118753976,LD
10.5,-2.48348951339722,0.355895072221756,8.84234714508057,0.952749967575073,1.15854394435883,0.716467976570129,-1087.5,-3.30000019073486,-926.100036621094,-2.82854333658823,-0.277946770172874,-0.0424444597999371,LD
10.5333333333333,-2.4978449344635,0.537132382392883,8.29983234405518,0.807931959629059,0.503051996231079,0.228659987449646,-1080.30004882812,-6.90000009536743,-909.300048828125,-2.83476996765421,-0.291504372077976,-0.0643749370221768,LD
10.5666666666667,-2.8621141910553,0.656162858009338,8.25915813446045,0.87652999162674,0.891773998737335,0.175305992364883,-1075.5,-9.30000019073486,-897.300048828125,-2.83923211800245,-0.330287862479626,-0.0794380354138833,LD
10.6,-3.17434477806091,0.395970642566681,9.52781963348389,0.320124000310898,1.60824191570282,0.167683988809586,-1077.90002441406,-5.70000028610229,-916.500061035156,-2.82863086801574,-0.324571456431288,-0.0447832302212539,LD
10.6333333333333,-2.5678277015686,0.403148353099823,9.1629524230957,-0.182927995920181,0.0457319989800453,-0.586893975734711,-1070.70007324219,-3.30000019073486,-918.900024414062,-2.82649849883454,-0.277762000940276,-0.043477986913832,LD
10.6666666666667,-2.88544178009033,0.787156164646149,9.80117034912109,1.02134799957275,-1.70732796192169,-0.266770005226135,-1068.30004882812,-3.30000019073486,-911.700012207031,-2.83389768784411,-0.282123161731205,-0.0785543414420904,LD
10.7,-2.46076011657715,0.696836590766907,8.69041919708252,1.29574000835419,-2.62196803092957,-0.365855991840363,-1085.10009765625,-11.1000003814697,-909.300048828125,-2.83162004963423,-0.271629762487607,-0.0816814512600648,LD
10.7333333333333,-3.13486742973328,1.33864402770996,9.93934154510498,1.07470202445984,-2.43903994560242,-0.213415995240211,-1089.90002441406,2.10000014305115,-890.100036621094,-2.84276612852839,-0.296935533147163,-0.131742006203461,LD
10.7666666666667,-2.72573757171631,1.50373148918152,9.91481781005859,1.44817996025085,-3.353679895401,0.556405961513519,-1094.70007324219,-7.50000047683716,-916.500061035156,-2.84701399178227,-0.262042047415469,-0.15161393700702,LD
10.8,-2.1491277217865,1.4080286026001,8.33811283111572,1.37195992469788,-4.65704202651978,0.861285984516144,-1094.70007324219,-6.90000009536743,-914.100036621094,-2.85029020490951,-0.242556434773287,-0.168084036615516,LD
10.8333333333333,-2.36326289176941,1.2578946352005,9.14201736450195,0.746955990791321,-5.05338573455811,0.975615978240967,-1104.30004882812,-4.5,-909.300048828125,-2.84367880009766,-0.241799056730748,-0.140215771805073,LD
10.8666666666667,-2.33933711051941,1.20705246925354,9.35495567321777,-0.0076219998300075,-6.69211578369141,1.01372599601746,-1106.70007324219,-3.30000019073486,-916.500061035156,-2.84151782479376,-0.232085564069897,-0.129259199166179,LD
10.9,-2.948246717453,1.28122222423553,10.4549407958984,-0.190549999475479,-7.27900981903076,1.28049600124359,-1118.70007324219,-1.5,-902.100036621094,-2.84133086379475,-0.258112986104085,-0.12229920980331,LD
10.9333333333333,-1.81715834140778,1.09101283550262,10.696590423584,-0.213415995240211,-8.14791774749756,1.29574000835419,-1135.5,-5.70000028610229,-904.500061035156,-2.83885533506727,-0.160978211832443,-0.102969823184669,LD
10.9666666666667,-0.626853823661804,1.2578946352005,10.246787071228,0.0609759986400604,-10.8308620452881,0.807931959629059,-1154.70007324219,-6.30000019073486,-906.900024414062,-2.83924536731403,-0.0525139089029831,-0.120479550294445,LD
11.0,-0.23925718665123,1.2178190946579,9.07502555847168,0.129574000835419,-13.5366716384888,-0.221037998795509,-1169.10009765625,-0.300000011920929,-894.900024414062,-2.83288363447752,-0.0072489361026698,-0.132384141986585,LD
11.0333333333333,0.584983825683594,0.974374890327454,8.28906536102295,-0.510673999786377,-13.5519161224365,-0.342989981174469,-1181.10009765625,-2.10000014305115,-890.100036621094,-2.82641441454963,0.0842773776214607,-0.117806273651252,LD
11.0666666666667,1.89252436161041,0.855344474315643,7.18429517745972,-1.34909391403198,-14.6418619155884,-0.868907988071442,-1209.90002441406,-5.10000038146973,-890.100036621094,-2.81688137257787,0.263184047961413,-0.117273680392888,LD
11.1,2.03847122192383,0.842783451080322,7.07304048538208,-1.43293595314026,-12.5686779022217,-1.05945801734924,-1219.5,-2.10000014305115,-868.500061035156,-2.80708663654402,0.296941721141355,-0.117399838802254,LD
11.1333333333333,2.42128276824951,0.665733098983765,8.90335845947266,-1.86738991737366,-8.84151935577393,-0.769822001457214,-1241.10009765625,-2.10000014305115,-861.300048828125,-2.81175578560934,0.281630764957779,-0.0761884407708196,LD
11.1666666666667,2.4517879486084,0.595152258872986,11.5938053131104,-1.72257196903229,-7.81254959106445,-0.259148001670837,-1243.5,-2.70000004768372,-856.500061035156,-2.81396269166244,0.225851897677075,-0.0504439162081464,LD
11.2,3.99679136276245,0.144152462482452,10.5554294586182,-2.04269599914551,-7.32474184036255,0.243903994560242,-1255.5,-2.10000014305115,-854.100036621094,-2.82257853274899,0.361237675741958,-0.013820646492674,LD
11.2333333333333,4.36106061935425,-0.101086162030697,9.57208156585693,-2.43141794204712,-6.54729795455933,-0.190549999475479,-1269.90002441406,-3.30000019073486,-851.700012207031,-2.82859345240742,0.434056538701745,0.0128880643590692,LD
11.2666666666667,4.42745447158813,-0.116039738059044,8.49063968658447,-1.76068198680878,-2.66770005226135,-0.564027965068817,-1269.90002441406,-2.10000014305115,-846.900024414062,-2.82562038913549,0.480658054479598,0.0159731064888167,LD
11.3,3.94116401672363,-0.45638307929039,8.44876956939697,-1.36433792114258,0.342989981174469,-0.350611984729767,-1274.70007324219,-6.90000009536743,-854.100036621094,-2.83862420393886,0.439468121781383,0.0524781696421736,LD
11.3333333333333,3.48179030418396,-0.0556272976100445,9.401611328125,-0.945127964019775,0.144817993044853,-0.434453994035721,-1274.70007324219,-1.5,-844.500061035156,-2.81948249653286,0.360890603263524,0.0105441432070993,LD
11.3666666666667,3.38788175582886,-0.139965459704399,8.417067527771,-0.144817993044853,-0.0914639979600906,0.282013982534409,-1286.70007324219,3.90000009536743,-842.100036621094,-2.8224449862759,0.381115526980573,0.0165795472878223,LD
11.4,3.65584993362427,-0.264977335929871,9.63309288024902,-0.365855991840363,0.0609759986400604,0.571649968624115,-1260.30004882812,-3.90000009536743,-844.500061035156,-2.82777837226406,0.364150585457448,0.0274472255824699,LD
11.4333333333333,3.97705268859863,0.0263182912021875,9.22575759887695,0.0381099991500378,-1.75305998325348,0.609759986400604,-1269.90002441406,-8.70000076293945,-834.900024414062,-2.81963427344415,0.405923998832589,0.0002836415077287,LD
11.4666666666667,4.03866147994995,0.0245238617062569,8.48585414886475,0.739333987236023,-1.05183601379395,1.2500079870224,-1274.70007324219,2.70000004768372,-844.500061035156,-2.82333103567421,0.44241379693079,-0.0028547492625767,LD
11.5,3.76650619506836,-0.0568235814571381,8.40091800689697,0.571649968624115,0.358233988285065,1.50915598869324,-1272.30004882812,2.70000004768372,-846.900024414062,-2.83303212091964,0.422460320693407,0.0062272097201274,LD
11.5333333333333,3.60560584068298,-0.295482635498047,8.35366439819336,0.0685980021953583,0.78506600856781,1.55488801002502,-1279.5,3.90000009536743,-844.500061035156,-2.84976131917122,0.406945197470324,0.0343345135400333,LD
11.5666666666667,3.39745211601257,-0.334361910820007,9.05050086975098,-0.0990860015153885,1.41006994247437,1.22714197635651,-1274.70007324219,3.90000009536743,-834.900024414062,-2.85497713502871,0.359826767533096,0.0376479935733846,LD
11.6,3.31431031227112,0.0053832866251468,9.59720420837402,0.320124000310898,0.708845973014832,0.769822001457214,-1257.90002441406,5.70000028610229,-842.100036621094,-2.84595406150162,0.333251095152014,0.0019572486577109,LD
11.6333333333333,3.30653429031372,-0.0502440109848976,9.77245998382568,0.640248000621796,0.0457319989800453,1.03659200668335,-1269.90002441406,0.900000035762787,-834.900024414062,-2.85111064602356,0.326704106378796,0.0044379183741046,LD
11.6666666666667,3.5912504196167,-0.068188302218914,9.96984672546387,-0.0914639979600906,0.129574000835419,0.92988395690918,-1274.70007324219,0.900000035762787,-846.900024414062,-2.85526377305869,0.344206112364883,0.0073580193128275,LD
11.7,3.77787089347839,0.0466551519930363,8.93206882476807,-0.0533539988100529,-0.0914639979600906,0.693601965904236,-1286.70007324219,-3.90000009536743,-834.900024414062,-2.85352183618304,0.395658369532381,-0.0036232925271318,LD
11.7333333333333,3.42197585105896,0.126806303858757,8.09048175811768,0.495429992675781,0.800309956073761,0.503051996231079,-1279.5,-6.90000009536743,-856.500061035156,-2.85140520758354,0.398440190223624,-0.0150235212419697,LD
11.7666666666667,3.22399067878723,0.150732025504112,8.11022090911865,0.495429992675781,1.2500079870224,0.259148001670837,-1262.70007324219,1.5,-839.700012207031,-2.85149297605986,0.378153750115125,-0.0188696472668803,LD
11.8,3.15400791168213,0.350511789321899,7.9517126083374,0.556405961513519,0.609759986400604,-0.167683988809586,-1262.70007324219,0.300000011920929,-842.100036621094,-2.84293059532682,0.376389820113066,-0.0427470458376149,LD
11.8333333333333,2.98234081268311,0.397765070199966,8.99307918548584,0.525918006896973,0.868907988071442,0.137196004390717,-1265.10009765625,-4.5,-861.300048828125,-2.84343902127153,0.323210929576398,-0.0448284944792868,LD
11.8666666666667,3.66900897026062,0.442027658224106,9.91242504119873,0.205793991684914,-0.670735955238342,-0.152439996600151,-1265.10009765625,-3.90000009536743,-854.100036621094,-2.84300813881288,0.352683454036302,-0.0450226081715381,LD
11.9,4.04225015640259,0.589170813560486,9.71503829956055,0.411587983369827,-1.82927989959717,-0.0457319989800453,-1269.90002441406,-2.10000014305115,-827.700012207031,-2.83751544630397,0.39379283263983,-0.0602591115097737,LD
11.9333333333333,3.95013618469238,0.494664251804352,9.66359806060791,1.05945801734924,-0.708845973014832,0.259148001670837,-1272.30004882812,-0.300000011920929,-844.500061035156,-2.84235773251027,0.38921692069464,-0.0533912852540119,LD
11.9666666666667,3.7132716178894,0.355895072221756,8.4116849899292,0.632625997066498,0.304879993200302,-0.617381989955902,-1284.30004882812,-3.90000009536743,-839.700012207031,-2.84468570875325,0.412491226775872,-0.0447221518343818,LD
12.0,3.12350249290466,0.516795516014099,9.82449817657471,0.236281991004944,0.99848198890686,-1.32622802257538,-1272.30004882812,2.70000004768372,-839.700012207031,-2.83791742249895,0.315252610285674,-0.0529589835751081,LD
12.0333333333333,3.24552369117737,0.776987731456757,9.19525146484375,0.640248000621796,-0.160062000155449,-1.2423859834671,-1260.30004882812,0.300000011920929,-851.700012207031,-2.8243272469189,0.336726027336182,-0.0838735688433291,LD
12.0666666666667,3.03677177429199,0.766221165657043,8.55643558502197,0.533540010452271,0.205793991684914,-0.533540010452271,-1262.70007324219,-6.90000009536743,-851.700012207031,-2.82110464348544,0.33916588353632,-0.0900980774100671,LD
12.1,2.8680956363678,0.751267552375793,9.75152492523193,0.388722002506256,0.769822001457214,0.274392008781433,-1262.70007324219,-2.10000014305115,-856.500061035156,-2.82620278729681,0.288949869250738,-0.0785199749511691,LD
12.1333333333333,3.44769597053528,0.617881715297699,8.85191822052002,-0.0304879993200302,0.144817993044853,0.388722002506256,-1265.10009765625,-0.300000011920929,-842.100036621094,-2.83013112834372,0.36301106608535,-0.0702426851113482,LD
12.1666666666667,3.09838056564331,0.361876487731934,9.10852146148682,-0.571649968624115,0.87652999162674,0.548784017562866,-1269.90002441406,-0.300000011920929,-849.300048828125,-2.84125363478937,0.329507900990361,-0.0412082398313903,LD
12.2,2.92133021354675,0.155517175793648,8.78014087677002,-0.67835795879364,1.73019397258759,0.480185985565186,-1269.90002441406,3.90000009536743,-846.900024414062,-2.84948011836085,0.319186450765772,-0.0184825465597329,LD
12.2333333333333,2.9183394908905,0.0598142966628075,9.70247745513916,-0.815553963184357,1.34909391403198,0.160062000155449,-1250.70007324219,-2.10000014305115,-851.700012207031,-2.85304878127152,0.292033795951614,-0.0056884020130252,LD
12.2666666666667,3.12469887733459,0.122021168470383,9.79638576507568,-0.769822001457214,0.274392008781433,0.137196004390717,-1272.30004882812,-2.10000014305115,-849.300048828125,-2.85122160998765,0.307149969811015,-0.0106635366791816,LD
12.3,2.98951864242554,-0.23925718665123,8.95180797576904,-0.67835795879364,0.25152599811554,0.381099998950958,-1265.10009765625,-9.90000057220459,-844.500061035156,-2.86293630312991,0.320763951756339,0.0254416181766301,LD
12.3333333333333,3.15699863433838,-0.256603330373764,9.36033916473389,-0.861285984516144,0.0609759986400604,-0.0381099991500378,-1257.90002441406,6.30000019073486,-854.100036621094,-2.86285486540935,0.324684793638105,0.0285754144611602,LD
12.3666666666667,3.17135405540466,-0.251818180084229,8.96436882019043,-0.335367977619171,0.0685980021953583,0.121951997280121,-1250.70007324219,-3.90000009536743,-846.900024414062,-2.86291752231405,0.338416846331291,0.0287276751674473,LD
12.4,3.29756212234497,-0.554478526115417,9.04451942443848,-0.480185985565186,0.243903994560242,-0.0685980021953583,-1260.30004882812,-3.30000019073486,-858.900024414062,-2.87234312298886,0.347766328232897,0.0592527677095136,LD
12.4333333333333,3.20006489753723,-0.52337509393692,9.26822566986084,-0.3125019967556,-0.289635986089706,-0.0533539988100529,-1253.10009765625,-5.70000028610229,-851.700012207031,-2.87109934701064,0.333527350354699,0.0570907121342755,LD
12.4666666666667,3.26944947242737,-0.639414846897125,9.25028133392334,-0.304879993200302,0.137196004390717,-0.0990860015153885,-1243.5,1.5,-854.100036621094,-2.8741144642858,0.338291617727261,0.0683572546459804,LD
12.5,3.12230634689331,-0.340343356132507,9.38306903839111,0.175305992364883,0.342989981174469,0.0762199983000755,-1248.30004882812,-4.5,-854.100036621094,-2.86495155822414,0.322064118625222,0.0388983664173378,LD
12.5333333333333,2.99250936508179,-0.29009935259819,9.03614616394043,0.579271972179413,0.342989981174469,0.25152599811554,-1248.30004882812,1.5,-861.300048828125,-2.86416625669846,0.31931084439604,0.0319152709642832,LD
12.5666666666667,2.64379191398621,-0.107067592442036,9.48355674743652,1.2423859834671,1.08232402801514,0.914639949798584,-1253.10009765625,0.300000011920929,-851.700012207031,-2.86240963543704,0.274415091531605,0.0115782541226098,LD
12.6,2.8322069644928,-0.0819455906748772,9.28497314453125,1.14329993724823,0.846041977405548,1.06708002090454,-1257.90002441406,-7.50000047683716,-873.300048828125,-2.86609747518715,0.292897095846138,0.0077266796968124,LD
12.6333333333333,2.7382984161377,-0.0478514358401299,9.30770301818848,0.731711983680725,0.0457319989800453,0.746955990791321,-1257.90002441406,3.30000019073486,-866.100036621094,-2.86847687786825,0.286601588289381,0.0045371541652524,LD
12.6666666666667,2.7382984161377,0.209948182106018,9.20123291015625,0.868907988071442,0.213415995240211,0.777444005012512,-1243.5,-1.5,-856.500061035156,-2.8647062079882,0.288687610170974,-0.0219678306700958,LD
12.7,2.99729442596436,-0.0986935868859291,8.98470592498779,0.685979962348938,0.396344006061554,0.952749967575073,-1243.5,-8.70000076293945,-851.700012207031,-2.8777263620612,0.318832923743522,0.007856685490584,LD
12.7333333333333,3.07804369926453,-0.177050322294235,9.12586688995361,-0.144817993044853,-0.0533539988100529,0.0152439996600151,-1255.5,-2.10000014305115,-863.700012207031,-2.8810415344785,0.324804851788648,0.0186829973872442,LD
12.7666666666667,2.57919239997864,0.13099330663681,9.2879638671875,0.106707997620106,0.297257989645004,-0.0457319989800453,-1260.30004882812,5.10000038146973,-856.500061035156,-2.87211402508692,0.275268044699727,-0.0113740382277363,LD
12.8,2.41231060028076,-0.0687864422798157,9.46202373504639,0.403965979814529,1.21189796924591,0.129574000835419,-1243.5,-3.30000019073486,-861.300048828125,-2.87716457760377,0.250023449189009,0.0050047220003135,LD
12.8333333333333,2.64379191398621,-0.104675017297268,9.18927001953125,-0.106707997620106,0.518296003341675,-0.472563982009888,-1253.10009765625,-5.10000038146973,-856.500061035156,-2.8769007803486,0.277022512702248,0.0108617190886011,LD
12.8666666666667,2.2131290435791,0.362474650144577,10.2300395965576,0.434453994035721,0.0838419944047928,0.0457319989800453,-1245.90002441406,-1.5,-856.500061035156,-2.86679035146649,0.21764949090304,-0.0326636061265024,LD
12.9,2.79751467704773,0.305651068687439,9.39981651306152,0.708845973014832,-0.564027965068817,0.365855991840363,-1260.30004882812,0.300000011920929,-851.700012207031,-2.86853012658161,0.285141400968921,-0.0335175671075202,LD
12.9333333333333,2.70480251312256,0.623863101005554,9.53140830993652,0.815553963184357,-0.907018005847931,0.358233988285065,-1250.70007324219,-3.30000019073486,-854.100036621094,-2.86195221164304,0.278201512630612,-0.0639021514771216,LD
12.9666666666667,2.80768299102783,0.78476357460022,9.17312049865723,1.28811800479889,0.106707997620106,0.663114011287689,-1243.5,-3.30000019073486,-856.500061035156,-2.85961289731665,0.294698402452006,-0.0856296147875817,LD
13.0,2.86510491371155,0.769810020923615,8.82320690155029,1.11281192302704,0.198172003030777,0.457319974899292,-1253.10009765625,-4.5,-861.300048828125,-2.86148955098184,0.310976187014693,-0.0884310475397765,LD
13.0333333333333,2.30285048484802,0.786558032035828,9.32564735412598,0.716467976570129,0.396344006061554,0.198172003030777,-1253.10009765625,-7.50000047683716,-856.500061035156,-2.86371996915332,0.246980689407984,-0.0855669760481591,LD
13.0666666666667,2.53253722190857,0.891233026981354,9.31966590881348,0.472563982009888,0.365855991840363,0.0304879993200302,-1236.30004882812,-9.30000019073486,-863.700012207031,-2.86192722595356,0.262055027402966,-0.0951751513674271,LD
13.1,2.50083565711975,0.549693405628204,9.2161865234375,0.0990860015153885,-0.213415995240211,0.0304879993200302,-1233.90002441406,0.300000011920929,-870.900024414062,-2.8706683548526,0.264716513825187,-0.0621763650378577,LD
13.1333333333333,2.39077734947205,0.517991840839386,9.78083419799805,-0.449698001146317,-0.114329993724823,-0.198172003030777,-1243.5,-6.90000009536743,-866.100036621094,-2.87182546732758,0.241318786043538,-0.0528964221422519,LD
13.1666666666667,3.00925731658936,0.448607236146927,9.65761661529541,-0.304879993200302,-0.609759986400604,-0.0152439996600151,-1245.90002441406,-0.300000011920929,-854.100036621094,-2.87308454003427,0.298174797324289,-0.0464459701223822,LD
13.2,2.84955310821533,0.278136491775513,8.26155090332031,-0.221037998795509,-0.37347799539566,0.236281991004944,-1253.10009765625,-8.10000038146973,-866.100036621094,-2.87744769529035,0.330265015273771,-0.0340621867786324,LD
13.2333333333333,2.54629468917847,0.180041030049324,8.85490894317627,-0.304879993200302,1.11281192302704,0.335367977619171,-1253.10009765625,-0.900000035762787,-866.100036621094,-2.88236638569408,0.282341823206841,-0.0207894344870892,LD
13.2666666666667,2.35369253158569,0.180639177560806,9.65163516998291,-0.106707997620106,1.20427596569061,0.457319974899292,-1241.10009765625,-2.70000004768372,-849.300048828125,-2.88466146501974,0.239900686280284,-0.0184704908544872,LD
13.3,2.40991806983948,0.0759641602635384,9.58703517913818,-0.0152439996600151,0.739333987236023,0.670735955238342,-1238.70007324219,-5.10000038146973,-858.900024414062,-2.88938934117136,0.244565630209712,-0.008502809345811,LD
13.3333333333333,2.47750806808472,-0.0795530155301094,9.52602481842041,-0.495429992675781,0.144817993044853,0.411587983369827,-1236.30004882812,-3.90000009536743,-878.100036621094,-2.89435498598423,0.253310086280577,0.0077765116936658,LD
13.3666666666667,2.78794431686401,-0.138769164681435,9.63967227935791,-0.342989981174469,0.190549999475479,0.647870004177094,-1245.90002441406,-2.10000014305115,-863.700012207031,-2.89799258125618,0.2786394704372,0.014623411430479,LD
13.4,2.67968058586121,-0.0221312902867794,8.74784088134766,0.167683988809586,-0.160062000155449,0.670735955238342,-1241.10009765625,-6.90000009536743,-858.900024414062,-2.89742546089322,0.296225031917669,0.0034223623858917,LD
13.4333333333333,2.26456928253174,-0.111852735280991,9.09476375579834,0.198172003030777,0.685979962348938,0.815553963184357,-1243.5,2.10000014305115,-866.100036621094,-2.90248213429609,0.247641180384017,0.0115296817729624,LD
13.4666666666667,2.08034133911133,-0.114245310425758,9.99855804443359,-0.0457319989800453,1.10518991947174,0.952749967575073,-1236.30004882812,-5.10000038146973,-866.100036621094,-2.90596805019806,0.206232715485141,0.0118385252605536,LD
13.5,2.4517879486084,-0.146545022726059,10.4058933258057,0.0304879993200302,0.388722002506256,1.08232402801514,-1241.10009765625,2.10000014305115,-873.300048828125,-2.91013781498643,0.22845770287624,0.0142182703461382,LD
13.5333333333333,2.80529046058655,-0.263182908296585,8.90455436706543,0.0914639979600906,-0.152439996600151,0.87652999162674,-1243.5,-9.30000019073486,-870.900024414062,-2.91722656325037,0.30001407137811,0.0287415744756809,LD
13.5666666666667,2.60491275787354,-0.203368604183197,9.65701866149902,0.0914639979600906,0.579271972179413,0.685979962348938,-1243.5,-7.50000047683716,-866.100036621094,-2.91768837678189,0.265490200189396,0.0218393517753372,LD
13.6,2.62584757804871,-0.0657957270741463,9.33222675323486,0.46494197845459,0.304879993200302,0.548784017562866,-1243.5,-0.900000035762787,-870.900024414062,-2.91622124785807,0.272990223808886,0.007894342594364,LD
13.6333333333333,2.5977349281311,-0.084936298429966,9.75930118560791,0.381099998950958,1.08232402801514,0.46494197845459,-1238.70007324219,-3.30000019073486,-861.300048828125,-2.91834395832819,0.259256878448723,0.0082268253460531,LD
13.6666666666667,2.50681710243225,0.135778456926346,9.73836612701416,0.495429992675781,0.99848198890686,0.533540010452271,-1243.5,-0.300000011920929,-870.900024414062,-2.91536523613459,0.250943123796435,-0.0126804229852774,LD
13.7,2.54749083518982,-0.0723752975463867,9.27420711517334,0.670735955238342,0.830797970294952,0.754577994346619,-1243.5,-8.10000038146973,-858.900024414062,-2.92304923851421,0.265202576726453,0.0051954989896815,LD
13.7333333333333,1.9308055639267,0.135180309414864,9.44647216796875,0.548784017562866,1.11281192302704,0.556405961513519,-1241.10009765625,-6.90000009536743,-870.900024414062,-2.92119680190586,0.204174939994951,-0.0136766297991589,LD
13.7666666666667,1.52406823635101,0.0933103039860725,9.45604228973389,0.792688012123108,2.32470989227295,0.800309956073761,-1233.90002441406,-0.900000035762787,-870.900024414062,-2.92494054042548,0.160133420383923,-0.0112423664900325,LD
13.8,1.4881796836853,0.0,9.82210540771484,0.388722002506256,2.31708788871765,0.533540010452271,-1214.70007324219,-1.5,-878.100036621094,-2.92872160129955,0.147278183821163,-0.0012717399012262,LD
13.8333333333333,1.7124832868576,0.327184200286865,9.05588436126709,0.434453994035721,0.891773998737335,0.114329993724823,-1209.90002441406,1.5,-880.500061035156,-2.92403907285837,0.182858648523283,-0.0345882492991938,LD
13.8666666666667,1.69752979278564,0.209948182106018,9.28676795959473,1.02897000312805,1.41769194602966,0.381099998950958,-1212.30004882812,0.900000035762787,-875.700012207031,-2.92779959993953,0.178708674471973,-0.0252008309553854,LD
13.9,1.3338588476181,0.460570096969604,10.111008644104,0.67835795879364,1.83690190315247,-0.0152439996600151,-1209.90002441406,-6.30000019073486,-880.500061035156,-2.92530170693722,0.132432685011036,-0.0447567232021696,LD
13.9333333333333,1.77768087387085,0.494066089391708,9.04691219329834,0.701223969459534,0.396344006061554,-0.0228659994900227,-1214.70007324219,-3.30000019073486,-866.100036621094,-2.92409427417562,0.187562752301147,-0.0547791587206158,LD
13.9666666666667,1.53483486175537,0.64838695526123,9.6402702331543,0.868907988071442,0.0152439996600151,0.0152439996600151,-1207.5,2.70000004768372,-882.900024414062,-2.92247464533904,0.160230753237929,-0.0674174748314149,LD
14.0,1.76392364501953,1.02103006839752,8.57677173614502,1.30336201190948,0.442075997591019,-0.259148001670837,-1212.30004882812,-0.300000011920929,-875.700012207031,-2.91392800595139,0.196996897504311,-0.115966523329853,LD
14.0333333333333,1.57311606407166,1.0515353679657,9.34000205993652,1.60061991214752,1.83690190315247,0.0533539988100529,-1224.30004882812,-7.50000047683716,-878.100036621094,-2.91616592004402,0.165019879888344,-0.114903038526027,LD
14.0666666666667,2.16288495063782,1.06947958469391,9.94711780548096,1.34909391403198,1.47104597091675,0.236281991004944,-1205.10009765625,-9.90000057220459,-887.700012207031,-2.91941401971823,0.206657335104052,-0.109796194026988,LD
14.1,2.14972591400146,1.33565330505371,10.111008644104,1.21951997280121,1.41006994247437,0.655492007732391,-1207.5,-9.30000019073486,-873.300048828125,-2.91894053024388,0.205530679829375,-0.131557323789284,LD
14.1333333333333,1.69334280490875,1.19867849349976,10.887996673584,1.06708002090454,2.59910202026367,1.48628997802734,-1202.70007324219,-6.30000019073486,-875.700012207031,-2.92968291263557,0.153048212510659,-0.112405875978422,LD
14.1666666666667,2.03787302970886,0.844577848911285,9.45604228973389,0.46494197845459,3.52898597717285,1.01372599601746,-1193.10009765625,-9.90000057220459,-880.500061035156,-2.93827385782759,0.200744656163553,-0.0915511000925819,LD
14.2,1.42836546897888,0.682481110095978,8.66649341583252,0.114329993724823,5.7698540687561,0.403965979814529,-1181.10009765625,0.900000035762787,-885.300048828125,-2.94389871969514,0.155866017353174,-0.0793479269656909,LD
14.2333333333333,0.852951884269714,0.512608528137207,8.32614994049072,0.0457319989800453,7.01986169815063,0.129574000835419,-1176.30004882812,-5.70000028610229,-897.300048828125,-2.94822617410747,0.0946786266060081,-0.06280457754782,LD
14.2666666666667,0.0035888578277081,0.560459971427917,9.1689338684082,-0.121951997280121,7.81254959106445,-0.121951997280121,-1173.90002441406,-4.5,-887.700012207031,-2.94968580099886,-0.006477744020476,-0.0609595621163028,LD
14.3,-0.753660142421722,0.632835268974304,9.47159385681152,-0.0609759986400604,7.61437797546387,-0.0457319989800453,-1149.90002441406,-0.300000011920929,-902.100036621094,-2.95145735481738,-0.0847084786026697,-0.0661485837324051,LD
14.3333333333333,-0.564048826694489,0.290697485208511,9.55533409118652,-0.411587983369827,7.17230176925659,0.0228659994900227,-1147.5,-8.70000076293945,-899.700012207031,-2.9502399435286,-0.0722747865556326,-0.0320028513862778,LD
14.3666666666667,-1.90329098701477,0.544908225536346,9.90345287322998,-0.175305992364883,6.60065174102783,0.327746003866196,-1125.90002441406,-6.90000009536743,-909.300048828125,-2.95536957796602,-0.191338132447318,-0.0531063460593604,LD
14.4,-1.80280292034149,0.238659039139748,9.33402061462402,-0.297257989645004,6.49394369125366,0.685979962348938,-1118.70007324219,-7.50000047683716,-890.100036621094,-2.9538105671221,-0.201061517977077,-0.0278611463660044,LD
14.4333333333333,-2.10785579681396,0.223107323050499,9.210205078125,-0.685979962348938,5.92991590499878,0.236281991004944,-1123.5,-6.30000019073486,-909.300048828125,-2.95471428218361,-0.232165271053269,-0.0235990356475017,LD
14.4666666666667,-2.64738082885742,0.357689499855042,10.0171003341675,-0.236281991004944,5.70125579833984,0.533540010452271,-1111.5,-0.900000035762787,-909.300048828125,-2.95996450366134,-0.264884142473079,-0.0345213078807679,LD
14.5,-2.06478953361511,-0.0957028716802597,9.40938663482666,-0.411587983369827,4.31405210494995,0.503051996231079,-1087.5,-6.30000019073486,-902.100036621094,-2.952108331973,-0.227298000028483,0.0066430195573283,LD
14.5333333333333,-1.96430146694183,-0.0251220054924488,9.37050819396973,-1.03659200668335,2.9116039276123,-0.0762199983000755,-1087.5,-2.10000014305115,-909.300048828125,-2.9529968221559,-0.213124624167783,0.0047120282224307,LD
14.5666666666667,-2.14613699913025,0.0634031519293785,8.62462329864502,-0.609759986400604,2.33233189582825,0.381099998950958,-1073.10009765625,-5.10000038146973,-906.900024414062,-2.95707744954518,-0.244798802404818,-0.0054343263124534,LD
14.6,-2.00258255004883,-0.32538977265358,8.83277702331543,-0.327746003866196,2.89635992050171,0.259148001670837,-1075.5,0.300000011920929,-914.100036621094,-2.94880297397904,-0.22916572623012,0.0341180388610923,LD
14.6333333333333,-2.04744338989258,-0.265575468540192,9.0851936340332,-0.411587983369827,2.39330792427063,-0.739333987236023,-1077.90002441406,-4.5,-911.700012207031,-2.94710126908661,-0.225987436524941,0.0305851459070457,LD
14.6666666666667,-2.91056370735168,-0.0460570082068443,9.73776721954346,0.114329993724823,1.93598794937134,-0.762199997901917,-1070.70007324219,-2.70000004768372,-914.100036621094,-2.95027161932834,-0.287672025673157,0.0072796012888137,LD
14.7,-3.09180092811584,-0.151330173015594,10.1080179214478,0.274392008781433,1.94360995292664,-0.442075997591019,-1068.30004882812,-3.90000009536743,-899.700012207031,-2.9464993250132,-0.299058450296767,0.0140646894793891,LD
14.7333333333333,-2.80768299102783,-0.214135184884071,9.76528167724609,-0.0381099991500378,1.10518991947174,-0.792688012123108,-1063.5,-0.300000011920929,-904.500061035156,-2.94166407254192,-0.283364086281024,0.0216600468582927,LD
14.7666666666667,-3.12709140777588,0.139965459704399,9.35555458068848,0.213415995240211,0.724089980125427,-0.617381989955902,-1063.5,-1.5,-897.300048828125,-2.94934182754254,-0.320776287745296,-0.0121861326337552,LD
14.8,-3.12948393821716,-0.0903195887804031,8.96795749664307,0.426831990480423,1.04421401023865,-0.0762199983000755,-1056.30004882812,-5.70000028610229,-918.900024414062,-2.94213945121021,-0.336298521334905,0.0077414230613802,LD
14.8333333333333,-3.25449585914612,-0.0699827298521996,8.83277702331543,0.0304879993200302,1.50915598869324,-0.152439996600151,-1061.10009765625,-5.70000028610229,-921.300048828125,-2.94149787674971,-0.353893425847047,0.0079534606786435,LD
14.8666666666667,-3.43992018699646,0.178246602416039,8.87883472442627,0.533540010452271,1.49391198158264,0.419209986925125,-1051.5,-8.10000038146973,-923.700012207031,-2.9518664746561,-0.370784504715142,-0.0190843884935312,LD
14.9,-3.47401428222656,0.164489313960075,8.38058090209961,1.02897000312805,1.38720393180847,1.03659200668335,-1070.70007324219,-0.300000011920929,-909.300048828125,-2.9549989127986,-0.393068312205053,-0.0219036711684094,LD
14.9333333333333,-3.61218547821045,0.546104550361633,8.98709774017334,0.990859985351562,1.60824191570282,1.08994603157043,-1044.30004882812,-3.90000009536743,-909.300048828125,-2.97188231833498,-0.384986329688788,-0.0598531811056158,LD
14.9666666666667,-3.34122657775879,0.82663357257843,9.42493915557861,1.19665396213531,0.541162014007568,1.40244793891907,-1051.5,-2.10000014305115,-892.500061035156,-2.98502640513492,-0.344283990787133,-0.0877620220935421,LD
15.0,-3.38967633247375,0.952841758728027,9.11629676818848,1.13567793369293,-0.579271972179413,1.34909391403198,-1049.10009765625,-2.70000004768372,-906.900024414062,-2.99381311910025,-0.352186604924161,-0.10520383230307,LD
15.0333333333333,-3.16716694831848,1.06290006637573,9.50389385223389,1.00610399246216,-0.739333987236023,1.41769194602966,-1058.70007324219,-2.70000004768372,-916.500061035156,-2.99974669021549,-0.321063265522643,-0.113200285261542,ST
15.0666666666667,-2.8501513004303,1.24593186378479,8.82021617889404,1.15854394435883,-2.01220798492432,1.18903195858002,-1049.10009765625,2.10000014305115,-892.500061035156,-3.01011620315348,-0.307059446382041,-0.14062475698874,ST
15.1,-3.10017490386963,1.41819703578949,8.86507701873779,1.28049600124359,-1.34909391403198,1.31098401546478,-1051.5,-6.90000009536743,-911.700012207031,-3.01835125352687,-0.327935594770566,-0.159766266687517,ST
15.1333333333333,-3.01523876190186,1.24054849147797,8.90515232086182,0.884151995182037,-0.358233988285065,1.31098401546478,-1065.90002441406,-6.90000009536743,-918.900024414062,-3.01599408974057,-0.323029044306595,-0.14212643119542,ST
15.1666666666667,-3.2048499584198,1.26028728485107,9.30172157287598,0.457319974899292,0.0990860015153885,1.09756803512573,-1061.10009765625,-5.10000038146973,-904.500061035156,-3.01750165631773,-0.328479771233067,-0.136575000641253,ST
15.2,-2.69882106781006,1.01325416564941,8.90634918212891,0.205793991684914,0.190549999475479,0.937505960464478,-1063.5,-11.7000007629395,-909.300048828125,-3.01423608764876,-0.295296902552105,-0.115828103756378,ST
15.2333333333333,-3.22159814834595,1.11972367763519,8.97334098815918,0.274392008781433,-0.419209986925125,0.541162014007568,-1051.5,-12.3000001907349,-914.100036621094,-3.01816360132131,-0.337584252858565,-0.124151587451591,ST
15.2666666666667,-3.03617382049561,1.00428199768066,8.98590183258057,0.25152599811554,-0.396344006061554,0.381099998950958,-1053.90002441406,-12.9000005722046,-921.300048828125,-3.01535482589242,-0.324501612560827,-0.113036275902844,ST
15.3,-3.04873466491699,0.919943869113922,8.51935005187988,-0.0838419944047928,-1.02134799957275,0.0609759986400604,-1065.90002441406,-6.90000009536743,-904.500061035156,-3.01357761985972,-0.338869899851113,-0.107818110741247,ST
15.3333333333333,-3.19527983665466,0.907981038093567,8.62402534484863,-0.335367977619171,-0.739333987236023,0.228659987449646,-1053.90002441406,-6.90000009536743,-916.500061035156,-3.01344359319916,-0.350742119117963,-0.104666340092075,ST
15.3666666666667,-3.46683669090271,0.866111040115356,9.28497314453125,-0.495429992675781,0.403965979814529,0.830797970294952,-1065.90002441406,-8.70000076293945,-902.100036621094,-3.01308174774886,-0.355977744244302,-0.0937903868058116,ST
15.4,-3.02660346031189,0.659751713275909,9.13184833526611,-0.655492007732391,0.0533539988100529,0.868907988071442,-1053.90002441406,-7.50000047683716,-906.900024414062,-3.01008398871913,-0.321769973887039,-0.0730101827485192,ST
15.4333333333333,-3.15520405769348,0.509019672870636,9.11270809173584,-0.807931959629059,0.342989981174469,0.746955990791321,-1073.10009765625,-7.50000047683716,-892.500061035156,-3.00836887202178,-0.332568506260187,-0.0561007226090131,ST
15.4666666666667,-3.20784068107605,0.391783654689789,9.35854530334473,-0.663114011287689,0.152439996600151,0.739333987236023,-1077.90002441406,-6.30000019073486,-894.900024414062,-3.00711925676441,-0.330379771004752,-0.0424820517134738,ST
15.5,-3.25569224357605,0.220714762806892,10.0464096069336,-0.853663980960846,0.342989981174469,0.571649968624115,-1063.5,-2.70000004768372,-906.900024414062,-3.00370179395026,-0.315384154078344,-0.0227610097872352,ST
15.5333333333333,-2.84895491600037,0.232079476118088,9.30291748046875,-0.967993974685669,-0.92988395690918,0.3125019967556,-1056.30004882812,-2.10000014305115,-918.900024414062,-3.00584232609411,-0.297255817645124,-0.02335343619711,ST
15.5666666666667,-2.76999998092651,0.0275145769119263,8.61624908447266,-0.92988395690918,-1.2347639799118,0.503051996231079,-1061.10009765625,-12.9000005722046,-914.100036621094,-3.00261462689175,-0.307929545543186,-0.0036286052338378,ST
15.6,-3.04694032669067,0.146545022726059,9.30770301818848,-0.708845973014832,-0.449698001146317,0.846041977405548,-1063.5,-10.5,-906.900024414062,-3.00969403240903,-0.315002935396727,-0.014198207308019,ST
15.6333333333333,-2.35787963867188,-0.0837400183081627,8.71314907073975,-0.388722002506256,-1.11281192302704,0.746955990791321,-1061.10009765625,-4.5,-904.500061035156,-3.00636702533461,-0.265960393430259,0.008283538968971,ST
15.6666666666667,-2.72513937950134,0.0502440109848976,8.58095932006836,0.0609759986400604,-1.04421401023865,0.472563982009888,-1063.5,-3.30000019073486,-902.100036621094,-3.01164605809162,-0.30239525684972,-0.0049964209491031,ST
15.7,-3.30593609809875,0.14056359231472,9.77604866027832,0.6250039935112,0.221037998795509,0.564027965068817,-1070.70007324219,-1.5,-904.500061035156,-3.01586395554652,-0.324262207629421,-0.0148136910793472,ST
15.7333333333333,-3.25389766693115,0.348717361688614,10.3131809234619,0.655492007732391,-0.602137982845306,0.564027965068817,-1063.5,3.30000019073486,-921.300048828125,-3.02273182752368,-0.306183213396743,-0.0334088521420247,ST
15.7666666666667,-2.9021897315979,0.552684128284454,9.48654747009277,0.868907988071442,-1.32622802257538,0.99848198890686,-1073.10009765625,-5.70000028610229,-894.900024414062,-3.03239569438276,-0.294931881937163,-0.0581872380953363,ST
15.8,-2.69164347648621,0.531150937080383,8.89318943023682,0.92988395690918,-1.05945801734924,1.37195992469788,-1080.30004882812,-6.30000019073486,-916.500061035156,-3.03689151715724,-0.29170479231888,-0.0616515334664722,ST
15.8333333333333,-2.84955310821533,0.685471832752228,9.15756893157959,0.548784017562866,-0.655492007732391,1.11281192302704,-1063.5,-6.30000019073486,-911.700012207031,-3.04371850271425,-0.298886915531328,-0.0749168375206137,ST
15.8666666666667,-2.66293239593506,0.801511585712433,8.64316558837891,0.556405961513519,-0.388722002506256,1.11281192302704,-1073.10009765625,-6.90000009536743,-897.300048828125,-3.05180743297265,-0.297008946677897,-0.092287006995991,ST
15.9,-2.69224143028259,0.789548695087433,8.99367809295654,0.617381989955902,-0.0838419944047928,1.16616594791412,-1075.5,-9.30000019073486,-914.100036621094,-3.05420784031952,-0.290159009688552,-0.0895206316540222,ST
15.9333333333333,-2.74128913879395,0.893625617027283,8.68264293670654,0.594515979290009,-0.0381099991500378,0.853663980960846,-1080.30004882812,-9.30000019073486,-909.300048828125,-3.06036180974474,-0.302941572047048,-0.102849277705147,ST
15.9666666666667,-3.17912983894348,1.14544379711151,9.42912578582764,0.632625997066498,-0.0304879993200302,0.868907988071442,-1068.30004882812,-1.5,-916.500061035156,-3.06810701528613,-0.321115637823675,-0.120852490771841,ST
16.0,-2.82144045829773,1.38589727878571,9.82748889923096,0.846041977405548,-1.02897000312805,1.29574000835419,-1075.5,-1.5,-914.100036621094,-3.07678395922723,-0.27907863316025,-0.140259056488614,ST
16.0333333333333,-2.8040943145752,1.41520631313324,9.64684963226318,1.10518991947174,-1.30336201190948,1.19665396213531,-1070.70007324219,-5.70000028610229,-909.300048828125,-3.0810026355502,-0.277629105578401,-0.14737864178506,ST
16.0666666666667,-2.79990720748901,1.65326714515686,10.0918684005737,1.41769194602966,-1.28049600124359,1.03659200668335,-1070.70007324219,-3.30000019073486,-906.900024414062,-3.08679820614123,-0.265915647920433,-0.163632632279919,ST
16.1,-2.37163686752319,1.59285473823547,8.17481994628906,1.31098401546478,-2.24848985671997,0.640248000621796,-1085.10009765625,-7.50000047683716,-906.900024414062,-3.09402467959887,-0.272848096681964,-0.192675014233647,ST
16.1333333333333,-2.87646961212158,1.61917304992676,8.66529750823975,0.945127964019775,-0.289635986089706,0.746955990791321,-1087.5,-11.7000007629395,-902.100036621094,-3.09384299641096,-0.311798522943601,-0.187171792555294,ST
16.1666666666667,-2.61328673362732,1.66223931312561,8.9655647277832,0.358233988285065,0.449698001146317,0.87652999162674,-1094.70007324219,-8.70000076293945,-906.900024414062,-3.09587552346074,-0.282517716747081,-0.184680239679696,ST
16.2,-2.65096974372864,1.51748871803284,8.9715461730957,0.297257989645004,0.106707997620106,1.33385002613068,-1082.70007324219,-6.90000009536743,-911.700012207031,-3.09596544610087,-0.283218006710386,-0.17019530809037,ST
16.2333333333333,-2.43922710418701,1.23456704616547,8.54566860198975,-0.0457319989800453,0.0533539988100529,1.01372599601746,-1092.30004882812,-11.7000007629395,-904.500061035156,-3.09276177373596,-0.275891269482047,-0.146270599208939,ST
16.2666666666667,-3.50093078613281,1.71966099739075,10.486044883728,0.160062000155449,0.495429992675781,1.02134799957275,-1077.90002441406,-4.5,-902.100036621094,-3.10072569197634,-0.314953532861792,-0.161860425634564,ST
16.3,-2.59653854370117,1.25071692466736,9.2466926574707,-0.0152439996600151,-0.190549999475479,1.09756803512573,-1082.70007324219,-11.1000003814697,-911.700012207031,-3.09734591313151,-0.273576127292627,-0.13661441651964,ST
16.3333333333333,-2.66831588745117,1.28481113910675,9.36213397979736,-0.335367977619171,-0.0457319989800453,0.922261953353882,-1077.90002441406,-2.70000004768372,-892.500061035156,-3.10058730894918,-0.274782464020443,-0.136277168468302,ST
16.3666666666667,-2.12639832496643,1.08204066753387,8.17601585388184,-0.67835795879364,-0.6250039935112,0.342989981174469,-1082.70007324219,-6.30000019073486,-890.100036621094,-3.10078382466508,-0.252796261754455,-0.130908724937906,ST
16.4,-2.94585418701172,1.02461886405945,8.83636569976807,-0.586893975734711,0.503051996231079,0.205793991684914,-1075.5,-8.70000076293945,-914.100036621094,-3.09808743721558,-0.315015829071358,-0.115939406469151,ST
16.4333333333333,-2.39317011833191,0.460570096969604,8.51935005187988,-1.08994603157043,0.823175966739655,0.114329993724823,-1077.90002441406,-6.90000009536743,-921.300048828125,-3.08263300870391,-0.277960511427673,-0.0569462770436276,ST
16.4666666666667,-2.96678924560547,0.690257012844086,9.5385856628418,-1.60061991214752,-0.548784017562866,-0.571649968624115,-1077.90002441406,-2.10000014305115,-921.300048828125,-3.08539436127829,-0.298412001036465,-0.0682750839353928,ST
16.5,-1.82254159450531,-0.0257201474159956,8.28786945343018,-1.08994603157043,-0.868907988071442,0.0076219998300075,-1075.5,3.90000009536743,-909.300048828125,-3.06888921727349,-0.221295270419418,-0.0004238696138935,ST
16.5333333333333,-2.68925070762634,0.0741697251796722,9.71683216094971,-1.78354799747467,-1.6615959405899,-0.92988395690918,-1087.5,-6.90000009536743,-906.900024414062,-3.06797805286494,-0.263647355362439,-0.0038003775535294,ST
16.5666666666667,-2.92491912841797,0.342137783765793,9.31787109375,-1.28811800479889,-1.07470202445984,-0.510673999786377,-1077.90002441406,-4.5,-909.300048828125,-3.07511769856105,-0.298656065764392,-0.0313784869299183,ST
16.6,-2.16587567329407,-0.125610023736954,9.32564735412598,-0.632625997066498,-0.594515979290009,0.0076219998300075,-1097.10009765625,-2.70000004768372,-904.500061035156,-3.06468069511517,-0.233644238012243,0.0104790472167366,ST
16.6333333333333,-2.89919900894165,0.208751901984215,9.72460842132568,-0.78506600856781,-1.13567793369293,-0.358233988285065,-1087.5,-0.900000035762787,-914.100036621094,-3.07136045688991,-0.283998202446073,-0.0177766313630542,ST
16.6666666666667,-2.4637508392334,0.142956167459488,9.258056640625,-0.0381099991500378,-0.419209986925125,0.495429992675781,-1080.30004882812,5.10000038146973,-894.900024414062,-3.07262847597274,-0.261012832341189,-0.0157534286753819,ST
16.7,-2.61388468742371,0.137572884559631,9.7479362487793,0.0685980021953583,-0.647870004177094,0.3125019967556,-1092.30004882812,-8.70000076293945,-890.100036621094,-3.07330651631713,-0.260835353833086,-0.0144772357947657,ST
16.7333333333333,-2.81486082077026,0.574217259883881,9.77724456787109,0.37347799539566,-0.907018005847931,0.510673999786377,-1092.30004882812,-8.70000076293945,-902.100036621094,-3.08542552480031,-0.276687594336244,-0.055441158554288,ST
16.7666666666667,-2.07495808601379,0.425877809524536,8.92010593414307,0.571649968624115,-0.891773998737335,0.983237981796265,-1085.10009765625,-2.70000004768372,-902.100036621094,-3.08661906150483,-0.231186766717193,-0.0496709900494005,ST
16.8,-1.80878436565399,0.35709136724472,9.1210823059082,0.297257989645004,-1.11281192302704,0.815553963184357,-1089.90002441406,-2.10000014305115,-909.300048828125,-3.08710506248836,-0.197020963385297,-0.0408016081835026,ST
16.8333333333333,-2.05641555786133,0.562254369258881,8.83158111572266,0.304879993200302,-0.67835795879364,0.426831990480423,-1094.70007324219,3.90000009536743,-904.500061035156,-3.09266020572599,-0.224383600499717,-0.0621235091349926,ST
16.8666666666667,-2.57679986953735,0.56763768196106,9.62651252746582,0.480185985565186,0.823175966739655,0.365855991840363,-1087.5,2.70000004768372,-899.700012207031,-3.09319643914931,-0.259356660475923,-0.0601089965437771,ST
16.9,-2.10187435150146,0.662144243717194,9.48774337768555,0.396344006061554,1.15092194080353,0.243903994560242,-1104.30004882812,-9.90000057220459,-904.500061035156,-3.09620417422911,-0.223087336364816,-0.0695687206741873,ST
16.9333333333333,-2.43145108222961,0.917551338672638,8.75681304931641,0.403965979814529,-0.0457319989800453,0.0381099991500378,-1092.30004882812,-6.30000019073486,-914.100036621094,-3.10378611394063,-0.265176806912098,-0.101868043793222,ST
16.9666666666667,-3.6151762008667,1.29797029495239,10.4507541656494,0.868907988071442,1.43293595314026,0.670735955238342,-1073.10009765625,-2.70000004768372,-902.100036621094,-3.11202929532351,-0.327417755074523,-0.123573332679173,ST
17.0,-2.2173159122467,1.35898077487946,10.1714210510254,0.990859985351562,-0.213415995240211,0.701223969459534,-1082.70007324219,-0.300000011920929,-897.300048828125,-3.11620565978233,-0.221812518748364,-0.133937979285628,ST
17.0333333333333,-2.20475506782532,1.66702449321747,9.00504207611084,1.07470202445984,-1.6844619512558,0.3125019967556,-1073.10009765625,-8.10000038146973,-918.900024414062,-3.12593218673071,-0.232247036107689,-0.180299921606351,ST
17.0666666666667,-1.79981219768524,1.49834811687469,7.7758584022522,0.990859985351562,-0.586893975734711,0.381099998950958,-1082.70007324219,-9.30000019073486,-904.500061035156,-3.12858755964136,-0.222972047860357,-0.191450914347912,ST
17.1,-2.64199757575989,1.55337727069855,8.82978630065918,0.3125019967556,0.762199997901917,-0.144817993044853,-1087.5,-0.900000035762787,-906.900024414062,-3.12444258219732,-0.282564384747013,-0.176105053348367,ST
17.1333333333333,-2.26935434341431,1.54619956016541,8.95838737487793,0.0914639979600906,1.15854394435883,0.0533539988100529,-1082.70007324219,-3.90000009536743,-911.700012207031,-3.1240240909348,-0.249860754350547,-0.171630438773245,ST
17.1666666666667,-2.56842589378357,1.28062415122986,9.33761024475098,0.114329993724823,0.205793991684914,0.213415995240211,-1077.90002441406,-7.50000047683716,-904.500061035156,-3.11662731482467,-0.264877073997453,-0.139791608182196,ST
17.2,-2.63003468513489,1.16099548339844,9.281982421875,-0.3125019967556,-0.0228659994900227,-0.647870004177094,-1087.5,-8.70000076293945,-902.100036621094,-3.11084513191243,-0.27334746487561,-0.125045502260264,DLL
17.2333333333333,-2.97695755958557,1.14125680923462,10.3891448974609,-0.46494197845459,0.0457319989800453,-0.769822001457214,-1085.10009765625,0.300000011920929,-906.900024414062,-3.10459841591577,-0.277321971475538,-0.109747433845378,DLL
17.2666666666667,-2.49425625801086,0.776987731456757,9.12586688995361,-0.960371971130371,-0.830797970294952,-0.937505960464478,-1085.10009765625,-0.300000011920929,-906.900024414062,-3.0954042986623,-0.265645252047245,-0.0850016366814472,DLL
17.3,-2.50741529464722,0.66633129119873,8.45415306091309,-1.28049600124359,-0.693601965904236,-1.16616594791412,-1077.90002441406,1.5,-921.300048828125,-3.08998198300871,-0.285005797190511,-0.0764380424337712,DLL
17.3333333333333,-2.82562732696533,0.662144243717194,8.1191930770874,-1.03659200668335,-0.0228659994900227,-0.754577994346619,-1092.30004882812,-3.30000019073486,-899.700012207031,-3.08923289505698,-0.330580959126289,-0.0789301342027712,DLL
17.3666666666667,-3.71207523345947,0.640012979507446,9.13723182678223,-0.693601965904236,0.769822001457214,0.663114011287689,-1092.30004882812,-9.30000019073486,-904.500061035156,-3.08939030174666,-0.381688286797639,-0.0700250820003871,DLL
17.4,-3.36096525192261,0.165087461471558,9.31787109375,-1.11281192302704,1.05183601379395,2.56861400604248,-1087.5,-6.90000009536743,-909.300048828125,-3.08203995128052,-0.350924081322771,-0.0221588616575052,DLL
