seconds,sensor_accX_m_s_,sensor_accY_m_s_,sensor_accZ_m_s_,sensor_gyroX___s_,sensor_gyroY___s_,sensor_gyroZ___s_,sensor_magX__T_,sensor_magY__T_,sensor_magZ__T_,sensor_yaw___,sensor_pitch___,sensor_roll___,label3
0.0,3.30055284500122,0.386998504400253,9.15996170043945,0.396344006061554,0.137196004390717,0.403965979814529,-1241.10009765625,-5.10000038146973,-846.900024414062,2.8094700448537,0.345470873326586,-0.0425222828520993,ST
0.0333333333333333,3.29337525367737,0.369054228067398,9.10971736907959,0.365855991840363,0.144817993044853,0.487807989120483,-1257.90002441406,-12.9000005722046,-849.300048828125,2.80548219569019,0.346408823556543,-0.0408445116134662,ST
0.0666666666666667,3.29935669898987,0.341539651155472,9.1330451965332,0.289635986089706,0.228659987449646,0.487807989120483,-1248.30004882812,-5.70000028610229,-842.100036621094,2.80128767103511,0.346083164332528,-0.0376396893888785,ST
0.1,3.2509069442749,0.35410064458847,9.14620399475098,0.266770005226135,0.327746003866196,0.396344006061554,-1253.10009765625,-2.10000014305115,-837.300048828125,2.79895049822852,0.340813626139347,-0.0388887496594765,ST
0.133333333333333,3.20784068107605,0.370848655700684,9.186279296875,0.297257989645004,0.342989981174469,0.358233988285065,-1255.5,-3.30000019073486,-846.900024414062,2.79718784247708,0.335289434681697,-0.0405926389794794,ST
0.166666666666667,3.23057007789612,0.381615221500397,9.18328857421875,0.350611984729767,0.350611984729767,0.320124000310898,-1248.30004882812,-12.9000005722046,-832.500061035156,2.79525070655171,0.337364832420089,-0.0419109494599152,ST
0.2,3.18750381469727,0.398961365222931,9.15816688537598,0.358233988285065,0.282013982534409,0.365855991840363,-1233.90002441406,-2.70000004768372,-844.500061035156,2.79322127117796,0.334236326055618,-0.0438956185219055,ST
0.233333333333333,3.20185923576355,0.416905641555786,9.22575759887695,0.327746003866196,0.350611984729767,0.426831990480423,-1250.70007324219,-5.10000038146973,-844.500061035156,2.79091822371393,0.333182396380429,-0.0454261681657947,ST
0.266666666666667,3.15400791168213,0.438438802957535,9.28258037567139,0.381099998950958,0.327746003866196,0.457319974899292,-1241.10009765625,-1.5,-849.300048828125,2.78838162992653,0.326783196619092,-0.0475438544916332,ST
0.3,3.18511128425598,0.369652360677719,9.20960712432861,0.221037998795509,0.282013982534409,0.342989981174469,-1253.10009765625,-2.70000004768372,-851.700012207031,2.783844088351,0.332141050362346,-0.0404397053542002,ST
0.333333333333333,3.13426923751831,0.410924226045609,9.21558856964111,0.304879993200302,0.442075997591019,0.289635986089706,-1245.90002441406,-3.90000009536743,-839.700012207031,2.78322739204403,0.326927588997767,-0.0447880756316138,ST
0.366666666666667,3.06847333908081,0.431261092424393,9.18448543548584,0.37347799539566,0.457319974899292,0.282013982534409,-1238.70007324219,-5.10000038146973,-844.500061035156,2.78193161361249,0.321481569757947,-0.0473253277132249,ST
0.4,3.03378105163574,0.421092659235001,9.12287616729736,0.327746003866196,0.388722002506256,0.342989981174469,-1257.90002441406,-2.10000014305115,-842.100036621094,2.77936466278147,0.320112263375922,-0.0465111967231562,ST
0.433333333333333,2.99609804153442,0.448009073734283,9.20123291015625,0.282013982534409,0.396344006061554,0.46494197845459,-1248.30004882812,-5.10000038146973,-854.100036621094,2.77724366499818,0.313963841425603,-0.0488051760499911,ST
0.466666666666667,3.01583695411682,0.397166937589645,9.18986892700195,0.282013982534409,0.335367977619171,0.487807989120483,-1243.5,-3.90000009536743,-854.100036621094,2.7726834751998,0.316209930864205,-0.0435441391924024,ST
0.5,3.02062201499939,0.440831363201141,9.258056640625,0.266770005226135,0.259148001670837,0.381099998950958,-1245.90002441406,-6.90000009536743,-839.700012207031,2.77147578520655,0.314658541117772,-0.0477337341283927,ST
0.533333333333333,2.99490189552307,0.421690791845322,9.23652362823486,0.289635986089706,0.221037998795509,0.327746003866196,-1243.5,-10.5,-854.100036621094,2.76874210975977,0.312927246775128,-0.0459804768225967,ST
0.566666666666667,2.96977996826172,0.413914948701859,9.25087928771973,0.297257989645004,0.259148001670837,0.304879993200302,-1241.10009765625,-8.70000076293945,-856.500061035156,2.76637135368516,0.309986924505505,-0.0450773103848133,ST
0.6,2.93329310417175,0.452794224023819,9.27779579162598,0.289635986089706,0.350611984729767,0.335367977619171,-1238.70007324219,-3.90000009536743,-839.700012207031,2.76535825413452,0.305421423265655,-0.0489681707784783,ST
0.633333333333333,2.88125467300415,0.468345940113068,9.25267314910889,0.304879993200302,0.510673999786377,0.411587983369827,-1243.5,-8.10000038146973,-861.300048828125,2.76304472386088,0.300748637888342,-0.0508353020527108,ST
0.666666666666667,2.80947756767273,0.482103228569031,9.30770301818848,0.3125019967556,0.46494197845459,0.449698001146317,-1236.30004882812,-7.50000047683716,-854.100036621094,2.76023446252721,0.292144594397723,-0.0520274998408034,ST
0.7,2.83519768714905,0.488084673881531,9.329833984375,0.365855991840363,0.510673999786377,0.518296003341675,-1236.30004882812,-14.7000007629395,-856.500061035156,2.75715080982395,0.293749893968033,-0.0526020503552712,ST
0.733333333333333,2.78196287155151,0.462962657213211,9.24908447265625,0.358233988285065,0.769822001457214,0.556405961513519,-1238.70007324219,-9.30000019073486,-858.900024414062,2.7527029780104,0.290594668298683,-0.050368937106761,ST
0.766666666666667,2.70719504356384,0.500047504901886,9.305908203125,0.358233988285065,0.884151995182037,0.564027965068817,-1226.70007324219,-8.70000076293945,-854.100036621094,2.74982985458971,0.281392183528462,-0.0539338767351487,ST
0.8,2.71317648887634,0.494066089391708,9.3118896484375,0.434453994035721,0.83841997385025,0.647870004177094,-1243.5,-4.5,-856.500061035156,2.74537140228135,0.281732550563269,-0.0534276106200854,ST
0.833333333333333,2.66293239593506,0.477916240692139,9.22635555267334,0.335367977619171,0.769822001457214,0.525918006896973,-1229.10009765625,-9.90000057220459,-858.900024414062,2.74170339368103,0.279400782784528,-0.0520922050433171,ST
0.866666666666667,2.61149215698242,0.489879101514816,9.38905048370361,0.274392008781433,0.823175966739655,0.434453994035721,-1224.30004882812,-5.10000038146973,-856.500061035156,2.73884781817876,0.26974364308379,-0.0523705013572577,ST
0.9,2.563640832901,0.523973226547241,9.37409687042236,0.327746003866196,0.762199997901917,0.442075997591019,-1231.5,-5.10000038146973,-854.100036621094,2.73696332134743,0.265393593407737,-0.0560762884566409,ST
0.933333333333333,2.57859444618225,0.498253107070923,9.27540302276611,0.320124000310898,0.792688012123108,0.403965979814529,-1219.5,-6.90000009536743,-856.500061035156,2.73375985621736,0.269331518049707,-0.0540666312822995,ST
0.966666666666667,2.56304264068604,0.517991840839386,9.32145977020264,0.297257989645004,1.31098401546478,0.403965979814529,-1224.30004882812,-12.3000001907349,-861.300048828125,2.73133899438816,0.265777699253931,-0.0557637716008568,ST
1.0,2.4876766204834,0.519188106060028,9.37888145446777,0.282013982534409,1.44055795669556,0.442075997591019,-1231.5,-7.50000047683716,-861.300048828125,2.72811724544683,0.25661944839267,-0.0555578367931988,ST
1.03333333333333,2.38479614257812,0.569432079792023,9.4847526550293,0.228659987449646,1.53964400291443,0.503051996231079,-1229.10009765625,-11.7000007629395,-846.900024414062,2.72594467429571,0.243636374735097,-0.0599811203756574,ST
1.06666666666667,2.29028940200806,0.525169551372528,9.42434024810791,0.190549999475479,1.54726600646973,0.548784017562866,-1233.90002441406,-2.70000004768372,-868.500061035156,2.7212053701101,0.235547544149448,-0.0558098308019851,ST
1.1,2.26157855987549,0.503636360168457,9.37888145446777,0.114329993724823,1.94360995292664,0.564027965068817,-1212.30004882812,-11.1000003814697,-863.700012207031,2.71719026672301,0.233026345265044,-0.0536311029222693,ST
1.13333333333333,2.18800687789917,0.449803501367569,9.41656494140625,-0.0533539988100529,2.17227005958557,0.472563982009888,-1217.10009765625,-6.90000009536743,-863.700012207031,2.71295353623703,0.224544952905604,-0.0475764948651197,ST
1.16666666666667,1.97805881500244,0.462962657213211,9.46680927276611,-0.0762199983000755,2.43141794204712,0.320124000310898,-1205.10009765625,-2.70000004768372,-873.300048828125,2.71102512174492,0.202158672150254,-0.0485463933285553,ST
1.2,1.81177508831024,0.512608528137207,9.44886493682861,0.0304879993200302,2.64483404159546,0.213415995240211,-1217.10009765625,-1.5,-875.700012207031,2.71025246949291,0.185062871713798,-0.0539819708597649,ST
1.23333333333333,1.74478304386139,0.503636360168457,9.54815578460693,0.0381099991500378,2.89635992050171,0.37347799539566,-1200.30004882812,-11.1000003814697,-863.700012207031,2.70720728750191,0.175709342367003,-0.0526337834215288,ST
1.26666666666667,1.58448076248169,0.537730515003204,9.40998554229736,0.0838419944047928,3.25459384918213,0.480185985565186,-1209.90002441406,-3.90000009536743,-878.100036621094,2.70416970602064,0.16119381045687,-0.0569597664708869,ST
1.3,1.52586269378662,0.521580696105957,9.54396915435791,-0.0381099991500378,3.96343994140625,0.693601965904236,-1197.90002441406,-4.5,-868.500061035156,2.69870457810195,0.151637145608005,-0.0543340141291638,ST
1.33333333333333,1.17893981933594,0.595750391483307,9.54038047790527,-0.0838419944047928,4.92381191253662,0.777444005012512,-1188.30004882812,-2.10000014305115,-880.500061035156,2.69425505705449,0.115236870077683,-0.0617853432273809,ST
1.36666666666667,0.99590802192688,0.550291538238525,9.39682579040527,-0.259148001670837,5.89942789077759,0.853663980960846,-1183.5,-11.1000003814697,-885.300048828125,2.68724317153816,0.0955780229397928,-0.0579099127586278,ST
1.4,0.632835268974304,0.594554126262665,9.60737228393555,-0.533540010452271,7.1265697479248,0.967993974685669,-1173.90002441406,-8.70000076293945,-880.500061035156,2.68043435683085,0.054484799449881,-0.0606553987505023,ST
1.43333333333333,0.22011661529541,0.608909547328949,9.55772686004639,-0.449698001146317,7.5610237121582,1.07470202445984,-1154.70007324219,-3.30000019073486,-894.900024414062,2.67257002198704,0.0111378899584087,-0.0627382382286608,ST
1.46666666666667,-0.168078169226646,0.584385693073273,9.53738975524902,-0.46494197845459,8.23176002502441,1.33385002613068,-1135.5,-7.50000047683716,-899.700012207031,2.66303839372611,-0.0306204498545836,-0.0605319830077834,ST
1.5,-0.561058104038239,0.608311414718628,9.67914962768555,-0.510673999786377,8.14791774749756,1.62348592281342,-1135.5,-3.90000009536743,-892.500061035156,2.65182373528914,-0.0706855594719624,-0.0620791722728056,ST
1.53333333333333,-1.06110560894012,0.528758406639099,9.50927734375,-0.37347799539566,7.44669389724731,1.92836594581604,-1123.5,-3.30000019073486,-899.700012207031,2.64011294570159,-0.122301319765975,-0.0555599854593661,ST
1.56666666666667,-1.25310957431793,0.52038437128067,9.56131553649902,-0.426831990480423,7.21803379058838,1.98171997070312,-1116.30004882812,-5.10000038146973,-892.500061035156,2.62704102129378,-0.142100234394796,-0.0542404621705506,ST
1.6,-1.73760533332825,0.56763768196106,9.51765060424805,-0.236281991004944,6.01375770568848,1.92836594581604,-1092.30004882812,-3.90000009536743,-904.500061035156,2.61430902361887,-0.189225509498762,-0.0597472809437058,ST
1.63333333333333,-2.15750169754028,0.573020994663239,9.36632061004639,-0.0838419944047928,5.12198400497437,1.92074394226074,-1092.30004882812,-5.10000038146973,-894.900024414062,2.60249655441663,-0.233468713442036,-0.0618075398258856,ST
1.66666666666667,-2.33933711051941,0.526963949203491,9.30112361907959,-0.114329993724823,4.35216188430786,1.97409796714783,-1087.5,-3.90000009536743,-914.100036621094,2.59219252809376,-0.252863469493803,-0.0575092857141086,ST
1.7,-2.50143384933472,0.400755792856216,9.42613506317139,-0.137196004390717,3.20123982429504,1.85214591026306,-1087.5,-7.50000047683716,-911.700012207031,2.58553782080718,-0.264287756427199,-0.043575508013057,ST
1.73333333333333,-2.77957034111023,0.371446788311005,9.72161769866943,0.0457319989800453,2.35519790649414,1.72257196903229,-1080.30004882812,-7.50000047683716,-911.700012207031,2.57769380537037,-0.281792684012527,-0.0392997444900821,ST
1.76666666666667,-2.7801685333252,0.290697485208511,9.23831844329834,0.274392008781433,1.64635193347931,1.74543797969818,-1075.5,-6.30000019073486,-902.100036621094,2.57092526055111,-0.294593408041422,-0.0330579765460381,ST
1.8,-3.05172538757324,0.0903195887804031,9.03375339508057,0.213415995240211,1.48628997802734,1.48628997802734,-1073.10009765625,-7.50000047683716,-916.500061035156,2.57030690246897,-0.327405906302475,-0.0118530404586563,ST
1.83333333333333,-3.2186074256897,0.0592161528766155,9.08997917175293,0.0609759986400604,1.65397393703461,1.51677799224854,-1075.5,-6.30000019073486,-914.100036621094,2.56429115385119,-0.342737860467835,-0.0076855626476462,ST
1.86666666666667,-3.3047399520874,-0.0634031519293785,8.82739353179932,-0.205793991684914,1.75305998325348,1.39482593536377,-1058.70007324219,-0.900000035762787,-909.300048828125,2.56195655077535,-0.360781026330781,0.0062432775249681,ST
1.9,-3.35857272148132,-0.217724040150642,8.79748725891113,-0.586893975734711,2.46952795982361,0.907018005847931,-1070.70007324219,-3.30000019073486,-902.100036621094,2.56287329692393,-0.368786729416693,0.0248558485703548,ST
1.93333333333333,-3.32507681846619,-0.163293033838272,9.39024639129639,-0.503051996231079,2.17989206314087,0.78506600856781,-1058.70007324219,-8.10000038146973,-926.100036621094,2.55567987484029,-0.344614935111282,0.0179392719069099,ST
1.96666666666667,-3.40941500663757,-0.156115308403969,9.18269062042236,0.0304879993200302,0.586893975734711,0.78506600856781,-1056.30004882812,-4.5,-902.100036621094,2.55146455555067,-0.356187810161832,0.0164852097519989,ST
2.0,-3.49255681037903,-0.0215331465005875,9.13364315032959,0.327746003866196,0.205793991684914,0.739333987236023,-1053.90002441406,-5.70000028610229,-916.500061035156,2.54327262671395,-0.365335608426987,0.0017078869023266,ST
2.03333333333333,-3.47162175178528,0.174059599637985,9.425537109375,0.640248000621796,-0.0990860015153885,0.67835795879364,-1056.30004882812,-5.10000038146973,-911.700012207031,2.53371349811265,-0.352999897933905,-0.0194300306546117,ST
2.06666666666667,-3.356778383255,0.372044920921326,9.15338230133057,0.937505960464478,-1.18903195858002,0.87652999162674,-1061.10009765625,-5.10000038146973,-909.300048828125,2.52350454871954,-0.349203037815316,-0.0421514533966279,ST
2.1,-3.35019874572754,0.510215938091278,8.78432750701904,0.769822001457214,-1.49391198158264,1.02134799957275,-1058.70007324219,-2.70000004768372,-916.500061035156,2.51431233036815,-0.360766673366533,-0.0594872666954298,ST
2.13333333333333,-3.33165645599365,0.659153580665588,8.91950798034668,0.365855991840363,-1.60061991214752,1.39482593536377,-1063.5,-2.70000004768372,-894.900024414062,2.5034011197586,-0.353815467698143,-0.0747998225994844,ST
2.16666666666667,-3.15400791168213,0.561058104038239,8.81902027130127,0.175305992364883,-2.03507399559021,1.65397393703461,-1056.30004882812,-7.50000047683716,-906.900024414062,2.49964234154451,-0.339489228761818,-0.0650515513970355,ST
2.2,-2.95662069320679,0.35709136724472,8.59112739562988,-0.0990860015153885,-2.20275783538818,1.36433792114258,-1058.70007324219,-7.50000047683716,-897.300048828125,2.50029455767863,-0.327496045081118,-0.0425970708912106,ST
2.23333333333333,-2.88663792610168,0.343334078788757,8.90874099731445,-0.0762199983000755,-2.04269599914551,0.716467976570129,-1070.70007324219,-4.5,-911.700012207031,2.49822166044208,-0.310008091858324,-0.0388493732396585,ST
2.26666666666667,-2.7622241973877,0.308043628931046,8.80346870422363,-0.0304879993200302,-2.30184388160706,-0.0838419944047928,-1082.70007324219,-4.5,-918.900024414062,2.5002277606216,-0.300063132189932,-0.0349176596301469,ST
2.3,-2.75863528251648,0.271556913852692,8.95420074462891,-0.152439996600151,-2.47714996337891,0.121951997280121,-1080.30004882812,-0.900000035762787,-914.100036621094,2.50116111607086,-0.294552539433916,-0.0302083196202437,ST
2.33333333333333,-2.70181179046631,0.129797026515007,9.16833591461182,-0.137196004390717,-2.28659987449646,0.358233988285065,-1094.70007324219,-1.5,-911.700012207031,2.50386609974521,-0.282877654061744,-0.0145198355188363,ST
2.36666666666667,-2.71616721153259,0.0813474431633949,9.353759765625,-0.167683988809586,-2.79727387428284,0.160062000155449,-1073.10009765625,0.300000011920929,-916.500061035156,2.50458067116127,-0.277838225736805,-0.0086150946365995,ST
2.4,-2.57679986953735,0.104675017297268,9.52961349487305,0.0914639979600906,-3.33081388473511,0.121951997280121,-1092.30004882812,0.300000011920929,-914.100036621094,2.50360489164417,-0.258786136865657,-0.0111136430824227,ST
2.43333333333333,-2.36625361442566,0.0927121639251709,9.25028133392334,0.533540010452271,-3.3613018989563,0.167683988809586,-1099.5,-9.90000057220459,-906.900024414062,2.50365598151733,-0.244939048524516,-0.0110146783674483,ST
2.46666666666667,-2.12819266319275,-0.0460570082068443,8.87823581695557,0.426831990480423,-2.99544596672058,-0.274392008781433,-1101.90002441406,-5.10000038146973,-909.300048828125,2.5091949854557,-0.230392557573233,0.0041808999912193,ST
2.5,-2.2053530216217,0.0867307335138321,9.33701133728027,0.350611984729767,-2.28659987449646,-0.891773998737335,-1097.10009765625,-6.30000019073486,-897.300048828125,2.51156425547849,-0.228000639865234,-0.0092835861144602,ST
2.53333333333333,-1.73222208023071,-0.0275145769119263,9.40699481964111,0.419209986925125,-2.17989206314087,-0.99848198890686,-1099.5,3.90000009536743,-921.300048828125,2.51974447591216,-0.179324769547023,0.0022723337363809,ST
2.56666666666667,-1.41042113304138,0.277538329362869,9.60737228393555,0.381099998950958,-2.23324584960938,-1.265251994133,-1104.30004882812,-5.10000038146973,-904.500061035156,2.52183019434453,-0.142886697075374,-0.0283517418560507,ST
2.6,-1.68975389003754,0.602329969406128,10.2025241851807,0.724089980125427,-2.43141794204712,-0.304879993200302,-1118.70007324219,-3.30000019073486,-902.100036621094,2.52000646557395,-0.15924747797223,-0.0593517124845987,ST
2.63333333333333,-1.0575168132782,0.318810194730759,8.85909557342529,0.823175966739655,-2.47714996337891,0.457319974899292,-1118.70007324219,-9.90000057220459,-911.700012207031,2.52158940027073,-0.115190178287778,-0.0378754866238819,ST
2.66666666666667,-1.28301668167114,0.431261092424393,9.30710506439209,0.632625997066498,-1.47866797447205,0.0838419944047928,-1118.70007324219,-2.70000004768372,-902.100036621094,2.52077616443849,-0.133865279163435,-0.0472136253660132,ST
2.7,-1.04734838008881,0.671116411685944,9.49970626831055,0.693601965904236,-1.76830399036407,0.129574000835419,-1121.10009765625,-9.30000019073486,-897.300048828125,2.51824000590885,-0.107010559201163,-0.0712339047327254,ST
2.73333333333333,-1.53004968166351,0.830222427845001,10.0075302124023,0.922261953353882,-1.52439999580383,0.548784017562866,-1133.10009765625,-5.70000028610229,-890.100036621094,2.51506466128919,-0.147344273865593,-0.0841249479712755,ST
2.76666666666667,-1.54141438007355,0.894223749637604,9.29932880401611,1.08232402801514,-1.88263392448425,0.800309956073761,-1137.90002441406,-5.10000038146973,-902.100036621094,2.51055034480814,-0.159851660193327,-0.0976406489472816,ST
2.8,-1.98224580287933,0.636424124240875,8.66888618469238,0.907018005847931,-0.823175966739655,0.487807989120483,-1140.30004882812,-7.50000047683716,-902.100036621094,2.51353527128996,-0.221006658659522,-0.0756577333966797,ST
2.83333333333333,-2.19638109207153,0.634629666805267,9.29574012756348,0.190549999475479,-0.480185985565186,0.0076219998300075,-1116.30004882812,-5.70000028610229,-897.300048828125,2.51549947296052,-0.230492345326065,-0.0686171723093295,ST
2.86666666666667,-2.27294325828552,0.768015563488007,8.57617378234863,-0.243903994560242,-2.01982998847961,-0.365855991840363,-1133.10009765625,-5.10000038146973,-899.700012207031,2.51323883490584,-0.254057181167596,-0.0881641996256559,ST
2.9,-2.87347888946533,0.668125689029694,9.83227443695068,-0.198172003030777,-1.40244793891907,0.472563982009888,-1123.5,-5.10000038146973,-906.900024414062,2.51624703013643,-0.280724461113689,-0.0680623584617816,ST
2.93333333333333,-1.85244882106781,0.607713282108307,10.1169900894165,-0.266770005226135,-3.31556987762451,0.746955990791321,-1140.30004882812,-0.900000035762787,-887.700012207031,2.51482179223198,-0.176830058062762,-0.0598599595726273,ST
2.96666666666667,-1.80698990821838,0.793137550354004,9.72700119018555,0.3125019967556,-4.33691787719727,0.99848198890686,-1142.70007324219,-6.90000009536743,-887.700012207031,2.50788549820617,-0.175438825340173,-0.0814992780811978,ST
3.0,-1.32967185974121,0.807493031024933,9.34060096740723,1.08232402801514,-4.01679372787476,1.265251994133,-1149.90002441406,-9.30000019073486,-887.700012207031,2.50298821632541,-0.134843746504088,-0.0881615972412877,ST
3.03333333333333,-1.14664006233215,0.833811283111572,9.04810905456543,1.38720393180847,-3.65093803405762,1.14329993724823,-1152.30004882812,-8.70000076293945,-892.500061035156,2.49897620109827,-0.119429172117873,-0.0943129905126143,ST
3.06666666666667,-0.948654770851135,0.806296706199646,9.54396915435791,1.29574000835419,-3.01068997383118,0.769822001457214,-1152.30004882812,-5.10000038146973,-899.700012207031,2.49788431562523,-0.094080811459058,-0.0868384194500258,ST
3.1,-0.781174719333649,0.837400138378143,9.48176193237305,0.87652999162674,-3.37654590606689,-0.0304879993200302,-1152.30004882812,-9.30000019073486,-887.700012207031,2.49991693577458,-0.0763446572762396,-0.0895244465871466,ST
3.13333333333333,-0.687266290187836,0.894223749637604,9.84842395782471,0.83841997385025,-3.07166600227356,0.274392008781433,-1171.5,-7.50000047683716,-894.900024414062,2.50007585642596,-0.0643402905105837,-0.0919454418149072,ST
3.16666666666667,-0.483299523591995,0.66633129119873,10.0410261154175,0.708845973014832,-2.85062789916992,0.518296003341675,-1178.70007324219,-6.90000009536743,-885.300048828125,2.49997822197561,-0.0435454358267625,-0.0681905744375649,ST
3.2,-0.416307508945465,0.574217259883881,10.1157941818237,0.365855991840363,-2.59910202026367,0.602137982845306,-1173.90002441406,-6.90000009536743,-897.300048828125,2.49797768631267,-0.0366025033564125,-0.0575663350379112,ST
3.23333333333333,-0.130395174026489,0.541319370269775,10.2138891220093,0.121951997280121,-2.30184388160706,0.792688012123108,-1178.70007324219,1.5,-880.500061035156,2.49421692302235,-0.0090987687561074,-0.0532431699671531,ST
3.26666666666667,0.028710862621665,0.476121813058853,9.92737865447998,0.213415995240211,-2.14178204536438,0.891773998737335,-1169.10009765625,-6.30000019073486,-875.700012207031,2.49015880154089,0.0062688438575348,-0.048424429579199,ST
3.3,0.328978627920151,0.294286340475082,10.0440168380737,0.0304879993200302,-1.42531394958496,1.05945801734924,-1176.30004882812,-11.1000003814697,-882.900024414062,2.48438868462396,0.0345836469094242,-0.0297425688536408,ST
3.33333333333333,0.47851437330246,0.0909177288413048,10.1265602111816,-0.213415995240211,-1.08232402801514,0.846041977405548,-1185.90002441406,-3.30000019073486,-873.300048828125,2.47928421086991,0.0487265410625705,-0.009113403092814,ST
3.36666666666667,0.60352623462677,-0.0992917343974113,10.2420024871826,-0.236281991004944,-0.868907988071442,0.701223969459534,-1190.70007324219,-9.30000019073486,-885.300048828125,2.47468638675211,0.0600464192974706,0.0096546470372178,ST
3.4,0.799717128276825,-0.258995920419693,10.3993139266968,-0.365855991840363,-0.327746003866196,0.236281991004944,-1178.70007324219,-3.90000009536743,-880.500061035156,2.47250740199095,0.0768194100395648,0.0251371797300146,ST
3.43333333333333,1.05332982540131,-0.187218755483627,10.3562469482422,-0.396344006061554,-0.190549999475479,-0.320124000310898,-1183.5,-0.900000035762787,-870.900024414062,2.47505883731506,0.101239855278168,0.0188287934119758,ST
3.46666666666667,1.36795294284821,0.0807493031024933,10.9525957107544,-0.0762199983000755,0.137196004390717,0.137196004390717,-1183.5,-6.30000019073486,-885.300048828125,2.4772386258737,0.123393994108018,-0.0064992922349532,ST
3.5,2.24841952323914,0.273949474096298,9.29813289642334,-0.0,-0.716467976570129,-0.0990860015153885,-1195.5,-10.5,-892.500061035156,2.4818937239233,0.236019071166323,-0.0290117498696642,ST
3.53333333333333,1.78306424617767,0.750071287155151,8.04263019561768,-0.358233988285065,0.297257989645004,-0.739333987236023,-1188.30004882812,-1.5,-892.500061035156,2.49983525917961,0.217176152301057,-0.090917781248229,ST
3.56666666666667,1.3781213760376,1.22619307041168,9.07203483581543,-0.175305992364883,1.16616594791412,-0.365855991840363,-1185.90002441406,-7.50000047683716,-887.700012207031,2.50878877957735,0.149226762667034,-0.132938608210959,ST
3.6,0.384007781744003,1.17893981933594,8.73049449920654,0.579271972179413,2.37806391716003,-0.160062000155449,-1178.70007324219,-2.70000004768372,-897.300048828125,2.50794521116666,0.0424046206029544,-0.135162484791388,ST
3.63333333333333,-0.649583280086517,1.44331896305084,9.78741359710693,0.739333987236023,4.57319974899292,-0.297257989645004,-1166.70007324219,-5.10000038146973,-885.300048828125,2.50604409000193,-0.0703757887339144,-0.147403364278367,ST
3.66666666666667,-1.46066510677338,1.79143822193146,10.4232397079468,1.32622802257538,4.80948209762573,0.663114011287689,-1166.70007324219,-11.1000003814697,-885.300048828125,2.49681120945056,-0.143279433528717,-0.172179309931288,ST
3.7,-0.705808699131012,1.4821982383728,9.54217529296875,1.05945801734924,4.60368776321411,0.457319974899292,-1152.30004882812,-7.50000047683716,-873.300048828125,2.49298360165052,-0.0824717251735057,-0.156563257639913,ST
3.73333333333333,-1.11254596710205,1.37333631515503,9.353759765625,0.243903994560242,3.83386588096619,-0.236281991004944,-1154.70007324219,-9.90000057220459,-897.300048828125,2.49240661724927,-0.122695131294382,-0.146555809041023,ST
3.76666666666667,-0.82962429523468,0.964206457138062,8.36502933502197,0.0914639979600906,4.76375007629395,0.205793991684914,-1145.10009765625,-9.30000019073486,-880.500061035156,2.49184889802449,-0.106865711583794,-0.115917443353151,ST
3.8,-0.888840436935425,0.557469248771667,9.44407939910889,-0.25152599811554,4.33691787719727,-0.0457319989800453,-1154.70007324219,-5.70000028610229,-882.900024414062,2.49602301231991,-0.101393768471418,-0.0601191823810987,ST
3.83333333333333,-1.29976463317871,0.456981241703033,9.00982761383057,-0.282013982534409,3.803377866745,-0.434453994035721,-1130.70007324219,-1.5,-904.500061035156,2.4982975187173,-0.148757081625238,-0.0503319664715517,ST
3.86666666666667,-1.23875403404236,0.32538977265358,8.48047065734863,-0.190549999475479,5.10673999786377,-0.442075997591019,-1128.30004882812,-4.5,-890.100036621094,2.50112649097153,-0.153737929010679,-0.0382887740837585,ST
3.9,-1.98104953765869,0.319408357143402,10.0906715393066,-0.0076219998300075,5.51070594787598,-0.487807989120483,-1118.70007324219,-7.50000047683716,-897.300048828125,2.5040290125162,-0.202628241270854,-0.0316268567443298,ST
3.93333333333333,-1.89132809638977,0.649583280086517,9.05050086975098,-0.129574000835419,4.39789390563965,-1.18140995502472,-1101.90002441406,-5.70000028610229,-902.100036621094,2.5006495841981,-0.213007068610931,-0.0700226905581351,ST
3.96666666666667,-2.45657324790955,0.945065915584564,9.16115760803223,-0.121951997280121,4.30642986297607,-0.602137982845306,-1087.5,-6.90000009536743,-894.900024414062,2.4939943315661,-0.267256409121423,-0.10191609558539,ST
4.0,-2.29208397865295,0.690257012844086,9.08579158782959,-0.518296003341675,3.55947399139404,-0.304879993200302,-1097.10009765625,-6.30000019073486,-904.500061035156,2.50011412556735,-0.252972356233626,-0.0754629847185954,ST
4.03333333333333,-2.69164347648621,0.930710434913635,9.21558856964111,-0.78506600856781,3.43752193450928,-0.990859985351562,-1080.30004882812,-12.3000001907349,-904.500061035156,2.49633747807911,-0.288203706894899,-0.0984604329635014,ST
4.06666666666667,-3.25569224357605,0.896018147468567,9.55473613739014,-0.693601965904236,3.39941191673279,-1.12805593013763,-1075.5,-14.1000003814697,-894.900024414062,2.5014214016796,-0.332347854718011,-0.0919335111730551,ST
4.1,-3.19827055931091,0.506028950214386,9.90644359588623,-1.10518991947174,3.16313004493713,-1.31860601902008,-1080.30004882812,-12.9000005722046,-911.700012207031,2.51878299464847,-0.317895546369614,-0.0494714131537593,ST
4.13333333333333,-3.61637234687805,0.829026162624359,9.26702880859375,-0.594515979290009,2.13416004180908,-1.6692179441452,-1061.10009765625,-7.50000047683716,-894.900024414062,2.51260014356146,-0.373133335354086,-0.0861405380410536,ST
4.16666666666667,-2.67130661010742,0.488084673881531,7.3912525177002,-0.0228659994900227,2.37044191360474,-0.92988395690918,-1056.30004882812,-5.10000038146973,-904.500061035156,2.52337761351699,-0.350971989229281,-0.0659636079985867,ST
4.2,-4.00815582275391,0.517991840839386,9.19764423370361,0.228659987449646,3.42989993095398,-0.510673999786377,-1053.90002441406,-8.10000038146973,-911.700012207031,2.5287698333267,-0.414633054669358,-0.0566885528187356,ST
4.23333333333333,-3.64508318901062,0.552085936069489,8.89199352264404,0.175305992364883,2.30946588516235,-0.327746003866196,-1041.90002441406,-0.900000035762787,-911.700012207031,2.52792080767286,-0.393024403299387,-0.0620325843989218,ST
4.26666666666667,-3.84486293792725,0.563450694084167,8.90694713592529,0.266770005226135,1.22714197635651,-0.205793991684914,-1051.5,-3.30000019073486,-899.700012207031,2.52850101974086,-0.408507697040499,-0.0635038671610774,ST
4.3,-3.47102355957031,0.196190893650055,8.57198715209961,-0.762199997901917,-0.25152599811554,-0.792688012123108,-1044.30004882812,-8.10000038146973,-914.100036621094,2.54727771704353,-0.38463355620822,-0.0216462447220657,ST
4.33333333333333,-3.9357807636261,0.18482618033886,8.92848014831543,-0.762199997901917,-0.25152599811554,-0.46494197845459,-1049.10009765625,-0.900000035762787,-904.500061035156,2.54895924352802,-0.413867137687808,-0.0190804572757753,ST
4.36666666666667,-3.70071053504944,-0.0939084440469742,8.57019233703613,-0.87652999162674,0.228659987449646,-0.564027965068817,-1058.70007324219,-2.10000014305115,-904.500061035156,2.56226785121061,-0.408158223933181,0.0120460434671372,ST
4.4,-4.14812135696411,-0.275145769119263,9.94891166687012,-1.04421401023865,0.259148001670837,-1.09756803512573,-1056.30004882812,-4.5,-902.100036621094,2.57236946925981,-0.39563975088421,0.0297839846312868,ST
4.43333333333333,-3.6193630695343,-0.317613929510117,9.7539176940918,-0.792688012123108,-0.37347799539566,-1.02897000312805,-1044.30004882812,-7.50000047683716,-899.700012207031,2.57785681217555,-0.35517613173285,0.0345102589428235,ST
4.46666666666667,-3.33823585510254,-0.591563403606415,9.35256385803223,-0.388722002506256,-1.35671591758728,-0.914639949798584,-1044.30004882812,-2.70000004768372,-916.500061035156,2.59116267356804,-0.340168976602861,0.0635506141751048,ST
4.5,-3.35318946838379,-0.641807436943054,9.73477649688721,-0.579271972179413,-2.01220798492432,-1.28049600124359,-1046.70007324219,-2.70000004768372,-916.500061035156,2.59735090533413,-0.327669678735201,0.0674441584343013,ST
4.53333333333333,-3.41719079017639,-0.327184200286865,8.95898532867432,-0.152439996600151,-2.89635992050171,-1.49391198158264,-1049.10009765625,-2.10000014305115,-909.300048828125,2.59394289097827,-0.358164972158114,0.0384903506562885,ST
4.56666666666667,-3.32029151916504,-0.331969350576401,8.05818176269531,0.350611984729767,-1.58537602424622,-0.304879993200302,-1056.30004882812,-6.30000019073486,-909.300048828125,2.59656983383768,-0.386952064372368,0.0406676682181993,ST
4.6,-3.36874127388,-0.0717771574854851,8.74126148223877,0.350611984729767,-0.830797970294952,0.266770005226135,-1073.10009765625,-5.10000038146973,-918.900024414062,2.5839009093523,-0.366880188307385,0.0081982938862375,ST
4.63333333333333,-3.36694669723511,-0.276342064142227,8.62402534484863,1.07470202445984,-0.602137982845306,0.693601965904236,-1056.30004882812,-5.70000028610229,-909.300048828125,2.58999396465256,-0.370943685926735,0.0292273072666917,ST
4.66666666666667,-3.37591886520386,-0.142358019948006,8.72271919250488,0.67835795879364,-0.121951997280121,-0.0381099991500378,-1049.10009765625,-3.30000019073486,-911.700012207031,2.58657251190167,-0.369048588575498,0.0154126354268506,ST
4.7,-3.81675028800964,0.0125610027462244,10.0027446746826,1.16616594791412,-0.564027965068817,-0.0762199983000755,-1056.30004882812,-7.50000047683716,-914.100036621094,2.58276186692671,-0.363634153595506,-0.0029043443726867,ST
4.73333333333333,-3.49674391746521,-0.115441590547562,8.75561714172363,1.11281192302704,-1.53964400291443,-0.724089980125427,-1068.30004882812,-0.900000035762787,-909.300048828125,2.59345635694817,-0.376866963724896,0.0113246158553663,ST
4.76666666666667,-3.60620403289795,0.169274464249611,9.09596061706543,0.617381989955902,-0.663114011287689,-0.25152599811554,-1063.5,-0.900000035762787,-914.100036621094,2.5848462814684,-0.37626438342039,-0.0186648273246047,ST
4.8,-3.49794006347656,-0.0873288735747337,8.65213775634766,0.495429992675781,-0.236281991004944,0.297257989645004,-1058.70007324219,-11.1000003814697,-914.100036621094,2.59435803532475,-0.383570245357004,0.0082613891524594,ST
4.83333333333333,-3.77966547012329,-0.0645994395017624,8.95778942108154,0.0914639979600906,0.480185985565186,0.480185985565186,-1051.5,-6.30000019073486,-902.100036621094,2.59167988436607,-0.399661961949745,0.0067441067714545,ST
4.86666666666667,-3.26825308799744,-0.25839775800705,8.38058090209961,0.685979962348938,0.3125019967556,0.937505960464478,-1056.30004882812,-6.30000019073486,-914.100036621094,2.5966831060829,-0.373015843842298,0.0283915910613795,ST
4.9,-3.78983378410339,-0.202770471572876,8.84713268280029,0.457319974899292,0.708845973014832,0.282013982534409,-1053.90002441406,-5.70000028610229,-918.900024414062,2.59394060906225,-0.404979440067131,0.0220968340897113,ST
4.93333333333333,-3.95073437690735,-0.0759641602635384,9.62412071228027,0.6250039935112,0.861285984516144,0.503051996231079,-1056.30004882812,0.300000011920929,-902.100036621094,2.58692579352008,-0.391408025568546,0.0068673691526158,ST
4.96666666666667,-3.78983378410339,-0.139965459704399,8.40271282196045,1.12043392658234,0.228659987449646,0.67835795879364,-1046.70007324219,-5.10000038146973,-914.100036621094,2.58886617246107,-0.4231822369715,0.0139677249803115,ST
5.0,-3.93039751052856,0.0281127188354731,8.71673774719238,1.18140995502472,0.823175966739655,0.983237981796265,-1063.5,-10.5,-918.900024414062,2.57872543613941,-0.424983580212789,-0.0055203939976535,ST
5.03333333333333,-3.98363208770752,-0.116039738059044,9.14620399475098,1.10518991947174,0.960371971130371,1.42531394958496,-1044.30004882812,-5.10000038146973,-916.500061035156,2.58032240235585,-0.412785106553335,0.0092650408418418,ST
5.06666666666667,-4.05780172348022,0.154320880770683,8.59830474853516,1.09756803512573,0.480185985565186,1.44817996025085,-1053.90002441406,-5.70000028610229,-914.100036621094,2.56312791281845,-0.441152450502211,-0.0205054356875652,ST
5.1,-4.17264556884766,0.109460160136223,8.76458930969238,1.63110792636871,1.18903195858002,2.09605002403259,-1053.90002441406,-7.50000047683716,-909.300048828125,2.55827886613957,-0.446174181027219,-0.01718940706535,ST
5.13333333333333,-3.83708715438843,0.0705808699131012,8.99606990814209,1.28811800479889,1.79879200458527,1.65397393703461,-1049.10009765625,-11.1000003814697,-916.500061035156,2.55540768000515,-0.407347564071326,-0.0115119748350367,ST
5.16666666666667,-3.80060052871704,0.297277063131332,8.43979740142822,1.18903195858002,1.08232402801514,1.50153398513794,-1044.30004882812,-7.50000047683716,-906.900024414062,2.54005261497963,-0.424213335010577,-0.0377549721470227,ST
5.2,-4.08830738067627,0.161498606204987,8.51576137542725,1.11281192302704,1.62348592281342,1.88263392448425,-1053.90002441406,-5.70000028610229,-909.300048828125,2.53959075608728,-0.449660506163959,-0.0228790503885934,ST
5.23333333333333,-3.37591886520386,-0.0107665732502937,8.83875846862793,0.663114011287689,1.2576299905777,1.85214591026306,-1039.5,-7.50000047683716,-899.700012207031,2.54041068650008,-0.369282411558365,-0.0017800421193169,ST
5.26666666666667,-3.38847994804382,0.297875195741653,8.22685813903809,1.05945801734924,-0.693601965904236,1.6844619512558,-1046.70007324219,-10.5,-892.500061035156,2.52074676634151,-0.388693940887801,-0.0383263323884101,ST
5.3,-3.13845610618591,0.181237325072289,8.5546407699585,1.38720393180847,-0.594515979290009,2.34757590293884,-1056.30004882812,-7.50000047683716,-906.900024414062,2.516668810036,-0.351452554799588,-0.0254621818157062,ST
5.33333333333333,-2.8142626285553,0.189013183116913,9.23353290557861,1.44055795669556,-1.76068198680878,2.0579400062561,-1049.10009765625,-6.30000019073486,-899.700012207031,2.50898888945861,-0.293845065841701,-0.024090254567506,ST
5.36666666666667,-2.73231720924377,0.372643083333969,8.74006462097168,1.42531394958496,-2.35519790649414,1.60061991214752,-1053.90002441406,-7.50000047683716,-899.700012207031,2.49748213161371,-0.298382267772184,-0.0453078977998954,ST
5.4,-2.79332756996155,0.736313998699188,8.88122653961182,1.45580196380615,-2.0731840133667,1.17378795146942,-1056.30004882812,-8.70000076293945,-906.900024414062,2.48304221697333,-0.299934747758749,-0.0846956247740869,ST
5.43333333333333,-2.56543517112732,0.68965882062912,9.35854530334473,1.62348592281342,-1.98934197425842,1.04421401023865,-1056.30004882812,-13.5000009536743,-892.500061035156,2.48305940583279,-0.264261902080937,-0.0770306610692351,ST
5.46666666666667,-2.90458226203918,0.767417430877686,8.83277702331543,1.265251994133,-2.26373386383057,0.259148001670837,-1068.30004882812,-11.7000007629395,-892.500061035156,2.48141167131966,-0.311462983431089,-0.0886259298388866,ST
5.5,-3.40462970733643,1.09041464328766,8.96616268157959,1.06708002090454,-1.03659200668335,0.320124000310898,-1053.90002441406,-12.9000005722046,-906.900024414062,2.47128661689812,-0.357761679686955,-0.122379950496994,ST
5.53333333333333,-3.5272490978241,1.13587355613708,9.66060733795166,1.05183601379395,-0.647870004177094,0.945127964019775,-1058.70007324219,-17.1000003814697,-887.700012207031,2.46996122601676,-0.346858277964382,-0.119501581922938,ST
5.56666666666667,-3.30832886695862,1.36316788196564,9.42314434051514,1.35671591758728,-0.983237981796265,1.03659200668335,-1068.30004882812,-18.3000011444092,-904.500061035156,2.45879809590283,-0.332685951298127,-0.146146768836059,ST
5.6,-3.31131958961487,1.23995041847229,8.97274303436279,1.30336201190948,-0.129574000835419,1.06708002090454,-1075.5,-11.1000003814697,-899.700012207031,2.45793108793112,-0.349521795498927,-0.140417477955352,ST
5.63333333333333,-3.07565116882324,1.10177934169769,9.51765060424805,0.594515979290009,0.114329993724823,0.945127964019775,-1063.5,-5.10000038146973,-918.900024414062,2.46168720961067,-0.311680791938191,-0.117459985708252,ST
5.66666666666667,-3.23595356941223,1.14843451976776,9.28138446807861,-0.106707997620106,-0.87652999162674,0.777444005012512,-1070.70007324219,-11.1000003814697,-911.700012207031,2.45644106338262,-0.330895255793801,-0.123158837340769,ST
5.7,-3.2628698348999,1.08981645107269,9.07024002075195,-0.327746003866196,-0.403965979814529,1.33385002613068,-1058.70007324219,-10.5,-906.900024414062,2.45071907636527,-0.3417604043249,-0.119889277345464,ST
5.73333333333333,-2.85314202308655,0.878073871135712,9.28916072845459,-0.602137982845306,-0.609759986400604,1.75305998325348,-1085.10009765625,-15.9000005722046,-899.700012207031,2.44934426798382,-0.296661659332858,-0.094801768455396,ST
5.76666666666667,-2.92312479019165,0.907382905483246,9.03554725646973,-0.548784017562866,-1.45580196380615,1.65397393703461,-1058.70007324219,-4.5,-894.900024414062,2.4395611473398,-0.308281353692955,-0.0998199275898986,ST
5.8,-3.22997212409973,1.12391066551208,9.41177940368652,-0.259148001670837,-0.739333987236023,2.11129403114319,-1070.70007324219,-6.30000019073486,-906.900024414062,2.42322762006596,-0.326209863758571,-0.119039375274174,ST
5.83333333333333,-3.06907153129578,1.263876080513,9.51765060424805,0.0076219998300075,-0.495429992675781,2.42379593849182,-1075.5,-12.9000005722046,-904.500061035156,2.4069932206966,-0.308409918647191,-0.133002369817444,ST
5.86666666666667,-2.82144045829773,1.15202331542969,8.61505317687988,0.0914639979600906,-0.403965979814529,2.31708788871765,-1077.90002441406,-6.90000009536743,-916.500061035156,2.39566831715272,-0.31252594255967,-0.134319566190871,ST
5.9,-3.21442031860352,1.18432307243347,8.96735954284668,-0.167683988809586,0.0914639979600906,2.01982998847961,-1075.5,-9.30000019073486,-904.500061035156,2.38615646546875,-0.340366716505093,-0.132310713888846,ST
5.93333333333333,-3.23774790763855,1.2297819852829,9.01281833648682,-0.0533539988100529,0.137196004390717,1.90549993515015,-1075.5,-12.3000001907349,-892.500061035156,2.3753205711675,-0.341704959869447,-0.136580979656249,ST
5.96666666666667,-3.23774790763855,1.00488018989563,8.6742696762085,-0.182927995920181,0.442075997591019,1.57775402069092,-1085.10009765625,-6.30000019073486,-906.900024414062,2.37392436010929,-0.355133007043092,-0.116617696591992,ST
6.0,-3.32208609580994,1.05452609062195,8.80286979675293,-0.411587983369827,0.990859985351562,1.2576299905777,-1087.5,-6.30000019073486,-904.500061035156,2.36536875162479,-0.359855689909176,-0.11933682935419,ST
6.03333333333333,-3.22757935523987,1.06768524646759,8.87763786315918,-0.106707997620106,1.03659200668335,1.21951997280121,-1075.5,-8.70000076293945,-909.300048828125,2.35833913706677,-0.348271258699175,-0.120326458125143,ST
6.06666666666667,-3.5673246383667,1.12510693073273,9.5625114440918,-0.106707997620106,0.853663980960846,0.632625997066498,-1065.90002441406,-6.30000019073486,-897.300048828125,2.35547277341152,-0.355979794475557,-0.117474609073026,ST
6.1,-3.23176646232605,1.11493849754333,9.32684326171875,-0.274392008781433,0.411587983369827,0.472563982009888,-1068.30004882812,-6.90000009536743,-906.900024414062,2.35202922861332,-0.332634542193426,-0.11877650764914,ST
6.13333333333333,-2.74248552322388,1.34103655815125,8.77236461639404,0.0152439996600151,-0.937505960464478,0.388722002506256,-1063.5,-5.70000028610229,-902.100036621094,2.34067000156206,-0.298729874664844,-0.151178455925616,ST
6.16666666666667,-2.53732252120972,1.14723825454712,8.36144065856934,-0.0990860015153885,-1.02897000312805,0.449698001146317,-1068.30004882812,-6.30000019073486,-894.900024414062,2.34314830221204,-0.290334044811983,-0.136647743864477,ST
6.2,-2.5857720375061,1.39187872409821,8.77774810791016,-0.457319974899292,-0.975615978240967,0.0838419944047928,-1075.5,-11.7000007629395,-909.300048828125,2.33731179722141,-0.28161253116983,-0.156017923196167,ST
6.23333333333333,-2.72872829437256,1.43135607242584,9.13364315032959,-0.175305992364883,-0.823175966739655,0.289635986089706,-1080.30004882812,-8.10000038146973,-911.700012207031,2.33648370040571,-0.285400910695261,-0.155245003786592,ST
6.26666666666667,-2.4655454158783,1.05452609062195,8.98171520233154,-0.746955990791321,-0.327746003866196,-0.221037998795509,-1075.5,-14.1000003814697,-914.100036621094,2.3474449230141,-0.265954922591421,-0.11606578343854,ST
6.3,-2.88903045654297,1.26925933361053,9.0074348449707,-1.08232402801514,0.0076219998300075,-0.693601965904236,-1068.30004882812,-11.7000007629395,-918.900024414062,2.3432793411932,-0.306568405038493,-0.137128072531106,ST
6.33333333333333,-3.04993104934692,1.27344644069672,9.32145977020264,-0.663114011287689,0.960371971130371,-0.282013982534409,-1075.5,-5.10000038146973,-902.100036621094,2.34373437659895,-0.314984963977418,-0.134602376141399,ST
6.36666666666667,-2.78315925598145,0.809885561466217,8.72630786895752,-1.04421401023865,1.34147191047668,-0.853663980960846,-1077.90002441406,-14.1000003814697,-909.300048828125,2.35881731955811,-0.310116197312799,-0.0915194985258061,ST
6.4,-3.19169092178345,0.858335137367249,8.92608737945557,-1.47866797447205,1.33385002613068,-1.42531394958496,-1065.90002441406,-5.10000038146973,-911.700012207031,2.36236238675753,-0.34355863386994,-0.0924560509702427,ST
6.43333333333333,-3.36634874343872,0.881662726402283,9.54995059967041,-1.65397393703461,1.14329993724823,-1.42531394958496,-1068.30004882812,-13.5000009536743,-911.700012207031,2.36726370866341,-0.339883851500441,-0.0884733491493928,ST
6.46666666666667,-2.93329310417175,0.522776961326599,9.23173904418945,-1.95123195648193,0.160062000155449,-1.27287399768829,-1065.90002441406,-10.5,-897.300048828125,2.38146560518636,-0.308476583756087,-0.0534283615011397,ST
6.5,-3.03916454315186,0.431261092424393,9.20123291015625,-2.36281991004944,-0.320124000310898,-1.71494996547699,-1051.5,-13.5000009536743,-923.700012207031,2.3896943353631,-0.317998008741617,-0.0420398496093601,ST
6.53333333333333,-2.83579587936401,0.186022460460663,9.19345760345459,-2.40855193138123,-0.297257989645004,-1.69970595836639,-1068.30004882812,-9.90000057220459,-892.500061035156,2.40233850957921,-0.29920439419921,-0.01583599823384,ST
6.56666666666667,-2.57859444618225,-0.30923992395401,9.27540302276611,-2.64483404159546,-0.823175966739655,-2.23324584960938,-1082.70007324219,-0.900000035762787,-923.700012207031,2.4245875634643,-0.270268140419755,0.0375345826475832,ST
6.6,-2.72753190994263,-0.391783654689789,9.69230842590332,-2.65245604515076,-1.42531394958496,-2.41617393493652,-1056.30004882812,-4.5,-921.300048828125,2.43490068132744,-0.271400642112635,0.0459386071946291,ST
6.63333333333333,-2.95662069320679,-0.531150937080383,9.43989276885986,-2.23324584960938,-1.65397393703461,-2.0655620098114,-1056.30004882812,-2.70000004768372,-914.100036621094,2.44553281178632,-0.299204646383302,0.0607421140394122,ST
6.66666666666667,-2.99729442596436,-0.855942606925964,9.40340518951416,-2.03507399559021,-1.02897000312805,-1.50153398513794,-1061.10009765625,-3.30000019073486,-914.100036621094,2.45945244659859,-0.305202375413808,0.0942781617945648,ST
6.7,-3.29098272323608,-0.706406831741333,9.88909816741943,-1.265251994133,-0.571649968624115,-0.777444005012512,-1061.10009765625,-6.30000019073486,-916.500061035156,2.45505393853436,-0.31918297174132,0.0742630727482039,ST
6.73333333333333,-2.87347888946533,-0.775193274021149,9.04272556304932,0.190549999475479,-0.769822001457214,0.121951997280121,-1070.70007324219,4.5,-923.700012207031,2.45768031490211,-0.305678299937359,0.0847876642857569,ST
6.76666666666667,-3.11273598670959,-0.753062009811401,8.98590183258057,0.350611984729767,-0.198172003030777,0.121951997280121,-1065.90002441406,-6.30000019073486,-916.500061035156,2.45699965136338,-0.331511808297842,0.0829536434656717,ST
6.8,-3.02720165252686,-0.619676113128662,9.16833591461182,0.365855991840363,0.198172003030777,0.487807989120483,-1077.90002441406,-0.300000011920929,-909.300048828125,2.4500492870664,-0.318902470930813,0.0669117434934264,ST
6.83333333333333,-2.79392576217651,-0.674107134342194,8.76758003234863,0.78506600856781,-0.243903994560242,0.990859985351562,-1065.90002441406,-2.70000004768372,-914.100036621094,2.44869822877918,-0.307659247223292,0.074591792491457,ST
6.86666666666667,-2.7981128692627,-0.698032855987549,8.61026763916016,0.746955990791321,-0.327746003866196,0.853663980960846,-1068.30004882812,3.30000019073486,-914.100036621094,2.44689480502353,-0.312654684905366,0.0789719769129841,ST
6.9,-2.99131298065186,-0.610703945159912,8.74784088134766,0.769822001457214,-0.0152439996600151,0.922261953353882,-1070.70007324219,-5.10000038146973,-909.300048828125,2.43988739880606,-0.328534041229224,0.0680106476546844,ST
6.93333333333333,-3.10854911804199,-0.421092659235001,8.87644195556641,1.33385002613068,0.335367977619171,1.265251994133,-1061.10009765625,-6.90000009536743,-909.300048828125,2.42852376563718,-0.336959289083079,0.0449600760402994,ST
6.96666666666667,-2.936283826828,-0.313426911830902,8.75202751159668,1.63872992992401,0.503051996231079,1.61586391925812,-1053.90002441406,-5.70000028610229,-911.700012207031,2.41899548470206,-0.324734911000888,0.0322638319636829,ST
7.0,-2.90398406982422,-0.336754500865936,9.01580905914307,1.37195992469788,0.3125019967556,1.56251001358032,-1061.10009765625,-0.900000035762787,-918.900024414062,2.41394983286746,-0.312343158977494,0.0340218579392254,ST
7.03333333333333,-3.09000658988953,-0.0496458671987057,9.02119255065918,1.34909391403198,0.0533539988100529,1.57775402069092,-1073.10009765625,1.5,-911.700012207031,2.39866298618732,-0.329627053768547,0.0030798146846194,ST
7.06666666666667,-3.05232357978821,-0.0299071483314037,8.46432113647461,1.53202199935913,0.792688012123108,2.01220798492432,-1063.5,-4.5,-914.100036621094,2.39037183451883,-0.346993960866911,-0.0003099154980679,ST
7.1,-3.10496020317078,-0.0035888578277081,8.83516979217529,1.37958192825317,1.55488801002502,2.17227005958557,-1065.90002441406,0.300000011920929,-906.900024414062,2.381154507047,-0.340826321493712,-0.0032649900360458,ST
7.13333333333333,-3.54698777198792,0.252416342496872,9.73477649688721,1.39482593536377,1.37958192825317,2.40092992782593,-1073.10009765625,-0.300000011920929,-926.100036621094,2.36235476891761,-0.351375655444289,-0.0293602791005104,ST
7.16666666666667,-3.49255681037903,0.364269077777863,9.71563625335693,1.6768399477005,1.12805593013763,2.82013988494873,-1061.10009765625,-3.30000019073486,-909.300048828125,2.34710237896059,-0.346767418921273,-0.0418591333446263,ST
7.2,-3.3286657333374,0.489280939102173,9.49193096160889,1.6692179441452,0.922261953353882,2.63721203804016,-1051.5,-7.50000047683716,-906.900024414062,2.33160122682521,-0.338403919645894,-0.0557709051017817,ST
7.23333333333333,-2.96200394630432,0.523973226547241,9.10852146148682,1.53964400291443,0.594515979290009,2.30946588516235,-1070.70007324219,-7.50000047683716,-906.900024414062,2.31999605736883,-0.315136736886066,-0.0613838072205749,ST
7.26666666666667,-2.86450672149658,0.536534249782562,8.58215522766113,1.37195992469788,0.137196004390717,1.43293595314026,-1058.70007324219,-9.90000057220459,-894.900024414062,2.31339307429066,-0.321522387582751,-0.0655890789890238,ST
7.3,-3.40522789955139,0.695042133331299,8.90335845947266,1.41006994247437,0.640248000621796,1.15092194080353,-1051.5,-9.30000019073486,-909.300048828125,2.30487573486213,-0.364203285379639,-0.0807863251002672,ST
7.33333333333333,-3.45008873939514,0.869101762771606,9.07801628112793,1.2347639799118,0.861285984516144,0.891773998737335,-1051.5,-12.3000001907349,-916.500061035156,2.29632659217516,-0.363052727483873,-0.0978297457842182,ST
7.36666666666667,-3.68396258354187,0.973776757717133,9.06784725189209,1.27287399768829,0.640248000621796,1.08994603157043,-1068.30004882812,-2.10000014305115,-916.500061035156,2.28877724771079,-0.384290127937626,-0.109719406790559,ST
7.4,-3.5631377696991,1.05452609062195,9.40520000457764,1.18140995502472,0.518296003341675,1.30336201190948,-1051.5,-3.30000019073486,-904.500061035156,2.28270390813315,-0.361356939645141,-0.1144810831956,ST
7.43333333333333,-3.27782344818115,1.15501403808594,9.29633808135986,1.37195992469788,-0.800309956073761,1.18903195858002,-1044.30004882812,-9.30000019073486,-902.100036621094,2.27576949400569,-0.33566220494689,-0.126337744581988,ST
7.46666666666667,-3.38190031051636,1.27703523635864,8.34349632263184,1.46342396736145,-0.99848198890686,0.792688012123108,-1039.5,-6.30000019073486,-911.700012207031,2.26553482977007,-0.378469900098346,-0.154419202801315,ST
7.5,-3.49853825569153,1.36376595497131,9.22934627532959,1.44055795669556,0.160062000155449,0.670735955238342,-1063.5,-11.1000003814697,-902.100036621094,2.26654336645693,-0.359402486518851,-0.149795683635734,ST
7.53333333333333,-3.58227825164795,1.43793570995331,10.0488023757935,1.31860601902008,-0.602137982845306,0.525918006896973,-1053.90002441406,-14.1000003814697,-914.100036621094,2.26844248803998,-0.33865901846164,-0.14483667592604,ST
7.56666666666667,-3.62055945396423,1.49296486377716,9.47578048706055,1.10518991947174,-1.49391198158264,0.320124000310898,-1051.5,-14.1000003814697,-887.700012207031,2.26560560075438,-0.357831117850153,-0.157976069675324,ST
7.6,-3.28380489349365,1.35060679912567,9.02956676483154,0.823175966739655,-1.63110792636871,0.213415995240211,-1056.30004882812,-11.7000007629395,-894.900024414062,2.26993785740934,-0.342815031462139,-0.150111008677492,ST
7.63333333333333,-3.07864189147949,1.18551933765411,8.34469223022461,0.434453994035721,-2.0731840133667,-0.0990860015153885,-1063.5,-0.900000035762787,-897.300048828125,2.27541868732181,-0.346548946454723,-0.141868239143447,ST
7.66666666666667,-3.12589526176453,1.06947958469391,8.01451778411865,0.152439996600151,-1.78354799747467,-0.266770005226135,-1068.30004882812,-6.30000019073486,-890.100036621094,2.28129367522927,-0.365354627786237,-0.132847580403616,ST
7.7,-3.12230634689331,1.12570512294769,8.35426330566406,0.121951997280121,-0.990859985351562,-0.0762199983000755,-1080.30004882812,-8.70000076293945,-916.500061035156,2.28212237830113,-0.353362763106908,-0.133986411696427,ST
7.73333333333333,-3.23236465454102,1.11374223232269,8.70537281036377,0.0838419944047928,-0.815553963184357,0.0381099991500378,-1082.70007324219,-9.30000019073486,-902.100036621094,2.28489301444898,-0.351502148307533,-0.127469821127333,ST
7.76666666666667,-3.32986187934875,1.03598368167877,8.85610485076904,0.114329993724823,0.0533539988100529,0.121951997280121,-1077.90002441406,-8.70000076293945,-918.900024414062,2.28810482607005,-0.357336888814581,-0.116988625383412,ST
7.8,-3.45607018470764,1.02043187618256,9.4554443359375,-0.0838419944047928,0.46494197845459,0.243903994560242,-1061.10009765625,-9.30000019073486,-902.100036621094,2.28963174476114,-0.349490026761343,-0.107738984874747,ST
7.83333333333333,-3.28739380836487,0.915158748626709,9.44467735290527,-0.37347799539566,0.0228659994900227,0.388722002506256,-1075.5,-11.1000003814697,-909.300048828125,2.29085521848828,-0.333914529859906,-0.096493085408826,ST
7.86666666666667,-3.10137128829956,0.895420014858246,8.9775276184082,-0.46494197845459,-0.327746003866196,0.327746003866196,-1073.10009765625,-10.5,-906.900024414062,2.28790469068251,-0.330567663638095,-0.0987139970968777,ST
7.9,-3.21023321151733,0.992319166660309,8.88062858581543,-0.381099998950958,-0.320124000310898,0.434453994035721,-1068.30004882812,-10.5,-899.700012207031,2.28139262327077,-0.343883001867874,-0.110527466934389,ST
7.93333333333333,-3.08402514457703,0.918149471282959,8.64077377319336,-0.472563982009888,-0.396344006061554,0.647870004177094,-1061.10009765625,-9.90000057220459,-899.700012207031,2.27930352914268,-0.34034037484098,-0.105547562918658,ST
7.96666666666667,-3.2407386302948,0.979758203029633,8.76997184753418,-0.541162014007568,-0.175305992364883,0.670735955238342,-1075.5,-8.70000076293945,-902.100036621094,2.27348396942891,-0.351215315084248,-0.110582461645234,ST
8.0,-3.2407386302948,0.955234348773956,8.86627292633057,-0.525918006896973,0.160062000155449,0.83841997385025,-1073.10009765625,-12.9000005722046,-916.500061035156,2.26961939180259,-0.348760591962378,-0.107045193262312,ST
8.03333333333333,-3.04514575004578,0.924130916595459,9.22097206115723,-0.548784017562866,0.282013982534409,0.564027965068817,-1073.10009765625,-11.1000003814697,-918.900024414062,2.26828802832148,-0.318711435730534,-0.0994823161865043,ST
8.06666666666667,-3.12709140777588,0.868503570556641,9.09356784820557,-0.556405961513519,-0.327746003866196,0.457319974899292,-1075.5,-9.30000019073486,-909.300048828125,2.26656701221861,-0.32898471300702,-0.0945895088360449,ST
8.1,-3.04634213447571,0.756052732467651,9.12407302856445,-0.891773998737335,-0.609759986400604,-0.0228659994900227,-1053.90002441406,1.5,-892.500061035156,2.26962240214522,-0.320341584297665,-0.0813552446094148,ST
8.13333333333333,-2.83878660202026,0.71059387922287,9.22216796875,-0.762199997901917,-1.01372599601746,-0.213415995240211,-1065.90002441406,-3.30000019073486,-911.700012207031,2.27163505492597,-0.296711310108259,-0.0755761952429781,ST
8.16666666666667,-2.81725335121155,0.410924226045609,9.08220291137695,-0.769822001457214,-1.77592599391937,-0.533540010452271,-1070.70007324219,-4.5,-916.500061035156,2.28287706193629,-0.297428869994103,-0.0442066174959889,ST
8.2,-2.74607443809509,0.342137783765793,9.31727313995361,-1.31098401546478,-2.16464805603027,-0.685979962348938,-1075.5,-9.90000057220459,-909.300048828125,2.28759349008486,-0.283099557518253,-0.0343030298363029,ST
8.23333333333333,-2.95602250099182,0.550291538238525,9.5086784362793,-1.20427596569061,-2.31708788871765,-0.243903994560242,-1077.90002441406,-5.70000028610229,-914.100036621094,2.28166700712864,-0.296543649079681,-0.0549253610426207,ST
8.26666666666667,-2.6037163734436,0.0992917343974113,9.3717041015625,-0.716467976570129,-1.39482593536377,0.769822001457214,-1085.10009765625,-1.5,-904.500061035156,2.28926544479322,-0.26929332918001,-0.0109324139709208,ST
8.3,-2.35728144645691,0.0903195887804031,10.3329200744629,-1.06708002090454,-1.70732796192169,0.0914639979600906,-1073.10009765625,0.300000011920929,-906.900024414062,2.28843813616564,-0.22229935048996,-0.0069939596864301,ST
8.33333333333333,-2.70719504356384,0.610105812549591,9.4913330078125,-0.243903994560242,-2.13416004180908,0.25152599811554,-1099.5,-2.70000004768372,-906.900024414062,2.27380466166671,-0.272179441946373,-0.0622518552646933,ST
8.36666666666667,-2.23167133331299,0.341539651155472,9.04511833190918,0.884151995182037,-0.571649968624115,1.03659200668335,-1089.90002441406,-5.70000028610229,-916.500061035156,2.27544848886103,-0.241517054816646,-0.0403324351207145,ST
8.4,-2.62046432495117,0.745884299278259,9.38546180725098,0.716467976570129,-0.365855991840363,0.884151995182037,-1068.30004882812,-0.900000035762787,-916.500061035156,2.2617148766494,-0.270178092099752,-0.0802282733060843,ST
8.43333333333333,-2.57500553131104,0.494066089391708,9.20781326293945,0.6250039935112,0.25152599811554,1.34147191047668,-1087.5,0.300000011920929,-921.300048828125,2.26183194936672,-0.272578180503662,-0.0558047128607815,ST
8.46666666666667,-2.57620167732239,0.299669623374939,9.29932880401611,-0.320124000310898,0.457319974899292,0.617381989955902,-1080.30004882812,-5.10000038146973,-911.700012207031,2.264441580383,-0.27092833061313,-0.0326098296253642,ST
8.5,-2.42786240577698,0.200377896428108,9.2227668762207,-0.815553963184357,0.0609759986400604,0.304879993200302,-1070.70007324219,-3.90000009536743,-914.100036621094,2.26490716381992,-0.25781044530098,-0.020771556261235,ST
8.53333333333333,-2.43683457374573,0.171068891882896,8.56899642944336,-0.495429992675781,-0.0838419944047928,0.0152439996600151,-1077.90002441406,-3.90000009536743,-906.900024414062,2.26455967230129,-0.276411847058867,-0.0191425574633132,ST
8.56666666666667,-2.84237551689148,0.267968058586121,9.07083797454834,0.243903994560242,0.87652999162674,0.160062000155449,-1085.10009765625,-3.90000009536743,-909.300048828125,2.26097968608659,-0.30427940788241,-0.0297608408234192,ST
8.6,-2.98772406578064,0.426475942134857,9.10074520111084,0.609759986400604,1.34147191047668,0.190549999475479,-1073.10009765625,-9.30000019073486,-918.900024414062,2.25529074156067,-0.318802171229529,-0.047537838124185,ST
8.63333333333333,-3.14862465858459,0.525767683982849,9.01401424407959,0.807931959629059,1.58537602424622,0.594515979290009,-1070.70007324219,-3.30000019073486,-911.700012207031,2.24937478700877,-0.337699045409918,-0.0597475957334045,ST
8.66666666666667,-3.00626659393311,0.568833947181702,9.10194206237793,0.685979962348938,1.59299790859222,0.769822001457214,-1075.5,0.900000035762787,-916.500061035156,2.24487698053862,-0.321568218401879,-0.0639999272706466,ST
8.7,-2.88364720344543,0.680686712265015,9.07382869720459,0.556405961513519,0.571649968624115,0.868907988071442,-1070.70007324219,-2.10000014305115,-916.500061035156,2.2373181934493,-0.308062396912844,-0.076099123798206,ST
8.73333333333333,-3.16058754920959,0.617283523082733,9.26224422454834,0.480185985565186,0.358233988285065,0.823175966739655,-1061.10009765625,-5.70000028610229,-914.100036621094,2.23606751820888,-0.328370639074326,-0.0680154645838595,ST
8.76666666666667,-2.92731165885925,0.680088579654694,9.25387001037598,0.228659987449646,0.46494197845459,0.548784017562866,-1058.70007324219,-3.90000009536743,-923.700012207031,2.23156130344668,-0.306795281599561,-0.0739580187100792,ST
8.8,-3.12888598442078,0.581993103027344,9.62950325012207,0.0228659994900227,0.3125019967556,0.152439996600151,-1075.5,-2.10000014305115,-916.500061035156,2.23474483010937,-0.313958928545511,-0.0608688642692087,ST
8.83333333333333,-3.20843887329102,0.84158718585968,9.95549201965332,0.304879993200302,0.289635986089706,-0.0685980021953583,-1053.90002441406,-8.10000038146973,-904.500061035156,2.22828384920248,-0.311319990366566,-0.0841903198525726,ST
8.86666666666667,-2.9661910533905,0.907981038093567,8.65094184875488,0.602137982845306,-0.259148001670837,0.0152439996600151,-1065.90002441406,-5.70000028610229,-906.900024414062,2.22277699501553,-0.327726016771304,-0.105032868599,ST
8.9,-3.25509405136108,0.984543323516846,8.69939136505127,0.594515979290009,0.617381989955902,0.144817993044853,-1053.90002441406,0.300000011920929,-899.700012207031,2.21991007283703,-0.356208857087783,-0.113628270458263,ST
8.93333333333333,-2.76102805137634,0.869699895381927,9.63488674163818,0.510673999786377,0.342989981174469,0.0152439996600151,-1065.90002441406,-5.10000038146973,-914.100036621094,2.22738905216539,-0.280721611196622,-0.0915404690249327,ST
8.96666666666667,-2.65814733505249,1.10596632957458,8.69520473480225,0.685979962348938,-1.27287399768829,-0.571649968624115,-1068.30004882812,-6.30000019073486,-911.700012207031,2.22211689103402,-0.292049498088702,-0.126352997722237,ST
9.0,-3.16955971717834,1.30275535583496,8.9296760559082,1.30336201190948,-1.12805593013763,0.0381099991500378,-1058.70007324219,-9.90000057220459,-914.100036621094,2.21863296803684,-0.334619694461199,-0.146500909738437,ST
9.03333333333333,-2.91893768310547,1.12749946117401,9.05409049987793,0.891773998737335,-0.586893975734711,0.137196004390717,-1058.70007324219,-6.90000009536743,-911.700012207031,2.22625844602099,-0.30929347411681,-0.126049472171848,ST
9.06666666666667,-3.01643490791321,1.11792922019958,9.35136699676514,0.358233988285065,-0.78506600856781,0.0,-1065.90002441406,-8.70000076293945,-914.100036621094,2.22928916986242,-0.308616332504881,-0.119690325198961,ST
9.1,-2.97875189781189,0.980954468250275,9.2281494140625,-0.0228659994900227,-0.739333987236023,-0.0990860015153885,-1063.5,-9.30000019073486,-899.700012207031,2.23433869160517,-0.309314241781611,-0.106052694329043,ST
9.13333333333333,-2.84476804733276,0.991721034049988,9.0493049621582,0.129574000835419,-0.78506600856781,-0.190549999475479,-1061.10009765625,-7.50000047683716,-902.100036621094,2.23514386392146,-0.301673264846415,-0.109182252934461,ST
9.16666666666667,-3.03617382049561,1.00846910476685,8.90156364440918,0.487807989120483,-0.0228659994900227,-0.190549999475479,-1061.10009765625,-3.30000019073486,-890.100036621094,2.23561813108821,-0.326167077027117,-0.113445454697783,ST
9.2,-3.09060478210449,1.03777801990509,8.87883472442627,0.236281991004944,0.396344006061554,-0.289635986089706,-1063.5,-5.10000038146973,-902.100036621094,2.23620238910507,-0.333411641316579,-0.116534397892351,ST
9.23333333333333,-3.36036729812622,1.21542656421661,9.55114650726318,0.137196004390717,0.457319974899292,-0.213415995240211,-1053.90002441406,-12.9000005722046,-897.300048828125,2.233999370549,-0.336577071756966,-0.126536010592606,ST
9.26666666666667,-3.10196948051453,1.07067596912384,9.23293495178223,0.266770005226135,0.342989981174469,0.0228659994900227,-1058.70007324219,-5.70000028610229,-904.500061035156,2.23746819042627,-0.323076913726197,-0.116235654139844,ST
9.3,-2.72932648658752,0.821848452091217,8.26633548736572,-0.182927995920181,0.228659987449646,-0.640248000621796,-1058.70007324219,-2.70000004768372,-921.300048828125,2.2456467101833,-0.318092649940401,-0.0989066217992582,ST
9.33333333333333,-3.2168128490448,0.818259596824646,8.65871810913086,-0.327746003866196,0.884151995182037,-0.967993974685669,-1065.90002441406,-11.1000003814697,-904.500061035156,2.25135947986295,-0.355053939676351,-0.093224922963701,ST
9.36666666666667,-3.16896152496338,0.805100440979004,8.87345123291016,-0.167683988809586,1.00610399246216,-0.792688012123108,-1039.5,0.900000035762787,-914.100036621094,2.25581893685837,-0.343825717463167,-0.0898251655000528,ST
9.4,-3.3346471786499,0.489879101514816,9.329833984375,-0.350611984729767,0.129574000835419,-0.899396002292633,-1070.70007324219,-13.5000009536743,-906.900024414062,2.27217021875161,-0.343169395674827,-0.0523397524032967,ST
9.43333333333333,-3.17195224761963,0.384007781744003,9.28377723693848,-0.792688012123108,-0.426831990480423,-1.19665396213531,-1058.70007324219,-4.5,-916.500061035156,2.28097658507772,-0.328715462479848,-0.0395869263657664,ST
9.46666666666667,-3.25210332870483,0.41750380396843,9.78442287445068,-0.807931959629059,-1.02134799957275,-1.12805593013763,-1056.30004882812,-2.70000004768372,-916.500061035156,2.28509378975552,-0.319182068372599,-0.040531534223563,ST
9.5,-2.88245105743408,0.208751901984215,9.10074520111084,-0.6250039935112,-1.85214591026306,-1.02134799957275,-1056.30004882812,-8.70000076293945,-914.100036621094,2.2955916434259,-0.303748516798221,-0.0216051975391271,ST
9.53333333333333,-2.76700949668884,0.106469452381134,8.55284595489502,-0.617381989955902,-1.57013201713562,-0.952749967575073,-1068.30004882812,-3.30000019073486,-918.900024414062,2.30285745845399,-0.310016461424038,-0.0110511290338692,ST
9.56666666666667,-3.03557562828064,0.373839348554611,8.82859039306641,-0.0381099991500378,-0.990859985351562,-0.472563982009888,-1063.5,-0.300000011920929,-914.100036621094,2.29583529944467,-0.328682587089576,-0.0411015303229154,ST
9.6,-2.97695755958557,0.203368604183197,8.73587799072266,0.365855991840363,-0.846041977405548,0.137196004390717,-1056.30004882812,-7.50000047683716,-918.900024414062,2.3013243825083,-0.326896552165446,-0.0242510630594825,ST
9.63333333333333,-3.28559923171997,0.156115308403969,9.39981651306152,0.0076219998300075,-0.419209986925125,0.236281991004944,-1065.90002441406,-6.30000019073486,-916.500061035156,2.30258824225115,-0.335248727220915,-0.0169637566069636,ST
9.66666666666667,-3.35737657546997,0.153722748160362,10.9723348617554,-0.144817993044853,-0.663114011287689,0.518296003341675,-1065.90002441406,-7.50000047683716,-921.300048828125,2.30073840658623,-0.296815937452101,-0.0141109414657542,ST
9.7,-2.84656238555908,0.119628593325615,10.2772922515869,-0.480185985565186,-2.61434602737427,0.327746003866196,-1065.90002441406,0.300000011920929,-906.900024414062,2.29937686737866,-0.266356954084376,-0.0110200248636604,ST
9.73333333333333,-2.47212481498718,0.186620607972145,8.47149848937988,-0.114329993724823,-3.41465592384338,0.754577994346619,-1068.30004882812,-5.70000028610229,-909.300048828125,2.29261919534764,-0.277642691429683,-0.0219313429260871,ST
9.76666666666667,-2.39137554168701,-0.0352904349565506,8.64376449584961,-0.0914639979600906,-1.98934197425842,0.548784017562866,-1073.10009765625,-9.30000019073486,-911.700012207031,2.2965076354385,-0.266703597818378,0.0033622090749213,ST
9.8,-2.5098078250885,0.122619308531284,9.11749362945557,0.205793991684914,-0.952749967575073,0.388722002506256,-1073.10009765625,-5.10000038146973,-918.900024414062,2.29043466472319,-0.266921750310533,-0.0135146526567078,ST
9.83333333333333,-2.13237977027893,-0.0968991592526436,8.9416389465332,0.152439996600151,-0.777444005012512,0.525918006896973,-1082.70007324219,-9.30000019073486,-906.900024414062,2.29354446794011,-0.233359636789383,0.0099205042227831,ST
9.86666666666667,-2.37402939796448,-0.028710862621665,9.70367336273193,-0.106707997620106,-1.28049600124359,0.175305992364883,-1094.70007324219,-5.10000038146973,-906.900024414062,2.29086903968138,-0.237614985384562,0.0032114541361209,ST
9.9,-2.0492377281189,-0.084936298429966,9.11928749084473,0.182927995920181,-1.37958192825317,0.221037998795509,-1085.10009765625,-0.300000011920929,-916.500061035156,2.29116826960197,-0.219145662205589,0.0087487153383771,ST
9.93333333333333,-2.15570735931396,-0.0813474431633949,8.668288230896,0.579271972179413,-0.975615978240967,0.25152599811554,-1080.30004882812,-5.10000038146973,-909.300048828125,2.29044852003554,-0.241412255457165,0.0082746437133207,ST
9.96666666666667,-2.50143384933472,0.108862020075321,9.61574649810791,0.640248000621796,0.304879993200302,0.426831990480423,-1082.70007324219,0.300000011920929,-914.100036621094,2.28412567027626,-0.254638698323117,-0.0120624211264129,ST
10.0,-2.35130000114441,0.189013183116913,9.68931770324707,0.701223969459534,0.419209986925125,0.670735955238342,-1085.10009765625,-9.30000019073486,-916.500061035156,2.27946244562964,-0.239164775344246,-0.0207763146254383,ST
10.0333333333333,-2.32438349723816,0.203368604183197,9.41417217254639,0.6250039935112,0.37347799539566,0.769822001457214,-1080.30004882812,-5.10000038146973,-909.300048828125,2.27579950755621,-0.242534100657257,-0.0229641346308283,ST
10.0666666666667,-2.04026556015015,0.16568560898304,8.92728424072266,0.457319974899292,0.266770005226135,0.67835795879364,-1070.70007324219,-11.7000007629395,-909.300048828125,2.27347163305452,-0.225449750646001,-0.0196990745362542,ST
10.1,-2.57201480865479,0.367857933044434,9.46142578125,0.510673999786377,0.594515979290009,0.792688012123108,-1085.10009765625,-8.70000076293945,-899.700012207031,2.26487218380315,-0.265486875061049,-0.0397632712337279,ST
10.1333333333333,-2.31780409812927,0.294286340475082,9.20362567901611,0.663114011287689,0.792688012123108,0.952749967575073,-1073.10009765625,-8.70000076293945,-894.900024414062,2.26235044464586,-0.248389251141768,-0.0337244702015868,ST
10.1666666666667,-2.515789270401,0.226696193218231,9.03794002532959,0.564027965068817,0.632625997066498,0.609759986400604,-1094.70007324219,-3.90000009536743,-918.900024414062,2.26162091520376,-0.272046421610816,-0.0264988353893591,ST
10.2,-2.84177732467651,0.525767683982849,9.19405555725098,0.739333987236023,1.48628997802734,0.495429992675781,-1077.90002441406,-5.70000028610229,-897.300048828125,2.2509653742287,-0.301150135207696,-0.0579540453856901,ST
10.2333333333333,-2.67070841789246,0.446214646100998,9.401611328125,0.792688012123108,1.42531394958496,0.579271972179413,-1070.70007324219,-8.70000076293945,-911.700012207031,2.25133738727614,-0.279522196335404,-0.0493728813570668,ST
10.2666666666667,-2.75265383720398,0.645396292209625,9.79339504241943,0.6250039935112,0.701223969459534,0.121951997280121,-1070.70007324219,-6.30000019073486,-904.500061035156,2.24671313555623,-0.274779993930977,-0.0665011664872412,ST
10.3,-2.47930264472961,0.712986409664154,9.57507228851318,0.952749967575073,-0.342989981174469,-0.114329993724823,-1068.30004882812,-7.50000047683716,-914.100036621094,2.24644145778296,-0.252524900433242,-0.0757559398776604,ST
10.3333333333333,-2.59235167503357,0.824241042137146,8.74784088134766,1.19665396213531,-0.685979962348938,-0.182927995920181,-1080.30004882812,-8.10000038146973,-902.100036621094,2.24413612381363,-0.284829922699667,-0.0953576817562282,ST
10.3666666666667,-2.79990720748901,0.702219843864441,9.63907432556152,0.87652999162674,0.0914639979600906,0.152439996600151,-1070.70007324219,-4.5,-909.300048828125,2.25036739283594,-0.282193028813928,-0.0748323269230536,ST
10.4,-2.77059817314148,0.78476357460022,9.69888782501221,0.342989981174469,-0.663114011287689,-0.152439996600151,-1063.5,-3.30000019073486,-909.300048828125,2.25015757658213,-0.2764196289717,-0.0810596351486563,ST
10.4333333333333,-2.50143384933472,0.773398876190186,9.25028133392334,0.3125019967556,-0.937505960464478,0.403965979814529,-1070.70007324219,-3.90000009536743,-902.100036621094,2.24817051413118,-0.261939565008757,-0.0840293418596509,ST
10.4666666666667,-2.11084651947021,0.610703945159912,8.22984886169434,0.228659987449646,-1.09756803512573,0.411587983369827,-1070.70007324219,-8.10000038146973,-911.700012207031,2.24914885315099,-0.248817327448133,-0.0748710730817894,ST
10.5,-2.50442457199097,0.717771589756012,8.14012813568115,0.320124000310898,-0.25152599811554,0.25152599811554,-1082.70007324219,-8.70000076293945,-916.500061035156,2.24486996467514,-0.295601826423808,-0.088250142734469,ST
10.5333333333333,-2.81306648254395,0.668723821640015,9.03195858001709,0.457319974899292,0.739333987236023,0.46494197845459,-1082.70007324219,-6.90000009536743,-902.100036621094,2.24678544393407,-0.30220059957425,-0.0753464583210616,ST
10.5666666666667,-2.9320969581604,0.537730515003204,9.425537109375,-0.0152439996600151,0.716467976570129,0.304879993200302,-1075.5,-8.70000076293945,-911.700012207031,2.25030208078913,-0.302344538342271,-0.0576450502640493,ST
10.6,-2.97576117515564,0.576011657714844,9.25087928771973,-0.236281991004944,0.708845973014832,0.205793991684914,-1065.90002441406,-7.50000047683716,-909.300048828125,2.24734340249996,-0.311672141792853,-0.0618241338708659,ST
10.6333333333333,-3.02421092987061,0.492869794368744,9.38187217712402,-0.198172003030777,0.350611984729767,0.320124000310898,-1065.90002441406,-8.10000038146973,-911.700012207031,2.24798215357522,-0.312003960942294,-0.0524788654412996,ST
10.6666666666667,-2.40274024009705,0.330773055553436,8.68324184417725,-0.335367977619171,-0.167683988809586,0.388722002506256,-1075.5,-8.10000038146973,-906.900024414062,2.24967930561582,-0.270461406851668,-0.0380253870784091,ST
10.7,-2.87646961212158,0.363072782754898,8.71434497833252,-0.221037998795509,-0.6250039935112,0.175305992364883,-1065.90002441406,-5.10000038146973,-916.500061035156,2.24752179658063,-0.316727869867172,-0.0412860941498993,ST
10.7333333333333,-3.36455416679382,0.433653652667999,9.68154239654541,-0.0152439996600151,0.358233988285065,0.266770005226135,-1073.10009765625,-6.90000009536743,-911.700012207031,2.24498621002496,-0.334268748240218,-0.0448067671024048,ST
10.7666666666667,-2.62465143203735,0.178246602416039,9.61754035949707,-0.411587983369827,-0.594515979290009,-0.0381099991500378,-1065.90002441406,-6.30000019073486,-918.900024414062,2.2524444303809,-0.267213756902111,-0.0185124116037752,ST
10.8,-3.01464056968689,0.311034351587296,9.59481143951416,-0.282013982534409,-0.990859985351562,-0.137196004390717,-1077.90002441406,-3.90000009536743,-916.500061035156,2.24920923984879,-0.301595632766066,-0.0314559963832273,DLL
10.8333333333333,-2.55287408828735,0.139965459704399,9.08220291137695,-0.0762199983000755,-0.685979962348938,-0.0457319989800453,-1070.70007324219,-6.30000019073486,-904.500061035156,2.25387033304266,-0.273572912229101,-0.0156864515554103,DLL
10.8666666666667,-2.28849506378174,0.141759887337685,9.08938026428223,-0.266770005226135,-1.76068198680878,-0.442075997591019,-1075.5,-3.30000019073486,-906.900024414062,2.25606624847156,-0.244377051386444,-0.014944144025663,DLL
10.9,-2.69164347648621,0.250621914863586,8.77834606170654,0.388722002506256,-1.57013201713562,-0.0838419944047928,-1061.10009765625,-5.70000028610229,-909.300048828125,2.25355865195883,-0.293303223439482,-0.0287632828426411,DLL
10.9333333333333,-2.49485445022583,-0.0011962859425693,10.4256315231323,0.350611984729767,-0.571649968624115,0.746955990791321,-1068.30004882812,-6.90000009536743,-911.700012207031,2.25740681193406,-0.235500275393461,-0.0015653949976475,DLL
10.9666666666667,-1.77588653564453,0.0275145769119263,8.57079029083252,-0.152439996600151,-2.52288198471069,0.579271972179413,-1073.10009765625,-8.10000038146973,-906.900024414062,2.25400555313302,-0.20087190034347,-0.003108273139578,DLL
11.0,-2.82562732696533,0.0035888578277081,10.1098127365112,0.0076219998300075,-0.967993974685669,1.58537602424622,-1085.10009765625,-6.90000009536743,-906.900024414062,2.24650667848285,-0.268941202941963,-0.0011699479415604,DLL
11.0333333333333,-2.22808265686035,-0.0687864422798157,10.2976293563843,-0.205793991684914,-1.06708002090454,1.70732796192169,-1082.70007324219,-3.30000019073486,-916.500061035156,2.23937918866833,-0.212802183017898,0.0061729248088183,DLL
11.0666666666667,-2.25559711456299,-0.0783567279577255,9.54815578460693,-0.236281991004944,-2.080806016922,1.79879200458527,-1087.5,-3.90000009536743,-906.900024414062,2.23030062853485,-0.227942639094147,0.0078413777773361,DLL
11.1,-1.96071267127991,-0.238659039139748,8.70776557922363,-0.0152439996600151,-0.83841997385025,1.92836594581604,-1101.90002441406,-12.9000005722046,-916.500061035156,2.22423153549783,-0.220203638404893,0.0262170761358456,DLL
11.1333333333333,-2.36326289176941,-0.235668331384659,9.98300647735596,-0.0762199983000755,0.777444005012512,1.87501192092896,-1094.70007324219,-6.90000009536743,-897.300048828125,2.21319369085912,-0.23357448972327,0.0230266833492998,DLL
11.1666666666667,-1.90448725223541,-0.0053832866251468,9.24190711975098,-0.144817993044853,-0.129574000835419,1.54726600646973,-1092.30004882812,-8.10000038146973,-918.900024414062,2.19936193340095,-0.203483660585198,0.0006251103808923,DLL
11.2,-2.62704396247864,0.116039738059044,8.99427604675293,0.617381989955902,0.137196004390717,2.13416004180908,-1092.30004882812,-1.5,-914.100036621094,2.18580613926102,-0.282142027155291,-0.014600818106324,DLL
11.2333333333333,-2.65096974372864,0.0699827298521996,9.25925350189209,0.655492007732391,1.34909391403198,2.55336999893188,-1092.30004882812,-2.10000014305115,-918.900024414062,2.17378024213652,-0.281162671149753,-0.0100662056638817,DLL
11.2666666666667,-3.2927770614624,0.488084673881531,10.5835418701172,0.556405961513519,1.2576299905777,2.87349390983582,-1077.90002441406,3.90000009536743,-906.900024414062,2.14800017903679,-0.302898526275945,-0.0479470744064006,DLL
11.3,-2.81246829032898,0.699827253818512,9.12885761260986,1.41769194602966,0.457319974899292,4.33691787719727,-1087.5,-5.70000028610229,-916.500061035156,2.11771111212764,-0.298338190414811,-0.0806387201511495,DLL
11.3333333333333,-2.5558648109436,0.519188106060028,8.24540042877197,1.06708002090454,-0.0228659994900227,5.69363403320312,-1089.90002441406,-8.70000076293945,-911.700012207031,2.09487882508388,-0.29927419094028,-0.0681520542211921,DLL
11.3666666666667,-2.972172498703,0.726743698120117,7.89728164672852,0.213415995240211,-0.205793991684914,7.10370397567749,-1092.30004882812,-2.70000004768372,-906.900024414062,2.05177382332116,-0.355489614232491,-0.0958593127486558,DLL
11.4,-3.54638957977295,0.856540739536285,8.78133678436279,-0.556405961513519,0.746955990791321,9.96957588195801,-1075.5,-2.10000014305115,-902.100036621094,1.99533447803316,-0.381230624548457,-0.103084749601648,DLL
11.4333333333333,-3.841872215271,1.11194777488708,9.50568771362305,-0.945127964019775,1.28049600124359,11.8140993118286,-1092.30004882812,5.10000038146973,-897.300048828125,1.92354497459169,-0.381453081738428,-0.122750084805334,DLL
11.4666666666667,-3.06667900085449,0.827231705188751,9.08638954162598,-1.82165801525116,0.342989981174469,13.8644180297852,-1085.10009765625,0.300000011920929,-899.700012207031,1.85542497118702,-0.323524148391219,-0.0962683004735627,DLL
11.5,-2.2131290435791,0.69264954328537,9.40340518951416,-2.95733594894409,-0.724089980125427,13.3766098022461,-1094.70007324219,2.10000014305115,-916.500061035156,1.78867015208511,-0.229756320315668,-0.0744859997489496,DLL
11.5333333333333,-1.58986401557922,0.916953146457672,8.84414196014404,-3.11739802360535,-1.56251001358032,11.6235494613647,-1085.10009765625,-2.10000014305115,-909.300048828125,1.72205185704606,-0.173781381136206,-0.100746219296335,DLL
11.5666666666667,-1.42836546897888,0.943271458148956,9.77006721496582,-2.75916385650635,-1.6768399477005,10.602201461792,-1094.70007324219,-3.90000009536743,-918.900024414062,1.66757953215366,-0.140756387121632,-0.0942355781085342,DLL
11.6,-0.762632310390472,0.865512907505035,9.84782600402832,-2.08842802047729,-1.48628997802734,8.20889377593994,-1111.5,0.900000035762787,-909.300048828125,1.62592380210257,-0.0750011487416735,-0.0854024710472984,DLL
11.6333333333333,-0.327184200286865,0.631639003753662,8.88601207733154,-1.28049600124359,-1.12805593013763,4.08539199829102,-1111.5,-2.70000004768372,-909.300048828125,1.60581363178661,-0.035347892476824,-0.0694440806477459,DLL
11.6666666666667,-0.95463615655899,0.757248997688293,9.21499061584473,-0.899396002292633,-0.342989981174469,0.480185985565186,-1089.90002441406,8.70000076293945,-914.100036621094,1.60237257369247,-0.100399445692824,-0.0801938180651061,DLL
11.7,-1.77768087387085,1.14604198932648,10.02308177948,-0.434453994035721,-0.510673999786377,-0.434453994035721,-1101.90002441406,3.90000009536743,-906.900024414062,1.600199889907,-0.171622185394236,-0.11204307705144,DLL
11.7333333333333,-2.07735061645508,1.2178190946579,9.17551326751709,0.0076219998300075,-0.586893975734711,-0.899396002292633,-1097.10009765625,6.30000019073486,-916.500061035156,1.60142199689916,-0.218644980518603,-0.131061136448345,DLL
11.7666666666667,-3.05292177200317,1.42298209667206,10.9735307693481,0.609759986400604,0.548784017562866,-0.198172003030777,-1109.10009765625,4.5,-909.300048828125,1.60310147130521,-0.268790652596597,-0.129992812412673,DLL
11.8,-2.131183385849,0.91575688123703,10.7013759613037,0.289635986089706,-0.0990860015153885,-0.144817993044853,-1109.10009765625,2.10000014305115,-921.300048828125,1.6142205754921,-0.197471652396186,-0.0868509945590278,DLL
11.8333333333333,-1.86560797691345,0.712986409664154,9.46680927276611,-0.762199997901917,-2.11129403114319,-1.30336201190948,-1111.5,0.900000035762787,-904.500061035156,1.62344074047725,-0.190723951765491,-0.0737164989908377,DLL
11.8666666666667,-1.80579364299774,0.486888378858566,8.68802642822266,-0.754577994346619,-1.65397393703461,-1.31860601902008,-1111.5,0.900000035762787,-909.300048828125,1.63357282969185,-0.201563343801769,-0.0546989905660846,DLL
11.9,-1.7364090681076,0.482103228569031,8.55523872375488,-0.541162014007568,-0.198172003030777,-1.04421401023865,-1118.70007324219,9.30000019073486,-911.700012207031,1.63889286467397,-0.19971974619619,-0.05497097890559,DLL
11.9333333333333,-0.851755619049072,0.275145769119263,7.65802431106567,-0.777444005012512,-0.724089980125427,-1.43293595314026,-1104.30004882812,5.10000038146973,-911.700012207031,1.64941275905296,-0.111395702698461,-0.0346829734724872,DLL
11.9666666666667,-1.98762905597687,0.690855145454407,8.72570991516113,0.541162014007568,0.640248000621796,-0.792688012123108,-1106.70007324219,9.30000019073486,-911.700012207031,1.64680680248178,-0.222467141485952,-0.0788456252579654,DLL
12.0,-1.80698990821838,0.586778283119202,9.63668155670166,0.419209986925125,0.632625997066498,-0.899396002292633,-1121.10009765625,7.50000047683716,-914.100036621094,1.65506171506838,-0.187212650368605,-0.061733069227782,DLL
12.0333333333333,-3.28320670127869,1.06230187416077,10.9490070343018,1.00610399246216,0.541162014007568,0.129574000835419,-1116.30004882812,6.90000009536743,-909.300048828125,1.64707264993686,-0.288133654110006,-0.0975450831045145,DLL
12.0666666666667,-2.18980145454407,0.433055520057678,10.8694543838501,0.0152439996600151,0.3125019967556,0.236281991004944,-1109.10009765625,0.300000011920929,-921.300048828125,1.65942078356735,-0.201025015654221,-0.0411101761195219,DLL
12.1,-2.24064350128174,0.426475942134857,10.1265602111816,-0.937505960464478,-1.53964400291443,-0.83841997385025,-1104.30004882812,11.7000007629395,-899.700012207031,1.66316835237169,-0.214564097878371,-0.0401388624486479,DLL
12.1333333333333,-2.26636362075806,0.369652360677719,9.37529277801514,-0.46494197845459,-0.525918006896973,-0.221037998795509,-1113.90002441406,9.90000057220459,-911.700012207031,1.66419666045671,-0.235521613251214,-0.0385407455856017,DLL
12.1666666666667,-1.82493424415588,0.146545022726059,8.73827075958252,-0.175305992364883,0.175305992364883,0.0381099991500378,-1106.70007324219,11.1000003814697,-914.100036621094,1.66850501770207,-0.206770119757074,-0.0169324954937046,DLL
12.2,-2.09828543663025,0.142358019948006,8.90874099731445,0.0076219998300075,1.04421401023865,-0.0381099991500378,-1101.90002441406,2.10000014305115,-923.700012207031,1.66882197015882,-0.232393120220569,-0.016009056921148,DLL
12.2333333333333,-1.86500978469849,0.114245310425758,9.09237098693848,0.114329993724823,0.525918006896973,-0.160062000155449,-1118.70007324219,15.3000001907349,-914.100036621094,1.67041712861656,-0.204011580195025,-0.0127971881843672,DLL
12.2666666666667,-2.10546326637268,0.0717771574854851,9.27719783782959,-0.0685980021953583,-0.358233988285065,-0.67835795879364,-1111.5,11.1000003814697,-914.100036621094,1.67491137476835,-0.222043194893193,-0.0074995563318452,DLL
12.3,-2.21073651313782,0.0299071483314037,9.79817962646484,-0.25152599811554,-0.457319974899292,-0.510673999786377,-1109.10009765625,8.10000038146973,-909.300048828125,1.67830440503235,-0.221140209316542,-0.0025507415002524,DLL
12.3333333333333,-1.93858134746552,0.0101684303954244,9.71503829956055,-0.442075997591019,-0.823175966739655,-0.243903994560242,-1111.5,2.70000004768372,-902.100036621094,1.67955868546462,-0.196217783829219,-0.0002538036882187,DLL
12.3666666666667,-1.50911474227905,0.0376830063760281,9.06186580657959,-0.297257989645004,-1.22714197635651,0.0609759986400604,-1106.70007324219,6.90000009536743,-916.500061035156,1.6783681351208,-0.163567143441957,-0.0035864616029891,DLL
12.4,-1.91645002365112,0.167480036616325,8.72929859161377,0.403965979814529,0.640248000621796,0.739333987236023,-1128.30004882812,8.70000076293945,-916.500061035156,1.67171126531117,-0.216057908646396,-0.0198254054447388,DLL
12.4333333333333,-1.51928317546844,0.0442625805735588,8.40989017486572,0.327746003866196,1.6615959405899,0.480185985565186,-1101.90002441406,2.10000014305115,-909.300048828125,1.67217045675752,-0.182555272757688,-0.0063688184799795,DLL
12.4666666666667,-2.70839142799377,0.480308800935745,9.47099590301514,1.00610399246216,1.97409796714783,0.472563982009888,-1101.90002441406,5.70000028610229,-904.500061035156,1.6604038661842,-0.278899584737266,-0.0514171599927751,DLL
12.5,-2.62345504760742,0.35110992193222,9.55114650726318,1.12805593013763,1.80641400814056,0.487807989120483,-1094.70007324219,11.1000003814697,-914.100036621094,1.6624237043144,-0.271196365918844,-0.0392770782578241,DLL
12.5333333333333,-2.65635299682617,0.409727931022644,9.74075794219971,0.655492007732391,0.99848198890686,-0.0152439996600151,-1097.10009765625,8.10000038146973,-897.300048828125,1.66217845359975,-0.267843124287688,-0.0430887250133512,DLL
12.5666666666667,-3.11752104759216,0.499449372291565,10.1576642990112,0.693601965904236,0.830797970294952,-0.0304879993200302,-1101.90002441406,9.30000019073486,-921.300048828125,1.66118537333114,-0.298053915805143,-0.0501485485103212,DLL
12.6,-2.71736359596252,0.445616513490677,10.0787086486816,0.564027965068817,0.259148001670837,-0.243903994560242,-1094.70007324219,9.30000019073486,-921.300048828125,1.66451042606075,-0.264516280411334,-0.0451950369400472,DLL
12.6333333333333,-2.12580013275146,0.536534249782562,8.58993148803711,0.274392008781433,-1.04421401023865,-0.525918006896973,-1092.30004882812,5.10000038146973,-916.500061035156,1.66382304570794,-0.240820374744703,-0.0622925700719945,DLL
12.6666666666667,-2.36864614486694,0.769211888313293,8.46312522888184,0.762199997901917,-0.510673999786377,-0.175305992364883,-1082.70007324219,4.5,-909.300048828125,1.65869682023163,-0.27025414706665,-0.0911576857439832,DLL
12.7,-1.99839568138123,0.713584542274475,8.52353763580322,0.78506600856781,-0.3125019967556,-0.320124000310898,-1097.10009765625,4.5,-909.300048828125,1.6629605614342,-0.230147764638821,-0.0849234078642672,DLL
12.7333333333333,-1.92901110649109,0.79672646522522,8.71733570098877,0.655492007732391,-0.952749967575073,-0.571649968624115,-1085.10009765625,2.70000004768372,-906.900024414062,1.66548484064387,-0.215737569916925,-0.0918409442572482,DLL
12.7666666666667,-2.42008638381958,0.997104346752167,9.353759765625,1.01372599601746,-0.693601965904236,-0.274392008781433,-1101.90002441406,9.30000019073486,-906.900024414062,1.66520220834587,-0.250110982131984,-0.107563758745409,DLL
12.8,-2.29088759422302,0.895420014858246,10.2521705627441,0.952749967575073,-0.884151995182037,0.0076219998300075,-1089.90002441406,7.50000047683716,-918.900024414062,1.67095388241143,-0.218386177889176,-0.0892611593982053,DLL
12.8333333333333,-1.99540495872498,0.907981038093567,10.2073097229004,0.236281991004944,-1.82927989959717,-0.381099998950958,-1104.30004882812,5.70000028610229,-897.300048828125,1.67401325103212,-0.189985836058466,-0.0889572863546231,DLL
12.8666666666667,-1.69513714313507,0.866111040115356,8.94881725311279,-0.190549999475479,-2.28659987449646,-0.381099998950958,-1099.5,0.900000035762787,-914.100036621094,1.6755929089211,-0.182652836420577,-0.0957677350356255,DLL
12.9,-1.8267285823822,0.722556710243225,8.70477485656738,0.106707997620106,-0.259148001670837,0.205793991684914,-1101.90002441406,3.90000009536743,-914.100036621094,1.67715412134866,-0.205055809804086,-0.0834169510941999,DLL
12.9333333333333,-2.20415687561035,0.856540739536285,9.59122276306152,0.396344006061554,0.632625997066498,0.586893975734711,-1104.30004882812,8.70000076293945,-914.100036621094,1.67299108570793,-0.22546007875459,-0.0898348593119755,DLL
12.9666666666667,-2.27294325828552,0.745884299278259,9.60916709899902,0.480185985565186,0.327746003866196,0.746955990791321,-1113.90002441406,1.5,-914.100036621094,1.67195329067165,-0.231928476435203,-0.078854391008689,DLL
13.0,-2.49605059623718,0.87388688325882,9.68632698059082,0.419209986925125,0.518296003341675,0.670735955238342,-1101.90002441406,3.30000019073486,-921.300048828125,1.66585646317648,-0.251603496364375,-0.0907726150727939,DLL
13.0333333333333,-2.22628808021545,0.808689296245575,9.5505485534668,0.152439996600151,0.121951997280121,0.525918006896973,-1087.5,1.5,-890.100036621094,1.66469386752991,-0.228993294174465,-0.0851157525220848,DLL
13.0666666666667,-2.2173159122467,0.730930685997009,9.34837627410889,-0.0762199983000755,-0.342989981174469,0.769822001457214,-1113.90002441406,6.30000019073486,-902.100036621094,1.66218349298061,-0.231446068125968,-0.0783438806829984,DLL
13.1,-2.27533578872681,0.687266290187836,9.36093711853027,-0.152439996600151,-0.190549999475479,0.708845973014832,-1089.90002441406,4.5,-921.300048828125,1.65964429771577,-0.237241900969649,-0.0734498155430748,DLL
13.1333333333333,-2.14015555381775,0.56763768196106,9.00324821472168,-0.221037998795509,-0.0609759986400604,0.426831990480423,-1097.10009765625,3.30000019073486,-909.300048828125,1.65967478097574,-0.23289985667249,-0.0630446825871492,DLL
13.1666666666667,-2.46853613853455,0.695042133331299,9.24609375,0.3125019967556,0.541162014007568,0.708845973014832,-1097.10009765625,10.5,-911.700012207031,1.65327742852836,-0.260279299838313,-0.0755679738498515,DLL
13.2,-2.70898962020874,0.827231705188751,10.4124727249146,0.724089980125427,0.274392008781433,0.868907988071442,-1099.5,0.300000011920929,-909.300048828125,1.64811226024924,-0.254226256134885,-0.0808499636022899,DLL
13.2333333333333,-1.66343557834625,0.177050322294235,8.34170150756836,-0.129574000835419,-0.434453994035721,0.0762199983000755,-1104.30004882812,12.3000001907349,-921.300048828125,1.66072467428457,-0.197618845501209,-0.0226288614352601,DLL
13.2666666666667,-2.14015555381775,0.382811486721039,8.66469955444336,-0.701223969459534,-0.0990860015153885,-0.602137982845306,-1092.30004882812,4.5,-906.900024414062,1.65882749251725,-0.240879155626806,-0.0422510601552053,DLL
13.3,-2.78136491775513,0.474327385425568,10.0105209350586,-0.327746003866196,0.533540010452271,0.457319974899292,-1099.5,4.5,-904.500061035156,1.65462740838371,-0.270975818836394,-0.0469078974242674,DLL
13.3333333333333,-2.30763554573059,0.0867307335138321,9.57387638092041,-0.815553963184357,-0.0152439996600151,0.6250039935112,-1101.90002441406,2.10000014305115,-906.900024414062,1.65970584130415,-0.237098610594574,-0.0085989473828289,DLL
13.3666666666667,-2.38599228858948,0.203966751694679,9.39622783660889,-0.754577994346619,0.0076219998300075,0.480185985565186,-1092.30004882812,6.90000009536743,-916.500061035156,1.65342427673865,-0.248343038737776,-0.0203124519143079,DLL
13.4,-2.08393001556396,0.138171032071114,9.09356784820557,0.0762199983000755,0.221037998795509,0.739333987236023,-1094.70007324219,7.50000047683716,-899.700012207031,1.65083980041067,-0.226233259053563,-0.0157538903171769,DLL
13.4333333333333,-2.10008001327515,0.14355431497097,9.02478122711182,0.266770005226135,0.160062000155449,0.304879993200302,-1097.10009765625,11.1000003814697,-916.500061035156,1.64943713003712,-0.228803451487454,-0.016475597873302,DLL
13.4666666666667,-2.63063287734985,0.449803501367569,9.94771575927734,0.46494197845459,0.182927995920181,0.106707997620106,-1111.5,10.5,-918.900024414062,1.64248438247599,-0.257971063477483,-0.045433272358277,DLL
13.5,-1.86800050735474,0.236864611506462,8.95659255981445,0.190549999475479,-0.160062000155449,0.129574000835419,-1097.10009765625,3.30000019073486,-918.900024414062,1.64624810157671,-0.206693176894855,-0.0273200702351517,DLL
13.5333333333333,-2.21253085136414,0.308043628931046,8.93087291717529,-0.6250039935112,-0.457319974899292,-0.449698001146317,-1099.5,5.10000038146973,-914.100036621094,1.64666817618526,-0.241208899721475,-0.0330666625601675,DLL
13.5666666666667,-2.51279854774475,0.354698777198792,9.35316181182861,-0.160062000155449,0.556405961513519,0.0,-1097.10009765625,6.30000019073486,-923.700012207031,1.64523615803424,-0.26272684419749,-0.0375259886993997,DLL
13.6,-2.41649770736694,0.403148353099823,9.48236083984375,0.25152599811554,0.609759986400604,0.144817993044853,-1097.10009765625,9.30000019073486,-923.700012207031,1.64335881279931,-0.250702864073722,-0.0428569523901324,DLL
13.6333333333333,-2.29567265510559,0.366661638021469,9.11868953704834,0.129574000835419,0.129574000835419,-0.175305992364883,-1097.10009765625,5.10000038146973,-904.500061035156,1.64497993752327,-0.246786230746833,-0.04040797881848,DLL
13.6666666666667,-2.3937680721283,0.381017059087753,9.11330604553223,0.282013982534409,0.510673999786377,-0.213415995240211,-1085.10009765625,7.50000047683716,-911.700012207031,1.64591743299088,-0.257300545587569,-0.0421466329016681,DLL
13.7,-2.42487168312073,0.516795516014099,9.25087928771973,0.228659987449646,-0.0228659994900227,-0.586893975734711,-1089.90002441406,0.900000035762787,-904.500061035156,1.64575710611701,-0.25602618697477,-0.0555619655357115,DLL
13.7333333333333,-2.88484358787537,0.611302137374878,9.19345760345459,0.3125019967556,-0.198172003030777,-0.548784017562866,-1106.70007324219,7.50000047683716,-916.500061035156,1.64603616491701,-0.301866484337409,-0.0663359910129193,DLL
13.7666666666667,-2.76581311225891,0.632835268974304,9.45006084442139,0.0457319989800453,0.0762199983000755,-0.640248000621796,-1080.30004882812,5.70000028610229,-918.900024414062,1.64917188898167,-0.284806456355829,-0.0666132106492851,DLL
13.8,-2.70061540603638,0.645994424819946,9.52423095703125,-0.0,-0.0914639979600906,-0.320124000310898,-1089.90002441406,9.30000019073486,-906.900024414062,1.65053914165733,-0.275827301152704,-0.0675357262472557,DLL
13.8333333333333,-2.79512214660645,0.729136288166046,9.57567119598389,0.0304879993200302,-0.320124000310898,-0.365855991840363,-1077.90002441406,0.300000011920929,-911.700012207031,1.65028700823926,-0.282534266367021,-0.0756276587802693,DLL
13.8666666666667,-2.85254383087158,0.685471832752228,10.2754983901978,0.289635986089706,-0.0990860015153885,0.0381099991500378,-1089.90002441406,7.50000047683716,-911.700012207031,1.65279468498209,-0.270379277996671,-0.0673616360295305,DLL
13.9,-1.95712375640869,0.467747807502747,9.25506591796875,-0.0076219998300075,-1.39482593536377,-0.434453994035721,-1087.5,0.900000035762787,-916.500061035156,1.65930585382928,-0.207504270262966,-0.0507525760166825,DLL
13.9333333333333,-2.0731635093689,0.61249840259552,9.2640380859375,0.0914639979600906,-1.55488801002502,-0.403965979814529,-1089.90002441406,8.70000076293945,-899.700012207031,1.65880913526368,-0.216772879099545,-0.0655701929999663,DLL
13.9666666666667,-2.02650833129883,0.687266290187836,9.07203483581543,0.129574000835419,-1.41006994247437,-0.228659987449646,-1087.5,5.70000028610229,-906.900024414062,1.65855114405329,-0.21674031201519,-0.0754687462211414,DLL
14.0,-2.6096978187561,0.766221165657043,9.79219818115234,0.442075997591019,-0.525918006896973,0.419209986925125,-1104.30004882812,2.10000014305115,-918.900024414062,1.65639749195299,-0.257579976576607,-0.0789353295245306,DLL
14.0333333333333,-1.95114243030548,0.494066089391708,8.81303882598877,0.198172003030777,-0.510673999786377,0.152439996600151,-1097.10009765625,3.90000009536743,-914.100036621094,1.66119412453138,-0.217756979379228,-0.0570041440701355,DLL
14.0666666666667,-1.88415038585663,0.449803501367569,8.60608100891113,0.487807989120483,0.175305992364883,0.396344006061554,-1092.30004882812,9.30000019073486,-918.900024414062,1.66038880568153,-0.215562124936409,-0.053302710288206,DLL
14.1,-2.31062626838684,0.501841962337494,9.80834865570068,0.87652999162674,0.457319974899292,0.800309956073761,-1097.10009765625,5.10000038146973,-923.700012207031,1.65731755546685,-0.231349516063901,-0.0529956508624947,DLL
14.1333333333333,-2.30823373794556,0.540721237659454,10.0296611785889,0.426831990480423,-0.426831990480423,0.449698001146317,-1097.10009765625,8.10000038146973,-916.500061035156,1.65527269360105,-0.225268511425277,-0.054727391325778,DLL
14.1666666666667,-2.03428435325623,0.504832684993744,9.62890529632568,0.114329993724823,-1.02134799957275,0.472563982009888,-1092.30004882812,2.10000014305115,-918.900024414062,1.65369812783882,-0.206626775681375,-0.0527887789419365,DLL
14.2,-1.77528834342957,0.37623193860054,8.60009956359863,0.0381099991500378,-0.853663980960846,0.411587983369827,-1101.90002441406,8.10000038146973,-911.700012207031,1.65360413071154,-0.201987270151079,-0.0441609281792243,DLL
14.2333333333333,-2.37223505973816,0.552085936069489,9.01999568939209,0.274392008781433,0.457319974899292,0.480185985565186,-1089.90002441406,3.90000009536743,-909.300048828125,1.64749653250415,-0.255950476460447,-0.0613512175778516,DLL
14.2666666666667,-2.57859444618225,0.568235814571381,9.52363204956055,0.457319974899292,1.2576299905777,0.899396002292633,-1089.90002441406,8.70000076293945,-911.700012207031,1.6432305182329,-0.265825098809739,-0.0608663610254426,DLL
14.3,-2.23884916305542,0.211742609739304,9.60856914520264,-0.198172003030777,0.602137982845306,0.640248000621796,-1089.90002441406,0.300000011920929,-918.900024414062,1.64881132718615,-0.230636847352389,-0.0227572690196474,DLL
14.3333333333333,-2.08871531486511,0.0909177288413048,9.20003700256348,-0.724089980125427,-0.282013982534409,0.0533539988100529,-1092.30004882812,5.10000038146973,-914.100036621094,1.65081059777437,-0.222960334674388,-0.0090219666646661,DLL
14.3666666666667,-2.28490614891052,0.0245238617062569,9.19585037231445,-0.350611984729767,-0.190549999475479,0.228659987449646,-1085.10009765625,6.30000019073486,-911.700012207031,1.65060545272744,-0.242888541120688,-0.002260930019853,DLL
14.4,-2.11981868743896,0.0699827298521996,8.91950798034668,-0.228659987449646,-0.533540010452271,-0.0304879993200302,-1094.70007324219,1.5,-902.100036621094,1.6493125226443,-0.232680038515053,-0.0072922422262786,DLL
14.4333333333333,-2.45418071746826,0.187816888093948,8.75621509552002,0.320124000310898,0.495429992675781,0.365855991840363,-1087.5,6.30000019073486,-916.500061035156,1.64407419674013,-0.273312919184039,-0.0219168897358905,DLL
14.4666666666667,-2.70599889755249,0.183031752705574,10.1020364761353,0.442075997591019,1.2347639799118,0.899396002292633,-1101.90002441406,6.90000009536743,-916.500061035156,1.64072734186014,-0.264064027634165,-0.0193942173988646,DLL
14.5,-2.34890747070312,-0.0687864422798157,9.96027660369873,-0.320124000310898,-0.6250039935112,0.0914639979600906,-1101.90002441406,11.7000007629395,-916.500061035156,1.64627465093475,-0.231415573621907,0.0067004135260211,DLL
14.5333333333333,-2.82861804962158,0.116637878119946,10.1780004501343,-0.228659987449646,-0.480185985565186,-0.0990860015153885,-1094.70007324219,8.70000076293945,-916.500061035156,1.64221584296994,-0.269165452944964,-0.0105233665615236,DLL
14.5666666666667,-2.08931350708008,-0.0478514358401299,9.53140830993652,-0.0609759986400604,-0.3125019967556,-0.0990860015153885,-1106.70007324219,13.5000009536743,-897.300048828125,1.64631800158289,-0.216708875280845,0.0047425265880473,DLL
14.6,-2.64618444442749,0.303856641054153,8.86567497253418,0.289635986089706,-0.304879993200302,-0.426831990480423,-1101.90002441406,11.7000007629395,-902.100036621094,1.63943368650265,-0.287882480694345,-0.033714283146849,DLL
14.6333333333333,-2.60251998901367,0.187218755483627,8.58095932006836,0.746955990791321,1.31860601902008,0.121951997280121,-1099.5,9.30000019073486,-916.500061035156,1.64272200434074,-0.296463102557532,-0.0234857201325597,DLL
14.6666666666667,-2.30584120750427,0.0161498598754406,9.03315544128418,0.724089980125427,1.56251001358032,0.129574000835419,-1101.90002441406,11.1000003814697,-918.900024414062,1.64837811339643,-0.253846653794236,-0.003659276243672,DLL
14.7,-2.88065648078918,0.258995920419693,9.6103630065918,0.685979962348938,0.144817993044853,-0.670735955238342,-1082.70007324219,0.300000011920929,-909.300048828125,1.64670550476857,-0.290729054009872,-0.0273564932895113,DLL
14.7333333333333,-2.70480251312256,0.274547636508942,9.5326042175293,0.762199997901917,-0.0914639979600906,-0.434453994035721,-1085.10009765625,9.30000019073486,-916.500061035156,1.64937937986021,-0.276574273885881,-0.029845128216672,DLL
14.7666666666667,-2.77538347244263,0.403148353099823,9.86457347869873,0.701223969459534,0.0609759986400604,-0.0228659994900227,-1087.5,8.70000076293945,-928.500061035156,1.64723746852026,-0.274215587713735,-0.0417272908707491,DLL
14.8,-2.66113805770874,0.533543527126312,9.30052471160889,0.228659987449646,-0.78506600856781,-0.282013982534409,-1085.10009765625,6.90000009536743,-914.100036621094,1.64498470986803,-0.276834636516137,-0.0571109230175621,DLL
14.8333333333333,-2.72155046463013,0.510814070701599,8.70298004150391,0.548784017562866,0.0457319989800453,0.0457319989800453,-1080.30004882812,8.70000076293945,-904.500061035156,1.64487628477021,-0.301962810299437,-0.0595434339227883,DLL
14.8666666666667,-2.53074288368225,0.477318078279495,9.27360820770264,1.16616594791412,1.17378795146942,-0.0457319989800453,-1092.30004882812,3.30000019073486,-926.100036621094,1.64811255439981,-0.269045921729018,-0.0536298750094444,DLL
14.9,-3.00028514862061,0.875083148479462,9.353759765625,1.18140995502472,0.571649968624115,-0.67835795879364,-1080.30004882812,3.30000019073486,-916.500061035156,1.64165978649557,-0.30924911557383,-0.0940075692517629,DLL
14.9333333333333,-2.66472697257996,0.856540739536285,9.60797023773193,1.13567793369293,0.304879993200302,-0.282013982534409,-1077.90002441406,3.90000009536743,-911.700012207031,1.64546516824843,-0.271167967083159,-0.0908570018650268,DLL
14.9666666666667,-2.21970868110657,1.08622765541077,9.04511833190918,1.12805593013763,-1.62348592281342,-0.320124000310898,-1073.10009765625,9.30000019073486,-909.300048828125,1.64196181439497,-0.237200864164454,-0.120447094360106,DLL
15.0,-2.22210121154785,1.12929391860962,8.99068737030029,1.2347639799118,-1.40244793891907,-0.243903994560242,-1070.70007324219,6.30000019073486,-911.700012207031,1.64418760002694,-0.238087258924819,-0.126777111499185,DLL
15.0333333333333,-1.88594484329224,1.18193054199219,8.65273666381836,1.11281192302704,-0.769822001457214,-0.335367977619171,-1085.10009765625,3.90000009536743,-914.100036621094,1.64531306891462,-0.212161613319427,-0.13724069385479,DLL
15.0666666666667,-2.63422155380249,0.774595141410828,9.85320949554443,0.525918006896973,1.07470202445984,0.556405961513519,-1080.30004882812,1.5,-918.900024414062,1.65346208466207,-0.262260737098802,-0.0796709097344317,DLL
15.1,-2.69702672958374,0.394774347543716,10.0141096115112,-1.31098401546478,-1.2576299905777,-0.884151995182037,-1085.10009765625,8.70000076293945,-918.900024414062,1.67178338246356,-0.260749496755689,-0.0366787864364164,DLL
15.1333333333333,-2.54091143608093,0.132189601659775,9.96087455749512,-0.46494197845459,-0.83841997385025,-0.617381989955902,-1085.10009765625,6.90000009536743,-914.100036621094,1.68036940624088,-0.248635096986663,-0.0128440124747298,DLL
15.1666666666667,-2.38180541992188,0.10527316480875,9.38247108459473,-0.0838419944047928,-0.533540010452271,-0.708845973014832,-1099.5,8.70000076293945,-914.100036621094,1.6845677239803,-0.247692753484797,-0.0108010285569088,DLL
15.2,-2.0612006187439,0.160900458693504,7.8918981552124,-0.144817993044853,-0.663114011287689,-1.18140995502472,-1097.10009765625,4.5,-916.500061035156,1.68824188437521,-0.254123267238613,-0.0193522389440844,DLL
15.2333333333333,-2.8543381690979,0.458775669336319,9.09655857086182,0.487807989120483,0.350611984729767,-0.861285984516144,-1089.90002441406,5.70000028610229,-916.500061035156,1.68476040152395,-0.303005732205051,-0.0499223013019464,DLL
15.2666666666667,-2.65994191169739,-0.0071777156554162,9.4375,0.6250039935112,0.922261953353882,-0.167683988809586,-1082.70007324219,9.90000057220459,-911.700012207031,1.70035377104097,-0.276976826445194,-0.0014177118046354,DLL
15.3,-2.61866998672485,-0.0586180128157139,9.84662914276123,-0.640248000621796,0.144817993044853,-1.02134799957275,-1087.5,5.10000038146973,-916.500061035156,1.70691027789376,-0.260623719882187,0.0073052705926053,DLL
15.3333333333333,-2.91116189956665,0.174657747149467,9.61275577545166,-0.198172003030777,-0.914639949798584,-0.449698001146317,-1087.5,7.50000047683716,-921.300048828125,1.7023082522336,-0.291569862205607,-0.0168956413076138,DLL
15.3666666666667,-2.38898301124573,-0.276342064142227,8.62701606750488,0.320124000310898,-0.449698001146317,0.480185985565186,-1080.30004882812,6.30000019073486,-909.300048828125,1.71330471880533,-0.269871727987179,0.0299210493119491,DLL
15.4,-2.34232783317566,-0.336754500865936,9.41297626495361,-0.0,0.205793991684914,0.259148001670837,-1094.70007324219,7.50000047683716,-921.300048828125,1.71342516572585,-0.244723913815721,0.0355143796570749,DLL
15.4333333333333,-2.80648684501648,-0.0807493031024933,9.60139083862305,0.0685980021953583,-0.160062000155449,0.106707997620106,-1087.5,6.30000019073486,-911.700012207031,1.70605293417279,-0.283021973030832,0.0089861539760427,DLL
15.4666666666667,-2.14434266090393,-0.509019672870636,9.07263278961182,-0.0914639979600906,-0.213415995240211,0.182927995920181,-1085.10009765625,3.90000009536743,-926.100036621094,1.71667908032388,-0.232322467271065,0.0552854301439778,DLL
15.5,-1.74478304386139,-0.499449372291565,9.44647216796875,-0.403965979814529,-1.12043392658234,-0.807931959629059,-1094.70007324219,5.70000028610229,-911.700012207031,1.71986083319494,-0.181601062202385,0.0538066673709877,DLL
15.5333333333333,-1.83749520778656,-0.267968058586121,8.78492546081543,0.297257989645004,-1.80641400814056,-1.18140995502472,-1087.5,6.30000019073486,-916.500061035156,1.72146499418684,-0.202301552410436,0.0310148153536464,DLL
15.5666666666667,-1.51090919971466,-0.473729223012924,8.58275318145752,1.51677799224854,-0.754577994346619,-1.92836594581604,-1099.5,1.5,-904.500061035156,1.73653739133748,-0.173323962489572,0.0524802590851303,DLL
15.6,-1.49117040634155,-0.570030272006989,9.59720420837402,1.57013201713562,-0.320124000310898,-3.63569402694702,-1092.30004882812,6.90000009536743,-906.900024414062,1.7571113374453,-0.153512195843452,0.0574343194589376,DLL
15.6333333333333,-1.64549136161804,-0.354698777198792,10.2025241851807,1.74543797969818,-0.899396002292633,-6.12046575546265,-1089.90002441406,0.900000035762787,-909.300048828125,1.7869654594435,-0.157754546874481,0.0339653704194055,DLL
15.6666666666667,-1.74717557430267,-0.440831363201141,9.87294769287109,1.82165801525116,-1.33385002613068,-8.33846759796143,-1089.90002441406,3.90000009536743,-904.500061035156,1.83238284952765,-0.171641672504537,0.0436526347087205,DLL
15.7,-1.91944074630737,-0.316417634487152,9.83406829833984,1.73019397258759,-1.20427596569061,-10.3278093338013,-1099.5,3.30000019073486,-899.700012207031,1.88927126850376,-0.18962134309989,0.0327698341519758,DLL
15.7333333333333,-2.4697322845459,-0.0657957270741463,9.07562351226807,2.17227005958557,-0.945127964019775,-11.1814737319946,-1097.10009765625,8.70000076293945,-918.900024414062,1.94811987872804,-0.262477295202698,0.0090429737088368,DLL
15.7666666666667,-3.18989658355713,0.168078169226646,9.42733097076416,2.53812599182129,0.548784017562866,-10.0381736755371,-1094.70007324219,-6.90000009536743,-902.100036621094,1.99444556455229,-0.325639399368303,-0.0157434976645893,DLL
15.8,-2.49066734313965,0.336754500865936,8.58933353424072,2.33233189582825,0.83841997385025,-7.86590385437012,-1085.10009765625,-2.70000004768372,-914.100036621094,2.02992243291623,-0.285125985803469,-0.0385631513356548,DLL
15.8333333333333,-3.08701586723328,0.658555388450623,8.23702716827393,1.96647596359253,1.19665396213531,-6.38723564147949,-1075.5,-4.5,-911.700012207031,2.05159020190024,-0.358382682610216,-0.0780567051650916,DLL
15.8666666666667,-3.14742827415466,0.769810020923615,9.33940410614014,1.31860601902008,2.5000159740448,-3.43752193450928,-1070.70007324219,2.70000004768372,-902.100036621094,2.06974454104764,-0.329401885105291,-0.0825252470998749,DLL
15.9,-2.78973889350891,0.652574002742767,8.75681304931641,0.746955990791321,1.75305998325348,-1.64635193347931,-1065.90002441406,-5.10000038146973,-914.100036621094,2.08099326366032,-0.311322406746591,-0.0750161716179043,DLL
15.9333333333333,-2.76162600517273,0.342735916376114,9.01162242889404,0.182927995920181,1.38720393180847,-0.449698001146317,-1080.30004882812,-8.10000038146973,-911.700012207031,2.09395459894799,-0.299939561097687,-0.0391195082173211,DLL
15.9666666666667,-2.34412240982056,0.224303618073463,9.44108867645264,-0.327746003866196,0.167683988809586,-0.0914639979600906,-1065.90002441406,-5.70000028610229,-909.300048828125,2.09813687095276,-0.245132135177958,-0.0235730850728056,DLL
16.0,-2.88723611831665,0.314623206853867,10.2037210464478,-0.152439996600151,-1.265251994133,0.297257989645004,-1073.10009765625,-3.90000009536743,-909.300048828125,2.09485288878605,-0.272634197493766,-0.0304882224429628,DLL
16.0333333333333,-2.36027216911316,0.25839775800705,9.31368446350098,0.0838419944047928,-1.69970595836639,0.78506600856781,-1073.10009765625,-10.5,-894.900024414062,2.09162659193392,-0.245668794502626,-0.0282555654449769,ST
16.0666666666667,-2.25978422164917,0.221312895417213,9.38187217712402,0.457319974899292,-1.61586391925812,1.18140995502472,-1061.10009765625,-2.70000004768372,-906.900024414062,2.08722944796331,-0.233763012868337,-0.0249522050326425,ST
16.1,-1.92960917949677,0.0370848625898361,8.76458930969238,0.388722002506256,-1.58537602424622,0.945127964019775,-1077.90002441406,2.10000014305115,-923.700012207031,2.08712366693241,-0.214394507022822,-0.0057341092556377,ST
16.1333333333333,-2.20774579048157,0.0675901547074318,9.19644832611084,-0.0228659994900227,-0.830797970294952,0.548784017562866,-1080.30004882812,0.900000035762787,-909.300048828125,2.08396585260717,-0.233606100118128,-0.0074841625364663,ST
16.1666666666667,-2.70958757400513,0.155517175793648,10.0194931030273,0.0533539988100529,-0.114329993724823,0.564027965068817,-1075.5,-3.90000009536743,-902.100036621094,2.07893716378809,-0.263324199835327,-0.0157236781067153,ST
16.2,-2.31900024414062,-0.170470744371414,9.29873085021973,-0.0,-0.3125019967556,0.327746003866196,-1077.90002441406,-5.10000038146973,-921.300048828125,2.08548797920821,-0.244181528155517,0.0175770049449902,ST
16.2333333333333,-2.68087673187256,-0.171667039394379,9.68333625793457,-0.160062000155449,-0.106707997620106,0.0609759986400604,-1085.10009765625,-2.70000004768372,-899.700012207031,2.08500987769605,-0.269402171011496,0.0179682675511745,ST
16.2666666666667,-1.8626172542572,-0.266771763563156,8.66051197052002,-0.289635986089706,-0.754577994346619,0.0228659994900227,-1077.90002441406,-3.30000019073486,-914.100036621094,2.08754077699225,-0.212035599340195,0.0309225325631607,ST
16.3,-2.67369914054871,-0.32239904999733,8.97334098815918,-0.403965979814529,-0.716467976570129,-0.259148001670837,-1085.10009765625,-5.70000028610229,-906.900024414062,2.08961114599315,-0.286563202061132,0.0366126616064422,ST
16.3333333333333,-2.44042325019836,-0.434849947690964,9.19166278839111,-0.457319974899292,0.129574000835419,-0.0304879993200302,-1080.30004882812,-1.5,-916.500061035156,2.09217577546463,-0.260107160131343,0.0478178647774319,ST
16.3666666666667,-2.01813435554504,-0.625657558441162,9.72939395904541,-0.434453994035721,-0.663114011287689,0.190549999475479,-1092.30004882812,-2.70000004768372,-911.700012207031,2.09434652988196,-0.204537274420733,0.0644295349578777,ST
16.4,-1.83031749725342,-0.885849714279175,8.97334098815918,-0.495429992675781,-1.50153398513794,-0.0685980021953583,-1089.90002441406,4.5,-918.900024414062,2.10028159594079,-0.197835790986628,0.0982920097380406,ST
16.4333333333333,-1.78605496883392,-0.919345736503601,9.353759765625,-0.594515979290009,-1.39482593536377,-0.236281991004944,-1087.5,-3.30000019073486,-918.900024414062,2.10033689934038,-0.185667545504019,0.0990211086545898,ST
16.4666666666667,-2.38120722770691,-1.01026344299316,10.1223735809326,-0.144817993044853,-1.06708002090454,0.282013982534409,-1092.30004882812,0.300000011920929,-906.900024414062,2.09813749860479,-0.227369594670139,0.0995642989641933,ST
16.5,-1.67300593852997,-1.18492126464844,9.97941780090332,-0.205793991684914,-0.945127964019775,0.495429992675781,-1092.30004882812,-6.90000009536743,-916.500061035156,2.09819416831362,-0.164578868783688,0.118028088787352,ST
16.5333333333333,-1.50911474227905,-0.940878868103027,9.51884746551514,-0.0,-1.39482593536377,0.777444005012512,-1089.90002441406,-6.90000009536743,-906.900024414062,2.08998395664124,-0.154381695628889,0.0986300695934752,ST
16.5666666666667,-1.85244882106781,-0.921140193939209,9.05588436126709,0.67835795879364,-0.403965979814529,1.70732796192169,-1104.30004882812,-1.5,-918.900024414062,2.08193120667712,-0.199110111355065,0.0995572912339041,ST
16.6,-1.57491040229797,-0.815867006778717,8.91113376617432,0.594515979290009,0.358233988285065,1.87501192092896,-1089.90002441406,-4.5,-911.700012207031,2.07135501037065,-0.175786098531388,0.0899555374851438,ST
16.6333333333333,-1.76033473014832,-0.565843224525452,9.32145977020264,0.769822001457214,0.198172003030777,2.01220798492432,-1077.90002441406,-0.300000011920929,-923.700012207031,2.05642473616284,-0.186578669429409,0.0594836807280994,ST
16.6666666666667,-2.12998723983765,-0.46236452460289,9.75511360168457,0.907018005847931,0.510673999786377,2.13416004180908,-1082.70007324219,-4.5,-911.700012207031,2.04297438565565,-0.215275220344428,0.0452434950837663,ST
16.7,-1.7986159324646,-0.493467956781387,9.30351543426514,0.815553963184357,0.518296003341675,2.14178204536438,-1087.5,-6.30000019073486,-904.500061035156,2.03417370469007,-0.192438558896049,0.0506914708683241,ST
16.7333333333333,-2.38659048080444,-0.395970642566681,9.78442287445068,0.510673999786377,0.937505960464478,1.74543797969818,-1099.5,-9.30000019073486,-914.100036621094,2.0226801157056,-0.2400578489227,0.0390226708506325,ST
16.7666666666667,-2.34292602539062,-0.363670915365219,9.88132190704346,0.533540010452271,1.08232402801514,1.50153398513794,-1087.5,-5.10000038146973,-921.300048828125,2.01468595357845,-0.234748827974586,0.035323503157748,ST
16.8,-2.15570735931396,-0.275743901729584,8.96735954284668,0.525918006896973,0.716467976570129,1.10518991947174,-1075.5,-6.90000009536743,-904.500061035156,2.00851513874298,-0.237054490804198,0.029528066668828,ST
16.8333333333333,-2.43264746665955,-0.160302311182022,8.69640064239502,0.495429992675781,1.20427596569061,1.06708002090454,-1070.70007324219,-7.50000047683716,-911.700012207031,2.00090270678507,-0.273822712127461,0.0174016539037849,ST
16.8666666666667,-2.26995253562927,0.0831418707966805,8.9416389465332,0.685979962348938,0.198172003030777,1.31098401546478,-1087.5,-3.90000009536743,-911.700012207031,1.98162903122563,-0.248922394116351,-0.0110768941149224,ST
16.9,-2.52117252349854,0.28411790728569,9.03614616394043,0.724089980125427,0.739333987236023,1.02897000312805,-1070.70007324219,3.90000009536743,-916.500061035156,1.97182115109777,-0.272537862343466,-0.0326001573494345,ST
16.9333333333333,-2.58457589149475,0.555076658725739,10.3831634521484,1.11281192302704,0.640248000621796,1.36433792114258,-1065.90002441406,-3.30000019073486,-911.700012207031,1.96026260486667,-0.245280125254563,-0.0554148607532753,ST
16.9666666666667,-2.27832651138306,0.547898948192596,9.16175556182861,1.265251994133,-0.975615978240967,1.40244793891907,-1075.5,-2.70000004768372,-899.700012207031,1.95293824712323,-0.241534598635666,-0.0623895361385283,ST
17.0,-2.66652131080627,0.482701390981674,9.48834228515625,1.01372599601746,-0.556405961513519,1.28811800479889,-1085.10009765625,-3.90000009536743,-897.300048828125,1.95028650458271,-0.271694882912404,-0.0534586406650553,ST
17.0333333333333,-1.91764640808105,0.378624498844147,9.30949687957764,0.495429992675781,-0.87652999162674,0.830797970294952,-1077.90002441406,-5.70000028610229,-902.100036621094,1.94953802687397,-0.203305042823304,-0.0421199700051499,ST
17.0666666666667,-2.43085312843323,0.305651068687439,9.30231952667236,0.266770005226135,-0.884151995182037,0.472563982009888,-1077.90002441406,-4.5,-909.300048828125,1.94949033580697,-0.252695848166769,-0.0337169869512786,ST
17.1,-1.88235592842102,0.308641761541367,8.93147087097168,0.274392008781433,-0.495429992675781,0.541162014007568,-1073.10009765625,-8.70000076293945,-911.700012207031,1.94682282535495,-0.207948868960433,-0.0351783998082104,ST
17.1333333333333,-2.21671795845032,0.332567483186722,9.17969989776611,0.289635986089706,-0.403965979814529,0.830797970294952,-1085.10009765625,-3.90000009536743,-897.300048828125,1.94263964782318,-0.235272605724583,-0.0370052225391244,ST
17.1666666666667,-2.06957459449768,0.294884473085403,8.96616268157959,0.25152599811554,-0.419209986925125,0.891773998737335,-1087.5,-2.70000004768372,-923.700012207031,1.93875893385706,-0.226090926630553,-0.033720851992294,ST
17.2,-2.12161302566528,0.237462759017944,9.46022891998291,0.0914639979600906,0.144817993044853,0.800309956073761,-1089.90002441406,0.900000035762787,-918.900024414062,1.93655532139316,-0.220909769914705,-0.0257925335258731,ST
17.2333333333333,-2.37821650505066,0.219518467783928,10.2521705627441,0.0685980021953583,0.769822001457214,0.922261953353882,-1070.70007324219,-8.10000038146973,-911.700012207031,1.93272986075356,-0.22897204633678,-0.0220147747996801,ST
17.2666666666667,-2.46853613853455,0.185424327850342,9.26942157745361,-0.0457319989800453,0.777444005012512,0.586893975734711,-1077.90002441406,-3.90000009536743,-926.100036621094,1.93007186166048,-0.260668427574277,-0.0202489866749901,ST
17.3,-2.563640832901,0.0891233012080193,9.38306903839111,0.0990860015153885,1.6615959405899,0.594515979290009,-1073.10009765625,-9.30000019073486,-904.500061035156,1.92974408983172,-0.269345245170987,-0.0102447410649064,ST
17.3333333333333,-2.52416324615479,-0.123815596103668,8.28427982330322,-0.228659987449646,1.37958192825317,0.205793991684914,-1075.5,-6.90000009536743,-906.900024414062,1.935351017235,-0.297455600062203,0.0146339139173,ST
17.3666666666667,-3.20365381240845,-0.068188302218914,8.99846267700195,-0.0914639979600906,1.92074394226074,0.411587983369827,-1070.70007324219,-9.30000019073486,-916.500061035156,1.93094009626639,-0.344385847578999,0.0076410816232686,ST
17.4,-2.75085949897766,-0.20755560696125,9.34598350524902,-0.0228659994900227,1.76068198680878,0.556405961513519,-1058.70007324219,-7.50000047683716,-916.500061035156,1.93239667917612,-0.290139974038834,0.0217508582018944,ST
