seconds,sensor_accX_m_s_,sensor_accY_m_s_,sensor_accZ_m_s_,sensor_gyroX___s_,sensor_gyroY___s_,sensor_gyroZ___s_,sensor_magX__T_,sensor_magY__T_,sensor_magZ__T_,sensor_yaw___,sensor_pitch___,sensor_roll___,label1
0.0,-1.8685986995697,-0.276940196752548,9.47159385681152,0.236281991004944,-0.327746003866196,0.243903994560242,-1135.5,-14.1000003814697,-981.300048828125,0.0643613569523742,-0.196516203011891,0.0280704133153404,ST
0.0333333333333333,-1.88833737373352,-0.314025074243546,9.48834228515625,0.243903994560242,-0.327746003866196,0.198172003030777,-1159.5,-2.70000004768372,-971.700012207031,0.0646671166750415,-0.196113047501823,0.0305589262850678,ST
0.0666666666666667,-1.86919677257538,-0.241649761795998,9.48953819274902,0.289635986089706,-0.335367977619171,0.213415995240211,-1149.90002441406,-9.90000057220459,-971.700012207031,0.0638111358848872,-0.194776710307445,0.0272038215150847,ST
0.1,-1.88295412063599,-0.236266478896141,9.46022891998291,0.282013982534409,-0.282013982534409,0.25152599811554,-1142.70007324219,-13.5000009536743,-978.900024414062,0.0632382596478088,-0.195458333660663,0.0255415455538281,ST
0.133333333333333,-1.82792496681213,-0.263781040906906,9.47637939453125,0.213415995240211,-0.259148001670837,0.282013982534409,-1135.5,-8.70000076293945,-974.100036621094,0.0631525760382949,-0.192472905465442,0.0265427513162264,ST
0.166666666666667,-1.83390629291534,-0.26437920331955,9.46920108795166,0.3125019967556,-0.266770005226135,0.259148001670837,-1130.70007324219,-9.90000057220459,-971.700012207031,0.0629976036575374,-0.191537935866595,0.0269474632997036,ST
0.2,-1.82014906406403,-0.269762486219406,9.5146598815918,0.320124000310898,-0.236281991004944,0.144817993044853,-1159.5,-13.5000009536743,-983.700012207031,0.0629789822735065,-0.189883759437944,0.0273817265724384,ST
0.233333333333333,-1.87158930301666,-0.250023752450943,9.43271446228027,0.320124000310898,-0.167683988809586,0.0685980021953583,-1137.90002441406,-9.90000057220459,-974.100036621094,0.0627964885923444,-0.193279395608359,0.0264981345019307,ST
0.266666666666667,-1.92123520374298,-0.22968690097332,9.3717041015625,0.274392008781433,-0.0685980021953583,0.160062000155449,-1145.10009765625,-12.9000005722046,-981.300048828125,0.0624039457077331,-0.198101837486169,0.0251050107632947,ST
0.3,-1.96310520172119,-0.267968058586121,9.41477012634277,0.121951997280121,0.0152439996600151,0.335367977619171,-1140.30004882812,-10.5,-978.900024414062,0.062381537146251,-0.202293592943955,0.0268069645659685,ST
0.333333333333333,-1.94336652755737,-0.339147061109543,9.45065879821777,0.0609759986400604,-0.0457319989800453,0.396344006061554,-1154.70007324219,-9.90000057220459,-971.700012207031,0.0629235346289673,-0.202475400574019,0.0316645455734899,ST
0.366666666666667,-1.93559062480927,-0.366063505411148,9.50688457489014,0.0990860015153885,-0.137196004390717,0.37347799539566,-1142.70007324219,-14.1000003814697,-986.100036621094,0.0632402189083369,-0.201383258534329,0.0352548219742746,ST
0.4,-1.94037580490112,-0.354698777198792,9.51346397399902,0.205793991684914,-0.259148001670837,0.3125019967556,-1147.5,-10.5,-986.100036621094,0.0630941242948749,-0.200969824361186,0.0361025286630817,ST
0.433333333333333,-1.8949168920517,-0.334960073232651,9.51047325134277,0.259148001670837,-0.3125019967556,0.274392008781433,-1149.90002441406,-10.5,-983.700012207031,0.0626376418331579,-0.198049037495464,0.0352464042178194,ST
0.466666666666667,-1.87637448310852,-0.341539651155472,9.48176193237305,0.289635986089706,-0.350611984729767,0.167683988809586,-1147.5,-5.10000038146973,-981.300048828125,0.0625204362235736,-0.196172560807945,0.0353515466101114,ST
0.5,-1.84646737575531,-0.346324771642685,9.49551963806152,0.259148001670837,-0.327746003866196,0.0990860015153885,-1133.10009765625,-16.5,-986.100036621094,0.0625189747026086,-0.193525674389341,0.0356903951758248,ST
0.533333333333333,-1.87099123001099,-0.334960073232651,9.4315185546875,0.228659987449646,-0.3125019967556,0.0914639979600906,-1147.5,-6.90000009536743,-983.700012207031,0.0623874623430492,-0.194434218102914,0.0353461835215765,ST
0.566666666666667,-1.95054423809052,-0.335558205842972,9.52482891082764,0.137196004390717,-0.289635986089706,0.152439996600151,-1142.70007324219,-11.1000003814697,-993.300048828125,0.0621828673175163,-0.198351162545018,0.0351052308323092,ST
0.6,-1.94456279277802,-0.320604622364044,9.47039794921875,0.152439996600151,-0.243903994560242,0.25152599811554,-1145.10009765625,-6.30000019073486,-978.900024414062,0.0617109139067211,-0.200501118429797,0.0341474891989066,ST
0.633333333333333,-2.06419134140015,-0.293688207864761,9.58524131774902,0.289635986089706,-0.114329993724823,0.434453994035721,-1142.70007324219,-12.3000001907349,-969.300048828125,0.0607218677135155,-0.207339134826812,0.0316276659927867,ST
0.666666666666667,-2.03248977661133,-0.299669623374939,9.46202373504639,0.289635986089706,0.0,0.297257989645004,-1135.5,-14.1000003814697,-974.100036621094,0.0603894321680625,-0.209633819444203,0.0313064145889139,ST
0.7,-1.97925508022308,-0.282921612262726,9.26463603973389,0.381099998950958,0.213415995240211,-0.0228659994900227,-1142.70007324219,-13.5000009536743,-974.100036621094,0.0603492542056127,-0.210276937702492,0.0304792838281153,ST
0.733333333333333,-2.09589290618896,-0.314025074243546,9.37110614776611,0.434453994035721,0.152439996600151,-0.304879993200302,-1137.90002441406,-9.90000057220459,-969.300048828125,0.0611407734544697,-0.216113437651621,0.031880843489639,ST
0.766666666666667,-2.08572459220886,-0.263781040906906,9.20841121673584,0.396344006061554,-0.37347799539566,-0.503051996231079,-1137.90002441406,-7.50000047683716,-978.900024414062,0.0613460268896585,-0.219344808986078,0.0298183960796884,ST
0.8,-2.05880808830261,-0.266771763563156,9.29274940490723,0.335367977619171,-0.792688012123108,-0.327746003866196,-1137.90002441406,-12.9000005722046,-978.900024414062,0.0615823936883955,-0.217799918156631,0.0289441894704159,ST
0.833333333333333,-1.98045134544373,-0.314025074243546,9.42015361785889,0.3125019967556,-1.16616594791412,-0.0990860015153885,-1145.10009765625,-9.90000057220459,-976.500061035156,0.0621848207892967,-0.210782088485793,0.0310727757483993,ST
0.866666666666667,-1.8386914730072,-0.306847333908081,9.51226806640625,0.205793991684914,-1.70732796192169,0.228659987449646,-1149.90002441406,-11.1000003814697,-986.100036621094,0.0619769388178045,-0.19725707362585,0.0314954988301838,ST
0.9,-1.69992232322693,-0.301464051008224,9.62292385101318,0.137196004390717,-1.83690190315247,0.487807989120483,-1157.10009765625,-6.30000019073486,-983.700012207031,0.0612898610293558,-0.18242942439319,0.0311495724648159,ST
0.933333333333333,-1.40384149551392,-0.358287632465363,9.67556095123291,0.190549999475479,-1.60061991214752,0.609759986400604,-1159.5,-9.30000019073486,-983.700012207031,0.0610599918066287,-0.158632150432083,0.034240116623611,ST
0.966666666666667,-1.28481113910675,-0.375633776187897,9.69290637969971,0.243903994560242,-1.2423859834671,0.495429992675781,-1157.10009765625,-12.9000005722046,-971.700012207031,0.060815513317124,-0.142602325778778,0.0364089492516506,ST
1.0,-1.32907366752625,-0.337352633476257,9.5744743347168,0.327746003866196,-0.640248000621796,0.350611984729767,-1140.30004882812,-14.1000003814697,-976.500061035156,0.0602993139079141,-0.139378907397677,0.0353874577380429,ST
1.03333333333333,-1.45348739624023,-0.314025074243546,9.48894023895264,0.335367977619171,-0.266770005226135,0.342989981174469,-1166.70007324219,-10.5,-988.500061035156,0.0597188737882065,-0.146041118919591,0.0337463803766829,ST
1.06666666666667,-1.53842377662659,-0.247033044695854,9.45903301239014,0.243903994560242,-0.0152439996600151,0.403965979814529,-1154.70007324219,-20.7000007629395,-983.700012207031,0.0585684854830746,-0.154777947079595,0.0290333024603653,ST
1.1,-1.53304040431976,-0.301464051008224,9.51346397399902,0.0685980021953583,-0.0838419944047928,0.388722002506256,-1147.5,-14.7000007629395,-966.900024414062,0.0583183051901056,-0.157604830284661,0.0304595908475256,ST
1.13333333333333,-1.57251787185669,-0.35110992193222,9.49312686920166,0.0762199983000755,-0.289635986089706,0.221037998795509,-1157.10009765625,-8.10000038146973,-971.700012207031,0.0586334052086988,-0.161041431846176,0.034102431821839,ST
1.16666666666667,-1.54380702972412,-0.337950766086578,9.42374229431152,0.0838419944047928,-0.327746003866196,0.0762199983000755,-1142.70007324219,-12.9000005722046,-978.900024414062,0.0586885982318964,-0.161409443698917,0.0349690032473338,ST
1.2,-1.51868498325348,-0.333165645599365,9.51166915893555,0.0762199983000755,-0.442075997591019,-0.0685980021953583,-1149.90002441406,-11.1000003814697,-981.300048828125,0.0587565032177901,-0.159231920291119,0.0349280452761601,ST
1.23333333333333,-1.50911474227905,-0.363072782754898,9.60258769989014,0.0076219998300075,-0.67835795879364,-0.320124000310898,-1157.10009765625,-15.9000005722046,-969.300048828125,0.0593487608596703,-0.15666244128859,0.036544548937634,ST
1.26666666666667,-1.51569426059723,-0.432457357645035,9.5804557800293,-0.0304879993200302,-0.685979962348938,-0.487807989120483,-1149.90002441406,-17.1000003814697,-978.900024414062,0.0606185940056459,-0.15603396596324,0.0413631475541106,ST
1.3,-1.57790112495422,-0.387596637010574,9.50568771362305,-0.0533539988100529,-0.548784017562866,-0.548784017562866,-1145.10009765625,-12.3000001907349,-978.900024414062,0.0611748562048784,-0.160073777019325,0.0411590905491502,ST
1.33333333333333,-1.61917304992676,-0.41451308131218,9.533203125,-0.129574000835419,-0.434453994035721,-0.434453994035721,-1166.70007324219,-6.90000009536743,-976.500061035156,0.061858427885708,-0.164053077903736,0.042612935336098,ST
1.36666666666667,-1.83510267734528,-0.362474650144577,9.6402702331543,-0.0533539988100529,-0.320124000310898,-0.228659987449646,-1140.30004882812,-8.70000076293945,-966.900024414062,0.0616379702233507,-0.176918425707686,0.0399339193081768,ST
1.4,-2.00078821182251,-0.180639177560806,9.48834228515625,0.137196004390717,0.0076219998300075,0.0152439996600151,-1166.70007324219,-8.70000076293945,-993.300048828125,0.0593488407770989,-0.19515391066328,0.0274865089966119,ST
1.43333333333333,-2.47332119941711,-0.0328978635370731,9.32744121551514,0.46494197845459,0.830797970294952,0.228659987449646,-1149.90002441406,-14.7000007629395,-983.700012207031,0.0561888928543453,-0.232952584291078,0.0132340200413341,ST
1.46666666666667,-2.83340334892273,0.0759641602635384,9.03554725646973,0.358233988285065,1.09756803512573,-0.0533539988100529,-1147.5,-7.50000047683716,-986.100036621094,0.0531755300573895,-0.274959744520248,0.0005101179339998,ST
1.5,-3.06309008598328,0.223107323050499,8.70298004150391,0.167683988809586,0.975615978240967,-0.350611984729767,-1152.30004882812,-10.5,-981.300048828125,0.0494812160693896,-0.310788036849406,-0.01380757168628,ST
1.53333333333333,-3.57569861412048,0.247033044695854,8.66290473937988,0.114329993724823,1.28049600124359,-0.182927995920181,-1145.10009765625,-8.10000038146973,-993.300048828125,0.0470701370754199,-0.35631281872256,-0.0218437036868127,ST
1.56666666666667,-3.34900259971619,0.0484495796263218,8.52712631225586,-0.266770005226135,1.07470202445984,-0.0990860015153885,-1135.5,-9.30000019073486,-976.500061035156,0.0502892336918083,-0.36722945015251,-0.0126801816154973,ST
1.6,-3.37771344184875,-0.111254595220089,8.83038425445557,-0.78506600856781,0.25152599811554,-0.0762199983000755,-1149.90002441406,-9.30000019073486,-976.500061035156,0.0555614363445209,-0.366400605730979,0.0027432761851694,ST
1.63333333333333,-2.84596419334412,-0.395970642566681,9.03853797912598,-1.32622802257538,-1.41006994247437,-0.236281991004944,-1152.30004882812,-11.1000003814697,-969.300048828125,0.063897081008919,-0.329414030053643,0.028075198301377,ST
1.66666666666667,-2.40333843231201,-0.376830071210861,8.73109340667725,-1.50153398513794,-1.94360995292664,-0.396344006061554,-1145.10009765625,-11.1000003814697,-983.700012207031,0.066764760031929,-0.293873333223407,0.0379864507799694,ST
1.7,-1.80160665512085,-0.579002380371094,9.0193977355957,-1.75305998325348,-2.13416004180908,-0.182927995920181,-1159.5,-9.90000057220459,-966.900024414062,0.0705944462308894,-0.238284937761082,0.0542386996358148,ST
1.73333333333333,-1.18252861499786,-0.822446584701538,9.52423095703125,-2.0731840133667,-2.62959003448486,-0.259148001670837,-1147.5,-3.90000009536743,-993.300048828125,0.0742226832665665,-0.172275415176349,0.0739790160477359,ST
1.76666666666667,-0.610703945159912,-1.08323693275452,9.52602481842041,-2.21800184249878,-2.17227005958557,-0.815553963184357,-1154.70007324219,-8.10000038146973,-981.300048828125,0.0781515171023013,-0.105865517301787,0.0996186189444562,ST
1.8,-0.632237136363983,-1.48040390014648,10.3987159729004,-2.03507399559021,-1.2423859834671,-0.518296003341675,-1169.10009765625,-0.900000035762787,-981.300048828125,0.0807859986260543,-0.0781697553055135,0.125865856855687,ST
1.83333333333333,-0.802707850933075,-1.672407746315,9.97762298583984,-1.65397393703461,-1.37958192825317,-0.815553963184357,-1154.70007324219,-4.5,-974.100036621094,0.0833839354565302,-0.0772538323430937,0.151343175870121,ST
1.86666666666667,-1.10237753391266,-1.77708280086517,10.2192726135254,-1.34909391403198,-1.00610399246216,-0.556405961513519,-1161.90002441406,-11.7000007629395,-990.900024414062,0.0848290030465443,-0.0923426828527282,0.164443028273563,ST
1.9,-1.54380702972412,-1.66104304790497,9.96924877166748,-0.708845973014832,-0.754577994346619,-0.121951997280121,-1178.70007324219,-5.10000038146973,-986.100036621094,0.0848563249254667,-0.125758801114017,0.165535603801501,ST
1.93333333333333,-1.61079907417297,-1.59943425655365,9.75092697143555,-0.0076219998300075,-0.243903994560242,0.716467976570129,-1159.5,-5.70000028610229,-969.300048828125,0.0836756474091856,-0.146782107648887,0.163695896860577,ST
1.96666666666667,-1.49236667156219,-1.61498606204987,9.38127422332764,0.0838419944047928,-0.0533539988100529,0.945127964019775,-1157.10009765625,-9.30000019073486,-981.300048828125,0.0830828945731296,-0.152040454899138,0.167464930551448,ST
2.0,-1.75913846492767,-1.672407746315,9.48355674743652,-0.0990860015153885,0.426831990480423,1.08232402801514,-1159.5,-3.90000009536743,-981.300048828125,0.0825453781942242,-0.168400481945842,0.171300462499379,ST
2.03333333333333,-2.01514363288879,-1.6544634103775,8.99487400054932,0.503051996231079,0.693601965904236,0.899396002292633,-1157.10009765625,0.900000035762787,-981.300048828125,0.0827198745742606,-0.195901180713751,0.176490145139178,ST
2.06666666666667,-1.98643279075623,-1.59763991832733,8.32914066314697,0.762199997901917,1.21951997280121,1.08232402801514,-1149.90002441406,-8.70000076293945,-976.500061035156,0.0832161860263441,-0.21606733550665,0.18273240800561,ST
2.1,-2.26935434341431,-1.41161739826202,9.03494930267334,0.571649968624115,0.487807989120483,1.33385002613068,-1137.90002441406,-10.5,-981.300048828125,0.0780370630237841,-0.232863605087977,0.16551364088754,ST
2.13333333333333,-2.13537049293518,-1.24174475669861,10.0099229812622,0.160062000155449,-0.243903994560242,1.15854394435883,-1169.10009765625,-6.90000009536743,-981.300048828125,0.070956668567044,-0.218519532503663,0.140152270605215,ST
2.16666666666667,-1.92422592639923,-1.26267981529236,10.2312355041504,0.175305992364883,-0.685979962348938,0.92988395690918,-1142.70007324219,-6.30000019073486,-981.300048828125,0.0674699009290477,-0.197434987470293,0.129243617654306,ST
2.2,-2.14374446868896,-0.974973022937775,9.74075794219971,0.297257989645004,-0.182927995920181,1.00610399246216,-1161.90002441406,1.5,-976.500061035156,0.0630263302563186,-0.207396604528861,0.112535637492555,ST
2.23333333333333,-2.08153748512268,-1.3841028213501,9.79518890380859,-0.663114011287689,1.18140995502472,1.21951997280121,-1154.70007324219,0.300000011920929,-974.100036621094,0.0649522285551822,-0.208713193748449,0.128676584447364,ST
2.26666666666667,-2.19996976852417,-1.46903908252716,9.53738975524902,-0.87652999162674,0.92988395690918,0.693601965904236,-1145.10009765625,-6.90000009536743,-986.100036621094,0.0672576868381979,-0.219101257628183,0.144011496107853,ST
2.3,-2.35488891601562,-1.62754702568054,8.99726676940918,-0.846041977405548,1.6615959405899,0.6250039935112,-1145.10009765625,-1.5,-978.900024414062,0.0711451842493474,-0.238960537065569,0.163919486606867,ST
2.33333333333333,-3.05112719535828,-1.4241783618927,9.20900917053223,-0.0914639979600906,2.21037983894348,0.967993974685669,-1140.30004882812,-7.50000047683716,-974.100036621094,0.0689023678180895,-0.284914737208891,0.157993876568198,ST
2.36666666666667,-2.95781707763672,-1.83689701557159,9.51406192779541,-0.525918006896973,1.56251001358032,1.18140995502472,-1149.90002441406,2.10000014305115,-988.500061035156,0.0729229385715004,-0.292875431846947,0.176244013640176,ST
2.4,-2.61149215698242,-1.61977112293243,9.04392147064209,-0.617381989955902,0.914639949798584,0.914639949798584,-1147.5,-0.900000035762787,-981.300048828125,0.0721410217794127,-0.284920078284231,0.177188966916683,ST
2.43333333333333,-2.70001745223999,-1.88654291629791,9.01760387420654,-0.381099998950958,1.34147191047668,0.92988395690918,-1135.5,0.900000035762787,-976.500061035156,0.076082757887259,-0.286583048811926,0.194523282464441,ST
2.46666666666667,-2.66113805770874,-1.81955087184906,9.34658241271973,-0.0457319989800453,1.64635193347931,0.907018005847931,-1142.70007324219,-5.10000038146973,-978.900024414062,0.0750545003069889,-0.280552992228044,0.193162934936017,ST
2.5,-2.93688201904297,-2.095294713974,8.704176902771,0.403965979814529,1.85214591026306,0.823175966739655,-1128.30004882812,-1.5,-981.300048828125,0.0817984798917241,-0.304135090443276,0.217892247177162,ST
2.53333333333333,-3.02480912208557,-2.53732252120972,9.49432373046875,-0.221037998795509,2.0579400062561,1.02897000312805,-1123.5,-0.900000035762787,-974.100036621094,0.0885720692160924,-0.303255197146252,0.242934504522565,ST
2.56666666666667,-2.92790985107422,-2.24782133102417,9.38007831573486,0.87652999162674,1.64635193347931,1.37958192825317,-1118.70007324219,-2.10000014305115,-981.300048828125,0.0862284188829926,-0.300399124940949,0.237539995195531,ST
2.6,-3.23057007789612,-2.14194989204407,9.24729061126709,1.94360995292664,2.08842802047729,1.77592599391937,-1109.10009765625,-3.90000009536743,-976.500061035156,0.0831177319447822,-0.318402938576556,0.22964816992016,ST
2.63333333333333,-3.50272512435913,-1.64190244674683,9.17312049865723,2.34757590293884,2.34757590293884,2.4847719669342,-1106.70007324219,-3.90000009536743,-976.500061035156,0.0710085721318301,-0.345075322726105,0.196444403918069,ST
2.66666666666667,-3.38369488716125,-1.33266258239746,8.76279449462891,2.75916385650635,1.65397393703461,3.01831197738647,-1109.10009765625,-3.90000009536743,-983.700012207031,0.0587721039042544,-0.358645660864403,0.166450491250815,ST
2.7,-3.34062838554382,-1.24174475669861,8.80286979675293,1.96647596359253,1.10518991947174,3.23934984207153,-1113.90002441406,-9.30000019073486,-986.100036621094,0.0494883890649944,-0.360781951899019,0.147708780899001,ST
2.73333333333333,-2.95362997055054,-0.903794050216675,9.09954929351807,1.47104597091675,0.0304879993200302,2.83538389205933,-1123.5,-2.70000004768372,-974.100036621094,0.036998172327003,-0.334575421097062,0.11825716339361,ST
2.76666666666667,-3.00566840171814,-0.201574176549911,8.61505317687988,2.32470989227295,-0.670735955238342,2.99544596672058,-1109.10009765625,-1.5,-976.500061035156,0.0163088535117261,-0.33506488011482,0.0627463946932083,ST
2.8,-2.47451758384705,-0.628648281097412,8.67965221405029,2.0655620098114,0.167683988809586,3.60520601272583,-1109.10009765625,-0.900000035762787,-978.900024414062,0.0136029616150531,-0.30119778901103,0.0651147799058382,ST
2.83333333333333,-2.13178157806396,-0.400157660245895,8.57437992095947,1.71494996547699,0.327746003866196,2.53050398826599,-1111.5,-5.70000028610229,-986.100036621094,0.0074134465746546,-0.267560893859641,0.0516199410273339,ST
2.86666666666667,-2.68147492408752,-0.625059425830841,8.620436668396,2.0655620098114,1.50915598869324,2.21800184249878,-1092.30004882812,-10.5,-988.500061035156,0.0081044105732449,-0.287469305363302,0.0604273882921427,ST
2.9,-3.04335141181946,-1.00308573246002,9.21857929229736,1.92836594581604,1.92836594581604,1.50915598869324,-1104.30004882812,-10.5,-983.700012207031,0.0142551578606636,-0.305837994727851,0.0844666557080435,ST
2.93333333333333,-3.10914707183838,-0.802707850933075,8.9536018371582,2.25611186027527,1.02897000312805,0.274392008781433,-1099.5,-7.50000047683716,-978.900024414062,0.0150597707671557,-0.322938135503992,0.0849837354935886,ST
2.96666666666667,-3.7371973991394,-0.732725143432617,8.79270172119141,2.5152599811554,1.14329993724823,0.472563982009888,-1101.90002441406,-11.7000007629395,-981.300048828125,0.0144057940128712,-0.366813430586709,0.0814199515213537,ST
3.0,-4.05122232437134,-0.587974548339844,9.64385890960693,2.46190595626831,0.175305992364883,0.37347799539566,-1099.5,-8.10000038146973,-981.300048828125,0.0100118322633591,-0.383667471577773,0.0676662020898848,ST
3.03333333333333,-4.02789497375488,0.0005981429712846,9.36452674865723,2.9420919418335,-0.922261953353882,0.564027965068817,-1101.90002441406,-3.90000009536743,-981.300048828125,-0.0046347817441317,-0.395401129055942,0.0274534957969864,ST
3.06666666666667,-3.47879958152771,0.178246602416039,8.49422836303711,3.52136397361755,-1.15092194080353,1.18140995502472,-1099.5,-13.5000009536743,-986.100036621094,-0.0168746343914786,-0.390312677241745,-0.0053058683899153,ST
3.1,-3.68276619911194,0.418700069189072,8.81363677978516,3.70429182052612,-1.88263392448425,1.02134799957275,-1094.70007324219,-11.1000003814697,-974.100036621094,-0.0266560705620978,-0.391347940041795,-0.0324620902930163,ST
3.13333333333333,-3.52366018295288,0.503038227558136,8.17781066894531,2.80489587783813,-2.30184388160706,0.571649968624115,-1116.30004882812,-8.70000076293945,-974.100036621094,-0.0331547884345401,-0.397300696342338,-0.0512622473870632,ST
3.16666666666667,-3.72343993186951,0.941477060317993,8.46611595153809,1.93598794937134,-2.30184388160706,0.800309956073761,-1106.70007324219,-14.1000003814697,-969.300048828125,-0.0474926576950863,-0.403740811012496,-0.0885237533333073,ST
3.2,-3.64687776565552,0.840390861034393,8.81064605712891,0.891773998737335,-2.28659987449646,1.63110792636871,-1113.90002441406,-15.3000001907349,-981.300048828125,-0.0505633270212291,-0.394300563242497,-0.0935832040343442,ST
3.23333333333333,-3.60201692581177,0.948654770851135,9.16534519195557,0.0685980021953583,-2.09605002403259,2.00458598136902,-1121.10009765625,-14.1000003814697,-978.900024414062,-0.0547338274158572,-0.380172851393719,-0.0996341052423669,ST
3.26666666666667,-3.01703310012817,0.882260859012604,9.41237735748291,-0.0990860015153885,-2.46190595626831,2.23324584960938,-1133.10009765625,-10.5,-986.100036621094,-0.0560903343259341,-0.334342898769604,-0.0965283637051591,ST
3.3,-2.84297347068787,0.939682602882385,9.31846904754639,-0.167683988809586,-1.6920839548111,2.25611186027527,-1130.70007324219,-13.5000009536743,-971.700012207031,-0.0594632764376146,-0.309520812852428,-0.0993579400682095,ST
3.33333333333333,-2.87048816680908,0.639414846897125,9.61455059051514,-0.259148001670837,-0.807931959629059,2.15702605247498,-1133.10009765625,-11.7000007629395,-978.900024414062,-0.0563900416857856,-0.297005790286907,-0.0806644468775017,ST
3.36666666666667,-2.81366443634033,0.722556710243225,9.50449180603027,0.243903994560242,-0.564027965068817,1.36433792114258,-1128.30004882812,-10.5,-981.300048828125,-0.0572259465212135,-0.29057006027042,-0.0785413319501156,ST
3.4,-2.96499466896057,0.720164120197296,9.32445049285889,0.495429992675781,0.0609759986400604,0.899396002292633,-1133.10009765625,-9.30000019073486,-978.900024414062,-0.0580370347738613,-0.299619565011134,-0.0784801058566037,ST
3.43333333333333,-3.16776514053345,0.668723821640015,8.83875846862793,0.99848198890686,0.571649968624115,0.670735955238342,-1130.70007324219,-19.5,-983.700012207031,-0.0583396466926191,-0.324128140770689,-0.0780436703815015,ST
3.46666666666667,-3.63850378990173,0.427074074745178,8.62223052978516,0.922261953353882,0.945127964019775,0.533540010452271,-1118.70007324219,-15.9000005722046,-981.300048828125,-0.0535402356500834,-0.368162021966234,-0.0629372854322761,ST
3.5,-4.17683219909668,0.494664251804352,8.94582653045654,0.853663980960846,0.853663980960846,0.381099998950958,-1130.70007324219,-18.9000015258789,-969.300048828125,-0.0524402552414226,-0.406407205085776,-0.0597540414011185,ST
3.53333333333333,-4.43582820892334,0.681882977485657,8.70776557922363,0.914639949798584,0.762199997901917,0.884151995182037,-1116.30004882812,-9.90000057220459,-969.300048828125,-0.0576330726168607,-0.442025427013737,-0.0710306820916605,ST
3.56666666666667,-4.06617593765259,1.11493849754333,8.9296760559082,1.18140995502472,0.221037998795509,1.97409796714783,-1113.90002441406,-15.9000005722046,-986.100036621094,-0.0724392260246095,-0.432472566603172,-0.102468114799368,ST
3.6,-4.05301666259766,1.30215728282928,9.18807411193848,1.13567793369293,0.144817993044853,2.31708788871765,-1128.30004882812,-19.5,-983.700012207031,-0.0848191830086222,-0.420183422089445,-0.127423998446948,ST
3.63333333333333,-3.26406621932983,1.36675667762756,8.83038425445557,0.716467976570129,-0.182927995920181,2.22562384605408,-1116.30004882812,-14.7000007629395,-986.100036621094,-0.0931134087725151,-0.38116214838691,-0.143577768162127,ST
3.66666666666667,-2.80110359191895,1.62934148311615,8.61505317687988,0.3125019967556,0.0685980021953583,1.6920839548111,-1109.10009765625,-13.5000009536743,-978.900024414062,-0.104408268742531,-0.338535570293901,-0.17040291053869,ST
3.7,-2.53911685943604,1.78784930706024,8.64077377319336,-0.472563982009888,0.198172003030777,1.28049600124359,-1118.70007324219,-12.9000005722046,-988.500061035156,-0.112627874750975,-0.303335062066364,-0.190786110074889,ST
3.73333333333333,-2.08034133911133,1.77050316333771,9.15876483917236,-1.48628997802734,0.175305992364883,0.602137982845306,-1116.30004882812,-15.3000001907349,-983.700012207031,-0.113494023361741,-0.257121410138169,-0.189623349775403,ST
3.76666666666667,-2.30464482307434,1.46245956420898,9.47578048706055,-2.39330792427063,0.579271972179413,-0.396344006061554,-1118.70007324219,-15.9000005722046,-976.500061035156,-0.108255419402869,-0.246067507344739,-0.167079019230555,ST
3.8,-2.48887300491333,1.38649535179138,9.57327842712402,-2.64483404159546,0.952749967575073,-0.853663980960846,-1118.70007324219,-15.3000001907349,-974.100036621094,-0.104233284140925,-0.250494076968376,-0.150813135525562,ST
3.83333333333333,-2.04744338989258,0.717173397541046,9.19764423370361,-3.72715783119202,1.62348592281342,-1.22714197635651,-1113.90002441406,-8.70000076293945,-983.700012207031,-0.0935416984221201,-0.234629748309571,-0.106600237917086,ST
3.86666666666667,-3.07684755325317,0.471934795379639,10.3119850158691,-4.01679372787476,1.75305998325348,-1.94360995292664,-1111.5,-15.3000001907349,-978.900024414062,-0.0833523348142932,-0.266874414352741,-0.0689847012134667,ST
3.9,-3.08223080635071,0.239855334162712,9.38725566864014,-3.49087595939636,2.79727387428284,-1.71494996547699,-1106.70007324219,-5.70000028610229,-978.900024414062,-0.0742220153094155,-0.300247255678831,-0.0387880852509641,ST
3.93333333333333,-3.14383935928345,0.05742172524333,8.82141208648682,-3.20123982429504,3.62807202339172,-1.42531394958496,-1104.30004882812,-3.30000019073486,-976.500061035156,-0.067029775235073,-0.328255112915532,-0.0165910043490275,ST
3.96666666666667,-3.10376381874084,-0.323595345020294,8.35306644439697,-3.18599581718445,3.47563195228577,-1.2423859834671,-1092.30004882812,-5.70000028610229,-986.100036621094,-0.0557050502379908,-0.346708858715995,0.017241176024069,ST
4.0,-3.35737657546997,-0.453990519046783,8.79928112030029,-3.06404399871826,1.41769194602966,-1.60061991214752,-1092.30004882812,-8.10000038146973,-988.500061035156,-0.0466194389095252,-0.358640018026022,0.0417411496364258,ST
4.03333333333333,-3.37292814254761,-0.529954671859741,8.68144702911377,-1.92074394226074,-0.0381099991500378,-1.63872992992401,-1092.30004882812,-6.30000019073486,-998.100036621094,-0.0406107292576077,-0.365199446533646,0.0556897999560134,ST
4.06666666666667,-3.93936967849731,-0.65137767791748,9.15218544006348,-0.777444005012512,0.807931959629059,-1.04421401023865,-1089.90002441406,-0.900000035762787,-986.100036621094,-0.0362504328484962,-0.388131691171918,0.065255303415033,ST
4.1,-3.64807391166687,-1.24952065944672,8.54088306427002,-0.754577994346619,1.69970595836639,-0.815553963184357,-1092.30004882812,-6.30000019073486,-988.500061035156,-0.018346628216094,-0.396417798473144,0.110326768525422,ST
4.13333333333333,-4.13256978988647,-1.41460812091827,8.07911682128906,-1.38720393180847,2.43141794204712,-0.868907988071442,-1080.30004882812,4.5,-981.300048828125,-0.0031948716058761,-0.437433476673968,0.146314524649594,ST
4.16666666666667,-4.8916130065918,-1.46425402164459,8.0175085067749,-1.37958192825317,3.15550804138184,-0.480185985565186,-1077.90002441406,-1.5,-988.500061035156,0.0061993012077122,-0.49700780398141,0.166523128765607,ST
4.2,-5.50291538238525,-1.8566358089447,8.63120269775391,-1.43293595314026,3.39941191673279,-0.0533539988100529,-1080.30004882812,-3.90000009536743,-976.500061035156,0.0190015191438581,-0.533491995720089,0.192830763542523,ST
4.23333333333333,-5.79959440231323,-1.98404026031494,7.79081201553345,-0.868907988071442,2.88111591339111,-0.556405961513519,-1068.30004882812,-2.10000014305115,-981.300048828125,0.0377992626782162,-0.590182240732693,0.226932364422863,ST
4.26666666666667,-6.16864824295044,-1.87458002567291,8.50200462341309,-0.381099998950958,2.46952795982361,-0.503051996231079,-1068.30004882812,-3.30000019073486,-978.900024414062,0.0360909821241018,-0.606847618265132,0.22256737580111,ST
4.3,-5.70508766174316,-2.21253085136414,8.09167766571045,0.304879993200302,1.57013201713562,-0.533540010452271,-1063.5,0.300000011920929,-990.900024414062,0.0523211579600844,-0.602727591625312,0.24913603874242,ST
4.33333333333333,-5.34679985046387,-1.86022460460663,7.83387851715088,1.05945801734924,0.403965979814529,-0.92988395690918,-1061.10009765625,1.5,-993.300048828125,0.048546209708814,-0.593146941289227,0.239251460845336,ST
4.36666666666667,-5.32167816162109,-1.6544634103775,7.61735057830811,2.21800184249878,-1.83690190315247,-0.564027965068817,-1061.10009765625,-0.900000035762787,-995.700012207031,0.0411339496502805,-0.594575126038464,0.223244797024329,ST
4.4,-4.97296047210693,-1.58089184761047,7.67297792434692,1.93598794937134,-3.75764584541321,-0.243903994560242,-1063.5,-6.90000009536743,-978.900024414062,0.0342869344674831,-0.574548099666584,0.20956277520367,ST
4.43333333333333,-4.11163473129272,-1.49296486377716,8.12278175354004,1.31098401546478,-5.67839002609253,-0.289635986089706,-1082.70007324219,-4.5,-995.700012207031,0.0252371671502392,-0.506930954330617,0.192071857976228,ST
4.46666666666667,-3.95851016044617,-1.27882969379425,8.70058727264404,1.52439999580383,-6.24241781234741,0.0990860015153885,-1073.10009765625,0.300000011920929,-990.900024414062,0.0109770863857506,-0.451004605870305,0.162167542966558,ST
4.5,-3.60440945625305,-1.33146619796753,9.04511833190918,1.62348592281342,-5.19058179855347,0.769822001457214,-1101.90002441406,-8.10000038146973,-988.500061035156,0.0052194107853515,-0.402298087757784,0.150455017196707,ST
4.53333333333333,-3.18331694602966,-1.20226740837097,10.1151962280273,1.79879200458527,-4.16923379898071,1.2576299905777,-1116.30004882812,-2.10000014305115,-988.500061035156,-0.0040011483146287,-0.339461644558396,0.128623556926187,ST
4.56666666666667,-3.09658622741699,-0.880466461181641,9.50688457489014,2.98020195960999,-3.30032587051392,1.77592599391937,-1106.70007324219,1.5,-993.300048828125,-0.0129129866891051,-0.322295207591389,0.104983596764329,ST
4.6,-2.84297347068787,-0.613694667816162,9.47757530212402,3.14788603782654,-1.29574000835419,2.52288198471069,-1104.30004882812,-2.70000004768372,-988.500061035156,-0.0227352177602594,-0.303979644736631,0.078818075758813,ST
4.63333333333333,-2.26098036766052,-0.588572680950165,9.06665134429932,3.37654590606689,0.114329993724823,2.69818782806396,-1113.90002441406,-8.70000076293945,-988.500061035156,-0.0279045597918228,-0.2711450293543,0.0670530499320723,ST
4.66666666666667,-2.42726421356201,-0.406139075756073,8.88661003112793,2.97257995605469,0.556405961513519,2.41617393493652,-1113.90002441406,-5.10000038146973,-978.900024414062,-0.0340070717295032,-0.269095946449053,0.0510366124314002,ST
4.7,-2.38060903549194,-0.229088753461838,9.02956676483154,2.19513607025146,1.04421401023865,2.0579400062561,-1111.5,-3.90000009536743,-990.900024414062,-0.0406002891636903,-0.263422808462669,0.0326456199050162,ST
4.73333333333333,-2.92192840576172,-0.0029907147400081,8.74604606628418,1.89025592803955,1.06708002090454,2.23324584960938,-1104.30004882812,-5.10000038146973,-993.300048828125,-0.0480064196638465,-0.296998620001752,0.0125626298421602,ST
4.76666666666667,-3.00626659393311,-0.243444189429283,9.1928596496582,2.14940404891968,0.777444005012512,2.27135586738586,-1106.70007324219,-16.5,-978.900024414062,-0.0483542466997032,-0.309033738650287,0.0178053458183767,ST
4.8,-3.22698140144348,0.0203368607908487,9.32504844665527,2.52288198471069,-0.0152439996600151,1.265251994133,-1099.5,-12.3000001907349,-986.100036621094,-0.0536017914605277,-0.323579929170361,0.0026980768794372,ST
4.83333333333333,-2.92491912841797,0.117236025631428,9.07024002075195,2.85062789916992,-0.0304879993200302,0.92988395690918,-1101.90002441406,-6.90000009536743,-978.900024414062,-0.0572527181387794,-0.317126757771121,-0.0089636833496752,ST
4.86666666666667,-3.25987911224365,0.364867210388184,8.54566860198975,2.97257995605469,0.182927995920181,0.670735955238342,-1111.5,-11.7000007629395,-981.300048828125,-0.0640290848897213,-0.343822777020986,-0.0309928426844228,ST
4.9,-3.95731401443481,0.806296706199646,8.8997688293457,3.10977602005005,0.815553963184357,0.830797970294952,-1106.70007324219,-11.7000007629395,-983.700012207031,-0.0763694314725766,-0.384867409765725,-0.0665266596943024,ST
4.93333333333333,-3.64568138122559,0.82065212726593,8.45833969116211,2.67532205581665,0.990859985351562,0.99848198890686,-1104.30004882812,-11.7000007629395,-978.900024414062,-0.0837951871826959,-0.397003253275713,-0.0860964004415191,ST
4.96666666666667,-4.29705905914307,1.29976463317871,8.75262641906738,1.93598794937134,1.63110792636871,0.830797970294952,-1111.5,-19.5,-986.100036621094,-0.0982531028277559,-0.428924884938747,-0.121742231354074,ST
5.0,-4.70020723342896,1.42956173419952,8.90216159820557,1.69970595836639,1.93598794937134,1.29574000835419,-1106.70007324219,-12.9000005722046,-986.100036621094,-0.108787339107607,-0.459055695066495,-0.144486389848561,ST
5.03333333333333,-4.346107006073,1.46245956420898,8.65333461761475,1.2500079870224,1.64635193347931,1.50153398513794,-1097.10009765625,-12.9000005722046,-978.900024414062,-0.116442681150361,-0.460842555260544,-0.159152681751796,ST
5.06666666666667,-4.26117038726807,1.51629245281219,9.05229568481445,0.342989981174469,0.853663980960846,1.57013201713562,-1094.70007324219,-19.5,-978.900024414062,-0.120159697570884,-0.446969690268019,-0.164044835305814,ST
5.1,-3.98363208770752,1.55876052379608,8.69041919708252,-0.0914639979600906,0.274392008781433,1.20427596569061,-1092.30004882812,-17.1000003814697,-981.300048828125,-0.124863725624033,-0.434295549968949,-0.171954375853699,ST
5.13333333333333,-4.31679773330688,1.72923135757446,9.2407112121582,-0.129574000835419,0.144817993044853,0.937505960464478,-1094.70007324219,-12.3000001907349,-981.300048828125,-0.129060877751598,-0.432169091781006,-0.179441704419165,ST
5.16666666666667,-3.48358464241028,1.758540391922,9.03016471862793,-0.190549999475479,-0.983237981796265,0.503051996231079,-1094.70007324219,-15.3000001907349,-990.900024414062,-0.132590708206911,-0.38959876520227,-0.187090273304324,ST
5.2,-3.06966972351074,1.78545677661896,8.95240592956543,-0.289635986089706,-1.37958192825317,0.0152439996600151,-1094.70007324219,-15.9000005722046,-986.100036621094,-0.134300065187063,-0.352328493159882,-0.192163360213503,ST
5.23333333333333,-2.67668986320496,1.58268630504608,8.52293872833252,-0.830797970294952,-1.20427596569061,-0.815553963184357,-1099.5,-17.1000003814697,-986.100036621094,-0.13155678001178,-0.322196707602385,-0.186265905750862,ST
5.26666666666667,-2.88364720344543,1.44930040836334,8.56720161437988,-1.44817996025085,-0.647870004177094,-1.31860601902008,-1097.10009765625,-17.1000003814697,-988.500061035156,-0.126699147638198,-0.320850926048499,-0.174118727876459,ST
5.3,-3.39505958557129,1.13826608657837,9.5385856628418,-1.98934197425842,0.274392008781433,-1.51677799224854,-1094.70007324219,-13.5000009536743,-986.100036621094,-0.115323990988596,-0.33184201820955,-0.141312652868071,ST
5.33333333333333,-3.60979294776917,0.552085936069489,9.33222675323486,-2.66007804870605,0.602137982845306,-2.02745199203491,-1094.70007324219,-16.5,-983.700012207031,-0.0980320370201009,-0.35307292545045,-0.0930619105854901,ST
5.36666666666667,-3.86819052696228,0.358885794878006,9.01999568939209,-2.69056582450867,0.685979962348938,-2.29422187805176,-1104.30004882812,-10.5,-995.700012207031,-0.0850465697834046,-0.382492036188188,-0.0605577463789335,ST
5.4,-4.23963737487793,0.139965459704399,8.83696460723877,-3.11739802360535,0.823175966739655,-1.89025592803955,-1097.10009765625,-14.7000007629395,-988.500061035156,-0.0735181578528223,-0.419077878123965,-0.0324884664536399,ST
5.43333333333333,-4.02909088134766,-0.342735916376114,8.28906536102295,-4.04728174209595,0.800309956073761,-1.6615959405899,-1094.70007324219,-5.70000028610229,-986.100036621094,-0.0536596915930321,-0.439605839409172,0.0157411617166756,ST
5.46666666666667,-4.12240123748779,-0.497056812047958,8.23104572296143,-3.98630595207214,1.28811800479889,-1.53964400291443,-1094.70007324219,-8.10000038146973,-995.700012207031,-0.0411744265189341,-0.454423801420757,0.0454401865610063,ST
5.5,-4.24143171310425,-0.593357801437378,8.73109340667725,-3.47563195228577,1.97409796714783,-1.03659200668335,-1092.30004882812,-1.5,-990.900024414062,-0.034472491065803,-0.454566214147083,0.062074848748748,ST
5.53333333333333,-3.63371849060059,-0.961215734481812,8.18558692932129,-2.82013988494873,1.35671591758728,-1.31098401546478,-1082.70007324219,-6.30000019073486,-988.500061035156,-0.0188611886599336,-0.432748385746149,0.0982838582193861,ST
5.56666666666667,-3.92321968078613,-0.835007607936859,7.63529491424561,-2.41617393493652,0.358233988285065,-1.20427596569061,-1087.5,-3.90000009536743,-990.900024414062,-0.0150194917940792,-0.45471008697634,0.106994443785662,ST
5.6,-4.07036304473877,-0.744687974452972,7.97384405136108,-2.0731840133667,-0.350611984729767,-0.472563982009888,-1092.30004882812,0.300000011920929,-1000.50006103516,-0.0183252820154159,-0.463659764188624,0.101069350563494,ST
5.63333333333333,-3.9997820854187,-1.18193054199219,8.27351379394531,-1.05183601379395,-1.18903195858002,0.335367977619171,-1073.10009765625,-2.70000004768372,-990.900024414062,-0.008996420229058,-0.453109512416138,0.124440443003297,ST
5.66666666666667,-4.26775026321411,-1.35539197921753,8.13534259796143,-0.655492007732391,-1.41769194602966,0.365855991840363,-1080.30004882812,-2.70000004768372,-1000.50006103516,0.0001255088245773,-0.465327536231488,0.147055907505819,ST
5.7,-4.62843036651611,-2.39317011833191,8.524733543396,-1.18903195858002,-0.617381989955902,0.419209986925125,-1087.5,-3.30000019073486,-1000.50006103516,0.0307592294149674,-0.474597817779543,0.21726820048124,ST
5.73333333333333,-5.28638744354248,-2.68267130851746,9.90165901184082,-2.72105383872986,-0.891773998737335,-0.472563982009888,-1094.70007324219,0.900000035762787,-1002.90002441406,0.0427423494943994,-0.474433485623185,0.246051068596776,ST
5.76666666666667,-5.42156791687012,-1.9068797826767,9.43570518493652,-1.41769194602966,-0.670735955238342,-0.739333987236023,-1092.30004882812,-2.10000014305115,-998.100036621094,0.031480470585249,-0.494954333239283,0.222267125816862,ST
5.8,-4.34311628341675,-2.13836121559143,8.93446159362793,-0.152439996600151,-1.10518991947174,0.78506600856781,-1085.10009765625,-0.300000011920929,-995.700012207031,0.0334717629582516,-0.464672117744387,0.228975236711232,ST
5.83333333333333,-4.00456714630127,-2.22030663490295,8.46850776672363,0.266770005226135,-1.51677799224854,0.907018005847931,-1094.70007324219,1.5,-1002.90002441406,0.0388835803318168,-0.442832288143301,0.244066123970026,ST
5.86666666666667,-3.85503149032593,-2.18501615524292,8.35067367553711,0.297257989645004,-1.6844619512558,0.594515979290009,-1109.10009765625,5.10000038146973,-1005.30004882812,0.0405279901047569,-0.42816587679677,0.250182632483484,ST
5.9,-3.66661643981934,-2.02650833129883,8.57916450500488,0.6250039935112,-2.53812599182129,0.419209986925125,-1099.5,-2.10000014305115,-998.100036621094,0.0352225055512834,-0.407152648991629,0.239037362538034,ST
5.93333333333333,-3.65405535697937,-1.61917304992676,8.83696460723877,1.37195992469788,-3.10215401649475,0.777444005012512,-1089.90002441406,0.900000035762787,-993.300048828125,0.0207391455284138,-0.392682690742433,0.204320853042382,ST
5.96666666666667,-3.85443329811096,-1.28481113910675,8.55583667755127,2.33995389938354,-3.91770792007446,1.28811800479889,-1121.10009765625,4.5,-1007.70001220703,0.0060009345652945,-0.404417676988978,0.169370741866251,ST
6.0,-3.87297582626343,-0.70760315656662,9.08280086517334,2.30184388160706,-3.28508186340332,2.080806016922,-1121.10009765625,-3.90000009536743,-998.100036621094,-0.0183796369926165,-0.400242328336241,0.111797706163832,ST
6.03333333333333,-3.01643490791321,-0.797922730445862,9.26164531707764,2.14940404891968,-1.88263392448425,2.82013988494873,-1135.5,-5.70000028610229,-1000.50006103516,-0.0273489967711475,-0.349827510466893,0.093744338780697,ST
6.06666666666667,-2.2771303653717,-0.772800743579865,8.93505954742432,1.92074394226074,-1.265251994133,2.37806391716003,-1135.5,-5.10000038146973,-998.100036621094,-0.0314770370709679,-0.293011209687016,0.0869567786501541,ST
6.1,-2.15989422798157,-0.913962483406067,8.93087291717529,1.39482593536377,-0.846041977405548,1.48628997802734,-1123.5,-6.90000009536743,-1012.50006103516,-0.0309442959160441,-0.25793394191868,0.0941594872868352,ST
6.13333333333333,-2.30524301528931,-0.894223749637604,8.96975231170654,1.35671591758728,-0.87652999162674,0.92988395690918,-1140.30004882812,-8.70000076293945,-1000.50006103516,-0.0313395893031324,-0.25301075634061,0.0954733890313414,ST
6.16666666666667,-2.65216588973999,-0.715977132320404,8.95599460601807,2.14178204536438,-0.411587983369827,1.02897000312805,-1133.10009765625,-2.10000014305115,-1002.90002441406,-0.0349891024919621,-0.272767319052165,0.0837376537600604,ST
6.2,-2.82263660430908,-0.56165623664856,8.73647594451904,2.73629784584045,-0.205793991684914,1.05183601379395,-1142.70007324219,-5.70000028610229,-1002.90002441406,-0.0391134510859962,-0.294206110914191,0.0700967901410889,ST
6.23333333333333,-2.95063924789429,-0.608909547328949,8.37280559539795,2.9268479347229,-0.121951997280121,0.46494197845459,-1130.70007324219,-9.30000019073486,-1002.90002441406,-0.0391104957066206,-0.318809311565248,0.0684589635026052,ST
6.26666666666667,-3.46264958381653,-0.459971934556961,9.2999267578125,1.89025592803955,0.0914639979600906,-0.175305992364883,-1140.30004882812,-11.1000003814697,-1002.90002441406,-0.0422958056500138,-0.340380102903354,0.0556865218111721,ST
6.3,-3.73540282249451,-0.128600731492043,9.0911750793457,2.54574799537659,-0.495429992675781,0.129574000835419,-1149.90002441406,-11.7000007629395,-1002.90002441406,-0.0501809537641403,-0.367185510522994,0.0305073039024879,ST
6.33333333333333,-3.75334715843201,-0.0771604403853416,8.69281196594238,2.71343183517456,-0.701223969459534,0.92988395690918,-1149.90002441406,-15.9000005722046,-1005.30004882812,-0.0555165651507588,-0.388787630163486,0.0157064631198041,ST
6.36666666666667,-3.76052474975586,0.0687864422798157,9.46621036529541,3.00306797027588,-1.07470202445984,1.69970595836639,-1140.30004882812,-10.5,-995.700012207031,-0.0621415086791517,-0.381906091013982,-0.000529363363629,ST
6.4,-3.51289367675781,0.597544848918915,9.3836669921875,2.85062789916992,-1.64635193347931,1.85214591026306,-1145.10009765625,-17.1000003814697,-1007.70001220703,-0.0769136088135981,-0.367004961975963,-0.038843306487948,ST
6.43333333333333,-3.6074001789093,1.4540855884552,9.95908069610596,3.22410583496094,-0.769822001457214,2.53812599182129,-1145.10009765625,-23.1000003814697,-995.700012207031,-0.100375306520037,-0.35392623908447,-0.101480043933556,ST
6.46666666666667,-2.75444841384888,1.57610678672791,9.35854530334473,3.13264203071594,-0.609759986400604,2.15702605247498,-1159.5,-18.3000011444092,-995.700012207031,-0.114563724315676,-0.313849710790805,-0.141552350923188,ST
6.5,-2.2113344669342,1.67659473419189,9.04810905456543,2.20275783538818,-0.129574000835419,1.02134799957275,-1154.70007324219,-23.7000007629395,-1005.30004882812,-0.122281013822737,-0.270625214795755,-0.167130511364186,ST
6.53333333333333,-2.24004530906677,1.94874978065491,9.10672664642334,0.899396002292633,-0.3125019967556,-0.442075997591019,-1159.5,-18.3000011444092,-993.300048828125,-0.128137728336022,-0.250487265006735,-0.193217948132972,ST
6.56666666666667,-2.36206650733948,1.72025918960571,9.50449180603027,0.198172003030777,-0.243903994560242,-0.800309956073761,-1159.5,-23.1000003814697,-995.700012207031,-0.12523446227165,-0.244538022602648,-0.185390743889704,ST
6.6,-2.03906941413879,1.36436414718628,9.5684928894043,-0.807931959629059,-0.503051996231079,-1.30336201190948,-1147.5,-22.5,-990.900024414062,-0.117691256046748,-0.223147838314377,-0.158876318946567,ST
6.63333333333333,-2.64738082885742,1.40144896507263,9.96924877166748,-1.265251994133,-0.602137982845306,-1.56251001358032,-1147.5,-21.3000011444092,-1012.50006103516,-0.113390592754201,-0.241542003655687,-0.146735821743634,ST
6.66666666666667,-2.37642192840576,0.850559294223785,8.86208629608154,-1.41769194602966,0.655492007732391,-0.830797970294952,-1161.90002441406,-28.5000019073486,-1000.50006103516,-0.105717410647261,-0.252982167105868,-0.117119259021442,ST
6.7,-2.33335566520691,0.544310092926025,8.72511196136475,-1.6920839548111,1.265251994133,-0.586893975734711,-1157.10009765625,-30.9000015258789,-1000.50006103516,-0.097628482024999,-0.258660447832878,-0.0851913474505741,ST
6.73333333333333,-3.19408345222473,0.339745193719864,9.329833984375,-2.03507399559021,1.92074394226074,-0.37347799539566,-1149.90002441406,-27.3000011444092,-1000.50006103516,-0.089734264353803,-0.301617193708431,-0.0551763825585156,ST
6.76666666666667,-3.46683669090271,0.11484345048666,9.06784725189209,-2.61434602737427,1.47104597091675,-0.205793991684914,-1135.5,-27.9000015258789,-1010.10003662109,-0.0820568541001914,-0.339797313218261,-0.0281910968821534,ST
6.8,-3.16238188743591,0.15312460064888,8.67785835266113,-3.30794787406921,0.556405961513519,0.472563982009888,-1128.30004882812,-26.1000003814697,-998.100036621094,-0.0808975022891974,-0.345622134744472,-0.0193714908587571,ST
6.83333333333333,-3.13486742973328,-0.360082060098648,8.74485015869141,-2.98020195960999,0.198172003030777,1.13567793369293,-1133.10009765625,-26.1000003814697,-1014.90002441406,-0.0703090997384565,-0.344950831911642,0.0198399704996239,ST
6.86666666666667,-3.30653429031372,-0.538926839828491,8.80825328826904,-2.26373386383057,0.221037998795509,1.2347639799118,-1118.70007324219,-26.7000007629395,-1017.30004882812,-0.0641768377780748,-0.352729663941656,0.0442705267438842,ST
6.9,-2.99430370330811,-0.464158952236176,8.87644195556641,-1.74543797969818,0.282013982534409,1.08232402801514,-1118.70007324219,-23.7000007629395,-1010.10003662109,-0.0640825993748247,-0.337726474105277,0.049995159338748,ST
6.93333333333333,-3.02122020721436,-0.482701390981674,8.60488510131836,-1.07470202445984,0.266770005226135,0.724089980125427,-1113.90002441406,-25.5000019073486,-1010.10003662109,-0.0638973121447741,-0.337712765094588,0.0541195334356431,ST
6.96666666666667,-3.37412452697754,-0.722556710243225,8.55763149261475,-0.670735955238342,0.868907988071442,0.0685980021953583,-1104.30004882812,-20.7000007629395,-1000.50006103516,-0.0583350977348689,-0.358759836104884,0.071242117891713,ST
7.0,-3.75514149665833,-0.948654770851135,8.73109340667725,-0.457319974899292,1.21951997280121,-0.503051996231079,-1104.30004882812,-24.9000015258789,-1002.90002441406,-0.0503071249270568,-0.384866339203449,0.0921045627472714,ST
7.03333333333333,-4.57100868225098,-1.11254596710205,9.4727897644043,-0.243903994560242,0.556405961513519,-0.792688012123108,-1106.70007324219,-22.5,-1007.70001220703,-0.0436901506599567,-0.421129477331267,0.106854962662941,ST
7.06666666666667,-4.29466676712036,-1.14125680923462,9.12766170501709,-0.548784017562866,-0.510673999786377,-0.99848198890686,-1106.70007324219,-21.9000015258789,-1014.90002441406,-0.0384830888729841,-0.429371086999785,0.117673180952383,ST
7.1,-4.34491062164307,-0.937290012836456,8.97633171081543,-0.480185985565186,-1.55488801002502,-0.868907988071442,-1104.30004882812,-23.1000003814697,-1010.10003662109,-0.0409785407278556,-0.439081585727853,0.110486222294166,ST
7.13333333333333,-3.83947968482971,-1.23755776882172,8.89318943023682,-0.403965979814529,-1.11281192302704,-0.297257989645004,-1094.70007324219,-23.1000003814697,-1002.90002441406,-0.0343892048798929,-0.418719828787527,0.126369151353777,ST
7.16666666666667,-3.11213779449463,-1.69932413101196,9.38486289978027,-0.907018005847931,-2.01982998847961,-0.907018005847931,-1082.70007324219,-20.1000003814697,-1000.50006103516,-0.0224498651062296,-0.359809877999451,0.157073928912744,ST
7.2,-2.84476804733276,-1.74179232120514,8.43142318725586,-1.59299790859222,-3.04117798805237,-1.47866797447205,-1092.30004882812,-26.1000003814697,-993.300048828125,-0.012386337747334,-0.333720311654584,0.185448253528944,ST
7.23333333333333,-2.96200394630432,-1.59943425655365,9.16833591461182,-1.29574000835419,-2.90398192405701,-0.87652999162674,-1082.70007324219,-21.9000015258789,-1002.90002441406,-0.0144603490114865,-0.315499007479401,0.179352454695664,ST
7.26666666666667,-2.30464482307434,-1.92422592639923,9.15816688537598,-0.586893975734711,-3.08691000938416,0.198172003030777,-1085.10009765625,-17.1000003814697,-1010.10003662109,-0.0109217266396617,-0.271823979295828,0.195131404089853,ST
7.3,-2.51399493217468,-1.77409207820892,9.62471866607666,-0.304879993200302,-2.46190595626831,1.05945801734924,-1094.70007324219,-15.9000005722046,-995.700012207031,-0.0145814913092066,-0.258456804373746,0.187932627631735,ST
7.33333333333333,-2.24064350128174,-1.95592749118805,9.39383506774902,-0.114329993724823,-1.57013201713562,2.12653803825378,-1085.10009765625,-18.3000011444092,-990.900024414062,-0.0150190086904117,-0.241363348189957,0.197053009427352,ST
7.36666666666667,-2.30344867706299,-1.78545677661896,9.95668792724609,0.716467976570129,-0.365855991840363,3.08691000938416,-1099.5,-13.5000009536743,-990.900024414062,-0.0214984135064821,-0.231504670276784,0.184229477253769,ST
7.4,-2.92252659797668,-1.41520631313324,10.0559797286987,2.00458598136902,-0.129574000835419,4.27594184875488,-1097.10009765625,-11.1000003814697,-990.900024414062,-0.0334836088709458,-0.261524242863006,0.15433684897145,ST
7.43333333333333,-2.37283325195312,-1.30454981327057,9.25087928771973,1.97409796714783,-0.243903994560242,5.71649980545044,-1089.90002441406,-15.9000005722046,-988.500061035156,-0.0425805217268214,-0.254736733725171,0.142600376708268,ST
7.46666666666667,-2.14673519134521,-1.00248765945435,8.59352016448975,2.30184388160706,0.853663980960846,5.83083009719849,-1080.30004882812,-9.30000019073486,-998.100036621094,-0.0530615376957738,-0.249833527689387,0.123933998691465,ST
7.5,-2.44640469551086,-0.498253107070923,8.77296257019043,2.35519790649414,2.66007804870605,4.93905591964722,-1075.5,-13.5000009536743,-981.300048828125,-0.0689690585881711,-0.265985179114746,0.0806514651359448,ST
7.53333333333333,-2.17843675613403,-0.470140367746353,8.65153980255127,2.24848985671997,2.76678586006165,3.20886182785034,-1063.5,-9.90000057220459,-981.300048828125,-0.0761563034930279,-0.258034845756478,0.0631491726098567,ST
7.56666666666667,-2.57500553131104,0.0269164331257343,8.27829837799072,2.4923939704895,2.69056582450867,-0.0685980021953583,-1080.30004882812,-3.90000009536743,-981.300048828125,-0.0855464553424102,-0.284716858192265,0.0244389782547219,ST
7.6,-3.60440945625305,0.594554126262665,8.71374702453613,2.21037983894348,2.13416004180908,-0.739333987236023,-1080.30004882812,-13.5000009536743,-981.300048828125,-0.101169186900311,-0.349987443970099,-0.0312072032498963,ST
7.63333333333333,-3.99021172523499,0.666929423809052,8.56122016906738,1.41769194602966,1.34909391403198,0.137196004390717,-1058.70007324219,-11.7000007629395,-981.300048828125,-0.110755570723839,-0.399239690070428,-0.0584793062050552,ST
7.66666666666667,-4.28928327560425,0.769810020923615,9.17431735992432,0.137196004390717,0.556405961513519,1.38720393180847,-1077.90002441406,-14.7000007629395,-962.100036621094,-0.117974570201834,-0.419944016278135,-0.0729991300209118,ST
7.7,-3.70908451080322,0.723154842853546,10.4363985061646,0.0381099991500378,0.0457319989800453,1.6920839548111,-1056.30004882812,-14.1000003814697,-978.900024414062,-0.11919867063401,-0.376165119580905,-0.0715666759929969,ST
7.73333333333333,-3.85024619102478,0.92472904920578,10.4292211532593,0.571649968624115,-1.55488801002502,0.769822001457214,-1051.5,-8.70000076293945,-986.100036621094,-0.123310490801346,-0.361517775891,-0.081689884056683,ST
7.76666666666667,-3.32148790359497,0.863120317459106,8.97334098815918,0.0609759986400604,-1.65397393703461,0.564027965068817,-1077.90002441406,-17.1000003814697,-981.300048828125,-0.126724060436941,-0.354904848683394,-0.0901204634679209,ST
7.8,-2.01813435554504,0.374437510967255,9.11749362945557,-1.18140995502472,-1.20427596569061,-0.37347799539566,-1068.30004882812,-9.30000019073486,-974.100036621094,-0.117672784204137,-0.278168729190026,-0.0612937194452325,ST
7.83333333333333,-1.89790761470795,0.690855145454407,8.09287452697754,-1.20427596569061,-1.05945801734924,-1.08994603157043,-1077.90002441406,-4.5,-986.100036621094,-0.119919013344178,-0.249107057596955,-0.0736296769712118,ST
7.86666666666667,-2.24423241615295,0.155517175793648,8.9356575012207,-0.792688012123108,1.14329993724823,-0.792688012123108,-1068.30004882812,-10.5,-964.500061035156,-0.111060532340929,-0.248612528216781,-0.0401584907380495,ST
7.9,-2.28012108802795,-0.669920146465302,9.38605976104736,-1.13567793369293,2.13416004180908,-1.90549993515015,-1082.70007324219,-5.10000038146973,-976.500061035156,-0.0934832466680828,-0.244928653057541,0.0243461219988813,ST
7.93333333333333,-3.20126128196716,-0.534739792346954,9.1689338684082,-1.51677799224854,2.43141794204712,-2.84300589561462,-1068.30004882812,-2.10000014305115,-978.900024414062,-0.0849231850278247,-0.298184118953666,0.0455481430070382,ST
7.96666666666667,-4.16845846176147,-0.517991840839386,9.49312686920166,-2.13416004180908,3.19361782073975,-1.92836594581604,-1063.5,-6.30000019073486,-981.300048828125,-0.0809435355581809,-0.364327610011698,0.0531616300720185,ST
8.0,-3.70609378814697,-0.78775429725647,8.80107593536377,-2.34757590293884,3.06404399871826,-1.13567793369293,-1073.10009765625,-2.70000004768372,-978.900024414062,-0.0720404920003956,-0.385804555796359,0.0762522685403322,ST
8.03333333333333,-3.69173836708069,-1.1615936756134,8.50977993011475,-2.28659987449646,2.94971394538879,-1.02134799957275,-1058.70007324219,-1.5,-978.900024414062,-0.0574859750038608,-0.400425790037092,0.11327402496992,ST
8.06666666666667,-3.46863102912903,-1.53483486175537,7.70527791976929,-2.20275783538818,2.9420919418335,-1.34909391403198,-1065.90002441406,-2.70000004768372,-978.900024414062,-0.0360105707699095,-0.412541877298122,0.165348939522225,ST
8.1,-4.47530555725098,-1.71547400951385,8.16824054718018,-1.41769194602966,2.97257995605469,-1.2576299905777,-1058.70007324219,-0.300000011920929,-978.900024414062,-0.0244356607532371,-0.458963918295556,0.190031770705073,ST
8.13333333333333,-4.99748468399048,-1.49954438209534,8.00674152374268,-0.914639949798584,2.52288198471069,-0.78506600856781,-1044.30004882812,-3.30000019073486,-969.300048828125,-0.0241344974285318,-0.51136597260498,0.188943130567657,ST
8.16666666666667,-5.35337972640991,-1.55158281326294,8.36802005767822,-0.419209986925125,2.41617393493652,0.182927995920181,-1034.70007324219,2.10000014305115,-976.500061035156,-0.0253750326806715,-0.541975756145121,0.186397242920046,ST
8.2,-5.23434925079346,-1.36615860462189,7.87096357345581,0.602137982845306,2.0579400062561,0.617381989955902,-1051.5,0.900000035762787,-971.700012207031,-0.0299941614782112,-0.566090187427811,0.1773344620324,ST
8.23333333333333,-5.06447649002075,-2.03069543838501,7.8476357460022,0.792688012123108,1.56251001358032,0.586893975734711,-1046.70007324219,8.70000076293945,-983.700012207031,-0.0067907951919678,-0.563658432341298,0.220259664603853,ST
8.26666666666667,-5.03935432434082,-2.18441820144653,8.77715015411377,0.129574000835419,-0.37347799539566,-0.403965979814529,-1039.5,-3.30000019073486,-966.900024414062,0.0005369297271332,-0.532719718067222,0.233559551409969,ST
8.3,-4.81684541702271,-1.82313978672028,8.0354528427124,0.701223969459534,-1.75305998325348,-0.78506600856781,-1053.90002441406,-8.10000038146973,-983.700012207031,-0.0020033387253783,-0.528591770802846,0.226883549858669,ST
8.33333333333333,-4.90716505050659,-1.91106677055359,8.45415306091309,1.6844619512558,-2.11129403114319,-0.137196004390717,-1051.5,2.10000014305115,-981.300048828125,-0.0035972715258707,-0.518727217865339,0.222345232256033,ST
8.36666666666667,-4.69602060317993,-1.90628159046173,8.90754508972168,1.89025592803955,-3.20123982429504,0.289635986089706,-1049.10009765625,-2.70000004768372,-983.700012207031,-0.0077488533523879,-0.492197532665954,0.213604536842394,ST
8.4,-3.96090269088745,-2.07077097892761,8.85550689697266,1.45580196380615,-4.82472610473633,0.167683988809586,-1065.90002441406,2.70000004768372,-990.900024414062,-0.0049956348321616,-0.44276076455014,0.220679733359466,ST
8.43333333333333,-3.80837631225586,-1.64429497718811,8.84473991394043,1.57775402069092,-5.21344804763794,-0.182927995920181,-1073.10009765625,1.5,-993.300048828125,-0.0151678756900548,-0.412495683030393,0.196699573694724,ST
8.46666666666667,-3.60440945625305,-1.48698341846466,8.85789966583252,2.04269599914551,-4.2149658203125,0.198172003030777,-1080.30004882812,-2.70000004768372,-983.700012207031,-0.0228061047821658,-0.391547192004539,0.177499720667064,ST
8.5,-3.24971079826355,-1.10177934169769,9.63967227935791,2.62959003448486,-2.58385801315308,0.952749967575073,-1080.30004882812,-6.30000019073486,-969.300048828125,-0.0374837258877211,-0.35068916807934,0.138035896272191,ST
8.53333333333333,-2.96260213851929,-0.806296706199646,8.644362449646,2.88111591339111,-1.40244793891907,1.18140995502472,-1077.90002441406,-2.70000004768372,-988.500061035156,-0.0473193648373397,-0.337512234250856,0.109895569437858,ST
8.56666666666667,-2.68685817718506,-0.887644171714783,8.84115123748779,1.43293595314026,1.60824191570282,2.30946588516235,-1087.5,1.5,-988.500061035156,-0.0515081492099069,-0.315096659603129,0.102378444570354,ST
8.6,-3.13845610618591,-0.386998504400253,8.96436882019043,1.57013201713562,1.86738991737366,2.55336999893188,-1101.90002441406,-1.5,-981.300048828125,-0.0645518679285149,-0.328985958808742,0.0675645465798881,ST
8.63333333333333,-3.45128488540649,-0.39537250995636,8.70896148681641,2.39330792427063,1.56251001358032,2.79727387428284,-1085.10009765625,-4.5,-981.300048828125,-0.0724872027462192,-0.359703762343373,0.0507232457477278,ST
8.66666666666667,-3.30174922943115,-0.567039549350739,8.2621488571167,2.20275783538818,1.12805593013763,1.93598794937134,-1077.90002441406,-2.70000004768372,-981.300048828125,-0.0710592339894843,-0.372315953707698,0.0580169753225221,ST
8.7,-4.23485231399536,-0.0980954468250275,9.39862060546875,2.69056582450867,0.815553963184357,0.571649968624115,-1058.70007324219,-9.30000019073486,-990.900024414062,-0.0818197860769767,-0.402659470279073,0.0278805671802803,ST
8.73333333333333,-4.12957906723022,0.30624920129776,8.7101583480835,3.05642199516296,-0.152439996600151,0.236281991004944,-1085.10009765625,-6.90000009536743,-986.100036621094,-0.096396239166085,-0.425640661919374,-0.0113850586668858,ST
8.76666666666667,-4.10744762420654,0.858335137367249,8.12278175354004,3.33081388473511,-0.724089980125427,0.335367977619171,-1068.30004882812,-3.30000019073486,-981.300048828125,-0.118170674225913,-0.447498371678224,-0.06592002880574,ST
8.8,-4.06318521499634,1.0335910320282,8.17781066894531,2.75154185295105,-1.6692179441452,0.769822001457214,-1075.5,-12.9000005722046,-983.700012207031,-0.133009108715288,-0.451766253529678,-0.101702725750149,ST
8.83333333333333,-4.10027027130127,1.17654716968536,9.23114013671875,2.11891603469849,-2.16464805603027,0.800309956073761,-1097.10009765625,-6.90000009536743,-986.100036621094,-0.13946105624847,-0.429372096719699,-0.117906078273871,ST
8.86666666666667,-3.6552517414093,1.02342259883881,9.17431735992432,1.79879200458527,-2.9344699382782,0.236281991004944,-1087.5,-12.9000005722046,-983.700012207031,-0.137653231287512,-0.397663109444298,-0.115789748941385,ST
8.9,-3.23236465454102,0.937888205051422,8.98590183258057,1.18903195858002,-2.72867584228516,-0.701223969459534,-1080.30004882812,-11.7000007629395,-983.700012207031,-0.133800970936002,-0.364518268467122,-0.109843957639724,ST
8.93333333333333,-3.19587779045105,1.05273163318634,9.11450290679932,0.685979962348938,-2.08842802047729,-1.43293595314026,-1099.5,-2.70000004768372,-988.500061035156,-0.132638463717562,-0.345212005285092,-0.112974676834446,ST
8.96666666666667,-3.26705694198608,1.13647162914276,9.48894023895264,0.327746003866196,-2.30946588516235,-1.50153398513794,-1087.5,-13.5000009536743,-978.900024414062,-0.131624332277079,-0.334197289197523,-0.116210621598632,ST
9.0,-3.03617382049561,1.36137342453003,9.60557842254639,0.0152439996600151,-2.64483404159546,-1.12043392658234,-1089.90002441406,-6.90000009536743,-988.500061035156,-0.134355513957445,-0.313865230819767,-0.12999749269768,ST
9.03333333333333,-1.72564244270325,0.876279473304749,8.76040172576904,-0.564027965068817,-1.49391198158264,-0.495429992675781,-1121.10009765625,-14.1000003814697,-981.300048828125,-0.128567114727787,-0.241333087059828,-0.111094088011712,ST
9.06666666666667,-2.563640832901,1.32668113708496,9.24190711975098,-0.663114011287689,1.13567793369293,0.274392008781433,-1106.70007324219,-6.90000009536743,-976.500061035156,-0.133456943389409,-0.257466333312449,-0.128246769980608,ST
9.1,-2.23226952552795,0.849363029003143,9.10612869262695,-1.15854394435883,3.98630595207214,1.41006994247437,-1092.30004882812,-7.50000047683716,-976.500061035156,-0.130832803657413,-0.251195570409249,-0.108123480850264,ST
9.13333333333333,-2.36804795265198,0.525767683982849,9.24549579620361,-1.6768399477005,4.42075967788696,0.449698001146317,-1082.70007324219,-10.5,-981.300048828125,-0.124329523849457,-0.255353242881615,-0.075620947502525,ST
9.16666666666667,-3.68037366867065,0.113647162914276,9.38845252990723,-2.25611186027527,4.03965997695923,-0.83841997385025,-1085.10009765625,-13.5000009536743,-986.100036621094,-0.113927645847015,-0.324342576153486,-0.038951686736209,ST
9.2,-4.70977783203125,-0.114245310425758,9.55952072143555,-2.4847719669342,3.72715783119202,-0.853663980960846,-1085.10009765625,-9.90000057220459,-978.900024414062,-0.103480179548887,-0.401226485739033,-0.0089933839079538,ST
9.23333333333333,-4.47470760345459,-0.676499724388123,8.87943267822266,-2.84300589561462,2.05031800270081,-0.701223969459534,-1068.30004882812,-9.90000057220459,-981.300048828125,-0.0829982391998818,-0.440688846577595,0.042613233981721,ST
9.26666666666667,-4.43164110183716,-0.744089841842651,7.97324562072754,-2.9116039276123,0.83841997385025,-0.937505960464478,-1080.30004882812,-4.5,-988.500061035156,-0.069892278895667,-0.47716076997297,0.0732303424709036,ST
9.3,-4.19417858123779,-0.955832481384277,7.70168876647949,-2.54574799537659,1.11281192302704,-0.46494197845459,-1053.90002441406,-6.90000009536743,-988.500061035156,-0.0566242633988786,-0.488381418243435,0.10351835569129,ST
9.33333333333333,-4.15649557113647,-1.4301598072052,8.38895511627197,-1.84452390670776,1.2576299905777,-0.213415995240211,-1058.70007324219,-4.5,-983.700012207031,-0.0380380320186702,-0.469330792036391,0.145345519198725,ST
9.36666666666667,-3.88493871688843,-1.39187872409821,7.78423261642456,-1.40244793891907,0.914639949798584,-0.586893975734711,-1063.5,-2.10000014305115,-993.300048828125,-0.0290054950958469,-0.462870576208688,0.165417821923644,ST
9.4,-4.42147302627563,-1.54859220981598,8.3997220993042,-0.564027965068817,1.65397393703461,-0.419209986925125,-1068.30004882812,3.90000009536743,-990.900024414062,-0.0237591452041641,-0.472996598649977,0.176066962345656,ST
9.43333333333333,-4.9215202331543,-1.53662931919098,9.21199989318848,-0.182927995920181,1.44817996025085,-0.160062000155449,-1061.10009765625,-0.900000035762787,-986.100036621094,-0.0259823160797025,-0.480955804729517,0.170521040863297,ST
9.46666666666667,-5.10515022277832,-1.52885341644287,9.210205078125,-0.182927995920181,0.190549999475479,0.342989981174469,-1063.5,-1.5,-978.900024414062,-0.0279260754470074,-0.491899015174237,0.167237474971667,ST
9.5,-4.57699012756348,-1.48160016536713,8.26992511749268,-0.3125019967556,-0.396344006061554,0.213415995240211,-1061.10009765625,-0.300000011920929,-988.500061035156,-0.0254873678481589,-0.495706339889901,0.173451244106258,ST
9.53333333333333,-4.90895938873291,-1.41042113304138,8.65811920166016,0.327746003866196,0.0457319989800453,0.3125019967556,-1049.10009765625,1.5,-986.100036621094,-0.0289852996733068,-0.503783743872046,0.166407337646342,ST
9.56666666666667,-4.58835458755493,-1.80399918556213,8.656325340271,0.213415995240211,0.0990860015153885,0.198172003030777,-1065.90002441406,-0.300000011920929,-995.700012207031,-0.0188605904689607,-0.490143267190937,0.187767721874822,ST
9.6,-4.77377891540527,-1.28421294689178,8.70357799530029,0.609759986400604,-1.14329993724823,-0.144817993044853,-1056.30004882812,-0.900000035762787,-974.100036621094,-0.0303659953295388,-0.493178166220337,0.162781988831341,ST
9.63333333333333,-4.76600313186646,-1.18133234977722,8.47209739685059,1.48628997802734,-1.62348592281342,0.350611984729767,-1053.90002441406,0.900000035762787,-993.300048828125,-0.0378267252816346,-0.500547068413993,0.146661246337626,ST
9.66666666666667,-3.94355654716492,-1.43913197517395,8.05878067016602,1.83690190315247,-2.56099200248718,0.609759986400604,-1068.30004882812,0.300000011920929,-986.100036621094,-0.0310555408328125,-0.46977675321522,0.161170786434084,ST
9.7,-3.84067606925964,-1.18193054199219,8.24839115142822,1.91312193870544,-3.59758400917053,0.0,-1056.30004882812,-2.10000014305115,-993.300048828125,-0.0362081205360209,-0.445468389198958,0.148601313350048,ST
9.73333333333333,-3.94056582450867,-0.823044717311859,8.5426778793335,2.41617393493652,-4.06252574920654,0.205793991684914,-1068.30004882812,1.5,-983.700012207031,-0.0496184300776596,-0.433152235790651,0.116138014220486,ST
9.76666666666667,-3.7312159538269,-0.754856407642365,9.14620399475098,2.78202986717224,-3.71953582763672,0.472563982009888,-1087.5,-5.70000028610229,-986.100036621094,-0.0586625040922503,-0.401645227628045,0.0927707778126292,ST
9.8,-3.3866856098175,-0.418700069189072,8.88182544708252,2.87349390983582,-3.12502002716064,0.175305992364883,-1075.5,-6.90000009536743,-993.300048828125,-0.069047643851191,-0.376783990613126,0.0631655588427854,ST
9.83333333333333,-2.97157430648804,-0.302660346031189,8.24540042877197,2.14178204536438,-1.76830399036407,0.198172003030777,-1082.70007324219,-0.900000035762787,-976.500061035156,-0.0745246332592313,-0.357970887890927,0.0463298634627235,ST
9.86666666666667,-3.67379403114319,0.125610023736954,8.83756256103516,1.73781597614288,-0.640248000621796,0.899396002292633,-1087.5,-9.90000057220459,-988.500061035156,-0.0874276052926959,-0.377322242881268,0.0111998904576899,ST
9.9,-3.64029812812805,0.703416109085083,9.19644832611084,1.84452390670776,0.335367977619171,2.33995389938354,-1089.90002441406,-12.3000001907349,-986.100036621094,-0.109392006934064,-0.377082801247952,-0.0433174474045876,ST
9.93333333333333,-2.95781707763672,0.731528878211975,8.9595832824707,1.54726600646973,0.541162014007568,2.5000159740448,-1092.30004882812,-6.90000009536743,-983.700012207031,-0.120571901685111,-0.342561301368454,-0.0686016961028487,ST
9.96666666666667,-3.54040813446045,0.687864422798157,9.26523494720459,0.922261953353882,0.78506600856781,1.61586391925812,-1080.30004882812,-14.7000007629395,-983.700012207031,-0.123552822345657,-0.355057380890194,-0.0730970210241924,ST
10.0,-3.69712162017822,0.653770267963409,9.63488674163818,0.259148001670837,0.907018005847931,0.92988395690918,-1087.5,-5.10000038146973,-978.900024414062,-0.123701913722218,-0.361688852357268,-0.0707640672613202,ST
10.0333333333333,-3.13845610618591,0.592161536216736,9.12646579742432,-0.304879993200302,0.213415995240211,0.0152439996600151,-1080.30004882812,-12.3000001907349,-983.700012207031,-0.122614767137894,-0.344736641959286,-0.0671723615856062,ST
10.0666666666667,-3.04514575004578,0.815867006778717,8.83636569976807,-0.449698001146317,-0.350611984729767,-0.510673999786377,-1085.10009765625,-11.1000003814697,-1000.50006103516,-0.126870581023284,-0.336072532752708,-0.0812445497909359,ST
10.1,-3.2628698348999,0.616087257862091,8.76758003234863,-0.266770005226135,-0.152439996600151,-0.503051996231079,-1077.90002441406,-6.30000019073486,-993.300048828125,-0.124231524935709,-0.346652917962531,-0.0747202298012551,ST
10.1333333333333,-3.36634874343872,0.327782362699509,8.86986255645752,-0.663114011287689,0.762199997901917,-0.602137982845306,-1089.90002441406,-5.10000038146973,-990.900024414062,-0.116464715963379,-0.356210080183518,-0.0531222368140533,ST
10.1666666666667,-3.51229548454285,0.406737208366394,9.13483905792236,-0.945127964019775,0.556405961513519,-0.87652999162674,-1094.70007324219,-3.90000009536743,-988.500061035156,-0.113636894298763,-0.363042998718419,-0.0467342982688049,ST
10.2,-3.40343356132507,0.251220047473907,8.81483268737793,-1.45580196380615,0.602137982845306,-1.08994603157043,-1082.70007324219,-3.90000009536743,-983.700012207031,-0.108866918537629,-0.366589585329788,-0.0348973462535584,ST
10.2333333333333,-3.61278343200684,-0.0927121639251709,8.97633171081543,-2.19513607025146,0.92988395690918,-1.57775402069092,-1075.5,-8.70000076293945,-990.900024414062,-0.0981136911689187,-0.376420839849592,-0.007350336279672,ST
10.2666666666667,-3.83648896217346,-0.354698777198792,8.71793365478516,-2.57623600959778,1.2423859834671,-1.79117000102997,-1077.90002441406,-0.300000011920929,-990.900024414062,-0.0861852280102688,-0.398516023795787,0.0220977908352711,ST
10.3,-4.12479400634766,-0.427672237157822,8.52712631225586,-2.62959003448486,1.39482593536377,-1.61586391925812,-1077.90002441406,0.300000011920929,-993.300048828125,-0.0782074046558646,-0.428190631461507,0.0406048098663065,ST
10.3333333333333,-4.17443990707397,-0.852353751659393,8.50320053100586,-2.72867584228516,1.65397393703461,-0.693601965904236,-1075.5,-2.10000014305115,-986.100036621094,-0.0637353678066309,-0.444309164168696,0.0760639594350118,ST
10.3666666666667,-3.84665751457214,-1.04615211486816,8.20113849639893,-2.98020195960999,1.42531394958496,-0.472563982009888,-1070.70007324219,-1.5,-993.300048828125,-0.051231245795644,-0.440875671361101,0.107257389201811,ST
10.4,-3.57569861412048,-1.04435765743256,7.59761190414429,-2.54574799537659,2.09605002403259,-0.160062000155449,-1058.70007324219,3.30000019073486,-978.900024414062,-0.043546911700861,-0.440323414413235,0.127420372466685,ST
10.4333333333333,-4.03028726577759,-1.27404451370239,8.20532512664795,-1.70732796192169,2.76678586006165,0.205793991684914,-1046.70007324219,3.90000009536743,-983.700012207031,-0.0371858068603207,-0.449374540364417,0.143775669712381,ST
10.4666666666667,-4.74566650390625,-1.32668113708496,8.61026763916016,-0.914639949798584,3.11739802360535,0.358233988285065,-1061.10009765625,2.70000004768372,-981.300048828125,-0.0349106029533005,-0.479579088235519,0.149665014508095,ST
10.5,-4.90895938873291,-1.91405749320984,8.66410064697266,-1.13567793369293,2.84300589561462,0.670735955238342,-1051.5,3.30000019073486,-986.100036621094,-0.0170521278643457,-0.497586931211292,0.189579989916139,ST
10.5333333333333,-4.9454460144043,-1.94994604587555,8.35246849060059,-1.53202199935913,1.79117000102997,0.381099998950958,-1063.5,5.70000028610229,-986.100036621094,-0.0059402085999239,-0.514546867152031,0.214477331013062,ST
10.5666666666667,-5.20862913131714,-2.27653217315674,8.63897895812988,-1.6920839548111,0.289635986089706,0.571649968624115,-1044.30004882812,0.900000035762787,-976.500061035156,0.0050139585565934,-0.522354981222406,0.23953144358897,ST
10.6,-5.4460916519165,-2.17604422569275,8.67127895355225,-1.02897000312805,-0.3125019967556,0.990859985351562,-1049.10009765625,5.10000038146973,-978.900024414062,0.0053434750635084,-0.535939402895567,0.243404970805211,ST
10.6333333333333,-5.28997659683228,-2.33096313476562,8.1185941696167,-0.564027965068817,-0.693601965904236,1.32622802257538,-1053.90002441406,4.5,-978.900024414062,0.0138176879988704,-0.548975697338127,0.263361315492749,ST
10.6666666666667,-5.32825756072998,-2.11144471168518,8.09825801849365,-0.655492007732391,-1.32622802257538,1.53964400291443,-1046.70007324219,3.30000019073486,-981.300048828125,0.00860265007214,-0.558671463454586,0.257986095819829,ST
10.7,-4.56741952896118,-1.89850580692291,7.63708925247192,-0.472563982009888,-2.40855193138123,1.79117000102997,-1046.70007324219,3.30000019073486,-976.500061035156,0.0011977415885462,-0.538292849131706,0.248891739588614,ST
10.7333333333333,-4.53392362594604,-2.03129363059998,7.65383768081665,-0.228659987449646,-2.98020195960999,1.65397393703461,-1041.90002441406,3.30000019073486,-983.700012207031,0.0011410403528124,-0.525828618797577,0.25361728002926,ST
10.7666666666667,-4.44599676132202,-2.28131723403931,8.38656234741211,-0.0533539988100529,-3.3689239025116,1.27287399768829,-1056.30004882812,6.90000009536743,-981.300048828125,0.0017722282050456,-0.490747790399511,0.259778357751086,ST
10.8,-4.36345291137695,-2.19219398498535,8.74066352844238,0.945127964019775,-3.62045001983643,0.510673999786377,-1075.5,6.30000019073486,-983.700012207031,-0.0037510593896435,-0.464330411052448,0.249921820904066,ST
10.8333333333333,-4.334144115448,-2.03248977661133,8.92489147186279,2.10367202758789,-3.58234000205994,0.152439996600151,-1070.70007324219,6.90000009536743,-981.300048828125,-0.011177047493495,-0.448847924080704,0.233025285810228,ST
10.8666666666667,-3.76172113418579,-1.79143822193146,9.27540302276611,2.97257995605469,-3.39178991317749,-0.289635986089706,-1065.90002441406,2.10000014305115,-983.700012207031,-0.0212909017647202,-0.407081717156048,0.206367310432672,ST
10.9,-3.44350910186768,-1.40683221817017,8.42005825042725,3.10977602005005,-3.32319188117981,-0.891773998737335,-1075.5,-4.5,-983.700012207031,-0.0295617265026528,-0.39078397022539,0.180876887845773,ST
10.9333333333333,-2.85493636131287,-1.15920102596283,7.85421514511108,2.98782396316528,-1.96647596359253,-1.16616594791412,-1080.30004882812,0.900000035762787,-981.300048828125,-0.0353870458359527,-0.363621655503973,0.159230014289912,ST
10.9666666666667,-3.40223717689514,-0.697434723377228,8.52832221984863,2.9116039276123,0.25152599811554,-1.15854394435883,-1080.30004882812,-3.90000009536743,-986.100036621094,-0.050059191730964,-0.3727029154889,0.110980343236463,ST
11.0,-4.00995063781738,-0.134582161903381,8.548659324646,3.23172783851624,1.12043392658234,-0.388722002506256,-1077.90002441406,-4.5,-983.700012207031,-0.0703908301057032,-0.412995086233165,0.0523797754349603,ST
11.0333333333333,-4.34371423721313,0.232079476118088,8.67187690734863,3.30794787406921,1.64635193347931,0.823175966739655,-1068.30004882812,-5.10000038146973,-986.100036621094,-0.0898900534997869,-0.4444700976674,0.0035064148361204,ST
11.0666666666667,-4.08471822738647,0.323595345020294,8.61923980712891,2.62959003448486,1.30336201190948,2.20275783538818,-1075.5,2.10000014305115,-978.900024414062,-0.102439054725432,-0.444560474719158,-0.0232934840224737,ST
11.1,-3.94953799247742,0.194994613528252,9.47518253326416,1.95123195648193,0.716467976570129,2.26373386383057,-1065.90002441406,-2.10000014305115,-988.500061035156,-0.104608064768766,-0.415871302444214,-0.0247386969186524,ST
11.1333333333333,-3.90527534484863,0.336156338453293,9.19644832611084,0.937505960464478,-0.152439996600151,1.62348592281342,-1082.70007324219,-9.30000019073486,-993.300048828125,-0.109124665539946,-0.407669936966516,-0.0328383646332578,ST
11.1666666666667,-3.64448523521423,0.433653652667999,9.86995697021484,0.198172003030777,-0.724089980125427,1.44055795669556,-1075.5,-5.10000038146973,-986.100036621094,-0.113491857779331,-0.374806678819993,-0.0402298393532459,ST
11.2,-2.551677942276,0.231481328606606,9.01999568939209,0.114329993724823,-1.44055795669556,0.37347799539566,-1082.70007324219,-9.30000019073486,-974.100036621094,-0.111040491973857,-0.317332210431642,-0.0320966544271544,ST
11.2333333333333,-2.90936732292175,0.091515876352787,8.64316558837891,-0.411587983369827,-1.47104597091675,-0.510673999786377,-1073.10009765625,-5.70000028610229,-983.700012207031,-0.10669743843732,-0.319994598507731,-0.0196893123086708,ST
11.2666666666667,-3.78265619277954,0.0945065915584564,8.680251121521,-1.06708002090454,-0.67835795879364,-0.708845973014832,-1082.70007324219,0.300000011920929,-990.900024414062,-0.104275497695444,-0.36935517217141,-0.0136360465601785,ST
11.3,-3.67379403114319,0.106469452381134,8.66469955444336,-1.2423859834671,-0.0152439996600151,-0.37347799539566,-1068.30004882812,-5.10000038146973,-986.100036621094,-0.10363097382565,-0.386767435792544,-0.0115555013862356,ST
11.3333333333333,-3.14742827415466,-0.420494496822357,8.9894905090332,-1.58537602424622,0.868907988071442,-0.3125019967556,-1070.70007324219,-5.70000028610229,-981.300048828125,-0.0907210045200584,-0.358061756817759,0.0249122391345356,ST
11.3666666666667,-3.81495594978333,-0.566441416740417,8.90096569061279,-1.37958192825317,1.74543797969818,-0.434453994035721,-1063.5,-0.900000035762787,-978.900024414062,-0.0821458379548205,-0.386457922773883,0.0486238917947697,ST
11.4,-3.9997820854187,-0.750669419765472,8.656325340271,-1.2500079870224,2.22562384605408,-0.0914639979600906,-1065.90002441406,-1.5,-981.300048828125,-0.0735128186359365,-0.414673156114067,0.0716590553754917,ST
11.4333333333333,-3.99679136276245,-1.51031100749969,8.95001316070557,-1.10518991947174,2.21037983894348,-0.282013982534409,-1073.10009765625,-4.5,-988.500061035156,-0.0517602704029935,-0.417231028660213,0.125531187346826,ST
11.4666666666667,-3.94714546203613,-1.89611327648163,7.82849502563477,-0.708845973014832,1.6768399477005,-1.31860601902008,-1058.70007324219,4.5,-990.900024414062,-0.0238169840838042,-0.440841074302352,0.189557728198792,ST
11.5,-5.40900707244873,-1.79921400547028,8.88661003112793,0.182927995920181,1.97409796714783,-0.868907988071442,-1058.70007324219,5.10000038146973,-993.300048828125,-0.0197739386852769,-0.495843140069625,0.195474556507443,ST
11.5333333333333,-5.40900707244873,-1.74119424819946,8.68742847442627,1.36433792114258,2.27897787094116,-0.282013982534409,-1065.90002441406,-3.90000009536743,-978.900024414062,-0.0181176671742228,-0.526681884451358,0.19581723486274,ST
11.5666666666667,-4.3401255607605,-1.64250063896179,7.52822732925415,1.64635193347931,0.777444005012512,-0.0762199983000755,-1058.70007324219,-8.70000076293945,-988.500061035156,-0.0124143627311778,-0.51986377403871,0.204872112333122,ST
11.6,-4.84316349029541,-1.72025918960571,8.22925090789795,1.06708002090454,-0.548784017562866,-0.320124000310898,-1065.90002441406,-8.10000038146973,-981.300048828125,-0.0117277053998022,-0.520816733753463,0.204618735042212,ST
11.6333333333333,-5.62134742736816,-1.53124594688416,9.41058349609375,0.990859985351562,-1.15854394435883,-0.3125019967556,-1058.70007324219,-0.900000035762787,-990.900024414062,-0.0234276514332791,-0.526327385229069,0.179922685977017,ST
11.6666666666667,-4.38259363174438,-1.47202980518341,8.19515705108643,0.861285984516144,-2.00458598136902,0.0457319989800453,-1056.30004882812,-1.5,-974.100036621094,-0.0244940445505853,-0.500166662781375,0.177552272054514,ST
11.7,-4.25937604904175,-1.28660547733307,8.34887981414795,1.01372599601746,-1.90549993515015,0.342989981174469,-1051.5,0.300000011920929,-995.700012207031,-0.0316829242735173,-0.480154591003283,0.162546433024883,ST
11.7333333333333,-4.18161773681641,-1.20166921615601,8.56720161437988,2.04269599914551,-0.975615978240967,0.495429992675781,-1063.5,-3.90000009536743,-983.700012207031,-0.0384439861640658,-0.461994003441866,0.146680158600557,ST
11.7666666666667,-4.30184412002563,-1.08921837806702,8.93087291717529,2.19513607025146,-0.480185985565186,0.594515979290009,-1061.10009765625,2.10000014305115,-971.700012207031,-0.0454165154488099,-0.452602264228677,0.129859537676589,ST
11.8,-3.59483933448792,-0.742295444011688,7.69510936737061,2.02745199203491,-0.769822001457214,0.449698001146317,-1061.10009765625,-10.5,-995.700012207031,-0.0543819345230869,-0.441908596402804,0.108026350568642,ST
11.8333333333333,-3.59065222740173,-0.824241042137146,8.05519104003906,1.87501192092896,-0.632625997066498,0.160062000155449,-1075.5,-1.5,-988.500061035156,-0.0560105116827919,-0.426790652447451,0.102396853897321,ST
11.8666666666667,-4.21631002426147,-0.883457183837891,9.19764423370361,1.88263392448425,-0.594515979290009,-0.320124000310898,-1063.5,-4.5,-976.500061035156,-0.0570583346307257,-0.426908648993133,0.0970422171255873,ST
11.9,-4.01054859161377,-0.559861838817596,8.79509449005127,1.63110792636871,-0.922261953353882,-0.358233988285065,-1082.70007324219,-1.5,-1002.90002441406,-0.0645538714857695,-0.426091027319955,0.0761976646675826,ST
11.9333333333333,-4.06258726119995,-0.634031534194946,8.69939136505127,1.57013201713562,-0.304879993200302,-0.228659987449646,-1065.90002441406,-3.90000009536743,-1002.90002441406,-0.0649665011504061,-0.431178126585154,0.0728830674466306,ST
11.9666666666667,-3.84426498413086,-0.684873700141907,8.50738716125488,1.47866797447205,0.106707997620106,-0.533540010452271,-1068.30004882812,-0.900000035762787,-995.700012207031,-0.0624731052814226,-0.426848319024249,0.0758103749238305,ST
12.0,-4.05899810791016,-0.349315494298935,8.57796859741211,1.43293595314026,0.106707997620106,-0.381099998950958,-1063.5,-5.10000038146973,-988.500061035156,-0.0699399314094031,-0.435136196934698,0.0553193313441444,ST
12.0333333333333,-4.10565328598022,-0.199181616306305,8.512770652771,1.37958192825317,0.0533539988100529,0.152439996600151,-1061.10009765625,-2.10000014305115,-983.700012207031,-0.0774695581973702,-0.443028223616078,0.0363881542283933,ST
12.0666666666667,-3.71985125541687,-0.239855334162712,8.54148197174072,1.13567793369293,-0.594515979290009,1.05183601379395,-1073.10009765625,-12.9000005722046,-990.900024414062,-0.0806319745390964,-0.424602408971846,0.0302106515079029,ST
12.1,-3.34660983085632,-0.311632484197617,8.71554088592529,1.11281192302704,-0.990859985351562,0.853663980960846,-1068.30004882812,-8.70000076293945,-988.500061035156,-0.0803894409441912,-0.391573712323098,0.0318670315259195,ST
12.1333333333333,-3.45188307762146,-0.0675901547074318,9.2048225402832,1.64635193347931,-1.33385002613068,0.571649968624115,-1077.90002441406,-5.70000028610229,-995.700012207031,-0.0863329804796511,-0.371305812466152,0.0157252346587863,ST
12.1666666666667,-3.02181839942932,-0.0723752975463867,8.88062858581543,1.45580196380615,-1.37195992469788,0.564027965068817,-1087.5,-10.5,-981.300048828125,-0.0884534700088725,-0.345485360381312,0.0097766940089256,ST
12.2,-3.37711524963379,0.0693845823407173,9.14919471740723,0.503051996231079,-0.617381989955902,0.564027965068817,-1073.10009765625,-9.90000057220459,-974.100036621094,-0.0925494222731749,-0.349557322905127,-0.0009479828645053,ST
12.2333333333333,-3.41838717460632,0.257201462984085,9.09296989440918,0.152439996600151,-0.213415995240211,0.830797970294952,-1077.90002441406,-6.90000009536743,-978.900024414062,-0.0990314086145711,-0.355079573928604,-0.0171629496199788,ST
12.2666666666667,-3.49973464012146,0.178246602416039,8.83457183837891,0.0228659994900227,0.411587983369827,0.960371971130371,-1063.5,-14.1000003814697,-976.500061035156,-0.100781786356799,-0.367590904803476,-0.0191903339666535,ST
12.3,-3.92740678787231,0.142956167459488,8.92309665679932,-0.190549999475479,1.08232402801514,0.708845973014832,-1068.30004882812,-8.70000076293945,-1000.50006103516,-0.101036597850693,-0.394481149211555,-0.0175586506020289,ST
12.3333333333333,-4.44360399246216,0.206359326839447,9.15398025512695,-0.182927995920181,1.41006994247437,0.792688012123108,-1061.10009765625,-9.30000019073486,-976.500061035156,-0.103134954620914,-0.427371218175681,-0.0204370416521563,ST
12.3666666666667,-4.24801158905029,0.213537037372589,8.62462329864502,-0.304879993200302,1.44817996025085,0.861285984516144,-1073.10009765625,-4.5,-983.700012207031,-0.105258084699325,-0.445359435156524,-0.0229081212289274,ST
12.4,-3.89271450042725,0.0711790099740028,8.35067367553711,-0.647870004177094,1.02134799957275,0.967993974685669,-1068.30004882812,-3.90000009536743,-986.100036621094,-0.103124654299132,-0.441282657727189,-0.0147894960850977,ST
12.4333333333333,-3.80658197402954,-0.0388792939484119,8.56600570678711,-0.556405961513519,0.670735955238342,0.754577994346619,-1056.30004882812,-5.70000028610229,-990.900024414062,-0.0995162324715307,-0.428903542791407,-0.0036226557885281,ST
12.4666666666667,-4.33593845367432,-0.86491471529007,9.4075927734375,-1.31860601902008,0.190549999475479,-0.228659987449646,-1046.70007324219,-8.10000038146973,-986.100036621094,-0.0769480882965401,-0.43027366747996,0.051517361193233,ST
12.5,-4.24502086639404,-0.836802005767822,9.20302772521973,-1.30336201190948,-0.0990860015153885,-1.12805593013763,-1070.70007324219,-8.10000038146973,-993.300048828125,-0.0664213096333296,-0.430362633423696,0.0754023941985658,ST
12.5333333333333,-4.4202766418457,-0.32239904999733,8.88960075378418,0.221037998795509,0.228659987449646,-0.602137982845306,-1058.70007324219,-5.10000038146973,-986.100036621094,-0.0747407962836384,-0.447587398800879,0.0540538507363172,ST
12.5666666666667,-3.6552517414093,-0.768015563488007,8.12876319885254,0.853663980960846,1.13567793369293,0.289635986089706,-1061.10009765625,-10.5,-1000.50006103516,-0.0647833553503027,-0.433103839605081,0.0769103645678686,ST
12.6,-3.61637234687805,-0.671116411685944,7.57727527618408,0.198172003030777,1.18140995502472,-0.182927995920181,-1063.5,-5.70000028610229,-995.700012207031,-0.0616201435563833,-0.440443852460532,0.0834268631015182,ST
12.6333333333333,-4.49025917053223,-0.156115308403969,8.73587799072266,0.388722002506256,1.83690190315247,0.114329993724823,-1049.10009765625,-2.70000004768372,-988.500061035156,-0.0783192570450628,-0.462757706156795,0.0446192347986288,ST
12.6666666666667,-4.9574089050293,-0.330174922943115,9.29932880401611,0.381099998950958,1.83690190315247,0.495429992675781,-1049.10009765625,-17.1000003814697,-983.700012207031,-0.0810757248770131,-0.479275873643841,0.0390483995811338,ST
12.7,-4.55725145339966,-0.372044920921326,7.94812393188477,-0.46494197845459,1.28811800479889,-0.144817993044853,-1053.90002441406,-4.5,-988.500061035156,-0.0788795743920699,-0.503000037273038,0.0438127520482721,ST
12.7333333333333,-4.94006299972534,-0.508421540260315,8.17601585388184,-0.800309956073761,1.99696397781372,-0.0076219998300075,-1041.90002441406,-9.30000019073486,-998.100036621094,-0.0739115002950969,-0.526757592260768,0.0546134368641521,ST
12.7666666666667,-4.78275108337402,-0.784165441989899,8.59232425689697,-0.899396002292633,2.04269599914551,-0.342989981174469,-1034.70007324219,-5.70000028610229,-981.300048828125,-0.0633362782163162,-0.517408560596073,0.075919048802004,ST
12.8,-5.41319370269775,-0.686069965362549,8.33452415466309,-0.182927995920181,1.22714197635651,-0.853663980960846,-1032.30004882812,-9.90000057220459,-988.500061035156,-0.0604217878110185,-0.549907852531798,0.0800087632213568,ST
12.8333333333333,-5.40481996536255,-0.68965882062912,8.47867679595947,-0.0609759986400604,1.65397393703461,-0.632625997066498,-1022.70001220703,-5.10000038146973,-981.300048828125,-0.0591053551655052,-0.560315701859523,0.0811576930826965,ST
12.8666666666667,-4.83598613739014,-1.23995041847229,8.26633548736572,-0.3125019967556,1.16616594791412,-0.487807989120483,-1027.5,-5.70000028610229,-981.300048828125,-0.0376502444681644,-0.540985348661823,0.12133880454534,ST
12.9,-4.96877384185791,-1.13407909870148,8.12278175354004,-0.289635986089706,0.0990860015153885,-1.01372599601746,-1017.90002441406,-5.70000028610229,-974.100036621094,-0.0312790478936043,-0.543064080190983,0.132027031664187,ST
12.9333333333333,-5.15599250793457,-1.16278994083405,8.61864185333252,1.05183601379395,-0.472563982009888,-0.937505960464478,-1027.5,-5.10000038146973,-981.300048828125,-0.0293127164010666,-0.537784646032017,0.13270866324485,ST
12.9666666666667,-5.13087034225464,-1.16518247127533,8.48585414886475,1.63110792636871,-1.15854394435883,-0.685979962348938,-1022.70001220703,-11.1000003814697,-971.700012207031,-0.0273127245004762,-0.53764103741389,0.133542347130271,ST
13.0,-5.01602697372437,-0.791343152523041,8.33213138580322,2.19513607025146,-1.91312193870544,-0.442075997591019,-1029.90002441406,-4.5,-986.100036621094,-0.0385109617904335,-0.53704357423402,0.108491163671074,ST
13.0333333333333,-4.79531240463257,-0.835007607936859,8.36144065856934,2.76678586006165,-1.82165801525116,-0.213415995240211,-1034.70007324219,-6.30000019073486,-988.500061035156,-0.0407228458281343,-0.525093317520005,0.100885775781474,ST
13.0666666666667,-4.27552604675293,-0.553880393505096,7.49592781066895,2.60672402381897,-1.31098401546478,-0.350611984729767,-1041.90002441406,-8.10000038146973,-971.700012207031,-0.0476606915984112,-0.519479498481701,0.0835249462356581,ST
13.1,-4.45795965194702,-0.001794428913854,8.39433860778809,2.5076379776001,-1.2500079870224,0.160062000155449,-1034.70007324219,-7.50000047683716,-986.100036621094,-0.0703489897793583,-0.501375861081523,0.0347194394801954,ST
13.1333333333333,-4.53272724151611,-0.0831418707966805,8.37400150299072,2.13416004180908,-1.82927989959717,0.579271972179413,-1044.30004882812,-8.10000038146973,-986.100036621094,-0.0774970640593566,-0.496753084943392,0.0186624065188371,ST
13.1666666666667,-3.95851016044617,0.149535745382309,8.2382230758667,0.945127964019775,-1.88263392448425,1.20427596569061,-1049.10009765625,-0.300000011920929,-981.300048828125,-0.088467715072676,-0.468039769172115,-0.0033722175142663,ST
13.2,-4.21750593185425,0.439635097980499,8.81064605712891,1.02897000312805,-1.81403601169586,1.69970595836639,-1058.70007324219,-12.9000005722046,-976.500061035156,-0.101917162045205,-0.454190589198791,-0.0308919002388815,ST
13.2333333333333,-3.9477436542511,0.407335370779037,8.85789966583252,1.2500079870224,-1.51677799224854,2.11129403114319,-1051.5,-7.50000047683716,-990.900024414062,-0.107940514759557,-0.433178701251679,-0.0413859737005001,ST
13.2666666666667,-3.96867871284485,0.523973226547241,9.17132663726807,1.12043392658234,-0.571649968624115,1.86738991737366,-1049.10009765625,-12.3000001907349,-983.700012207031,-0.113697930510902,-0.418561779762425,-0.0519484230322576,ST
13.3,-3.9297993183136,0.600535571575165,9.00623893737793,0.46494197845459,-0.243903994560242,1.08994603157043,-1049.10009765625,-14.1000003814697,-988.500061035156,-0.118472325393786,-0.413677821184217,-0.061357503274513,ST
13.3333333333333,-3.86699438095093,0.630442678928375,8.87883472442627,0.274392008781433,-0.282013982534409,0.663114011287689,-1039.5,-9.30000019073486,-990.900024414062,-0.121490114072353,-0.411135343980722,-0.0674239827640403,ST
13.3666666666667,-4.3365364074707,0.51440292596817,8.78193473815918,-0.0533539988100529,0.106707997620106,0.548784017562866,-1051.5,-7.50000047683716,-978.900024414062,-0.120092342487832,-0.438844352428697,-0.0624189113817205,ST
13.4,-4.42745447158813,0.376830071210861,8.57198715209961,-0.358233988285065,0.335367977619171,0.853663980960846,-1044.30004882812,-11.1000003814697,-983.700012207031,-0.116671313129029,-0.460797974439249,-0.0519016522696585,ST
13.4333333333333,-4.238440990448,0.426475942134857,8.1066312789917,-0.457319974899292,0.182927995920181,0.99848198890686,-1053.90002441406,-9.30000019073486,-988.500061035156,-0.118127758439318,-0.472150952457643,-0.0523114427449651,ST
13.4666666666667,-3.96628594398499,-0.114245310425758,7.73458671569824,-1.05183601379395,-0.0990860015153885,1.08994603157043,-1044.30004882812,-5.10000038146973,-981.300048828125,-0.102752194339338,-0.473150515548606,-0.0148879813934854,ST
13.5,-4.74985313415527,-0.261986613273621,8.44637680053711,-1.74543797969818,-0.289635986089706,1.31098401546478,-1051.5,-3.90000009536743,-974.100036621094,-0.0929093606348084,-0.494399959568858,0.0111512546949875,ST
13.5333333333333,-4.56143808364868,-0.444420218467712,8.11560344696045,-2.01982998847961,-0.274392008781433,1.85214591026306,-1051.5,-8.10000038146973,-981.300048828125,-0.084005980125422,-0.503648023799677,0.0360048858747218,ST
13.5666666666667,-4.80667686462402,-0.250023752450943,8.15268898010254,-1.78354799747467,-0.967993974685669,2.77440786361694,-1044.30004882812,-5.10000038146973,-981.300048828125,-0.0896049207761557,-0.519781336463367,0.0330805181211946,ST
13.6,-5.10993528366089,-0.303856641054153,8.56959438323975,-1.76830399036407,-1.92836594581604,4.62655401229858,-1051.5,3.90000009536743,-988.500061035156,-0.0951063450413133,-0.527786620241041,0.0334642021409563,ST
13.6333333333333,-5.27502298355103,-0.363072782754898,8.50200462341309,-1.89787793159485,-1.40244793891907,5.36588764190674,-1053.90002441406,-2.10000014305115,-995.700012207031,-0.0996642844215915,-0.541563791465516,0.0372273037339706,ST
13.6666666666667,-3.55595993995667,-0.635825991630554,8.36622619628906,-2.30946588516235,-1.00610399246216,4.89332389831543,-1058.70007324219,-7.50000047683716,-998.100036621094,-0.0953667302412103,-0.457634165842985,0.0604273108514259,ST
13.7,-3.83290004730225,-0.490477234125137,8.35127258300781,-1.95885396003723,-1.15092194080353,3.27745985984802,-1068.30004882812,-2.10000014305115,-990.900024414062,-0.100235662105132,-0.440879176883344,0.0597763055185504,ST
13.7333333333333,-3.93458437919617,-0.651975810527802,8.2561674118042,-1.84452390670776,-0.693601965904236,2.31708788871765,-1068.30004882812,-0.900000035762787,-998.100036621094,-0.0987958567560294,-0.44187665336324,0.0714925771015575,ST
13.7666666666667,-3.49315500259399,-0.976767480373383,8.43202114105225,-1.80641400814056,-0.556405961513519,0.846041977405548,-1063.5,0.300000011920929,-988.500061035156,-0.0899085621873183,-0.413109967153566,0.0972557502453325,ST
13.8,-4.09787750244141,-0.852353751659393,8.42544174194336,-1.33385002613068,-0.525918006896973,-0.335367977619171,-1058.70007324219,-2.70000004768372,-990.900024414062,-0.0888572603271657,-0.433261882479873,0.100614078425376,ST
13.8333333333333,-4.62723398208618,-0.853550016880035,9.27480506896973,-0.937505960464478,0.0838419944047928,0.0076219998300075,-1058.70007324219,-3.30000019073486,-988.500061035156,-0.090993043596531,-0.448671224830566,0.0966776677860181,ST
13.8666666666667,-4.39993953704834,-1.08503139019012,9.44647216796875,-0.457319974899292,-0.0914639979600906,0.0152439996600151,-1061.10009765625,-6.90000009536743,-981.300048828125,-0.0868563941698426,-0.440177434519868,0.106884377848606,ST
13.9,-4.44838905334473,-0.828428030014038,9.42314434051514,0.137196004390717,-0.0228659994900227,-0.396344006061554,-1061.10009765625,-3.30000019073486,-990.900024414062,-0.0910541946402239,-0.439781747992678,0.0958446201809705,ST
13.9333333333333,-4.08531665802002,-0.813474416732788,8.28786945343018,0.609759986400604,0.907018005847931,-0.548784017562866,-1056.30004882812,-2.70000004768372,-983.700012207031,-0.0897506141570361,-0.449574494816154,0.0966441113843822,ST
13.9666666666667,-4.60211181640625,-0.812876284122467,8.41347885131836,0.579271972179413,1.44055795669556,-0.426831990480423,-1068.30004882812,1.5,-990.900024414062,-0.0890788324834485,-0.477878148791818,0.0961832023577334,ST
14.0,-4.86708927154541,-0.632237136363983,8.57138919830322,0.0914639979600906,1.18903195858002,0.266770005226135,-1051.5,0.900000035762787,-995.700012207031,-0.0950423240469426,-0.499646195653451,0.0837075901082719,ST
14.0333333333333,-4.40352869033813,-0.491075366735458,8.15867042541504,0.0304879993200302,0.0533539988100529,1.38720393180847,-1068.30004882812,5.10000038146973,-988.500061035156,-0.103001323267858,-0.496808643651862,0.0699378049870792,ST
14.0666666666667,-4.46573543548584,-0.550291538238525,8.28368186950684,0.503051996231079,-0.655492007732391,1.84452390670776,-1053.90002441406,3.30000019073486,-976.500061035156,-0.10627698742094,-0.494486102190892,0.0664867578715801,ST
14.1,-4.50461483001709,-0.645994424819946,8.78313159942627,0.914639949798584,-1.30336201190948,1.80641400814056,-1058.70007324219,-4.5,-981.300048828125,-0.106762471700718,-0.481396543439824,0.0684891255996671,ST
14.1333333333333,-4.48308134078979,-0.504832684993744,8.89677810668945,0.990859985351562,-2.17227005958557,1.2500079870224,-1046.70007324219,-14.7000007629395,-990.900024414062,-0.111404288619042,-0.470967227680566,0.0603228049224997,ST
14.1666666666667,-4.49683904647827,-0.0334960073232651,8.96257400512695,0.815553963184357,-1.98934197425842,0.449698001146317,-1063.5,1.5,-988.500061035156,-0.126112496902618,-0.465955231268173,0.0280652833112377,ST
14.2,-4.48966121673584,0.346324771642685,9.44168663024902,1.44055795669556,-1.6920839548111,0.480185985565186,-1056.30004882812,-2.10000014305115,-986.100036621094,-0.142888906156121,-0.451866461279185,-0.0102896634831918,ST
14.2333333333333,-3.52605271339417,0.41451308131218,8.77774810791016,1.71494996547699,-2.26373386383057,-0.144817993044853,-1065.90002441406,-1.5,-986.100036621094,-0.151499373905181,-0.409008245770011,-0.0335152944536775,ST
14.2666666666667,-3.39386320114136,0.392979919910431,8.26155090332031,1.38720393180847,-2.60672402381897,-0.891773998737335,-1065.90002441406,-2.10000014305115,-990.900024414062,-0.153311646741499,-0.394776045502771,-0.0428134705252618,ST
14.3,-2.87048816680908,0.40853163599968,8.33272933959961,0.83841997385025,-1.84452390670776,-1.15854394435883,-1077.90002441406,-2.10000014305115,-988.500061035156,-0.152997345565046,-0.357196528443852,-0.0466812820376796,DLL
14.3333333333333,-3.19647598266602,0.407335370779037,8.65752124786377,1.16616594791412,-1.34909391403198,-1.41006994247437,-1092.30004882812,-3.30000019073486,-995.700012207031,-0.151211350367417,-0.353832437820649,-0.0474618808126074,DLL
14.3666666666667,-3.39087247848511,0.433055520057678,8.71135425567627,1.18140995502472,-0.899396002292633,-1.35671591758728,-1080.30004882812,-4.5,-978.900024414062,-0.149874471279674,-0.362372188622752,-0.0493071497547005,DLL
14.4,-3.46324777603149,-0.141759887337685,9.14141941070557,0.0685980021953583,0.0,-1.41006994247437,-1061.10009765625,-1.5,-993.300048828125,-0.135504333185329,-0.362432534014581,-0.0131433537426747,DLL
14.4333333333333,-4.38558435440063,0.0921140164136887,9.43211650848389,-0.350611984729767,0.3125019967556,-1.16616594791412,-1068.30004882812,-4.5,-983.700012207031,-0.133427027787,-0.402773439296258,-0.0105101682701913,DLL
14.4666666666667,-4.03806304931641,-0.099889874458313,9.04870700836182,-0.586893975734711,0.46494197845459,-0.182927995920181,-1085.10009765625,-6.90000009536743,-988.500061035156,-0.128559240481684,-0.41257362186375,0.0019630853411748,DLL
14.5,-4.14991617202759,-0.190209463238716,8.51157474517822,-1.08232402801514,-0.213415995240211,0.167683988809586,-1070.70007324219,0.900000035762787,-983.700012207031,-0.124068747314533,-0.436014101391448,0.0146424306822546,DLL
14.5333333333333,-3.913649559021,-0.534141659736633,8.62103462219238,-2.32470989227295,-0.762199997901917,0.815553963184357,-1077.90002441406,-11.7000007629395,-981.300048828125,-0.114121645964247,-0.429409566563103,0.0432649890234439,DLL
14.5666666666667,-5.05729866027832,-0.147143170237541,9.18328857421875,-3.49849796295166,-2.09605002403259,2.68294382095337,-1073.10009765625,3.90000009536743,-986.100036621094,-0.124185655682953,-0.468177489413754,0.0306362902717708,DLL
14.6,-4.77856397628784,-0.319408357143402,8.51097679138184,-3.69666981697083,-2.53050398826599,5.83845186233521,-1080.30004882812,1.5,-990.900024414062,-0.13018907467063,-0.489668873952421,0.0349651455184521,DLL
14.6333333333333,-4.46633338928223,-0.409727931022644,7.94453477859497,-4.91618967056274,-2.00458598136902,9.78664779663086,-1080.30004882812,-0.900000035762787,-983.700012207031,-0.139891212866098,-0.501204057202473,0.0444404197312469,DLL
14.6666666666667,-4.03746509552002,-0.922934591770172,8.58514595031738,-5.29728984832764,-2.02745199203491,12.248553276062,-1070.70007324219,6.90000009536743,-990.900024414062,-0.13963565452894,-0.464156431871086,0.079231370742456,DLL
14.7,-3.64747595787048,-1.04914271831512,8.49303245544434,-4.70277404785156,-0.724089980125427,12.027515411377,-1082.70007324219,4.5,-988.500061035156,-0.144793782968326,-0.429270683401787,0.103767705728118,DLL
14.7333333333333,-4.05899810791016,-0.751267552375793,8.52533149719238,-4.77899408340454,0.510673999786377,12.4924573898315,-1089.90002441406,2.70000004768372,-981.300048828125,-0.164093362269033,-0.438427176385172,0.0941109116598585,DLL
14.7666666666667,-3.53861379623413,-1.13826608657837,8.9655647277832,-4.73326206207275,0.449698001146317,11.8903198242188,-1075.5,9.30000019073486,-983.700012207031,-0.171565522981541,-0.404133744299006,0.111611131572928,DLL
14.8,-3.33763766288757,-1.16398620605469,8.84473991394043,-4.48935794830322,1.15854394435883,10.3201875686646,-1077.90002441406,9.90000057220459,-981.300048828125,-0.18039404146847,-0.380443408892973,0.122896512123815,DLL
14.8333333333333,-4.01533365249634,-0.932504892349243,9.18209266662598,-3.22410583496094,1.49391198158264,8.84151935577393,-1065.90002441406,13.5000009536743,-976.500061035156,-0.195593332391474,-0.399343998878319,0.110697982147657,DLL
14.8666666666667,-3.39805030822754,-1.43434679508209,9.51884746551514,-2.29422187805176,1.01372599601746,7.73633003234863,-1077.90002441406,15.9000005722046,-993.300048828125,-0.196906117768087,-0.367464150464736,0.132163257514489,DLL
14.9,-3.04634213447571,-1.47322618961334,8.476881980896,-1.36433792114258,-0.945127964019775,3.60520601272583,-1051.5,10.5,-971.700012207031,-0.19367764325269,-0.352155274490114,0.154235917765704,DLL
14.9333333333333,-3.63491487503052,-1.1998747587204,8.93625640869141,-0.0076219998300075,-1.21951997280121,2.75154185295105,-1061.10009765625,14.1000003814697,-974.100036621094,-0.201190352576126,-0.368503944067861,0.14181297357478,DLL
14.9666666666667,-4.10206460952759,-1.27165198326111,9.45604228973389,2.17227005958557,-1.2576299905777,1.29574000835419,-1070.70007324219,15.3000001907349,-981.300048828125,-0.204459694916768,-0.388149147370186,0.134710404292742,DLL
15.0,-4.00396919250488,-1.20406174659729,8.3458890914917,1.84452390670776,-1.17378795146942,-0.716467976570129,-1063.5,13.5000009536743,-986.100036621094,-0.201684804103413,-0.418695567253269,0.137977746230279,DLL
15.0333333333333,-4.43881893157959,-0.60651695728302,8.47508811950684,1.76068198680878,-1.31098401546478,-1.32622802257538,-1068.30004882812,13.5000009536743,-974.100036621094,-0.215343538063767,-0.452011474690781,0.100720685754302,DLL
15.0666666666667,-4.12000894546509,-0.869699895381927,8.53310775756836,1.21951997280121,-1.08994603157043,-1.15854394435883,-1073.10009765625,12.9000005722046,-983.700012207031,-0.213597983068375,-0.448283877395019,0.100484875245105,DLL
15.1,-3.88613486289978,-1.01744115352631,8.548659324646,0.365855991840363,-1.08994603157043,-1.57775402069092,-1073.10009765625,8.10000038146973,-978.900024414062,-0.207208787485538,-0.433016568970034,0.111237661630297,DLL
15.1333333333333,-5.13984251022339,-0.268566191196442,8.76937389373779,1.02897000312805,-0.449698001146317,-1.10518991947174,-1085.10009765625,7.50000047683716,-986.100036621094,-0.22632245901421,-0.489813522086286,0.064321243706016,DLL
15.1666666666667,-4.202552318573,-0.382213354110718,8.9177131652832,1.6692179441452,0.0152439996600151,0.975615978240967,-1080.30004882812,6.90000009536743,-978.900024414062,-0.233177774190915,-0.461124535882838,0.049599942947332,DLL
15.2,-3.79880595207214,-0.351708054542542,8.07313537597656,1.48628997802734,0.274392008781433,0.243903994560242,-1075.5,9.30000019073486,-990.900024414062,-0.234811325280617,-0.449446965125268,0.0447071720051882,DLL
15.2333333333333,-3.50571584701538,-0.0634031519293785,9.18747615814209,0.701223969459534,0.266770005226135,-0.121951997280121,-1073.10009765625,9.90000057220459,-978.900024414062,-0.243547536108201,-0.401772944350316,0.0223890859973782,DLL
15.2666666666667,-3.68994402885437,0.0544310100376606,8.3339262008667,0.0304879993200302,-0.0685980021953583,-1.19665396213531,-1080.30004882812,5.70000028610229,-986.100036621094,-0.248354652626708,-0.41001495128945,0.0069719457670655,DLL
15.3,-3.63551306724548,-0.0221312902867794,8.73169136047363,-0.647870004177094,0.411587983369827,-0.815553963184357,-1058.70007324219,14.1000003814697,-983.700012207031,-0.24837498435834,-0.401869563346339,0.0054781936993278,DLL
15.3333333333333,-4.36823797225952,0.323595345020294,9.50150108337402,-0.190549999475479,0.0381099991500378,-0.381099998950958,-1075.5,10.5,-983.700012207031,-0.256540027281575,-0.417860159600164,-0.0158120843378985,DLL
15.3666666666667,-4.03148365020752,0.185424327850342,9.17132663726807,0.457319974899292,0.114329993724823,1.31098401546478,-1073.10009765625,7.50000047683716,-971.700012207031,-0.259096502066962,-0.415862233384477,-0.0192388667294551,DLL
15.4,-2.65695118904114,-0.0233275759965181,7.78542900085449,-0.571649968624115,-1.09756803512573,0.480185985565186,-1070.70007324219,20.1000003814697,-983.700012207031,-0.254778723764187,-0.364476262177519,-0.0058044676483724,DLL
15.4333333333333,-4.03208160400391,-0.224901750683784,9.73836612701416,-0.388722002506256,-0.434453994035721,0.564027965068817,-1070.70007324219,10.5,-983.700012207031,-0.249733254005217,-0.379505486439575,0.0101904903468921,DLL
15.4666666666667,-3.05471611022949,-0.489879101514816,8.77595329284668,-1.82927989959717,-1.54726600646973,-0.25152599811554,-1073.10009765625,6.30000019073486,-983.700012207031,-0.239714158466288,-0.350771486796829,0.0398768539471068,DLL
15.5,-3.81854462623596,-1.15501403808594,9.54935264587402,-0.846041977405548,-0.640248000621796,-0.3125019967556,-1075.5,7.50000047683716,-983.700012207031,-0.222833107445854,-0.366342571233866,0.088113714045796,DLL
15.5333333333333,-3.85742402076721,-1.24114668369293,10.111008644104,-0.411587983369827,-0.609759986400604,-0.960371971130371,-1087.5,7.50000047683716,-976.500061035156,-0.214516901400659,-0.363086974875585,0.10898903723389,DLL
15.5666666666667,-3.5613431930542,-1.03060030937195,9.09954929351807,1.11281192302704,0.228659987449646,-0.724089980125427,-1080.30004882812,11.7000007629395,-981.300048828125,-0.212749014201032,-0.367637902001423,0.110308900258182,DLL
15.6,-3.08940839767456,-0.794932007789612,8.25377464294434,1.49391198158264,1.07470202445984,-0.754577994346619,-1073.10009765625,8.70000076293945,-978.900024414062,-0.21450770656752,-0.362173877280592,0.100652572434123,DLL
15.6333333333333,-3.6672146320343,-0.711192011833191,8.02648067474365,2.08842802047729,2.25611186027527,-0.769822001457214,-1087.5,5.10000038146973,-983.700012207031,-0.215657654408058,-0.399980959646754,0.0923516329883624,DLL
15.6666666666667,-4.06497955322266,-0.248229339718819,8.00076007843018,1.74543797969818,2.52288198471069,-0.739333987236023,-1073.10009765625,12.3000001907349,-986.100036621094,-0.227940144403519,-0.440963767653039,0.057830295480675,DLL
15.7,-5.42874574661255,-0.0783567279577255,10.0314559936523,2.36281991004944,3.02593398094177,0.259148001670837,-1061.10009765625,14.1000003814697,-978.900024414062,-0.239905715259476,-0.474284491788571,0.0283063700177563,DLL
15.7333333333333,-3.75873041152954,-0.403148353099823,8.49961185455322,1.28049600124359,1.87501192092896,0.160062000155449,-1063.5,11.7000007629395,-988.500061035156,-0.235178399954828,-0.443936804799959,0.0377066634534456,DLL
15.7666666666667,-4.66431903839111,0.265575468540192,8.81483268737793,0.495429992675781,1.12805593013763,-0.457319974899292,-1063.5,11.1000003814697,-998.100036621094,-0.250813960657067,-0.468664160881911,0.000495119635053,DLL
15.8,-4.04524087905884,-0.101684302091599,8.47448921203613,-0.449698001146317,1.09756803512573,-0.411587983369827,-1061.10009765625,1.5,-981.300048828125,-0.247490069630771,-0.456859363848861,0.0075031091677926,DLL
15.8333333333333,-3.72882318496704,-0.635227859020233,8.07971572875977,-1.05945801734924,1.08994603157043,-0.853663980960846,-1061.10009765625,14.7000007629395,-988.500061035156,-0.229361957340087,-0.44397824994304,0.0482659607200461,DLL
15.8666666666667,-4.54409217834473,-0.452794224023819,8.19276428222656,-0.403965979814529,0.922261953353882,-0.487807989120483,-1051.5,11.1000003814697,-990.900024414062,-0.226868352950747,-0.481304465434503,0.0530113496125099,DLL
15.9,-4.83897686004639,-1.01564681529999,7.70049238204956,-0.289635986089706,1.31860601902008,0.350611984729767,-1061.10009765625,10.5,-988.500061035156,-0.206946351339603,-0.524582693601134,0.0952606008604399,DLL
15.9333333333333,-4.82103252410889,-0.924130916595459,7.96247911453247,-0.297257989645004,0.609759986400604,0.746955990791321,-1061.10009765625,8.70000076293945,-976.500061035156,-0.202230558163279,-0.534562363654524,0.106285413126905,DLL
15.9666666666667,-5.17453479766846,-1.00966536998749,7.60060262680054,-0.0914639979600906,0.114329993724823,1.14329993724823,-1046.70007324219,0.900000035762787,-981.300048828125,-0.19639965632582,-0.56733325128968,0.119647012370168,DLL
16.0,-4.92092227935791,-1.42776727676392,9.281982421875,-0.708845973014832,-0.541162014007568,1.16616594791412,-1056.30004882812,12.9000005722046,-981.300048828125,-0.187897305745743,-0.516922830427445,0.139532062223206,DLL
16.0333333333333,-4.95920324325562,-1.44511342048645,8.71853160858154,-0.960371971130371,-1.99696397781372,0.419209986925125,-1063.5,11.1000003814697,-983.700012207031,-0.182167171171561,-0.5120518738493,0.153711653655964,DLL
16.0666666666667,-4.9873161315918,-1.24234294891357,8.31119632720947,-1.04421401023865,-2.38568592071533,0.868907988071442,-1053.90002441406,9.90000057220459,-978.900024414062,-0.185259888252328,-0.522888548101483,0.151130276558752,DLL
16.1,-5.05370998382568,-1.46066510677338,8.75621509552002,-0.221037998795509,-1.15092194080353,1.57775402069092,-1041.90002441406,11.1000003814697,-966.900024414062,-0.183520055571888,-0.518818416945097,0.158703585070775,DLL
16.1333333333333,-4.85153770446777,-1.22918379306793,8.93685436248779,0.388722002506256,-1.37195992469788,1.52439999580383,-1056.30004882812,11.7000007629395,-986.100036621094,-0.191636209750858,-0.503754002864045,0.145195486066609,DLL
16.1666666666667,-4.51298856735229,-0.688462555408478,8.41527366638184,0.830797970294952,-1.77592599391937,1.73781597614288,-1056.30004882812,17.7000007629395,-969.300048828125,-0.212252563566378,-0.49473041199315,0.105617385763293,DLL
16.2,-4.25459098815918,-0.712986409664154,8.29624271392822,0.167683988809586,-1.77592599391937,1.55488801002502,-1065.90002441406,12.9000005722046,-981.300048828125,-0.220115487106415,-0.479870688657437,0.0927114452738215,DLL
16.2333333333333,-4.42565965652466,-0.56763768196106,8.71075630187988,0.419209986925125,-1.40244793891907,1.98934197425842,-1056.30004882812,16.5,-971.700012207031,-0.229711234515968,-0.472850689897983,0.0760010895909794,DLL
16.2666666666667,-4.15410280227661,-0.388792932033539,8.97812557220459,0.579271972179413,-1.21189796924591,2.25611186027527,-1061.10009765625,12.9000005722046,-981.300048828125,-0.240663282985844,-0.449892392816076,0.0561447289713284,DLL
16.3,-3.39206886291504,-0.394774347543716,8.86806774139404,0.503051996231079,-1.93598794937134,1.76830399036407,-1056.30004882812,12.3000001907349,-978.900024414062,-0.245848675885726,-0.398943221379437,0.0479814176322796,DLL
16.3333333333333,-3.58467078208923,-0.132787734270096,8.65752124786377,0.243903994560242,-1.62348592281342,1.31098401546478,-1058.70007324219,9.30000019073486,-981.300048828125,-0.255097625742113,-0.393570206977229,0.027850867467135,DLL
16.3666666666667,-3.63491487503052,0.0143554313108325,8.77475738525391,0.144817993044853,-0.571649968624115,1.46342396736145,-1070.70007324219,7.50000047683716,-983.700012207031,-0.263706323668172,-0.392544194788261,0.0096646726627099,DLL
16.4,-3.70669198036194,-0.104076877236366,8.84713268280029,0.304879993200302,0.25152599811554,1.73781597614288,-1063.5,8.10000038146973,-983.700012207031,-0.26545385423267,-0.395231145368178,0.0098406233828553,DLL
16.4333333333333,-3.58048391342163,-0.150133892893791,9.0253791809082,0.640248000621796,0.0762199983000755,0.99848198890686,-1065.90002441406,11.1000003814697,-995.700012207031,-0.265187774349561,-0.385610711074469,0.0125893994786742,DLL
16.4666666666667,-3.2467200756073,-0.297875195741653,8.29504680633545,0.160062000155449,-0.282013982534409,0.25152599811554,-1063.5,11.1000003814697,-983.700012207031,-0.260686370894086,-0.37833755397243,0.0252121264923045,DLL
16.5,-4.18341207504272,-0.147741317749023,9.10134315490723,0.350611984729767,0.0228659994900227,-0.0457319989800453,-1073.10009765625,12.3000001907349,-988.500061035156,-0.262521721936615,-0.40793078251458,0.0198774997461908,DLL
16.5333333333333,-4.01712799072266,-0.313426911830902,8.91950798034668,0.144817993044853,0.243903994560242,-0.0990860015153885,-1063.5,11.7000007629395,-978.900024414062,-0.258856297876459,-0.416846162696079,0.0285563431370113,DLL
16.5666666666667,-3.81555390357971,-0.485692083835602,8.83935642242432,-0.0838419944047928,-0.221037998795509,-0.449698001146317,-1073.10009765625,7.50000047683716,-978.900024414062,-0.252009997164578,-0.410785086251055,0.044420281385391,DLL
16.6,-4.10924243927002,-0.37623193860054,8.69340991973877,0.243903994560242,-0.0152439996600151,-0.548784017562866,-1073.10009765625,9.30000019073486,-974.100036621094,-0.251550130514893,-0.428294514081584,0.0437527952828546,DLL
16.6333333333333,-4.03985786437988,-0.56763768196106,9.25506591796875,0.632625997066498,0.221037998795509,-0.114329993724823,-1058.70007324219,7.50000047683716,-990.900024414062,-0.247364562010074,-0.418919091226203,0.0528829162186746,DLL
16.6666666666667,-4.11402750015259,-0.101684302091599,8.82500171661377,0.78506600856781,0.0762199983000755,-0.525918006896973,-1070.70007324219,10.5,-981.300048828125,-0.255987222966559,-0.428570517799374,0.0296566740086815,DLL
16.7,-3.78624510765076,-0.286510497331619,8.51576137542725,0.0228659994900227,-0.0990860015153885,-0.190549999475479,-1070.70007324219,10.5,-986.100036621094,-0.254848169321562,-0.422730489453804,0.0319123418496316,DLL
16.7333333333333,-3.51648259162903,-0.221312895417213,8.43321800231934,-0.586893975734711,-0.190549999475479,-0.327746003866196,-1058.70007324219,10.5,-986.100036621094,-0.255770669792826,-0.407213176288288,0.0294664385548076,DLL
16.7666666666667,-3.58347463607788,-0.578404247760773,8.68922328948975,-0.67835795879364,0.0457319989800453,-0.190549999475479,-1073.10009765625,7.50000047683716,-986.100036621094,-0.247182910538739,-0.397583131148317,0.0516699284027747,DLL
16.8,-3.75394535064697,-0.623264968395233,9.1091194152832,-0.548784017562866,0.442075997591019,-0.236281991004944,-1075.5,8.70000076293945,-990.900024414062,-0.243364774579793,-0.393870095498522,0.0614903021065705,DLL
16.8333333333333,-3.6492702960968,-0.44023323059082,8.46192836761475,0.442075997591019,0.861285984516144,-0.198172003030777,-1070.70007324219,5.70000028610229,-983.700012207031,-0.245054329751317,-0.401740309424801,0.0559371865690761,DLL
16.8666666666667,-4.29586267471313,-0.189611315727234,9.05468845367432,1.13567793369293,1.33385002613068,-0.0152439996600151,-1063.5,10.5,-981.300048828125,-0.252553327915007,-0.425733238944405,0.0357676507948219,DLL
16.9,-4.52674579620361,-0.508421540260315,9.15398025512695,1.41769194602966,1.89025592803955,0.556405961513519,-1068.30004882812,11.7000007629395,-978.900024414062,-0.248493556702366,-0.445705928309172,0.0449703178454657,DLL
16.9333333333333,-4.04703521728516,-0.412718653678894,8.47987270355225,1.15854394435883,1.91312193870544,-0.160062000155449,-1051.5,9.30000019073486,-978.900024414062,-0.247114695678111,-0.44714822599174,0.0460617882919919,DLL
16.9666666666667,-4.90716505050659,-0.276342064142227,8.59710884094238,1.38720393180847,2.03507399559021,-0.259148001670837,-1063.5,11.7000007629395,-983.700012207031,-0.249966992611944,-0.488300550611699,0.037367340972909,DLL
17.0,-4.39754724502563,-0.818857729434967,7.36852312088013,0.327746003866196,2.33995389938354,-0.525918006896973,-1056.30004882812,7.50000047683716,-986.100036621094,-0.228423817523054,-0.518676063764401,0.0801688775142767,DLL
17.0333333333333,-4.62484169006348,-0.534141659736633,7.82131767272949,-0.0457319989800453,1.64635193347931,-1.02134799957275,-1039.5,11.1000003814697,-976.500061035156,-0.230250716508477,-0.528071664892632,0.0742733105323427,DLL
17.0666666666667,-5.31509828567505,-0.517991840839386,7.89728164672852,0.342989981174469,0.884151995182037,-1.01372599601746,-1034.70007324219,9.90000057220459,-976.500061035156,-0.231282207424793,-0.563677634532393,0.0698483872394316,DLL
17.1,-5.43592309951782,-0.813474416732788,8.35306644439697,-0.129574000835419,0.0,-0.746955990791321,-1051.5,8.70000076293945,-976.500061035156,-0.222076293586492,-0.569911281167414,0.0857605490026485,DLL
17.1333333333333,-5.0351676940918,-0.86790543794632,8.23702716827393,-0.647870004177094,-1.2576299905777,-0.945127964019775,-1046.70007324219,8.70000076293945,-981.300048828125,-0.215217182930299,-0.555230090863885,0.0978282953187431,DLL
17.1666666666667,-5.17991828918457,-0.617881715297699,7.60538768768311,-1.09756803512573,-2.56099200248718,-0.739333987236023,-1034.70007324219,11.7000007629395,-974.100036621094,-0.219553082003062,-0.575387178583725,0.0900893843596451,DLL
17.2,-4.81983613967896,-1.16817319393158,7.64127635955811,-1.13567793369293,-2.10367202758789,-0.137196004390717,-1051.5,12.9000005722046,-976.500061035156,-0.201371723157458,-0.563727359504107,0.125238878106916,DLL
17.2333333333333,-4.96757745742798,-1.62276184558868,9.39144325256348,-0.868907988071442,-2.59148001670837,0.556405961513519,-1053.90002441406,16.5,-976.500061035156,-0.188535060724435,-0.512044377164197,0.153224990097282,DLL
17.2666666666667,-4.94185733795166,-1.75734400749207,9.26702880859375,-0.182927995920181,-3.33843588829041,0.297257989645004,-1068.30004882812,9.30000019073486,-962.100036621094,-0.180451120367242,-0.492754219039514,0.171933580040022,DLL
17.3,-4.49025917053223,-1.49595558643341,8.64974594116211,0.121951997280121,-2.98782396316528,0.37347799539566,-1065.90002441406,17.1000003814697,-990.900024414062,-0.181715711965531,-0.478992850366882,0.17099770356346,DLL
17.3333333333333,-3.99738955497742,-1.20406174659729,8.42663860321045,0.746955990791321,-2.90398192405701,0.907018005847931,-1063.5,9.90000057220459,-986.100036621094,-0.191056266680335,-0.453179776791578,0.152632302370298,DLL
17.3666666666667,-3.54579162597656,-0.849363029003143,7.44987058639526,0.815553963184357,-2.42379593849182,1.29574000835419,-1070.70007324219,13.5000009536743,-978.900024414062,-0.202389367558633,-0.444794302709486,0.12949312462866,DLL
