seconds,sensor_accX_m_s_,sensor_accY_m_s_,sensor_accZ_m_s_,sensor_gyroX___s_,sensor_gyroY___s_,sensor_gyroZ___s_,sensor_magX__T_,sensor_magY__T_,sensor_magZ__T_,sensor_yaw___,sensor_pitch___,sensor_roll___,label3
0.0,-2.635417938,-0.294884473,9.216785431,0.259148002,-0.373477995,0.365855992,-1097.100098,-13.50000095,-978.9000244,-3.065323851,-0.277975194,0.031473426,ST
0.033333333,-2.528350353,-0.392381787,9.240112305,0.053353999,-0.335367978,0.289635986,-1109.100098,-12.30000019,-993.3000488,-3.063667076,-0.267178114,0.041394102,ST
0.066666667,-2.565435171,-0.381615222,9.283777237,0.068598002,-0.381099999,0.121951997,-1099.5,-12.30000019,-974.1000366,-3.064182296,-0.268593892,0.040941759,ST
0.1,-2.54150939,-0.43305552,9.206018448,0.152439997,-0.274392009,-0.007622,-1099.5,-12.90000057,-981.3000488,-3.062658521,-0.268598831,0.046212984,ST
0.133333333,-2.577398062,-0.443223953,9.247888565,0.175305992,-0.182927996,-0.243903995,-1101.900024,-12.30000019,-981.3000488,-3.061354148,-0.270936014,0.047563595,ST
0.166666667,-2.663530588,-0.458177507,9.2724123,0.182927996,-0.282013983,-0.266770005,-1099.5,-14.70000076,-976.500061,-3.05994337,-0.278165278,0.049032137,ST
0.2,-2.693437815,-0.427672237,9.290356636,0.259148002,-0.434453994,-0.137196004,-1099.5,-12.90000057,-978.9000244,-3.060143812,-0.280906369,0.045866449,ST
0.233333333,-2.617473602,-0.520982504,9.140820503,0.213415995,-0.449698001,0.068598002,-1106.700073,-9.900000572,-990.9000244,-3.057573811,-0.277974681,0.055551949,ST
0.266666667,-2.685662031,-0.438438803,9.336413383,0.106707998,-0.480185986,0.083841994,-1099.5,-9.900000572,-974.1000366,-3.060047779,-0.278881115,0.047488508,ST
0.3,-2.543303967,-0.532347262,9.234130859,0.236281991,-0.388722003,0.365855992,-1097.100098,-15.30000019,-981.3000488,-3.058775163,-0.268707103,0.056130047,ST
0.333333333,-2.525957823,-0.580796838,9.274207115,0.289635986,-0.327746004,0.282013983,-1092.300049,-6.300000191,-986.1000366,-3.058166087,-0.265140465,0.061498768,ST
0.366666667,-2.615081072,-0.476719946,9.371106148,0.40396598,-0.457319975,0.228659987,-1106.700073,-13.50000095,-978.9000244,-3.061517312,-0.270621075,0.050792278,ST
0.4,-2.608501434,-0.352306217,9.38845253,0.419209987,-0.640248001,0.442075998,-1099.5,-8.700000763,-978.9000244,-3.066278912,-0.269807147,0.037625135,ST
0.433333333,-2.399151564,-0.373839349,9.140222549,0.289635986,-0.61738199,0.678357959,-1106.700073,-11.10000038,-993.3000488,-3.067788591,-0.256755412,0.039828988,ST
0.466666667,-2.359075785,-0.453990519,9.30949688,0.243903995,-0.40396598,0.495429993,-1104.300049,-15.30000019,-974.1000366,-3.067421904,-0.248096174,0.047329353,ST
0.5,-2.347113132,-0.442625791,9.252673149,0.327746004,-0.396344006,0.259148002,-1094.700073,-9.900000572,-988.500061,-3.068164091,-0.247532623,0.047123387,ST
0.533333333,-2.527752161,-0.457579374,9.250281334,0.434453994,-0.160062,-0.007622,-1106.700073,-10.5,-981.3000488,-3.067411452,-0.264620102,0.048538761,ST
0.566666667,-2.579790592,-0.477916241,9.362731934,0.388722003,-0.251525998,-0.160062,-1099.5,-6.300000191,-981.3000488,-3.066064206,-0.267820251,0.050252012,ST
0.6,-2.608501434,-0.471336663,9.179101944,0.29725799,-0.625003994,-0.038109999,-1116.300049,-6.900000095,-983.7000122,-3.0656158,-0.274865549,0.050747208,ST
0.633333333,-2.610296011,-0.445616513,9.344787598,0.182927996,-0.716467977,0.015244,-1101.900024,-8.100000381,-988.500061,-3.066470166,-0.27115021,0.047565999,ST
0.666666667,-2.383001566,-0.392381787,9.283777237,0.091463998,-1.021348,0.251525998,-1109.100098,-12.30000019,-978.9000244,-3.068776514,-0.250932787,0.042368511,ST
0.7,-2.332159519,-0.365465343,9.364526749,0.121951997,-1.173787951,0.449698001,-1109.100098,-13.50000095,-983.7000122,-3.071180666,-0.2427012,0.03892066,ST
0.733333333,-2.222101212,-0.348717362,9.308898926,0.182927996,-0.861285985,0.647870004,-1109.100098,-11.70000076,-978.9000244,-3.073830882,-0.233530363,0.037011277,ST
0.766666667,-2.014545441,-0.520384371,9.173718452,0.160062,-0.594515979,0.640248001,-1106.700073,-9.900000572,-990.9000244,-3.072110688,-0.216401057,0.054550628,ST
0.8,-2.167072058,-0.488682806,9.453649521,0.114329994,-0.464941978,0.190549999,-1106.700073,-14.10000038,-971.7000122,-3.073381339,-0.223544388,0.0516514,ST
0.833333333,-2.119220495,-0.592759669,9.303515434,0.335367978,-0.320124,0.205793992,-1121.100098,-11.70000076,-976.500061,-3.071603097,-0.223043006,0.061930606,ST
0.866666667,-2.195184708,-0.500047505,9.582250595,0.274392009,-0.503051996,-0.228659987,-1109.100098,-13.50000095,-976.500061,-3.072773561,-0.223921946,0.052660969,ST
0.9,-2.349505663,-0.372643083,9.351964951,0.541162014,-0.564027965,-0.038109999,-1118.700073,-9.300000191,-976.500061,-3.075193141,-0.243061444,0.040139049,ST
0.933333333,-2.313018799,-0.401353925,9.203625679,0.419209987,-0.106707998,0.152439997,-1113.900024,-13.50000095,-974.1000366,-3.074786857,-0.245568515,0.042541229,ST
0.966666667,-2.311822653,-0.46116823,9.274805069,0.129574001,-0.053353999,0.167683989,-1106.700073,-10.5,-976.500061,-3.073740229,-0.24406235,0.048763097,ST
1.0,-2.376421928,-0.479710668,9.340600967,-0.045731999,-0.274392009,0.228659987,-1123.5,-8.100000381,-969.3000488,-3.074031543,-0.247971556,0.051057149,ST
1.033333333,-2.277130365,-0.517991841,9.379480362,-0.022865999,-0.480185986,0.388722003,-1111.5,-6.900000095,-981.3000488,-3.074568151,-0.238011578,0.054674206,ST
1.066666667,-2.280719042,-0.519786239,9.46381855,0.121951997,-0.754577994,0.503051996,-1128.300049,-8.100000381,-974.1000366,-3.076558782,-0.235070343,0.054443219,ST
1.1,-2.26157856,-0.503038228,9.335217476,0.304879993,-0.762199998,0.754577994,-1111.5,-15.30000019,-962.1000366,-3.079295065,-0.236001464,0.053102081,ST
1.133333333,-2.22628808,-0.427672237,9.260449409,0.259148002,-0.663114011,0.861285985,-1121.100098,-6.900000095,-978.9000244,-3.083735615,-0.234731134,0.046028564,ST
1.166666667,-2.142548084,-0.368456066,9.36632061,0.129574001,-0.61738199,0.891773999,-1116.300049,-8.100000381,-978.9000244,-3.088438293,-0.224531933,0.039273525,ST
1.2,-2.097687483,-0.43066293,9.304114342,-0.083841994,-0.586893976,0.907018006,-1109.100098,-9.300000191,-993.3000488,-3.090283171,-0.220926489,0.045422609,ST
1.233333333,-1.984638333,-0.479112506,9.341198921,-0.312501997,-0.442075998,0.693601966,-1113.900024,-12.90000057,-981.3000488,-3.091739574,-0.209506702,0.050971636,ST
1.266666667,-1.985236526,-0.498253107,9.367517471,-0.350611985,-0.419209987,0.464941978,-1118.700073,-9.300000191,-974.1000366,-3.093144294,-0.208012295,0.053336613,ST
1.3,-2.05462122,-0.586778283,9.206018448,-0.221037999,-0.571649969,0.266770005,-1116.300049,-8.700000763,-974.1000366,-3.09228787,-0.217266266,0.062963203,ST
1.333333333,-2.281915426,-0.708799422,9.398022652,-0.42683199,-0.442075998,0.007622,-1116.300049,-18.90000153,-986.1000366,-3.090082317,-0.2351684,0.074923657,ST
1.366666667,-2.555266857,-0.493467957,9.511071205,-0.198172003,-0.342989981,0.121951997,-1109.100098,-6.900000095,-983.7000122,-3.095868626,-0.259369188,0.054019085,ST
1.4,-2.497844934,-0.58378756,9.37409687,-0.121951997,-0.243903995,0.289635986,-1116.300049,-8.700000763,-974.1000366,-3.095082803,-0.259522952,0.061586366,ST
1.433333333,-2.500835657,-0.603526235,9.210803986,-0.091463998,-0.083841994,0.221037999,-1121.100098,-14.70000076,-983.7000122,-3.095001602,-0.264011148,0.065130626,ST
1.466666667,-2.474517584,-0.589170814,8.966162682,0.038109999,0.61738199,-0.198172003,-1109.100098,-8.100000381,-981.3000488,-3.094045363,-0.269259464,0.065615579,ST
1.5,-2.582781315,-0.523973227,9.177906036,0.190549999,0.868907988,-0.685979962,-1113.900024,-7.500000477,-988.500061,-3.093316306,-0.274920612,0.057645541,ST
1.533333333,-2.634221554,-0.585581958,8.993678093,0.342989981,0.556405962,-1.097568035,-1116.300049,-5.700000286,-974.1000366,-3.086975838,-0.284499473,0.064486998,ST
1.566666667,-2.5791924,-0.704612434,8.850721359,0.144817993,0.243903995,-1.455801964,-1111.5,-9.300000191,-974.1000366,-3.078024399,-0.283086944,0.078540853,ST
1.6,-2.671904564,-0.431859225,9.349573135,0.121951997,-0.365855992,-1.524399996,-1113.900024,2.700000048,-986.1000366,-3.080947578,-0.277829969,0.049573379,ST
1.633333333,-2.529546738,-0.497056812,9.472789764,0.304879993,-0.907018006,-0.823175967,-1111.5,-8.700000763,-981.3000488,-3.077434003,-0.260655212,0.052016825,ST
1.666666667,-2.202960491,-0.591563404,9.216186523,-0.144817993,-1.173787951,-0.434453994,-1109.100098,-3.300000191,-966.9000244,-3.073547001,-0.234661236,0.063383776,ST
1.7,-2.091107845,-0.584983826,9.458435059,-0.564027965,-0.884151995,0.076219998,-1121.100098,-6.900000095,-986.1000366,-3.074563697,-0.217370098,0.06276287,ST
1.733333333,-1.984638333,-0.720762253,9.073230743,-0.91463995,-0.647870004,0.304879993,-1123.5,-6.300000191,-978.9000244,-3.072926162,-0.213944077,0.079108454,ST
1.766666667,-1.90149653,-1.07546103,8.736475945,-1.272873998,0.42683199,0.365855992,-1125.900024,-6.900000095,-974.1000366,-3.066161509,-0.213613361,0.120473074,ST
1.8,-2.267560005,-1.125106931,9.156970978,-1.410069942,0.929883957,-0.129574001,-1123.5,-11.70000076,-976.500061,-3.065564068,-0.239967904,0.124427964,ST
1.833333333,-2.88544178,-1.088620186,9.329833984,-0.929883957,0.929883957,-0.266770005,-1121.100098,-9.300000191,-978.9000244,-3.066721427,-0.294198208,0.118575943,ST
1.866666667,-2.945255995,-0.942673326,8.95659256,-0.190549999,0.678357959,-0.106707998,-1111.5,-3.300000191,-988.500061,-3.069943876,-0.315144106,0.106506799,ST
1.9,-3.207242727,-0.885251582,9.057081223,0.182927996,0.518296003,0.076219998,-1099.5,-2.100000143,-981.3000488,-3.072558682,-0.337530528,0.097955798,ST
1.933333333,-3.079838276,-0.762034118,9.849021912,0.525918007,-0.571649969,0.213415995,-1109.100098,-12.30000019,-974.1000366,-3.079172154,-0.304261877,0.077940418,ST
1.966666667,-2.826225519,-0.257201463,9.740757942,1.051836014,-2.423795938,0.152439997,-1104.300049,-8.700000763,-986.1000366,-3.09306045,-0.280482229,0.02925823,ST
2.0,-2.619866133,-0.256005198,8.538491249,1.112811923,-2.164648056,0.53354001,-1116.300049,-8.700000763,-971.7000122,-3.094336661,-0.292627284,0.027857183,ST
2.033333333,-2.024713993,-0.605320692,8.992481232,-0.525918007,-0.861285985,0.137196004,-1123.5,-2.100000143,-976.500061,-3.086000098,-0.226133002,0.064475477,ST
2.066666667,-2.176642179,-0.513206661,9.128259659,-1.196653962,-1.219519973,-0.609759986,-1116.300049,1.5,-978.9000244,-3.086378951,-0.231048426,0.059016551,ST
2.1,-2.046845198,-0.875681281,8.230446815,-1.85214591,-0.861285985,-0.952749968,-1109.100098,-6.900000095,-969.3000488,-3.074203933,-0.239917598,0.105007014,ST
2.133333333,-3.090604782,-1.095199823,9.505687714,-2.042695999,0.030487999,-1.196653962,-1104.300049,-5.700000286,-976.500061,-3.068605061,-0.306771521,0.117859334,ST
2.166666667,-2.914750814,-1.542012572,8.607276917,-2.06556201,0.335367978,-1.356715918,-1111.5,-7.500000477,-978.9000244,-3.048099745,-0.320721809,0.176379867,ST
2.2,-2.793925762,-2.146136999,9.921397209,-2.484771967,-0.221037999,-1.150921941,-1125.900024,-0.300000012,-969.3000488,-3.035802045,-0.272191546,0.214522111,ST
2.233333333,-2.071369171,-2.783159256,10.07033539,-2.286599874,-2.179892063,-1.631107926,-1123.5,-5.700000286,-966.9000244,-3.021408744,-0.198677756,0.268720474,ST
2.266666667,-1.721455455,-2.955424309,9.695897102,-1.478667974,-3.048799992,-1.783547997,-1121.100098,0.300000012,-976.500061,-3.014469771,-0.165540742,0.296000683,ST
2.3,-1.79562521,-3.12529707,9.150989532,0.221037999,-1.539644003,-0.594515979,-1116.300049,0.300000012,-981.3000488,-3.00892087,-0.17935738,0.325769967,ST
2.333333333,-2.001386404,-2.953031778,8.556435585,1.143299937,0.015244,0.861285985,-1133.100098,-2.100000143,-993.3000488,-3.010124334,-0.214609508,0.329643924,ST
2.366666667,-2.883049011,-2.499041319,8.251980782,1.23476398,0.853663981,2.545747995,-1116.300049,-5.100000381,-990.9000244,-3.02598947,-0.317078203,0.293788547,ST
2.4,-3.286197424,-2.046845198,8.786720276,1.181409955,0.891773999,3.925329924,-1130.700073,-2.700000048,-964.500061,-3.056865662,-0.349332046,0.230886284,ST
2.433333333,-3.192289114,-1.702314854,9.167737007,0.815553963,-0.228659987,4.108257771,-1118.700073,-1.5,-969.3000488,-3.085760421,-0.332248808,0.183528095,ST
2.466666667,-2.670708418,-1.553377271,10.14809322,0.922261953,-1.486289978,3.376545906,-1116.300049,-1.5,-957.3000488,-3.106395568,-0.259440304,0.151384951,ST
2.5,-2.624651432,-0.9719823,9.333422661,1.318606019,-1.562510014,2.530503988,-1133.100098,0.900000036,-971.7000122,-3.126388325,-0.269546819,0.104828104,ST
2.533333333,-2.72753191,-1.049740911,10.05478382,1.387203932,-0.289635986,2.332331896,-1116.300049,5.100000381,-976.500061,-3.134000349,-0.263989781,0.100883403,ST
2.566666667,-2.202362537,-0.225499898,9.953099251,1.547266006,-0.320124,1.34147191,-1116.300049,-2.700000048,-971.7000122,3.128055502,-0.22154595,0.026703758,ST
2.6,-2.228082657,-1.312325716,8.852516174,1.265251994,1.76830399,1.166165948,-1123.5,-3.900000095,-969.3000488,-3.132672211,-0.245142569,0.133823309,ST
2.633333333,-2.253802776,-0.773997009,9.12168026,-0.015244,2.17227006,-0.251525998,-1118.700073,-3.300000191,-976.500061,3.141223108,-0.245153288,0.08855964,ST
2.666666667,-2.924320936,-0.541917503,8.793299675,0.510674,2.545747995,-0.121951997,-1109.100098,-3.300000191,-978.9000244,3.135746457,-0.317697622,0.063384459,ST
2.7,-2.711980343,-1.246529937,9.153980255,-0.137196004,3.102154016,0.503051996,-1099.5,-7.500000477,-986.1000366,-3.128416347,-0.293502488,0.129059268,ST
2.733333333,-2.589360952,-1.673604012,9.228149414,-1.067080021,2.804895878,-0.282013983,-1099.5,-8.700000763,-962.1000366,-3.113613065,-0.275910349,0.176924923,ST
2.766666667,-2.764018774,-2.137763023,9.117493629,-1.150921941,2.682943821,-0.396344006,-1094.700073,-8.100000381,-971.7000122,-3.097411624,-0.290054403,0.227752404,ST
2.8,-2.897404671,-2.36505723,8.504396439,-0.91463995,2.789651871,-0.060975999,-1092.300049,-7.500000477,-988.500061,-3.083463711,-0.318980438,0.269140492,ST
2.833333333,-3.834096432,-2.32737422,8.537892342,-0.442075998,3.269837856,0.716467977,-1097.100098,0.900000036,-978.9000244,-3.084145648,-0.406014643,0.267254793,ST
2.866666667,-4.471118927,-2.022919416,8.478078842,0.685979962,3.643316031,1.85214591,-1087.5,0.300000012,-983.7000122,-3.099486641,-0.474164674,0.235489166,ST
2.9,-4.08053112,-2.011554718,8.786720276,1.196653962,2.515259981,2.76678586,-1075.5,0.300000012,-981.3000488,-3.110010182,-0.434400046,0.22248727,ST
2.933333333,-4.086512566,-1.638313651,9.164746284,1.951231956,0.967993975,2.431417942,-1087.5,-4.5,-986.1000366,-3.133231754,-0.417746701,0.176313197,ST
2.966666667,-2.983537197,-1.574312329,9.078614235,1.95885396,-1.394825935,1.859767914,-1077.900024,-4.5,-983.7000122,-3.141236097,-0.317961827,0.167632651,ST
3.0,-2.368047953,-1.086227655,9.520043373,1.928365946,-2.050318003,0.960371971,-1087.5,-5.100000381,-983.7000122,3.124624342,-0.244929893,0.113995094,ST
3.033333333,-1.663435578,-1.046152115,8.670680046,2.278977871,-2.942091942,0.42683199,-1085.100098,-6.900000095,-976.500061,3.124064679,-0.188784291,0.115675306,ST
3.066666667,-1.777680874,-1.164584398,8.46491909,2.210379839,-1.63872993,0.350611985,-1092.300049,-3.900000095,-983.7000122,3.126674304,-0.201140301,0.131117476,ST
3.1,-2.431451082,-1.492366672,9.365124702,2.538125992,0.594515979,0.129574001,-1089.900024,-3.300000191,-981.3000488,3.133259629,-0.248216336,0.151853982,ST
3.133333333,-2.849553108,-1.392476797,9.907640457,3.178373814,0.175305992,-0.243903995,-1085.100098,-10.5,-971.7000122,3.132944648,-0.275273215,0.135672493,ST
3.166666667,-3.429153681,-0.782969177,8.678456306,3.018311977,-0.076219998,-0.655492008,-1085.100098,-7.500000477,-978.9000244,3.124067532,-0.367855457,0.088698908,ST
3.2,-4.18939352,-0.013159146,9.332226753,2.690565825,0.815553963,0.099086002,-1073.100098,-3.300000191,-981.3000488,3.095409769,-0.41846896,0.005148354,ST
3.233333333,-4.323377609,0.662144244,8.551650047,3.178373814,1.059458017,1.722571969,-1085.100098,-11.70000076,-971.7000122,3.058659852,-0.465475143,-0.078659607,ST
3.266666667,-4.088905334,0.668125689,8.186184883,2.477149963,2.705809832,3.216483831,-1087.5,-14.70000076,-981.3000488,3.047778007,-0.4660803,-0.087852257,ST
3.3,-4.207337856,0.721958578,8.196352959,1.737815976,3.132642031,2.865871906,-1092.300049,-11.10000038,-986.1000366,3.037974564,-0.476790926,-0.093260954,ST
3.333333333,-4.288086891,0.684275568,7.869168758,0.846041977,2.591480017,1.966475964,-1070.700073,-14.10000038,-976.500061,3.033924501,-0.499311592,-0.09055656,ST
3.366666667,-4.312610626,0.477916241,8.356655121,0.358233988,0.983237982,0.213415995,-1070.700073,-15.90000057,-986.1000366,3.047777617,-0.479113505,-0.060424467,ST
3.4,-4.532129288,0.075366013,8.198147774,0.342989981,-0.221037999,-0.655492008,-1058.700073,-18.30000114,-981.3000488,3.073084717,-0.502919807,-0.012742103,ST
3.433333333,-4.832396984,-0.257799625,8.591725349,0.190549999,-0.907018006,-1.280496001,-1058.700073,-15.90000057,-976.500061,3.097323797,-0.510035111,0.027872239,ST
3.466666667,-5.363547802,-0.261388481,9.245495796,0.495429993,-1.333850026,-1.417691946,-1075.5,-13.50000095,-983.7000122,3.103030112,-0.522120478,0.028709446,ST
3.5,-4.767199516,-0.650779545,8.631202698,0.647870004,-1.661595941,-1.067080021,-1068.300049,-11.70000076,-974.1000366,3.128312915,-0.502091377,0.071583814,ST
3.533333333,-4.534522057,-0.82842803,8.180203438,0.480185986,-1.23476398,-1.036592007,-1056.300049,-16.5,-974.1000366,-3.138416723,-0.501741711,0.098301741,ST
3.566666667,-5.029784203,-0.992917359,8.608473778,0.564027965,-0.312501997,-0.685979962,-1075.5,-15.30000019,-988.500061,-3.128292274,-0.523116078,0.113007685,ST
3.6,-5.386875629,-0.768613696,9.137231827,1.120433927,-0.190549999,0.312501997,-1085.100098,-15.90000057,-974.1000366,3.141517873,-0.530191187,0.084480649,ST
3.633333333,-5.136851788,-0.320604622,8.052799225,1.600619912,-0.373477995,1.478667974,-1087.5,-12.90000057,-974.1000366,3.116793256,-0.563645686,0.039897386,ST
3.666666667,-5.320481777,-0.246434897,8.461330414,1.859767914,0.586893976,3.041177988,-1077.900024,-15.30000019,-974.1000366,3.102052089,-0.562387435,0.023628901,ST
3.7,-4.788134575,0.409727931,8.015115738,1.265251994,0.411587983,3.765267849,-1073.100098,-8.700000763,-983.7000122,3.054607228,-0.540677951,-0.050052483,ST
3.733333333,-5.097972393,0.664536834,8.401515961,1.059458017,0.434453994,4.336917877,-1070.700073,-14.70000076,-988.500061,3.027021064,-0.543893193,-0.08217625,ST
3.766666667,-4.077540398,0.506627083,8.048611641,-0.243903995,0.342989981,4.070147991,-1070.700073,-15.30000019,-981.3000488,3.021379967,-0.475084088,-0.067595514,ST
3.8,-3.904079199,0.591563404,8.247793198,-0.80793196,0.0,3.246971846,-1063.5,-17.10000038,-986.1000366,3.007957618,-0.443813195,-0.072447657,ST
3.833333333,-3.651064634,0.381017059,8.736475945,-0.609759986,0.022865999,2.591480017,-1075.5,-17.10000038,-981.3000488,3.009367922,-0.399718982,-0.046955952,ST
3.866666667,-3.159391165,0.577806115,9.579259872,0.129574001,-0.685979962,1.493911982,-1087.5,-20.10000038,-974.1000366,2.999991393,-0.323567394,-0.060207613,ST
3.9,-2.602519989,0.738706589,8.749635696,-0.015244,-0.564027965,1.227141976,-1082.700073,-12.90000057,-966.9000244,2.989304579,-0.290309899,-0.082627749,ST
3.933333333,-3.110343456,1.575508595,9.46381855,-0.274392009,-0.144817993,0.884151995,-1070.700073,-10.5,-974.1000366,2.964005728,-0.311074461,-0.157448253,ST
3.966666667,-2.535527945,1.464254022,9.091773033,-0.525918007,0.121951997,1.478667974,-1085.100098,-7.500000477,-988.500061,2.958050757,-0.27233169,-0.159328341,ST
4.0,-2.42188096,1.709492564,9.190466881,-1.006103992,1.219519973,0.960371971,-1075.5,-9.300000191,-986.1000366,2.947731368,-0.256855393,-0.180590207,ST
4.033333333,-2.960209608,1.748371959,9.204223633,-1.067080021,2.843005896,0.876529992,-1082.700073,-15.30000019,-976.500061,2.940597651,-0.305768581,-0.186041717,ST
4.066666667,-2.653960466,1.273446441,9.412976265,-1.882633924,3.201239824,1.135677934,-1063.5,-11.10000038,-974.1000366,2.94758011,-0.280257899,-0.136840699,ST
4.1,-2.929704189,0.852353752,9.420153618,-2.743919849,1.432935953,0.205793992,-1068.300049,-12.90000057,-983.7000122,2.956991278,-0.300800921,-0.090283995,ST
4.133333333,-3.02421093,0.190209463,8.790308952,-3.78813386,-0.350611985,-2.286599874,-1058.700073,-10.5,-976.500061,2.983106682,-0.328955448,-0.018508034,ST
4.166666667,-3.835292816,-0.104076877,8.963171959,-3.010689974,0.251525998,-3.170752048,-1063.5,-11.10000038,-978.9000244,3.002328423,-0.398972258,0.016234549,ST
4.2,-4.347901344,-1.399654508,8.05100441,-2.728675842,1.272873998,-2.926847935,-1058.700073,-8.700000763,-974.1000366,3.072581111,-0.483893471,0.166758737,ST
4.233333333,-5.339622498,-1.68975389,8.158670425,-2.637212038,1.85214591,-3.048799992,-1056.300049,-7.500000477,-986.1000366,3.098683662,-0.564074028,0.208172227,ST
4.266666667,-5.414390087,-2.566631556,8.205325127,-1.951231956,3.353679895,-1.539644003,-1041.900024,-6.900000095,-986.1000366,-3.129958967,-0.566820231,0.30296874,ST
4.3,-5.091392994,-2.822038651,7.831485748,-1.250007987,3.544229984,-2.012207985,-1039.5,-8.100000381,-976.500061,-3.099866134,-0.55481862,0.347051119,ST
4.333333333,-5.407810688,-2.559453726,7.553349495,-0.335367978,3.948195934,-2.08842802,-1041.900024,-4.5,-971.7000122,-3.09889196,-0.59699294,0.33260146,ST
4.366666667,-5.55614996,-2.615679264,7.448674202,-0.160062,3.597584009,-1.227141976,-1051.5,-2.700000048,-964.500061,-3.08826039,-0.61653418,0.340122949,ST
4.4,-5.969466686,-2.15331459,7.558134556,0.243903995,3.429899931,-0.304879993,-1034.700073,-3.900000095,-988.500061,-3.117065069,-0.651782828,0.284466579,ST
4.433333333,-6.311006546,-1.735212803,7.77346611,1.250007987,3.323191881,0.61738199,-1025.100098,-2.100000143,-981.3000488,3.132016678,-0.673865175,0.22376281,ST
4.466666667,-6.319978714,-0.932504892,7.431328297,2.324709892,1.814036012,2.050318003,-1015.500061,-3.900000095,-978.9000244,3.071105945,-0.702199537,0.127047615,ST
4.5,-6.717145443,-0.281127185,7.370317459,2.721053839,1.189031959,3.338435888,-1008.300049,-5.100000381,-993.3000488,3.008594654,-0.738269704,0.035856336,ST
4.533333333,-6.556843281,-0.059216153,8.200540543,2.49239397,0.160062,4.878079891,-1017.900024,-5.100000381,-976.500061,2.977595557,-0.680552317,-0.000610036,ST
4.566666667,-6.036458969,0.32957679,8.56241703,1.85214591,-2.050318003,3.887219906,-1020.300049,-8.100000381,-976.500061,2.94554601,-0.616326216,-0.042505022,ST
4.6,-5.531028271,0.716575265,7.866776466,1.95885396,-3.742401838,2.545747995,-1013.100037,-2.700000048,-964.500061,2.914588541,-0.605133875,-0.092029609,ST
4.633333333,-4.580578804,0.786558032,7.31469059,1.432935953,-3.910085917,2.103672028,-1022.700012,-9.300000191,-971.7000122,2.902680783,-0.554733344,-0.109744173,ST
4.666666667,-4.122401237,0.820053995,7.498918533,0.556405962,-3.117398024,1.85214591,-1032.300049,-8.100000381,-981.3000488,2.898429608,-0.499829687,-0.111210812,ST
4.7,-4.287488937,0.478514373,7.974442005,-0.152439997,-2.080806017,1.76830399,-1041.900024,-11.10000038,-978.9000244,2.914961881,-0.489775772,-0.065699144,ST
4.733333333,-3.997389555,-0.053234726,8.64436245,-0.685979962,-2.225623846,1.295740008,-1037.100098,-8.700000763,-983.7000122,2.939357992,-0.434798683,-6.79e-05,ST
4.766666667,-3.72284174,-0.230883181,8.6114645,-0.640248001,-3.376545906,-0.221037999,-1034.700073,-9.300000191,-986.1000366,2.949424233,-0.404994774,0.025512272,ST
4.8,-4.128981113,-0.339745194,8.895582199,-0.121951997,-3.536607981,-0.746955991,-1046.700073,-8.700000763,-981.3000488,2.956146388,-0.425988862,0.037646038,ST
4.833333333,-4.518372059,-0.049047723,9.10313797,1.12805593,-2.751541853,-0.777444005,-1053.900024,-2.700000048,-981.3000488,2.947130237,-0.453858826,0.006398853,ST
4.866666667,-4.644580364,0.173461467,9.180896759,1.85214591,-1.166165948,0.144817993,-1051.5,-9.900000572,-986.1000366,2.937959294,-0.465397804,-0.020255688,ST
4.9,-3.305338144,-0.099889874,8.431423187,1.242385983,-2.294221878,-0.586893976,-1063.5,-7.500000477,-983.7000122,2.953461435,-0.376194359,0.008097092,ST
4.933333333,-2.714971066,-0.450401664,8.586342812,0.030487999,-3.818621874,-2.652456045,-1065.900024,-7.500000477,-983.7000122,2.976688849,-0.304330885,0.050699525,ST
4.966666667,-3.086417675,-0.241649762,8.773561478,0.510674,-4.557955742,-3.910085917,-1080.300049,-11.70000076,-986.1000366,2.983315994,-0.327645347,0.030849104,ST
5.0,-3.646279573,-0.033496007,8.437404633,1.196653962,-2.835383892,-3.346057892,-1073.100098,-12.30000019,-988.500061,2.987780578,-0.397731313,0.006126364,ST
5.033333333,-4.45975399,0.458775669,9.365722656,1.943609953,-0.762199998,-1.890255928,-1075.5,-16.5,-962.1000366,2.975550269,-0.438704083,-0.04554932,ST
5.066666667,-4.739685059,0.446812809,9.17431736,2.621968031,-0.137196004,0.129574001,-1080.300049,-11.10000038,-974.1000366,2.976414185,-0.473786618,-0.052871447,ST
5.1,-4.396948814,0.068188302,8.781336784,1.737815976,-0.495429993,0.198172003,-1077.900024,-12.90000057,-974.1000366,2.996006661,-0.46424743,-0.014410699,ST
5.133333333,-4.241431713,0.116039738,9.04631424,0.762199998,-1.181409955,-0.838419974,-1089.900024,-14.10000038,-976.500061,3.000193327,-0.438875157,-0.013531589,ST
5.166666667,-3.919032812,-0.016748004,8.857300758,0.503051996,-1.722571969,-0.876529992,-1075.5,-9.900000572,-978.9000244,3.009442774,-0.41586023,0.000333885,ST
5.2,-4.205543041,0.580796838,9.077417374,-0.152439997,-1.875011921,-0.922261953,-1082.700073,-17.10000038,-983.7000122,2.988799079,-0.428693676,-0.0570534,ST
5.233333333,-4.280909061,1.357186437,9.030164719,-0.716467977,-1.356715918,0.365855992,-1082.700073,-14.70000076,-976.500061,2.952390949,-0.435462939,-0.13979165,ST
5.266666667,-3.437527657,1.301559091,9.079810143,-2.36281991,-0.190549999,2.881115913,-1080.300049,-17.10000038,-981.3000488,2.940094736,-0.364580803,-0.140213707,ST
5.3,-3.249710798,1.306942344,9.859190941,-3.528985977,0.442075998,3.056421995,-1092.300049,-14.70000076,-981.3000488,2.929094264,-0.319557297,-0.128435492,ST
5.333333333,-2.04983592,1.010861635,9.481163979,-4.672286034,0.815553963,2.439039946,-1073.100098,-11.10000038,-971.7000122,2.923040712,-0.220788363,-0.101347138,ST
5.366666667,-2.089313507,0.580198705,10.32454586,-4.458869934,0.792688012,1.394825935,-1080.300049,-3.300000191,-971.7000122,2.924960437,-0.202424742,-0.053615273,ST
5.4,-1.823737979,-0.019140575,8.800477982,-3.849109888,0.701223969,-0.746955991,-1085.100098,-0.300000012,-993.3000488,2.936567463,-0.205370875,0.004845865,ST
5.433333333,-2.744279861,0.05443101,8.759803772,-3.422277927,0.823175967,-1.196653962,-1077.900024,-9.900000572,-990.9000244,2.936541122,-0.296003176,0.000815112,ST
5.466666667,-2.985331535,-0.349913627,8.228055,-2.25611186,1.23476398,-0.121951997,-1080.300049,-3.900000095,-986.1000366,2.947647759,-0.345050181,0.042347604,ST
5.5,-3.52066946,-1.096396089,8.141921997,-1.730193973,1.875011921,0.007622,-1068.300049,-0.300000012,-978.9000244,2.977392048,-0.402537049,0.128270335,ST
5.533333333,-4.060194492,-1.568330884,7.699894428,-2.263733864,3.673803806,0.076219998,-1077.900024,-2.100000143,-981.3000488,3.006171414,-0.477746587,0.199976646,ST
5.566666667,-4.329359055,-1.926020384,8.841749191,-4.207344055,7.256144047,0.40396598,-1051.5,1.5,-983.7000122,3.01251572,-0.460486034,0.22076218,ST
5.6,-5.551962852,-2.032489777,10.16304684,-2.827761889,6.471077919,0.602137983,-1034.700073,10.5,-974.1000366,3.002868852,-0.499225829,0.204636753,ST
5.633333333,-5.336631775,-2.161090612,8.763990402,-0.40396598,3.689047813,0.876529992,-1029.900024,-2.100000143,-971.7000122,3.019577845,-0.537988178,0.240080844,ST
5.666666667,-4.3915658,-2.216717958,6.569404125,0.701223969,2.019829988,0.282013983,-1025.100098,2.700000048,-976.500061,3.062006853,-0.565564563,0.316822751,ST
5.7,-5.246910095,-2.253204584,7.410991192,1.730193973,1.371959925,-0.205793992,-1027.5,3.900000095,-981.3000488,3.055264979,-0.595370289,0.29450815,ST
5.733333333,-5.470615387,-2.138959169,7.443889141,2.355197906,0.579271972,-0.548784018,-1037.100098,-0.300000012,-986.1000366,3.052949343,-0.614276265,0.277778974,ST
5.766666667,-5.563327789,-2.387188673,8.055789948,1.814036012,-0.022865999,-0.72408998,-1017.900024,3.300000191,-966.9000244,3.0625447,-0.587171928,0.285040763,ST
5.8,-6.027486801,-2.052826643,8.975733757,1.844523907,-0.678357959,-0.998481989,-1032.300049,-8.100000381,-981.3000488,3.037054477,-0.578953677,0.228185971,ST
5.833333333,-5.63211441,-2.025910139,8.810048103,2.355197906,-1.219519973,-0.739333987,-1046.700073,-3.900000095,-978.9000244,3.039898993,-0.55699864,0.222936378,ST
5.866666667,-4.667907715,-2.071369171,8.425441742,2.667700052,-2.385685921,-0.503051996,-1037.100098,-4.5,-976.500061,3.050471661,-0.495475303,0.23522143,ST
5.9,-4.937072277,-1.711287022,8.339907646,3.460387945,-2.896359921,-0.998481989,-1037.100098,-2.700000048,-986.1000366,3.040544174,-0.518350475,0.199661236,ST
5.933333333,-4.274927616,-1.427767277,7.830887794,3.955817938,-2.522881985,-1.089946032,-1046.700073,-7.500000477,-983.7000122,3.037674922,-0.49090636,0.176336009,ST
5.966666667,-3.801796675,-1.47801125,8.034255981,3.955817938,-2.545747995,-1.257629991,-1051.5,-2.700000048,-976.500061,3.045920619,-0.436262831,0.175787925,ST
6.0,-3.801796675,-1.355990171,7.864383698,3.338435888,-2.073184013,-1.806414008,-1061.100098,-5.100000381,-986.1000366,3.052568726,-0.440223035,0.166693478,ST
6.033333333,-3.812563181,-0.86132586,8.657521248,3.323191881,-2.027451992,-2.019829988,-1041.900024,-11.70000076,-995.7000122,3.035713304,-0.41197216,0.101201088,ST
6.066666667,-4.065577984,-0.598142982,8.198147774,3.498497963,-2.225623846,-1.516777992,-1051.5,-4.5,-986.1000366,3.032286927,-0.451333133,0.070898603,ST
6.1,-4.105055332,-0.568235815,7.923001766,2.903981924,-0.282013983,-0.464941978,-1051.5,-6.900000095,-966.9000244,3.036540926,-0.474174226,0.067270058,ST
6.133333333,-3.920228958,-0.589768946,8.387160301,2.118916035,0.312501997,-0.396344006,-1053.900024,-11.70000076,-988.500061,3.040881854,-0.440173133,0.066907388,ST
6.166666667,-4.119410515,-0.330174923,7.268633366,1.013725996,0.312501997,-0.457319975,-1053.900024,-11.10000038,-974.1000366,3.034483622,-0.508838628,0.046206335,ST
6.2,-4.813256264,0.255407035,8.442788124,-0.853663981,2.23324585,0.647870004,-1051.5,-9.300000191,-971.7000122,2.996449274,-0.520967064,-0.02371218,ST
6.233333333,-4.047035217,0.202172324,9.053491592,-1.844523907,1.150921941,2.25611186,-1058.700073,-8.700000763,-974.1000366,2.987668737,-0.431143531,-0.021288504,ST
6.266666667,-3.9537251,0.01614986,8.64854908,-2.568614006,0.80793196,1.996963978,-1049.100098,-15.30000019,-981.3000488,2.985189079,-0.430245198,-0.000379494,ST
6.3,-3.235953569,-0.641209245,9.763487816,-2.644834042,0.152439997,0.952749968,-1041.900024,-11.10000038,-986.1000366,3.002463023,-0.327412359,0.064953349,ST
6.333333333,-2.844768047,-0.668723822,9.585839272,-1.791170001,-1.196653962,-0.853663981,-1046.700073,-5.100000381,-971.7000122,3.005410396,-0.28941901,0.07244036,ST
6.366666667,-3.444107294,-0.47313109,9.638475418,-1.074702024,-0.907018006,-1.143299937,-1034.700073,-4.5,-981.3000488,3.002020841,-0.337223579,0.05319009,ST
6.4,-3.37711525,-0.299071491,9.307703018,-0.510674,-0.701223969,0.198172003,-1039.5,-2.700000048,-976.500061,2.994229431,-0.34603993,0.034275486,ST
6.433333333,-3.996791363,-0.28950119,9.62950325,-0.106707998,-0.221037999,1.432935953,-1046.700073,-3.300000191,-978.9000244,2.98781316,-0.388705559,0.029700436,ST
6.466666667,-4.352686405,-0.651975811,10.05478382,0.381099999,-0.045731999,2.446661949,-1051.5,-9.900000572,-986.1000366,2.991992365,-0.406210699,0.059294275,ST
6.5,-4.746264458,-0.520982504,9.119885445,0.861285985,-1.379581928,2.271355867,-1049.100098,-4.5,-978.9000244,2.983317734,-0.471662485,0.053960221,ST
6.533333333,-4.440015316,-0.164489314,8.022293091,0.29725799,-0.823175967,2.865871906,-1039.5,-5.700000286,-971.7000122,2.959381898,-0.50119159,0.020630779,ST
6.566666667,-4.140345573,-0.275743902,7.820121288,-0.358233988,0.259148002,3.666181803,-1056.300049,-7.500000477,-986.1000366,2.952468942,-0.488463176,0.031494807,ST
6.6,-3.647475958,-0.943271458,7.070049763,-1.806414008,1.707327962,3.544229984,-1053.900024,-5.700000286,-986.1000366,2.982055277,-0.47761828,0.123681423,ST
6.633333333,-4.258778095,-1.0730685,8.656923294,-2.660078049,1.692083955,2.614346027,-1044.300049,-9.900000572,-978.9000244,2.970791413,-0.459178406,0.125719378,ST
6.666666667,-4.296461105,-1.150228977,8.101846695,-2.25611186,-0.457319975,2.690565825,-1034.700073,-0.300000012,-983.7000122,2.965758195,-0.481150397,0.140977268,ST
6.7,-4.492053509,-1.745381236,8.140726089,-2.49239397,-1.089946032,2.804895878,-1039.5,-3.300000191,-981.3000488,2.983254666,-0.492787489,0.206244902,ST
6.733333333,-4.904174328,-1.739399791,8.542677879,-1.753059983,-0.846041977,2.995445967,-1046.700073,-3.900000095,-986.1000366,2.968602122,-0.510282144,0.201408436,ST
6.766666667,-4.466333389,-2.04744339,8.000760078,-0.998481989,-0.434453994,3.292703867,-1056.300049,-7.500000477,-976.500061,2.977906763,-0.497679519,0.244842919,ST
6.8,-4.368836403,-2.221503019,8.033060074,-0.762199998,0.0,2.87349391,-1049.100098,-8.100000381,-983.7000122,2.977966123,-0.485143738,0.266794828,ST
6.833333333,-4.998082638,-1.912861228,9.248486519,0.472563982,0.289635986,2.949713945,-1044.300049,2.100000143,-981.3000488,2.941972104,-0.488141859,0.206511868,ST
6.866666667,-4.366443634,-2.821440458,9.085791588,2.919225931,-0.495429993,3.353679895,-1053.900024,-6.300000191,-990.9000244,2.971277384,-0.436416224,0.285612952,ST
6.9,-4.139149189,-2.600127459,8.036050797,3.353679895,-1.440557957,1.783547997,-1041.900024,-0.900000036,-981.3000488,2.977359448,-0.45287213,0.303759618,ST
6.933333333,-4.844958305,-1.314718246,8.810048103,4.603687763,-0.647870004,1.173787951,-1053.900024,-5.100000381,-990.9000244,2.912429771,-0.493818706,0.154172095,ST
6.966666667,-4.385584354,-0.855344474,8.061172485,5.93753767,-0.114329994,1.471045971,-1053.900024,-10.5,-978.9000244,2.891687094,-0.495822757,0.099406635,ST
7.0,-3.807179928,-0.471934795,7.507890701,5.365887642,0.167683989,1.280496001,-1061.100098,-6.900000095,-993.3000488,2.876454254,-0.471392033,0.056510964,ST
7.033333333,-4.623645306,0.453392386,8.715540886,4.908567905,0.381099999,0.922261953,-1049.100098,-10.5,-990.9000244,2.832022794,-0.48651006,-0.050662391,ST
7.066666667,-4.852135658,0.333165646,8.747242928,5.518327713,0.42683199,1.394825935,-1053.900024,-11.70000076,-981.3000488,2.837978866,-0.505397194,-0.049191829,ST
7.1,-4.618261814,0.385204077,8.810048103,4.016793728,1.471045971,0.556405962,-1046.700073,-11.70000076,-971.7000122,2.841882207,-0.486645206,-0.051092957,ST
7.133333333,-4.642785549,1.230978251,9.063062668,4.115880013,1.760681987,-0.40396598,-1041.900024,-12.30000019,-986.1000366,2.810866563,-0.474212327,-0.133851126,ST
7.166666667,-3.736001015,1.488777876,7.745353222,3.330813885,0.472563982,-0.525918007,-1044.300049,-14.10000038,-974.1000366,2.792438276,-0.446187756,-0.189851158,ST
7.2,-4.004567146,1.795027018,8.275307655,1.783547997,-1.326228023,-1.196653962,-1032.300049,-12.30000019,-978.9000244,2.789828152,-0.440398215,-0.213588864,ST
7.233333333,-4.282703876,2.139557362,8.409292221,1.402447939,-1.387203932,-1.013725996,-1056.300049,-21.30000114,-990.9000244,2.781488904,-0.455107307,-0.247107697,ST
7.266666667,-4.061988831,2.005573273,8.381178856,1.257629991,-0.838419974,-0.243903995,-1037.100098,-18.90000153,-986.1000366,2.788825655,-0.440592797,-0.237644692,ST
7.3,-3.616970539,1.525264621,7.66041708,0.708845973,-0.030487999,-1.120433927,-1044.300049,-21.90000153,-978.9000244,2.80902267,-0.434651874,-0.200556174,ST
7.333333333,-4.207337856,1.65207088,8.689821243,1.120433927,0.731711984,-1.684461951,-1044.300049,-15.90000057,-971.7000122,2.820501761,-0.444954123,-0.18948218,ST
7.366666667,-4.199561596,1.426571012,9.442883492,0.83079797,0.007622,-2.179892063,-1039.5,-17.10000038,-981.3000488,2.843951626,-0.417421117,-0.152943938,ST
7.4,-4.286890507,1.742988586,9.424939156,0.510674,-0.785066009,-2.408551931,-1027.5,-19.5,-981.3000488,2.841912753,-0.419739162,-0.179190746,ST
7.433333333,-3.936378956,1.545003295,9.475182533,-0.228659987,-1.387203932,-2.568614006,-1049.100098,-23.10000038,-981.3000488,2.857554204,-0.390389478,-0.161012005,ST
7.466666667,-3.289188147,1.192697048,9.140820503,-0.853663981,-0.815553963,-2.881115913,-1039.5,-17.10000038,-981.3000488,2.877451883,-0.346390272,-0.129436159,ST
7.5,-3.381900311,0.951047301,8.838160515,-0.967993975,0.060975999,-3.071666002,-1051.5,-10.5,-983.7000122,2.894329275,-0.362630651,-0.105864468,ST
7.533333333,-3.768300772,0.749473155,8.48346138,-1.181409955,0.945127964,-2.621968031,-1039.5,-15.30000019,-978.9000244,2.908283626,-0.413565651,-0.086165974,ST
7.566666667,-4.450183868,0.507225215,8.983509064,-1.280496001,1.143299937,-1.34147191,-1032.300049,-12.30000019,-976.500061,2.92336298,-0.457840528,-0.055633923,ST
7.6,-4.370630741,0.385802209,8.748438835,-1.074702024,0.754577994,-0.487807989,-1041.900024,-21.30000114,-971.7000122,2.928699037,-0.463704172,-0.043053861,ST
7.633333333,-3.938173294,0.008972145,7.945731163,-1.455801964,1.410069942,-0.40396598,-1025.100098,-11.10000038,-983.7000122,2.946268685,-0.46270333,-0.001039689,ST
7.666666667,-4.386182308,-0.25899592,8.570790291,-1.676839948,2.027451992,-0.40396598,-1034.700073,-7.500000477,-988.500061,2.959376763,-0.475328618,0.030928467,ST
7.7,-5.027391911,-0.493467957,8.625221252,-1.547266006,2.454283953,0.015244,-1020.300049,-9.900000572,-978.9000244,2.969797707,-0.526679049,0.057517778,ST
7.733333333,-4.935277462,-0.184228033,8.065958023,-1.12805593,2.621968031,0.434453994,-1022.700012,-14.70000076,-990.9000244,2.951375765,-0.551178692,0.027458509,ST
7.766666667,-4.967577457,0.005383287,7.740568161,-0.716467977,2.149404049,1.166165948,-1017.900024,-7.500000477,-983.7000122,2.933072078,-0.572249944,0.001843449,ST
7.8,-4.609289646,-0.637022257,7.297942162,-1.547266006,1.303362012,0.945127964,-1020.300049,-12.30000019,-986.1000366,2.970269255,-0.564886498,0.081009916,ST
7.833333333,-5.054307938,-0.297277063,7.536003113,-2.19513607,1.181409955,0.335367978,-1017.900024,-10.5,-974.1000366,2.94584138,-0.590474365,0.04586571,ST
7.866666667,-5.84565115,-0.396568775,8.598304749,-1.943609953,0.907018006,1.242385983,-1017.900024,-14.70000076,-983.7000122,2.939347173,-0.597683749,0.047896904,ST
7.9,-5.494541168,-0.913364291,8.280691147,-2.073184013,0.259148002,1.089946032,-1017.900024,-14.70000076,-990.9000244,2.965067552,-0.584804623,0.107434162,ST
7.933333333,-5.477195263,-1.18611753,8.232241631,-2.012207985,-0.42683199,0.647870004,-1008.300049,-12.90000057,-1002.900024,2.978455861,-0.582062613,0.142335897,ST
7.966666667,-5.698508263,-1.478609443,8.837562561,-1.653973937,-0.365855992,0.525918007,-1010.700012,-12.90000057,-993.3000488,2.986251866,-0.567077257,0.166262487,ST
8.0,-5.429942131,-1.635322928,8.355459213,-1.028970003,-0.434453994,-0.144817993,-1008.300049,-8.100000381,-990.9000244,2.998704019,-0.566959375,0.192750238,ST
8.033333333,-5.25947094,-1.640107989,8.044425011,-0.480185986,-0.731711984,-0.373477995,-1017.900024,-6.300000191,-974.1000366,3.003084008,-0.568247916,0.201351586,ST
8.066666667,-4.968175411,-1.726838708,7.833878517,0.091463998,-1.501533985,-0.960371971,-1017.900024,-6.300000191,-983.7000122,3.012886871,-0.553103094,0.216026065,ST
8.1,-5.136851788,-1.43793571,8.156277657,1.028970003,-2.141782045,-1.227141976,-1013.100037,-5.700000286,-981.3000488,2.996845903,-0.551315434,0.177440526,ST
8.133333333,-4.677477837,-1.211837649,7.443291187,1.661595941,-2.050318003,-0.998481989,-1022.700012,-5.700000286,-976.500061,2.993385077,-0.551360543,0.160338101,ST
8.166666667,-4.602111816,-1.065292597,7.242913246,1.8292799,-1.539644003,-0.754577994,-1025.100098,-8.700000763,-983.7000122,2.990280891,-0.557829563,0.144688238,ST
8.2,-5.617160797,-0.787754297,8.743055344,1.783547997,-1.23476398,-0.129574001,-1015.500061,-16.5,-976.500061,2.965002667,-0.56652386,0.090405255,ST
8.233333333,-4.931090832,0.062206868,7.901468754,1.661595941,-1.615863919,0.800309956,-1025.100098,-7.500000477,-971.7000122,2.914674591,-0.555965494,-0.005293566,ST
8.266666667,-4.952623844,0.388194799,8.290860176,1.105189919,-1.623485923,2.080806017,-1029.900024,-8.700000763,-988.500061,2.889113974,-0.536946703,-0.046739752,ST
8.3,-4.828209877,0.220714763,8.788515091,0.114329994,-1.455801964,1.928365946,-1041.900024,-9.900000572,-976.500061,2.892552532,-0.502975106,-0.028881059,ST
8.333333333,-4.313807011,0.366063505,8.887805939,-0.381099999,-1.135677934,1.63872993,-1029.900024,-3.300000191,-981.3000488,2.88076745,-0.452793226,-0.041089315,ST
8.366666667,-3.937575102,0.568833947,8.489442825,-0.91463995,-1.516777992,1.013725996,-1029.900024,-8.100000381,-976.500061,2.866777631,-0.432700023,-0.063819694,ST
8.4,-4.070960999,0.54371196,8.914722443,-1.006103992,-1.356715918,0.762199998,-1034.700073,-14.70000076,-978.9000244,2.864764582,-0.425905305,-0.060070698,ST
8.433333333,-3.667214632,0.198583469,8.982313156,-1.12805593,-0.990859985,0.754577994,-1034.700073,-2.100000143,-976.500061,2.875185855,-0.389414209,-0.02418477,ST
8.466666667,-3.4052279,0.0765623,8.793897629,-0.846041977,-0.670735955,-0.076219998,-1053.900024,-8.100000381,-988.500061,2.880123143,-0.3701807,-0.00870288,ST
8.5,-3.549978495,-0.171068892,8.714344978,-0.579271972,-0.792688012,-0.609759986,-1041.900024,-5.700000286,-986.1000366,2.891285718,-0.384017842,0.018347499,ST
8.533333333,-3.761721134,-0.367259771,8.006741524,-0.952749968,-0.785066009,-0.746955991,-1041.900024,-9.900000572,-993.3000488,2.902960942,-0.432567745,0.045315317,ST
8.566666667,-4.751049519,-0.305052906,8.721522331,-1.257629991,-0.335367978,0.350611985,-1046.700073,-3.900000095,-971.7000122,2.896192197,-0.493052525,0.037505802,ST
8.6,-5.069859982,-0.474327385,8.816029549,-1.524399996,-0.579271972,1.95885396,-1039.5,-8.700000763,-974.1000366,2.895096086,-0.517952561,0.052905559,ST
8.633333333,-5.096178055,-0.714182734,8.531312943,-2.439039946,-1.265251994,4.237832069,-1041.900024,-6.300000191,-964.500061,2.890198341,-0.534223038,0.081412631,ST
8.666666667,-4.396948814,-0.979758203,7.936161041,-3.40703392,-1.371959925,5.243936062,-1034.700073,-0.900000036,-981.3000488,2.887328594,-0.504380435,0.1197819,ST
8.7,-4.276722431,-1.348214269,7.936758995,-3.856731892,-1.097568035,5.419241905,-1051.5,-7.500000477,-978.9000244,2.885400179,-0.489303965,0.165717507,ST
8.733333333,-4.149916172,-1.705903769,8.166445732,-3.330813885,-0.762199998,5.12960577,-1041.900024,-2.100000143,-981.3000488,2.880534185,-0.464112111,0.204079429,ST
8.766666667,-4.356873512,-1.95114243,8.465517044,-2.393307924,-1.074702024,3.894841909,-1058.700073,-0.900000036,-971.7000122,2.873356155,-0.46448937,0.225263992,ST
8.8,-4.547082901,-1.700520515,8.25078392,-1.509155989,-0.716467977,3.224105835,-1041.900024,-3.900000095,-971.7000122,2.850514424,-0.492608765,0.204556752,ST
8.833333333,-4.11342907,-1.949946046,8.316579819,-0.876529992,0.129574001,2.721053839,-1049.100098,4.5,-971.7000122,2.85143252,-0.453911584,0.227348989,ST
8.866666667,-3.783254385,-1.952338696,8.470302582,-0.365855992,0.083841994,2.06556201,-1041.900024,9.300000191,-983.7000122,2.843978523,-0.415300914,0.225766732,ST
8.9,-3.996193171,-2.240643501,8.857300758,0.342989981,0.739333987,1.714949965,-1037.100098,-3.900000095,-981.3000488,2.847163338,-0.414392072,0.244204118,ST
8.933333333,-4.280311108,-2.01215291,8.231045723,0.891773999,2.096050024,0.525918007,-1032.300049,-3.900000095,-978.9000244,2.846161575,-0.467217898,0.238650909,ST
8.966666667,-4.414295197,-1.44511342,7.858402252,1.371959925,2.461905956,0.480185986,-1037.100098,-0.900000036,-986.1000366,2.822933283,-0.506282207,0.18359634,ST
9.0,-5.409605026,-0.799118996,8.980518341,2.271355867,1.371959925,1.219519973,-1029.900024,5.700000286,-983.7000122,2.778424177,-0.53988041,0.092867094,ST
9.033333333,-5.336631775,-0.6848737,8.433218002,2.59910202,0.800309956,1.875011921,-1037.100098,-2.100000143,-993.3000488,2.769109601,-0.562152974,0.076192217,ST
9.066666667,-5.094383717,-0.570030272,8.077920914,1.844523907,0.373477995,1.646351933,-1046.700073,2.700000048,-981.3000488,2.762408809,-0.562366265,0.0662627,ST
9.1,-4.763012409,-0.388194799,8.040836334,0.647870004,-0.579271972,0.548784018,-1027.5,-2.100000143,-978.9000244,2.75220402,-0.535307605,0.047845573,ST
9.133333333,-4.273731709,-0.192003891,7.769279003,0.40396598,-1.55488801,-0.144817993,-1025.100098,-0.900000036,-978.9000244,2.742375252,-0.502979759,0.026031391,ST
9.166666667,-4.438818932,-0.268566191,8.140726089,0.099086002,-1.707327962,0.022865999,-1029.900024,-6.900000095,-983.7000122,2.745237328,-0.496624903,0.03212695,ST
9.2,-4.862902164,-0.183629885,9.359143257,0.182927996,-1.272873998,-0.060975999,-1032.300049,-3.300000191,-983.7000122,2.740072786,-0.478251412,0.02020153,ST
9.233333333,-4.642187595,0.092712164,8.725709915,0.746955991,-1.074702024,0.015244,-1049.100098,-1.5,-976.500061,2.727508693,-0.486381628,-0.009498795,ST
9.266666667,-4.302442551,0.052038439,8.53609848,0.975615978,-1.006103992,-0.106707998,-1046.700073,-5.100000381,-988.500061,2.730158187,-0.467029613,-0.007855646,ST
9.3,-3.874171972,-0.226696193,9.135437965,0.800309956,-1.387203932,-1.097568035,-1046.700073,-3.300000191,-974.1000366,2.747074795,-0.404754308,0.021422567,ST
9.333333333,-4.079335213,-0.233873904,9.720421791,1.028970003,-1.730193973,-1.63872993,-1039.5,-2.100000143,-983.7000122,2.754661398,-0.394956148,0.023277673,ST
9.366666667,-3.158792973,0.005383287,9.277197838,1.219519973,-2.416173935,-1.966475964,-1056.300049,-4.5,-976.500061,2.754765473,-0.32931162,0.000337036,ST
9.4,-2.640202999,0.080151156,8.787916183,1.349093914,-2.934469938,-2.225623846,-1049.100098,-2.100000143,-983.7000122,2.761095918,-0.289964607,-0.009476478,ST
9.433333333,-2.905180454,0.065795727,8.69340992,1.63872993,-2.141782045,-2.294221878,-1046.700073,-2.700000048,-981.3000488,2.770519449,-0.316193886,-0.009170534,ST
9.466666667,-3.087015867,0.01614986,8.899170876,1.707327962,0.068598002,-2.286599874,-1053.900024,-2.100000143,-983.7000122,2.781854358,-0.332564344,-0.003911758,ST
9.5,-3.444705486,-0.087927014,8.872254372,1.692083955,1.04421401,-2.461905956,-1063.5,0.900000036,-990.9000244,2.796452943,-0.369141826,0.007626152,ST
9.533333333,-3.327469349,-0.227294326,8.375796318,1.166165948,1.463423967,-3.041177988,-1053.900024,-5.700000286,-986.1000366,2.815105615,-0.379612572,0.025740687,ST
9.566666667,-3.996791363,-0.228490621,8.86268425,0.80793196,1.699705958,-3.795755863,-1049.100098,-5.100000381,-988.500061,2.82896458,-0.42209265,0.027162446,ST
9.6,-4.376612186,-0.645994425,8.904554367,0.586893976,2.164648056,-4.184477806,-1049.100098,-7.500000477,-993.3000488,2.861732309,-0.455793043,0.070631707,ST
9.633333333,-4.773778915,-0.865512908,9.010425568,0.564027965,2.332331896,-4.275941849,-1046.700073,-1.5,-971.7000122,2.887972169,-0.485717292,0.096257149,ST
9.666666667,-4.411304474,-1.08503139,7.405608177,0.792688012,2.812517881,-3.894841909,-1046.700073,-3.900000095,-978.9000244,2.925713237,-0.532361935,0.143963082,ST
9.7,-4.312610626,-1.585677028,7.14242506,0.884151995,3.468009949,-3.048799992,-1025.100098,-5.700000286,-983.7000122,2.97369984,-0.537151355,0.213812368,ST
9.733333333,-5.340220451,-1.670613289,8.270523071,1.516777992,3.041177988,-1.730193973,-1013.100037,-9.300000191,-966.9000244,2.976302728,-0.565991638,0.200530854,ST
9.766666667,-5.955709457,-1.698726058,8.646156311,2.370441914,3.094532013,-0.785066009,-1027.5,-3.900000095,-986.1000366,2.980248319,-0.596383804,0.192285829,ST
9.8,-5.790023804,-1.735810876,8.904554367,2.553369999,2.431417942,0.442075998,-1022.700012,-3.900000095,-976.500061,2.983473299,-0.574015069,0.188399367,ST
9.833333333,-5.153599739,-1.570723414,7.605387688,1.669217944,0.632625997,0.670735955,-1017.900024,-4.5,-983.7000122,2.990938062,-0.586019422,0.199062222,ST
9.866666667,-5.819333076,-1.526460886,8.258560181,0.411587983,-0.228659987,0.579271972,-1015.500061,-10.5,-986.1000366,2.980950224,-0.603965003,0.18294453,ST
9.9,-5.521457672,-1.372139931,8.357851982,0.236281991,-0.480185986,0.762199998,-1022.700012,-17.70000076,-986.1000366,2.968043793,-0.579544386,0.163276372,ST
9.933333333,-5.127281666,-1.342831016,7.825504303,0.327746004,-1.120433927,1.021348,-1027.5,-8.700000763,-976.500061,2.967555631,-0.572464829,0.167595367,ST
9.966666667,-5.059093475,-1.342232823,7.708866596,0.464941978,-1.432935953,0.93750596,-1029.900024,-13.50000095,-986.1000366,2.96635327,-0.571817759,0.170021075,ST
10.0,-4.69960928,-1.064096332,7.899674416,0.693601966,-1.600619912,0.137196004,-1022.700012,-14.70000076,-971.7000122,2.94846098,-0.533804007,0.13565374,ST
10.03333333,-4.326368332,-1.025815248,7.887711525,0.929883957,-2.202757835,-0.518296003,-1029.900024,-11.70000076,-981.3000488,2.94724259,-0.497810249,0.12861876,ST
10.06666667,-4.340125561,-0.597544849,8.525331497,1.371959925,-3.041177988,-1.082324028,-1022.700012,-10.5,-978.9000244,2.926363475,-0.467531911,0.073723427,ST
10.1,-4.518970013,-0.096899159,8.873451233,1.951231956,-3.437521935,-0.754577994,-1020.300049,-6.900000095,-993.3000488,2.90448624,-0.465277871,0.014069824,ST
10.13333333,-4.574597359,0.272753209,8.83217907,2.484771967,-2.629590034,0.091463998,-1041.900024,-11.70000076,-993.3000488,2.887936284,-0.472435818,-0.030745688,ST
10.16666667,-4.247413158,0.342137784,9.213794708,2.439039946,-1.981719971,0.625003994,-1044.300049,-9.300000191,-981.3000488,2.885471111,-0.432194881,-0.040821845,ST
10.2,-3.861611128,0.436046213,8.323159218,1.524399996,-2.134160042,0.327746004,-1037.100098,-15.30000019,-981.3000488,2.881512124,-0.430301702,-0.05398931,ST
10.23333333,-3.834096432,0.419298232,8.542677879,0.61738199,-1.318606019,0.266770005,-1037.100098,-3.300000191,-971.7000122,2.883160349,-0.420112348,-0.050611627,ST
10.26666667,-3.393863201,0.18602246,8.931470871,-0.030487999,-1.387203932,-0.114329994,-1049.100098,-13.50000095,-993.3000488,2.894092003,-0.366047418,-0.023320977,ST
10.3,-3.234757185,0.135180309,8.908143044,-0.327746004,-1.501533985,-0.434453994,-1051.5,-16.5,-986.1000366,2.898059216,-0.347517488,-0.015120046,ST
10.33333333,-3.285001278,-0.110058308,9.347180367,-0.754577994,-0.670735955,-0.274392009,-1049.100098,-6.900000095,-990.9000244,2.90689263,-0.337583888,0.011121833,ST
10.36666667,-2.994303703,-0.276940197,9.273608208,-0.952749968,0.160062,-1.105189919,-1046.700073,-6.300000191,-978.9000244,2.915737632,-0.314499418,0.030428473,ST
10.4,-3.179129839,-0.439036936,8.7765522,-1.250007987,1.12805593,-1.356715918,-1039.5,-11.70000076,-981.3000488,2.926171111,-0.346827492,0.051613683,ST
10.43333333,-3.799404144,-0.659751713,8.051602364,-1.013725996,3.064043999,-0.967993975,-1053.900024,-11.70000076,-990.9000244,2.940124907,-0.436716073,0.081662757,ST
10.46666667,-4.228272438,-0.731528878,8.345291138,-0.358233988,4.054903984,-0.602137983,-1039.5,-7.500000477,-988.500061,2.945687067,-0.471794625,0.088394963,ST
10.5,-5.452073097,-0.60711509,9.619335175,0.579271972,3.650938034,0.320124,-1034.700073,-12.30000019,-974.1000366,2.935015323,-0.517108785,0.064173765,ST
10.53333333,-5.139244556,-0.547898948,8.327944756,0.762199998,2.339953899,0.754577994,-1032.300049,-8.100000381,-971.7000122,2.934363219,-0.552572557,0.063760384,ST
10.56666667,-4.823424816,-0.980356336,8.47927475,1.585376024,1.55488801,-0.434453994,-1020.300049,-10.5,-1002.900024,2.961770018,-0.520264236,0.108610705,ST
10.6,-4.257581711,-0.763828576,7.986404896,2.301843882,0.785066009,-1.669217944,-1022.700012,-12.30000019,-974.1000366,2.963971367,-0.49180399,0.094382612,ST
10.63333333,-4.539905071,-0.912766159,7.526432991,2.454283953,-1.646351933,-1.844523907,-1017.900024,-7.500000477,-988.500061,2.985130705,-0.533554282,0.116520749,ST
10.66666667,-4.894005775,-1.043759465,7.141827106,1.684461951,-1.85214591,-1.486289978,-1032.300049,-11.70000076,-978.9000244,3.004867404,-0.586995314,0.140988087,ST
10.7,-5.246910095,-1.484590888,8.935059547,0.594515979,-0.472563982,-0.990859985,-1039.5,-14.10000038,-969.3000488,3.020768007,-0.527915297,0.163139667,ST
10.73333333,-4.68824482,-1.327877402,8.283083916,0.388722003,-1.059458017,-0.823175967,-1022.700012,-12.30000019,-974.1000366,3.021646923,-0.508969031,0.159202047,ST
10.76666667,-4.212122917,-1.787849307,7.556938171,-0.503051996,-0.739333987,-0.701223969,-1027.5,-14.10000038,-966.9000244,3.055131397,-0.496807872,0.226984226,ST
10.8,-3.777870893,-1.885346651,7.819522858,-0.304879993,0.678357959,-1.836901903,-1017.900024,-5.700000286,-969.3000488,3.06613875,-0.443438728,0.23798404,ST
10.83333333,-3.629531622,-1.734016418,7.970853329,0.274392009,1.295740008,-3.323191881,-1015.500061,-12.90000057,-974.1000366,3.069417329,-0.421738353,0.218437018,ST
10.86666667,-5.105748177,-1.303951621,9.092370987,1.333850026,0.29725799,-4.100636005,-1034.700073,-9.900000572,-974.1000366,3.054073198,-0.49909663,0.15094843,ST
10.9,-4.790526867,-0.841587186,8.023489952,1.570132017,-0.236281991,-3.102154016,-1017.900024,-8.700000763,-990.9000244,3.045288062,-0.531620472,0.109119633,ST
10.93333333,-4.828209877,-0.491673529,8.210110664,1.23476398,-0.72408998,-1.105189919,-1013.100037,-14.70000076,-976.500061,3.027300483,-0.529636162,0.062539007,ST
10.96666667,-4.709777832,-0.566441417,8.329140663,0.876529992,-1.143299937,0.129574001,-1017.900024,-12.90000057,-983.7000122,3.029884103,-0.513155795,0.065875477,ST
11.0,-4.376612186,-0.584385693,7.979825497,0.358233988,-1.478667974,0.556405962,-1029.900024,-14.70000076,-974.1000366,3.031109712,-0.499279092,0.071355565,ST
11.03333333,-5.093187332,-0.32239905,9.238916397,-0.106707998,-0.579271972,1.219519973,-1029.900024,-17.70000076,-990.9000244,3.010786536,-0.502370407,0.037276966,ST
11.06666667,-5.494541168,-0.10228245,10.19474888,-0.228659987,0.053353999,1.570132017,-1020.300049,-5.100000381,-983.7000122,2.993316956,-0.495175295,0.011499029,ST
11.1,-4.117018223,0.019140575,9.44168663,-0.129574001,-0.564027965,1.577754021,-1029.900024,-11.70000076,-993.3000488,2.981572619,-0.415525272,-0.002183455,ST
11.13333333,-3.535623074,0.05443101,8.407497406,-0.038109999,-1.051836014,1.364337921,-1025.100098,-15.30000019,-974.1000366,2.975322665,-0.397968937,-0.006943284,ST
11.16666667,-3.448294163,0.080151156,8.214895248,-0.114329994,-0.868907988,1.112811923,-1017.900024,-6.900000095,-983.7000122,2.970444666,-0.396062843,-0.010054577,ST
11.2,-3.466836691,-0.189611316,8.015115738,-0.053353999,-0.236281991,1.158543944,-1034.700073,-12.30000019,-993.3000488,2.97838008,-0.406714966,0.019880516,ST
11.23333333,-3.177933693,-0.127404451,7.310503483,-0.205793992,-0.213415995,0.701223969,-1029.900024,-14.10000038,-988.500061,2.974912762,-0.409392405,0.017490084,ST
11.26666667,-3.372330189,-0.357091367,7.715445995,-0.632625997,0.487807989,0.754577994,-1025.100098,-17.10000038,-981.3000488,2.98234652,-0.412299934,0.04414169,ST
11.3,-4.002174854,-1.11792922,9.099549294,-1.646351933,0.602137983,0.571649969,-1025.100098,-9.900000572,-976.500061,3.007831836,-0.412811302,0.117440752,ST
11.33333333,-4.585962296,-1.902094603,9.863975525,-2.17227006,0.785066009,0.365855992,-1015.500061,-8.700000763,-981.3000488,3.032479454,-0.428268151,0.187132363,ST
11.36666667,-5.193077087,-1.528255343,11.35275364,-1.913121939,0.716467977,-0.655492008,-1020.300049,-5.100000381,-969.3000488,3.013503632,-0.426901548,0.142206797,ST
11.4,-4.846154213,-0.358885795,9.060071945,0.480185986,0.670735955,1.021348,-1027.5,-6.900000095,-978.9000244,2.968183416,-0.48780244,0.045275193,ST
11.43333333,-4.543494225,-1.130490184,8.179605484,0.800309956,1.859767914,2.804895878,-1017.900024,-3.300000191,-971.7000122,3.000124365,-0.505654995,0.127374801,ST
11.46666667,-4.051222324,-1.229183793,6.87206459,-0.114329994,2.454283953,2.278977871,-1008.300049,-12.30000019,-986.1000366,3.015843984,-0.529169625,0.172311934,ST
11.5,-4.65534687,-1.199276686,7.461833477,-0.891773999,2.500015974,1.333850026,-1003.500061,-14.70000076,-976.500061,3.00577808,-0.554280565,0.16107515,ST
11.53333333,-4.750451565,-1.442122698,7.232744694,-1.349093914,1.859767914,0.960371971,-1001.100037,2.100000143,-988.500061,3.019742607,-0.574134435,0.195656819,ST
11.56666667,-5.438913822,-1.278829694,7.805765629,-1.547266006,0.960371971,0.716467977,-1003.500061,-7.500000477,-986.1000366,2.998701286,-0.602189056,0.166636091,ST
11.6,-6.072347641,-1.399654508,8.781336784,-0.579271972,1.028970003,1.524399996,-1003.500061,-10.5,-974.1000366,2.988838804,-0.601414995,0.15821933,ST
11.63333333,-5.854623318,-1.832710028,8.156277657,-0.625003994,0.929883957,1.615863919,-1015.500061,-8.700000763,-978.9000244,3.015867145,-0.612148523,0.214766455,ST
11.66666667,-4.940660954,-1.603023171,7.715445995,-0.594515979,0.449698001,0.503051996,-1003.500061,-2.100000143,-978.9000244,3.008445749,-0.564167119,0.20600277,ST
11.7,-5.089598656,-1.216024637,7.708268642,0.365855992,-1.181409955,0.060975999,-1003.500061,-3.300000191,-981.3000488,2.983612508,-0.574904891,0.16014927,ST
11.73333333,-4.829406261,-1.239950418,7.109527588,0.884151995,-1.463423967,0.236281991,-1013.100037,-5.700000286,-976.500061,2.989113036,-0.586179611,0.169614014,ST
11.76666667,-4.832396984,-1.22858572,7.573088169,0.647870004,-1.631107926,-0.007622,-1001.100037,-6.900000095,-981.3000488,2.984436991,-0.560961875,0.160049611,ST
11.8,-5.102757454,-0.970187902,7.813541412,0.815553963,-1.592997909,-0.053353999,-1013.100037,-9.300000191,-981.3000488,2.966882426,-0.571266855,0.125420047,ST
11.83333333,-5.383884907,-1.070077777,8.322561264,1.204275966,-1.059458017,0.556405962,-1005.900024,-0.900000036,-983.7000122,2.966945152,-0.568940102,0.125036984,ST
11.86666667,-5.606992245,-1.159201026,9.564306259,1.120433927,-0.731711984,0.525918007,-1025.100098,-3.300000191,-971.7000122,2.9638199,-0.529801733,0.118658161,ST
11.9,-5.247508049,-0.781174719,9.110913277,1.349093914,-1.463423967,0.342989981,-1025.100098,-4.5,-974.1000366,2.948310544,-0.519525924,0.085943621,ST
11.93333333,-4.992699146,-0.421690792,8.692214012,1.623485923,-1.417691946,0.282013983,-1034.700073,-8.700000763,-976.500061,2.931634367,-0.518546706,0.048968067,ST
11.96666667,-3.688747644,-0.094506592,7.093975544,2.035073996,-1.859767914,0.358233988,-1025.100098,-11.10000038,-981.3000488,2.916485085,-0.480084189,0.012933573,ST
12.0,-3.62893343,0.042468149,6.934869766,1.432935953,-1.760681987,-0.182927996,-1022.700012,-7.500000477,-983.7000122,2.910348556,-0.479124857,-0.006515504,ST
12.03333333,-4.123597622,-0.069384582,7.952908993,0.945127964,-1.006103992,-0.434453994,-1013.100037,-14.70000076,-971.7000122,2.91916235,-0.476782305,0.006305616,ST
12.06666667,-4.181617737,-0.32957679,8.948219299,0.655492008,-0.80793196,-0.480185986,-1015.500061,-8.700000763,-971.7000122,2.933572929,-0.439223837,0.033413816,ST
12.1,-4.067372322,-0.3576895,8.992481232,0.312501997,-1.257629991,-0.525918007,-1032.300049,-3.900000095,-976.500061,2.937878518,-0.423783524,0.039034083,ST
12.13333333,-4.790526867,-0.31761393,9.503893852,0.510674,-1.493911982,-0.137196004,-1017.900024,-2.700000048,-976.500061,2.936395546,-0.460408035,0.033179815,ST
12.16666667,-4.887426376,-0.316417634,9.497314453,1.227141976,-1.981719971,1.028970003,-1039.5,-0.300000012,-976.500061,2.933607745,-0.470794987,0.030417372,ST
12.2,-4.105653286,0.000598143,8.18977356,0.929883957,-2.019829988,1.570132017,-1032.300049,-5.100000381,-976.500061,2.916205315,-0.461996388,-0.000309842,ST
12.23333333,-3.539810181,0.24942562,7.88591671,0.746955991,-0.990859985,1.600619912,-1032.300049,-11.70000076,-971.7000122,2.899136071,-0.423755799,-0.031169509,ST
12.26666667,-3.42436862,-0.101684302,7.75432539,0.152439997,-0.746955991,1.737815976,-1039.5,-16.5,-974.1000366,2.90969843,-0.415391773,0.007651596,ST
12.3,-3.390274286,-0.585581958,7.646659851,-0.93750596,-0.457319975,1.219519973,-1029.900024,-12.30000019,-981.3000488,2.929977676,-0.415635525,0.070816104,ST
12.33333333,-4.965184689,-0.669920146,9.40340519,-1.303362012,0.480185986,0.80793196,-1029.900024,-9.300000191,-981.3000488,2.926355818,-0.479362517,0.072558487,ST
12.36666667,-4.468128204,-1.202865481,8.525929451,-1.250007987,1.036592007,1.074702024,-1032.300049,-9.900000572,-981.3000488,2.950652847,-0.480678131,0.136758921,ST
12.4,-4.948436737,-1.425374746,8.806459427,-1.44817996,1.051836014,0.754577994,-1022.700012,-5.700000286,-986.1000366,2.957471221,-0.506367296,0.160480498,ST
12.43333333,-5.086009502,-1.582686305,8.374599457,-1.356715918,0.815553963,1.318606019,-1027.5,-11.10000038,-981.3000488,2.964108565,-0.536822627,0.1854516,ST
12.46666667,-4.51597929,-1.885346651,8.338710785,-1.394825935,0.259148002,1.653973937,-1013.100037,-3.900000095,-978.9000244,2.974007689,-0.491566488,0.219968137,ST
12.5,-4.420276642,-1.844074726,8.233437538,-0.739333987,-0.72408998,1.684461951,-1022.700012,-2.700000048,-983.7000122,2.967310998,-0.48285048,0.219971674,ST
12.53333333,-4.020717144,-1.919440746,8.516359329,0.038109999,-0.762199998,1.74543798,-1037.100098,-8.100000381,-978.9000244,2.961602833,-0.435665826,0.220059768,ST
12.56666667,-3.71386981,-1.757344007,8.241213799,0.525918007,-1.326228023,0.975615978,-1032.300049,-2.100000143,-990.9000244,2.954012909,-0.415249866,0.209281644,ST
12.6,-4.323377609,-1.394869447,8.580361366,0.899396002,-0.876529992,0.160062,-1029.900024,-0.900000036,-981.3000488,2.935197857,-0.456047704,0.163945671,ST
12.63333333,-4.766601563,-1.372738123,8.808253288,0.891773999,0.038109999,-0.152439997,-1022.700012,-3.300000191,-981.3000488,2.93264339,-0.487878296,0.154174818,ST
12.66666667,-4.524951458,-1.512105465,8.535500526,0.518296003,0.464941978,-0.61738199,-1017.900024,-3.300000191,-971.7000122,2.944435099,-0.482282281,0.173179075,ST
12.7,-4.315003395,-1.114340305,8.426638603,0.167683989,-0.137196004,-1.493911982,-1034.700073,-10.5,-976.500061,2.932207858,-0.470162502,0.135536404,ST
12.73333333,-4.880248547,-0.373241216,8.76099968,1.059458017,-0.769822001,-1.242385983,-1025.100098,-8.700000763,-986.1000366,2.897700562,-0.503260178,0.050512014,ST
12.76666667,-4.179224968,-1.472627997,7.222576141,-1.051836014,-0.83079797,0.007622,-1032.300049,-2.700000048,-988.500061,2.964904827,-0.513997587,0.1931903,ST
12.8,-4.056605816,-1.776484609,8.850721359,-2.500015974,-1.63872993,-2.111294031,-1039.5,-7.500000477,-988.500061,2.970846893,-0.427422639,0.202927566,ST
12.83333333,-4.240833759,-1.074264765,9.541576385,-0.929883957,-2.583858013,-3.689047813,-1034.700073,-2.700000048,-983.7000122,2.947647525,-0.412238317,0.124112508,ST
12.86666667,-4.133167744,-0.156713456,8.972743034,2.210379839,-3.033555984,-1.981719971,-1032.300049,-6.300000191,-993.3000488,2.915996436,-0.425194258,0.024192432,ST
12.9,-3.443509102,-0.331969351,8.960780144,2.416173935,-2.439039946,-0.274392009,-1046.700073,-5.100000381,-986.1000366,2.922919618,-0.368080132,0.032196408,ST
12.93333333,-3.531436205,0.266173631,8.808851242,2.271355867,-0.083841994,1.105189919,-1046.700073,-12.90000057,-986.1000366,2.899937095,-0.379833556,-0.028836134,ST
12.96666667,-3.262869835,0.156115308,8.506789207,2.118916035,1.463423967,1.303362012,-1044.300049,-7.500000477,-988.500061,2.900260087,-0.369709489,-0.023478243,ST
13.0,-3.532632351,0.183031753,8.504995346,1.547266006,2.035073996,1.440557957,-1046.700073,-5.700000286,-988.500061,2.896877431,-0.394608912,-0.025126595,ST
13.03333333,-3.59603548,-0.002990715,8.551052094,0.876529992,1.714949965,1.440557957,-1044.300049,-11.10000038,-983.7000122,2.901449971,-0.400488164,-0.004318361,ST
13.06666667,-4.075746059,-0.153722748,9.106726646,0.236281991,0.503051996,1.158543944,-1032.300049,-8.100000381,-981.3000488,2.90532782,-0.419756694,0.013760034,ST
13.1,-4.167860031,-0.444420218,9.222766876,0.007622,-0.121951997,0.739333987,-1034.700073,-9.300000191,-986.1000366,2.915573536,-0.423495992,0.044488873,ST
13.13333333,-4.470520496,-0.276342064,9.41536808,0.091463998,-0.358233988,0.556405962,-1029.900024,-12.30000019,-976.500061,2.907917905,-0.440816445,0.030157698,ST
13.16666667,-4.042250156,-0.333763778,8.254971504,0.198172003,-0.137196004,1.295740008,-1034.700073,-2.700000048,-971.7000122,2.907627927,-0.453605323,0.038160692,ST
13.2,-4.231861591,-0.833213151,8.920105934,-0.243903995,0.030487999,1.509155989,-1041.900024,-3.300000191,-978.9000244,2.92393497,-0.442701843,0.087443579,ST
13.23333333,-4.646374702,-0.96719718,9.620531082,-0.594515979,-0.213415995,1.318606019,-1029.900024,-8.700000763,-981.3000488,2.92385591,-0.447352211,0.098972339,ST
13.26666667,-4.288685322,-0.884055316,8.113809586,-0.137196004,-0.114329994,1.722571969,-1032.300049,-3.300000191,-976.500061,2.921667257,-0.480615053,0.106459915,ST
13.3,-4.197169304,-1.216024637,7.799784184,-0.266770005,0.564027965,1.74543798,-1041.900024,-6.300000191,-978.9000244,2.93616079,-0.489272341,0.149320746,ST
13.33333333,-4.202552319,-1.29916656,7.740568161,-0.571649969,1.440557957,1.242385983,-1039.5,-6.900000095,-971.7000122,2.939498125,-0.493963094,0.164815615,ST
13.36666667,-4.33952713,-1.396663785,8.006741524,-0.701223969,1.8292799,0.739333987,-1017.900024,-7.500000477,-971.7000122,2.940829891,-0.493798565,0.172744717,ST
13.4,-4.387976646,-1.428963542,7.938553333,-0.716467977,1.42531395,0.472563982,-1039.5,-5.100000381,-978.9000244,2.941768549,-0.500184168,0.178564233,ST
13.43333333,-4.620654583,-1.288998127,7.990592003,-0.556405962,1.135677934,0.647870004,-1025.100098,-6.300000191,-981.3000488,2.931449343,-0.519012271,0.162114062,ST
13.46666667,-4.983129025,-1.488179684,8.613857269,-0.381099999,0.205793992,1.288118005,-1029.900024,-9.900000572,-969.3000488,2.930874885,-0.518858824,0.169752339,ST
13.5,-5.112328053,-1.573116064,8.802271843,-0.42683199,-0.320124,1.371959925,-1017.900024,-11.70000076,-971.7000122,2.928827534,-0.519210527,0.175609184,ST
13.53333333,-4.964586735,-1.750166297,8.621632576,-0.602137983,-0.304879993,1.410069942,-1020.300049,-4.5,-976.500061,2.934384919,-0.514230362,0.197710334,ST
13.56666667,-4.556653023,-1.710688949,8.209512711,-0.746955991,-0.434453994,0.708845973,-1027.5,-11.70000076,-981.3000488,2.934350913,-0.498653957,0.20531419,ST
13.6,-4.492651939,-1.35778451,8.160464287,-0.152439997,-0.731711984,0.327746004,-1020.300049,-8.700000763,-978.9000244,2.914890942,-0.496573579,0.168071751,ST
13.63333333,-4.145130634,-1.204659939,7.617350578,0.602137983,-1.006103992,0.419209987,-1022.700012,-9.900000572,-988.500061,2.908598879,-0.492023856,0.156417967,ST
13.66666667,-4.780358791,-0.986935914,8.946424484,1.158543944,-0.93750596,0.137196004,-1027.5,-0.300000012,-976.500061,2.888820531,-0.4871559,0.112030112,ST
13.7,-4.320386887,-0.977365613,9.014014244,1.036592007,-0.922261953,-0.320124,-1037.100098,-3.300000191,-983.7000122,2.8887802,-0.447008422,0.106893369,ST
13.73333333,-3.994398832,-0.394774348,8.217885971,0.80793196,-1.310984015,-0.952749968,-1037.100098,-6.300000191,-983.7000122,2.869169364,-0.449423446,0.052733151,ST
13.76666667,-4.434033871,-0.365465343,8.905152321,1.318606019,0.175305992,0.099086002,-1032.300049,-6.300000191,-969.3000488,2.865270153,-0.461013706,0.039702613,ST
13.8,-4.067372322,-0.491075367,8.533107758,1.211897969,1.280496001,0.556405962,-1032.300049,-5.700000286,-971.7000122,2.871725766,-0.447653614,0.053715863,ST
13.83333333,-4.392163754,-0.25181818,8.528920174,0.564027965,1.608241916,0.411587983,-1029.900024,-5.100000381,-983.7000122,2.861104431,-0.475690944,0.03034571,ST
13.86666667,-4.431043148,-0.279332757,8.610267639,0.42683199,1.059458017,0.495429993,-1017.900024,-4.5,-969.3000488,2.860745797,-0.476826155,0.031186375,ST
13.9,-4.255787373,-0.21772404,8.706568718,-0.015244,-0.419209987,0.480185986,-1010.700012,-8.700000763,-974.1000366,2.856509795,-0.455898537,0.025193127,ST
13.93333333,-4.228870869,-0.32479164,8.88122654,-0.038109999,-0.967993975,0.472563982,-1017.900024,-5.100000381,-978.9000244,2.859242343,-0.443689724,0.035208391,ST
13.96666667,-3.831703901,-0.349315494,8.314785004,-0.144817993,-1.181409955,0.312501997,-1029.900024,-11.10000038,-983.7000122,2.860505954,-0.430739158,0.041341586,ST
14.0,-3.613381624,-0.25181818,7.973844051,-0.106707998,-1.112811923,-0.038109999,-1027.5,-4.5,-976.500061,2.856697708,-0.423956297,0.032547742,ST
14.03333333,-4.586560249,-0.57900238,9.438097954,0.106707998,-0.312501997,0.076219998,-1029.900024,-6.900000095,-976.500061,2.867590613,-0.448851822,0.058620331,ST
14.06666667,-4.489661217,-1.168173194,9.440490723,-0.083841994,-0.182927996,0.022865999,-1034.700073,-8.700000763,-988.500061,2.893231994,-0.441292089,0.118798444,ST
14.1,-4.453772545,-1.401448965,9.417760849,-1.333850026,-1.661595941,-1.417691946,-1034.700073,-9.300000191,-976.500061,2.907395464,-0.434948941,0.148088832,ST
14.13333333,-5.247508049,-1.00966537,9.135437965,-0.762199998,-0.876529992,-0.922261953,-1039.5,-6.900000095,-971.7000122,2.893460702,-0.511951862,0.114562021,ST
14.16666667,-4.273133278,-1.394271255,7.929581165,0.274392009,1.478667974,0.708845973,-1037.100098,-6.900000095,-988.500061,2.918133517,-0.492685108,0.167915289,ST
14.2,-3.33943224,-1.589864016,6.85292387,0.099086002,1.722571969,0.571649969,-1029.900024,-2.700000048,-983.7000122,2.942546108,-0.450253246,0.222825405,ST
14.23333333,-4.06916666,-1.280025959,7.414580345,0.099086002,1.753059983,-0.022865999,-1025.100098,-3.300000191,-974.1000366,2.922437042,-0.494427831,0.175880068,ST
14.26666667,-4.393958092,-1.350008726,7.578471661,0.480185986,1.791170001,0.259148002,-1013.100037,-5.100000381,-974.1000366,2.923255032,-0.519356557,0.175540126,ST
14.3,-4.712170124,-1.504927754,7.871561527,0.53354001,1.615863919,0.228659987,-1015.500061,0.300000012,-978.9000244,2.930184071,-0.533144163,0.187009856,ST
14.33333333,-5.044737816,-1.628743291,8.182596207,0.167683989,1.608241916,0.160062,-1029.900024,-3.300000191,-993.3000488,2.935287973,-0.545426367,0.195501967,ST
14.36666667,-5.044737816,-1.463057756,8.227457047,-0.53354001,1.257629991,-0.259148002,-1027.5,2.100000143,-981.3000488,2.927240099,-0.545234132,0.179056274,ST
14.4,-5.816342354,-1.547395825,8.94582653,-0.602137983,0.907018006,-0.442075998,-1015.500061,-13.50000095,-974.1000366,2.924948643,-0.569250117,0.173455791,DLL
14.43333333,-6.057394028,-1.556367993,8.820814133,-0.167683989,0.358233988,-0.076219998,-1017.900024,-7.500000477,-971.7000122,2.925844368,-0.592865287,0.174949242,DLL
14.46666667,-5.830697536,-1.099386811,7.891898155,0.243903995,-1.775925994,1.04421401,-1003.500061,-5.700000286,-983.7000122,2.902600122,-0.625688857,0.139964191,DLL
14.5,-6.300837994,-0.591563404,7.759110451,0.251525998,-3.125020027,2.347575903,-1015.500061,-4.5,-981.3000488,2.858102806,-0.671522592,0.077934266,DLL
14.53333333,-7.023394585,0.394176215,6.594526291,-1.387203932,-4.855214119,7.583889961,-1003.500061,-5.100000381,-976.500061,2.740151848,-0.798827799,-0.059553682,DLL
14.56666667,-6.828400135,-0.080749303,8.458937645,-4.641798019,-6.394857883,14.65710545,-1020.300049,-5.100000381,-974.1000366,2.723160125,-0.676696575,-0.007043056,DLL
14.6,-4.808471203,-0.430064797,6.945037842,-7.080837727,-7.850659847,16.73028946,-1044.300049,1.5,-978.9000244,2.689431069,-0.598018551,0.049367554,DLL
14.63333333,-3.341226578,-1.016244888,7.560527325,-9.329327583,-7.096081734,17.21809769,-1037.100098,0.300000012,-966.9000244,2.658160425,-0.421536963,0.127355908,DLL
14.66666667,-3.134269238,-1.568928957,8.507986069,-9.519877434,-5.312533855,16.85986328,-1053.900024,-0.300000012,-969.3000488,2.608467203,-0.349887819,0.18246247,DLL
14.7,-1.207650661,-2.430853128,9.056482315,-8.422309875,-3.704291821,14.2531395,-1058.700073,10.5,-988.500061,2.569349755,-0.144849681,0.265604246,DLL
14.73333333,-1.030002236,-1.853645086,8.229848862,-6.783579826,-3.048799992,10.82323933,-1049.100098,16.5,-966.9000244,2.523508265,-0.123014704,0.233969385,DLL
14.76666667,-3.166568995,-1.855439544,10.61584187,-3.826243877,-0.838419974,9.718050003,-1049.100098,8.100000381,-978.9000244,2.477407853,-0.272768849,0.181108552,DLL
14.8,-2.141949892,-2.216119766,9.412377357,-1.653973937,-0.144817993,5.564059734,-1061.100098,15.30000019,-990.9000244,2.468025823,-0.223869234,0.228085568,DLL
14.83333333,-3.229373932,-1.629341483,10.48963356,-0.792688012,-0.282013983,3.323191881,-1058.700073,12.90000057,-976.500061,2.437539398,-0.290948062,0.159030275,DLL
14.86666667,-3.154007912,-1.215426564,9.600792885,0.274392009,-0.259148002,2.042695999,-1046.700073,16.5,-969.3000488,2.42108439,-0.313276711,0.126935662,DLL
14.9,-3.175540924,-0.967795312,9.380078316,0.899396002,0.701223969,1.760681987,-1039.5,9.300000191,-981.3000488,2.408967792,-0.325195312,0.102681158,DLL
14.93333333,-3.173148394,-1.058713078,8.501405716,1.539644003,1.699705958,0.922261953,-1034.700073,11.70000076,-969.3000488,2.413871666,-0.354910289,0.119096145,DLL
14.96666667,-3.341226578,-1.099386811,8.193362236,1.661595941,2.149404049,-0.022865999,-1051.5,11.70000076,-974.1000366,2.420709109,-0.38484386,0.129624468,DLL
15.0,-3.884340525,-0.973776758,7.903861046,1.974097967,2.141782045,-0.846041977,-1037.100098,6.900000095,-962.1000366,2.423790059,-0.451863852,0.120768429,DLL
15.03333333,-5.602805138,-0.714182734,9.153980255,2.57623601,1.905499935,-0.990859985,-1034.700073,8.100000381,-976.500061,2.411752258,-0.543583456,0.078159793,DLL
15.06666667,-4.999279022,-1.150228977,8.455348969,2.477149963,1.105189919,-0.792688012,-1025.100098,11.70000076,-971.7000122,2.443867045,-0.532871864,0.127024727,DLL
15.1,-4.907763004,-1.109555244,7.760306835,1.303362012,0.083841994,-1.814036012,-1032.300049,5.100000381,-962.1000366,2.458449692,-0.556699354,0.140331949,DLL
15.13333333,-4.824621201,-1.020431876,6.939654827,0.685979962,0.518296003,-1.501533985,-1034.700073,7.500000477,-978.9000244,2.467589257,-0.599194299,0.146092923,DLL
15.16666667,-4.302442551,-1.397860169,6.976739407,-0.472563982,1.089946032,-0.998481989,-1032.300049,5.700000286,-962.1000366,2.496777825,-0.550319524,0.195146476,DLL
15.2,-5.186497688,-0.895420015,7.749540329,-2.36281991,0.960371971,-0.602137983,-1017.900024,2.700000048,-974.1000366,2.45782042,-0.584997313,0.126958803,DLL
15.23333333,-4.768993855,-1.027011514,9.119287491,-1.577754021,0.777444005,1.836901903,-1025.100098,7.500000477,-971.7000122,2.434465817,-0.481063178,0.11332322,DLL
15.26666667,-4.840172768,-1.314120054,8.953003883,-0.175305992,1.112811923,1.737815976,-1020.300049,13.50000095,-969.3000488,2.442658508,-0.492400953,0.141744468,DLL
15.3,-4.308423996,-1.375130653,8.445180893,0.876529992,1.310984015,0.907018006,-1010.700012,12.30000019,-959.7000122,2.449308844,-0.471104483,0.157708239,DLL
15.33333333,-4.615869522,-0.873288751,8.112014771,1.333850026,0.42683199,0.068598002,-1029.900024,4.5,-962.1000366,2.428822271,-0.511627129,0.109769086,DLL
15.36666667,-4.353284359,-0.772202551,7.425944805,1.516777992,0.190549999,0.129574001,-1015.500061,12.90000057,-974.1000366,2.427081628,-0.526738499,0.101664296,DLL
15.4,-4.615271091,-0.587376416,8.10782814,1.440557957,0.274392009,-0.121951997,-1015.500061,9.900000572,-988.500061,2.415597657,-0.517738738,0.072801704,DLL
15.43333333,-4.776769638,-0.545506418,8.181399345,0.823175967,-0.983237982,0.503051996,-1025.100098,10.5,-971.7000122,2.411503618,-0.525235204,0.065190704,DLL
15.46666667,-5.148814678,-0.444420218,8.796888351,-0.358233988,-1.570132017,0.739333987,-1020.300049,6.900000095,-971.7000122,2.401155837,-0.526246765,0.051299064,DLL
15.5,-4.275526047,-0.562852561,8.211306572,-0.823175967,-2.012207985,1.867389917,-1032.300049,12.30000019,-971.7000122,2.401127993,-0.480369573,0.066541596,DLL
15.53333333,-4.566223621,-0.493467957,8.345291138,-0.396344006,-1.44817996,2.126538038,-1013.100037,7.500000477,-959.7000122,2.389956976,-0.496067173,0.058489546,DLL
15.56666667,-3.812563181,-0.934897482,8.918312073,-0.007622,-0.868907988,2.042695999,-1029.900024,14.10000038,-962.1000366,2.401086755,-0.409493845,0.098946415,DLL
15.6,-3.862209082,-0.817661464,8.990088463,0.076219998,-1.592997909,-0.030487999,-1020.300049,15.30000019,-964.500061,2.397736884,-0.402163238,0.09118097,DLL
15.63333333,-3.91843462,-0.992917359,9.26463604,0.038109999,-2.294221878,-0.472563982,-1025.100098,9.900000572,-962.1000366,2.404164761,-0.394694278,0.105571149,DLL
15.66666667,-3.449490547,-0.964206457,8.797487259,0.213415995,-2.926847935,-1.478667974,-1034.700073,13.50000095,-964.500061,2.409504498,-0.368864888,0.109221119,DLL
15.7,-3.520071268,-0.510814071,8.34469223,1.006103992,-2.446661949,-1.135677934,-1037.100098,10.5,-957.3000488,2.397199399,-0.391863895,0.064570645,DLL
15.73333333,-3.643288851,-0.651377678,9.222766876,1.112811923,-1.600619912,-0.472563982,-1053.900024,12.90000057,-978.9000244,2.401511836,-0.373854525,0.068529025,DLL
15.76666667,-3.703701258,-0.534739792,8.485854149,0.83079797,-1.265251994,-0.015244,-1041.900024,14.10000038,-964.500061,2.399947898,-0.405458091,0.062079522,DLL
15.8,-3.847255707,-0.717173398,8.514565468,0.342989981,-0.541162014,0.564027965,-1053.900024,13.50000095,-962.1000366,2.406163375,-0.420821875,0.081219635,DLL
15.83333333,-4.029689312,-1.238155961,8.029471397,-0.243903995,0.625003994,0.411587983,-1041.900024,8.100000381,-971.7000122,2.433303559,-0.459138909,0.148556834,DLL
15.86666667,-4.586560249,-1.040768743,8.835767746,-0.579271972,1.42531395,-0.091463998,-1041.900024,10.5,-969.3000488,2.420931517,-0.476715646,0.12123984,DLL
15.9,-4.775573254,-0.796726465,9.069044113,-0.320124,1.196653962,0.61738199,-1044.300049,10.5,-971.7000122,2.404820746,-0.484532998,0.090762164,DLL
15.93333333,-4.413098812,-0.905588448,8.05878067,-0.251525998,1.036592007,1.318606019,-1044.300049,8.100000381,-971.7000122,2.409513058,-0.498985597,0.109346481,DLL
15.96666667,-4.166065693,-1.18611753,7.917618275,-0.510674,1.42531395,1.676839948,-1034.700073,10.5,-964.500061,2.420847928,-0.483936652,0.145346571,DLL
16.0,-3.899892092,-1.373336315,8.024087906,-0.564027965,1.432935953,0.846041977,-1034.700073,17.70000076,-971.7000122,2.428221233,-0.452591874,0.167788846,DLL
16.03333333,-4.367640018,-1.237557769,8.494826317,0.007622,0.929883957,0.396344006,-1027.5,13.50000095,-966.9000244,2.41800816,-0.470580214,0.146558705,DLL
16.06666667,-4.995091915,-0.935495615,9.046912193,0.91463995,0.640248001,0.823175967,-1044.300049,13.50000095,-959.7000122,2.397414817,-0.501049157,0.104239348,DLL
16.1,-4.781554699,-1.055124164,8.811244011,1.34147191,-0.068598002,1.402447939,-1029.900024,12.30000019,-962.1000366,2.400228713,-0.49488455,0.114671302,DLL
16.13333333,-4.856322765,-0.97916007,8.576771736,0.785066009,0.289635986,1.227141976,-1041.900024,13.50000095,-962.1000366,2.396403436,-0.51152567,0.111463989,DLL
16.16666667,-4.707983494,-0.758445263,8.236428261,1.158543944,0.716467977,1.082324028,-1032.300049,11.70000076,-976.500061,2.385201527,-0.51822588,0.090853883,DLL
16.2,-4.568615913,-0.68726629,8.473293304,1.509155989,0.663114011,0.586893976,-1032.300049,14.10000038,-976.500061,2.38035112,-0.496524695,0.078966492,DLL
16.23333333,-4.582971573,-0.61190027,8.838160515,1.250007987,-0.091463998,-0.060975999,-1032.300049,8.700000763,-962.1000366,2.377428513,-0.47897568,0.06806908,DLL
16.26666667,-3.987221003,-0.605320692,8.450563431,0.083841994,-1.463423967,-1.105189919,-1015.500061,11.70000076,-971.7000122,2.382326098,-0.440967983,0.071829786,DLL
16.3,-4.097279549,-0.236266479,8.278298378,-0.129574001,-1.661595941,-1.570132017,-1029.900024,15.90000057,-971.7000122,2.370335001,-0.455488797,0.032687066,DLL
16.33333333,-3.800600529,-0.413914949,8.168838501,0.769822001,-0.419209987,-0.876529992,-1025.100098,14.70000076,-962.1000366,2.381115451,-0.435946052,0.048569928,DLL
16.36666667,-3.878957272,-0.693247676,8.711354256,1.181409955,0.236281991,-1.592997909,-1027.5,9.900000572,-969.3000488,2.39949093,-0.419467331,0.076148374,DLL
16.4,-4.419080257,-0.462962657,8.856104851,1.676839948,0.083841994,-2.06556201,-1027.5,15.30000019,-966.9000244,2.399117337,-0.459009134,0.052977925,DLL
16.43333333,-4.482483387,-0.421092659,9.58823204,1.730193973,-0.625003994,-1.417691946,-1039.5,8.700000763,-971.7000122,2.401695595,-0.437845642,0.043003499,DLL
16.46666667,-4.013539314,-0.285314202,9.04631424,1.219519973,-1.600619912,-1.089946032,-1034.700073,9.300000191,-959.7000122,2.401856765,-0.416644257,0.031360703,DLL
16.5,-3.559548855,-0.530552804,8.655727386,-0.076219998,-1.920743942,-0.236281991,-1037.100098,9.300000191,-976.500061,2.412947809,-0.388903185,0.058748768,DLL
16.53333333,-3.374124527,-0.345128506,8.504396439,-1.006103992,-1.8292799,-0.015244,-1051.5,8.700000763,-969.3000488,2.405818867,-0.375564314,0.043753262,DLL
16.56666667,-3.269449472,-0.21892032,8.548659325,-1.04421401,-1.684461951,0.853663981,-1032.300049,8.100000381,-969.3000488,2.396016422,-0.36349412,0.028346488,DLL
16.6,-3.474612474,-0.53892684,8.680849075,-0.602137983,-0.602137983,2.179892063,-1046.700073,9.300000191,-964.500061,2.399087527,-0.37781513,0.058512492,DLL
16.63333333,-3.3490026,-0.589768946,8.647353172,-0.594515979,-0.579271972,1.966475964,-1039.5,11.10000038,-969.3000488,2.394978724,-0.36882726,0.066942509,DLL
16.66666667,-4.335938454,-0.306847334,9.126465797,-0.221037999,-0.579271972,2.484771967,-1037.100098,15.30000019,-959.7000122,2.374291747,-0.435831601,0.035278776,DLL
16.7,-4.239637375,-1.306344271,8.948817253,-0.365855992,0.29725799,2.827761889,-1044.300049,11.10000038,-976.500061,2.406690716,-0.439357851,0.133522146,DLL
16.73333333,-4.769592285,-1.233370781,9.515856743,-1.089946032,0.358233988,1.722571969,-1039.5,11.70000076,-959.7000122,2.397797668,-0.460580289,0.129688889,DLL
16.76666667,-5.150011063,-0.794932008,9.316077232,-0.434453994,0.243903995,1.928365946,-1037.100098,5.100000381,-966.9000244,2.371792161,-0.50064117,0.087947324,DLL
16.8,-4.158887863,-1.074264765,7.673576355,0.411587983,0.716467977,2.111294031,-1034.700073,10.5,-969.3000488,2.387454354,-0.494885133,0.132492333,DLL
16.83333333,-3.780861616,-1.182528615,7.174126625,0.42683199,0.61738199,1.387203932,-1032.300049,9.300000191,-962.1000366,2.39660545,-0.481931178,0.159480997,DLL
16.86666667,-4.05720377,-1.070675969,7.079021931,0.579271972,0.739333987,0.785066009,-1025.100098,5.100000381,-969.3000488,2.390623604,-0.514398228,0.149290937,DLL
16.9,-4.46693182,-1.306942344,7.527629375,0.53354001,0.708845973,0.61738199,-1025.100098,11.70000076,-976.500061,2.39989324,-0.529466046,0.169138655,DLL
16.93333333,-5.062682152,-1.052133441,8.715540886,0.160062,0.106707998,0.701223969,-1022.700012,11.10000038,-959.7000122,2.37479743,-0.52394557,0.122919566,DLL
16.96666667,-5.171544075,-1.092807174,9.504491806,0.274392009,-1.211897969,1.318606019,-1034.700073,6.900000095,-974.1000366,2.365983169,-0.496004284,0.113381031,DLL
17.0,-4.534522057,-0.983945191,8.459535599,-0.144817993,-1.783547997,1.028970003,-1029.900024,14.70000076,-966.9000244,2.362436778,-0.487097233,0.114791145,DLL
17.03333333,-4.800097466,-0.505430818,8.409292221,0.40396598,-1.120433927,1.219519973,-1034.700073,11.70000076,-974.1000366,2.334093754,-0.513762832,0.062828484,DLL
17.06666667,-4.321582794,-0.876279473,8.304616928,0.350611985,-0.060975999,1.143299937,-1034.700073,8.700000763,-959.7000122,2.348853064,-0.480945256,0.09985639,DLL
17.1,-4.008754253,-0.768015563,8.101248741,0.007622,-0.030487999,-0.053353999,-1037.100098,9.300000191,-971.7000122,2.346830451,-0.459772854,0.095023966,DLL
17.13333333,-4.398743629,-0.304454774,8.083304405,0.579271972,-0.541162014,-0.586893976,-1034.700073,12.90000057,-971.7000122,2.324861948,-0.494782958,0.040849712,DLL
17.16666667,-4.145130634,-0.532347262,8.187380791,0.739333987,-0.030487999,-0.525918007,-1039.5,19.5,-981.3000488,2.337796771,-0.469759271,0.062378957,DLL
17.2,-4.509997845,-0.520982504,9.358545303,-0.350611985,-0.80793196,-0.693601966,-1025.100098,8.700000763,-966.9000244,2.337021935,-0.448873498,0.057228292,DLL
17.23333333,-4.088307381,-0.762034118,8.704176903,-1.158543944,-1.23476398,-0.358233988,-1044.300049,2.700000048,-969.3000488,2.348739422,-0.436673924,0.086641169,DLL
17.26666667,-3.620559454,-0.906784773,8.869862556,-1.85214591,-1.013725996,-0.472563982,-1037.100098,17.10000038,-966.9000244,2.354223349,-0.388664221,0.103701192,DLL
17.3,-3.515884399,-0.893625617,8.65632534,-1.371959925,-0.899396002,-0.274392009,-1034.700073,20.10000038,-969.3000488,2.353592852,-0.382924317,0.105237189,DLL
17.33333333,-3.427957296,-0.897812605,8.959583282,-0.609759986,-0.495429993,0.373477995,-1039.5,12.30000019,-974.1000366,2.349943588,-0.36476712,0.10106344,DLL
17.36666667,-3.023014545,-1.184921265,9.432714462,0.160062,-1.219519973,0.739333987,-1032.300049,12.90000057,-959.7000122,2.354198044,-0.310360481,0.122465659,DLL
17.4,-3.65704608,-1.091012836,9.686925888,1.036592007,-2.06556201,0.106707998,-1046.700073,15.90000057,-959.7000122,2.350526227,-0.352251398,0.11098853,DLL
17.43333333,-3.476407051,-0.732725143,8.638978958,1.623485923,-2.347575903,0.068598002,-1041.900024,8.100000381,-957.3000488,2.342088837,-0.375016841,0.084275903,DLL
17.46666667,-4.232459545,-0.412120521,9.152783394,1.272873998,-0.838419974,0.876529992,-1056.300049,21.30000114,-971.7000122,2.325924228,-0.426294379,0.045962567,DLL
17.5,-3.821535349,-0.746482432,9.657616615,0.846041977,0.442075998,1.516777992,-1058.700073,14.10000038,-962.1000366,2.332589899,-0.38123029,0.072073734,DLL
17.53333333,-2.980546474,-0.653770268,8.961378098,0.40396598,0.907018006,0.419209987,-1046.700073,14.70000076,-971.7000122,2.331871176,-0.327293676,0.071920958,DLL
17.56666667,-4.208533764,-0.389989227,9.304712296,1.280496001,1.966475964,0.746955991,-1044.300049,11.10000038,-962.1000366,2.320300006,-0.42100785,0.041476416,DLL
17.6,-4.099671841,-1.184323072,8.533107758,1.509155989,3.666181803,0.274392009,-1027.5,18.30000114,-978.9000244,2.359454617,-0.448511078,0.128247862,DLL
17.63333333,-4.697216988,-1.149032593,8.358449936,1.227141976,3.871975899,-0.213415995,-1027.5,9.900000572,-964.500061,2.366525146,-0.508662212,0.13450402,DLL
17.66666667,-4.544092178,-0.954038024,7.146612167,1.288118005,3.704291821,-0.205793992,-1017.900024,10.5,-976.500061,2.369346441,-0.563287482,0.131499937,DLL
17.7,-5.002269745,-0.973776758,7.008440971,1.875011921,4.474113941,0.259148002,-1017.900024,9.900000572,-971.7000122,2.375819357,-0.61775959,0.134836486,DLL
17.73333333,-4.653552532,-1.166378736,6.981524944,1.379581928,3.871975899,-0.053353999,-1015.500061,17.10000038,-962.1000366,2.395395485,-0.59094673,0.161371498,DLL
17.76666667,-5.900680542,-0.857138872,8.049808502,1.227141976,2.690565825,-0.259148002,-1013.100037,12.30000019,-964.500061,2.370014183,-0.630594978,0.109894545,DLL
17.8,-5.317491055,-0.970786035,6.587348461,0.861285985,1.592997909,-0.419209987,-1001.100037,11.70000076,-971.7000122,2.393219309,-0.67241558,0.142330183,DLL
17.83333333,-6.764997005,-0.57182467,8.534303665,0.716467977,0.708845973,0.060975999,-1013.100037,9.900000572,-959.7000122,2.351354099,-0.670722681,0.072552343,DLL
17.86666667,-6.837372303,-0.404344648,8.251381874,0.815553963,-0.518296003,0.823175967,-1005.900024,9.300000191,-964.500061,2.335862549,-0.688759064,0.048729294,DLL
17.9,-5.702096939,-0.765024841,8.07732296,0.594515979,-1.730193973,1.737815976,-996.3000488,5.100000381,-959.7000122,2.355484222,-0.617031632,0.087404795,DLL
17.93333333,-5.54897213,-0.555076659,8.379384995,-0.114329994,-2.583858013,1.371959925,-1008.300049,6.900000095,-962.1000366,2.338803991,-0.582679028,0.066395302,DLL
17.96666667,-5.413792133,-0.425279647,8.670082092,-0.792688012,-3.155508041,1.402447939,-1005.900024,11.70000076,-974.1000366,2.3240415,-0.55502958,0.050259897,DLL
18.0,-3.642690659,-0.710593879,7.16874361,-1.356715918,-3.025933981,0.365855992,-1017.900024,8.700000763,-969.3000488,2.342523264,-0.4713343,0.096189952,DLL
18.03333333,-4.996886253,-0.187218755,8.490041733,-0.579271972,-1.211897969,0.42683199,-1017.900024,3.900000095,-966.9000244,2.307780369,-0.525052247,0.028894266,DLL
18.06666667,-3.656447887,-0.796726465,8.323757172,0.320124,-0.342989981,0.381099999,-1020.300049,4.5,-959.7000122,2.334423373,-0.422044557,0.088891145,DLL
18.1,-4.078736782,-0.338548928,8.160464287,0.503051996,0.175305992,-0.411587983,-1013.100037,5.700000286,-962.1000366,2.317698161,-0.460337904,0.044626635,DLL
18.13333333,-4.253993034,-0.519786239,8.429629326,0.792688012,0.685979962,-0.564027965,-1015.500061,13.50000095,-966.9000244,2.327623444,-0.467183202,0.059510571,DLL
18.16666667,-3.703103065,-0.71298641,8.128763199,0.350611985,1.059458017,-1.509155989,-1015.500061,9.900000572,-952.500061,2.344681035,-0.430934322,0.0858488,DLL
18.2,-4.611682415,-0.336156338,9.330431938,0.861285985,-0.015244,-1.928365946,-1008.300049,13.50000095,-976.500061,2.33276225,-0.456736173,0.039606035,DLL
18.23333333,-5.074046612,-0.434251785,9.734776497,1.585376024,-0.960371971,-1.34147191,-1008.300049,9.900000572,-964.500061,2.340619086,-0.47635403,0.042655239,DLL
18.26666667,-3.223392487,-0.346922934,7.631107807,0.556405962,-1.76830399,-1.859767914,-1010.700012,7.500000477,-959.7000122,2.348242541,-0.40333801,0.045550588,DLL
18.3,-4.036867142,-0.240453482,8.682044983,0.030487999,-1.989341974,-1.707327962,-1020.300049,12.30000019,-976.500061,2.347447088,-0.429190432,0.030330993,DLL
18.33333333,-4.357471466,-0.278734624,8.553444862,0.121951997,-1.12805593,-1.326228023,-1020.300049,13.50000095,-962.1000366,2.352880038,-0.465317025,0.033183348,DLL
18.36666667,-4.636804104,-0.279332757,8.859095573,-0.213415995,0.160062,-0.861285985,-1025.100098,10.5,-971.7000122,2.355065116,-0.480816751,0.032719475,DLL
18.4,-4.926305294,-0.292491913,9.165345192,0.282013983,0.586893976,0.29725799,-1020.300049,14.10000038,-962.1000366,2.354004399,-0.492823705,0.03129173,DLL
18.43333333,-4.183412075,-0.871494293,7.889505863,0.182927996,0.518296003,0.838419974,-1032.300049,20.10000038,-964.500061,2.385120843,-0.486819497,0.10196399,DLL
18.46666667,-4.297059059,-0.861923993,8.000760078,-0.762199998,0.586893976,0.388722003,-1025.100098,9.900000572,-978.9000244,2.385617815,-0.491131826,0.107767227,DLL
18.5,-5.61297369,-0.859531462,9.063062668,-0.381099999,0.891773999,1.211897969,-1022.700012,8.700000763,-969.3000488,2.374908213,-0.549922973,0.095020952,DLL
18.53333333,-5.228965759,-0.963608325,8.512770653,0.106707998,1.219519973,1.509155989,-1022.700012,9.300000191,-964.500061,2.37868279,-0.550359435,0.109618379,DLL
18.56666667,-4.597925186,-0.974973023,7.400823116,-0.038109999,1.028970003,1.089946032,-1003.500061,15.30000019,-962.1000366,2.385503122,-0.553837814,0.128623976,DLL
18.6,-5.060289383,-0.815268874,7.318279266,0.030487999,1.181409955,1.181409955,-1017.900024,9.900000572,-966.9000244,2.373014265,-0.60020122,0.111276054,DLL
18.63333333,-5.473008156,-0.86371845,7.765091896,-0.259148002,1.547266006,1.806414008,-1027.5,5.700000286,-969.3000488,2.366835958,-0.612836382,0.109427126,DLL
18.66666667,-5.558542728,-1.350606799,8.207119942,-0.838419974,0.708845973,1.974097967,-1015.500061,6.300000191,-947.7000122,2.387277198,-0.592741662,0.158079597,DLL
18.7,-5.589047909,-1.4002527,8.161661148,-1.722571969,-0.998481989,2.06556201,-1017.900024,10.5,-966.9000244,2.383862913,-0.592599577,0.169218901,DLL
18.73333333,-5.314500332,-0.867307305,7.230950356,-1.44817996,-1.478667974,2.164648056,-1008.300049,16.5,-964.500061,2.347209748,-0.625697399,0.122882979,DLL
18.76666667,-5.946737289,-0.797324598,8.421255112,-0.442075998,-0.457319975,3.673803806,-1001.100037,14.10000038,-964.500061,2.318828177,-0.613783887,0.093493243,DLL
18.8,-4.593139648,-1.241146684,7.896683693,-0.693601966,-0.93750596,2.995445967,-1001.100037,15.90000057,-966.9000244,2.338390811,-0.529156775,0.148672502,DLL
18.83333333,-5.041747093,-0.891233027,7.69810009,-1.105189919,-1.760681987,1.76830399,-1015.500061,10.5,-966.9000244,2.313836895,-0.570750839,0.117636897,DLL
18.86666667,-5.774472237,-0.780576587,8.559426308,-0.396344006,-1.471045971,2.035073996,-986.7000122,16.5,-971.7000122,2.292618189,-0.587697748,0.091742973,DLL
18.9,-4.491455555,-1.103573799,7.785429001,0.327746004,-0.952749968,0.975615978,-1003.500061,11.10000038,-957.3000488,2.312852879,-0.523944379,0.134996992,DLL
18.93333333,-4.737890244,-0.083740018,7.467216969,0.251525998,-1.310984015,0.442075998,-1015.500061,18.30000114,-959.7000122,2.246235165,-0.563037273,0.010469544,DLL
18.96666667,-4.417285919,-0.314025074,8.488844872,-1.082324028,0.548784018,1.272873998,-1022.700012,8.100000381,-986.1000366,2.252842111,-0.486229571,0.0358691,DLL
19.0,-4.798303127,-0.228490621,9.939341545,-1.8292799,-0.228659987,1.181409955,-1008.300049,10.5,-962.1000366,2.241913469,-0.452657007,0.026090606,DLL
19.03333333,-4.395752907,-0.50842154,9.487743378,-1.288118005,-1.150921941,1.158543944,-1010.700012,7.500000477,-952.500061,2.247366261,-0.433174817,0.052438666,DLL
19.06666667,-3.323880434,-0.857737005,8.355459213,-0.785066009,-1.547266006,0.876529992,-1010.700012,14.70000076,-962.1000366,2.261331421,-0.379638532,0.098460373,DLL
19.1,-3.815553904,-0.581993103,8.482863426,-0.464941978,-1.8292799,0.205793992,-1015.500061,18.30000114,-957.3000488,2.248688111,-0.416223025,0.070932839,DLL
19.13333333,-3.64089632,-0.666929424,8.56241703,0.205793992,-1.036592007,0.365855992,-1013.100037,18.30000114,-974.1000366,2.249777228,-0.400751368,0.076494381,DLL
19.16666667,-4.026100159,-0.554478526,8.737074852,0.571649969,-0.701223969,0.198172003,-1032.300049,19.5,-954.9000244,2.244569492,-0.427212668,0.063496308,DLL
19.2,-4.115821838,-0.7554546,8.905152321,0.167683989,-0.015244,-0.015244,-1010.700012,21.30000114,-966.9000244,2.252894417,-0.431228068,0.082772383,DLL
19.23333333,-4.32098484,-0.580796838,8.908143044,-0.289635986,-0.259148002,-0.167683989,-1008.300049,18.30000114,-957.3000488,2.246177007,-0.449013809,0.066919681,DLL
19.26666667,-4.923314571,-0.377428204,9.524828911,-0.312501997,0.320124,1.158543944,-1027.5,14.10000038,-957.3000488,2.230268401,-0.475461513,0.041067597,DLL
19.3,-4.295264721,-1.057516813,9.240711212,-0.884151995,0.510674,1.387203932,-1032.300049,17.70000076,-954.9000244,2.254349543,-0.436980823,0.108961442,DLL
19.33333333,-4.157691956,-1.213033915,8.494228363,-0.853663981,0.487807989,0.038109999,-1015.500061,24.90000153,-954.9000244,2.266584911,-0.450721815,0.140229693,DLL
19.36666667,-4.584167957,-1.168771386,8.208913803,0.358233988,0.929883957,-0.068598002,-1010.700012,17.10000038,-964.500061,2.268160567,-0.502408411,0.140924637,DLL
19.4,-4.621252537,-1.300362825,7.668790817,1.105189919,1.021348,-0.373477995,-1013.100037,17.10000038,-964.500061,2.283800581,-0.535327246,0.164778439,DLL
19.43333333,-4.404126644,-1.492366672,7.120294094,1.013725996,0.685979962,-1.059458017,-1017.900024,20.70000076,-959.7000122,2.308358054,-0.544328277,0.202308469,DLL
19.46666667,-4.690039158,-1.380514026,7.146014214,1.036592007,1.105189919,-2.149404049,-1020.300049,13.50000095,-966.9000244,2.312814218,-0.571768508,0.192290629,DLL
19.5,-5.236143589,-1.158602953,7.448674202,1.714949965,1.63872993,-2.08842802,-1015.500061,11.70000076,-962.1000366,2.303561545,-0.605954927,0.157616876,DLL
19.53333333,-6.288875103,-1.066488862,9.002051353,2.431417942,1.8292799,-1.082324028,-1005.900024,15.90000057,-954.9000244,2.290169551,-0.609187231,0.118756081,DLL
19.56666667,-5.740976334,-1.25669837,8.323757172,2.644834042,1.85214591,-0.525918007,-1001.100037,19.5,-964.500061,2.311760517,-0.602322615,0.143721588,DLL
19.6,-5.52325201,-1.058114886,7.976834774,1.783547997,2.118916035,-0.746955991,-993.9000244,14.10000038,-962.1000366,2.311368413,-0.604828158,0.131030813,DLL
19.63333333,-5.956307888,-0.998898745,8.680251122,1.913121939,1.55488801,-0.160062,-1001.100037,9.300000191,-957.3000488,2.30621518,-0.601287599,0.113098466,DLL
19.66666667,-5.243321419,-0.814072609,6.960589886,1.463423967,0.632625997,-0.274392009,-984.3000488,12.30000019,-964.500061,2.310771929,-0.639572468,0.114180349,DLL
19.7,-5.270835876,-0.397166938,7.900870323,1.364337921,-0.556405962,0.213415995,-1015.500061,12.90000057,-952.500061,2.277646684,-0.591644499,0.053379199,DLL
19.73333333,-4.755834579,-0.507225215,7.399028778,1.623485923,-1.150921941,-0.457319975,-1001.100037,5.700000286,-969.3000488,2.28816708,-0.570285506,0.064919057,DLL
19.76666667,-4.697216988,-0.475523651,7.979825497,0.983237982,-1.570132017,-1.280496001,-1013.100037,8.100000381,-966.9000244,2.290616988,-0.532169258,0.05956263,DLL
19.8,-4.755236626,-0.035290435,8.176614761,0.640248001,-2.583858013,-1.532021999,-1003.500061,6.900000095,-969.3000488,2.270861685,-0.522868496,0.00813954,DLL
19.83333333,-5.144029617,-0.058618013,9.352563858,0.80793196,-2.126538038,-1.196653962,-1015.500061,9.900000572,-966.9000244,2.274834172,-0.501268265,0.006192042,DLL
19.86666667,-3.803591251,-0.837998331,9.158166885,0.464941978,-2.545747995,-1.486289978,-1022.700012,8.700000763,-964.500061,2.314359311,-0.396268051,0.085273128,DLL
19.9,-4.048829556,-0.442625791,8.866272926,0.030487999,-3.086910009,-1.791170001,-1017.900024,11.70000076,-971.7000122,2.307082255,-0.420002284,0.054217634,DLL
19.93333333,-3.524258375,-0.509617805,7.982816219,0.365855992,-1.76830399,-0.42683199,-1022.700012,12.30000019,-981.3000488,2.311970564,-0.412607601,0.062531225,DLL
19.96666667,-3.532034159,-0.72016412,8.006741524,0.685979962,-0.205793992,0.076219998,-1013.100037,5.100000381,-974.1000366,2.322374486,-0.413565506,0.086651688,DLL
20.0,-4.117616177,-0.871494293,8.936256409,0.93750596,0.442075998,-0.038109999,-1017.900024,14.10000038,-957.3000488,2.327293057,-0.429193986,0.094820256,DLL
20.03333333,-4.345508575,-0.712388277,8.658119202,1.318606019,0.472563982,-0.289635986,-1020.300049,8.700000763,-971.7000122,2.324705805,-0.462381589,0.081004765,DLL
20.06666667,-5.238536358,-0.504234552,9.859190941,2.17227006,0.739333987,-0.289635986,-1029.900024,11.10000038,-976.500061,2.315347167,-0.487112122,0.050149327,DLL
20.1,-4.399939537,-1.123910666,9.932164192,2.865871906,0.182927996,-1.310984015,-1020.300049,3.900000095,-969.3000488,2.347221425,-0.42141873,0.103645778,DLL
20.13333333,-3.330460072,-1.339242101,8.735877991,3.582340002,-0.701223969,-4.390272141,-1017.900024,8.100000381,-962.1000366,2.381268851,-0.363915379,0.144816302,DLL
20.16666667,-3.802993059,-1.201669216,8.278897285,4.83234787,-0.800309956,-8.323224068,-1027.5,10.5,-964.500061,2.412567269,-0.417833452,0.142070354,DLL
20.2,-4.192982197,-1.398458242,7.589836121,5.807963848,0.091463998,-10.83086205,-1020.300049,6.300000191,-974.1000366,2.475976893,-0.489780744,0.179100297,DLL
20.23333333,-4.65534687,-1.303951621,8.190969467,6.166197777,0.907018006,-11.89031982,-1029.900024,7.500000477,-971.7000122,2.513241716,-0.507821321,0.160432774,DLL
20.26666667,-4.774377346,-0.740500987,7.179510117,6.669250011,1.143299937,-11.56257343,-1025.100098,-3.900000095,-983.7000122,2.533106022,-0.577116581,0.109306054,DLL
20.3,-5.548374176,-0.965402782,8.668288231,6.92077589,0.967993975,-8.803409576,-1041.900024,5.100000381,-971.7000122,2.574961044,-0.56729299,0.108769312,DLL
20.33333333,-5.386277676,-1.151425242,8.001358986,6.234796047,0.449698001,-8.041210175,-1034.700073,0.300000012,-976.500061,2.626035288,-0.584944936,0.138252797,DLL
20.36666667,-4.980138302,-0.980356336,8.445180893,4.93905592,0.243903995,-7.553401947,-1037.100098,-8.700000763,-978.9000244,2.645789509,-0.533811547,0.116961397,DLL
20.4,-5.307322502,-0.53414166,8.680849075,4.481735706,-0.678357959,-6.417723656,-1029.900024,-3.900000095,-964.500061,2.646090822,-0.544834734,0.065491828,DLL
20.43333333,-4.220496655,-1.071872234,7.887113094,3.528985977,-0.93750596,-5.335400105,-1044.300049,-11.10000038,-964.500061,2.698597081,-0.490394889,0.12787954,DLL
20.46666667,-3.795815229,-1.303353548,8.342898369,2.035073996,-1.55488801,-5.838451862,-1037.100098,-6.900000095,-993.3000488,2.730222197,-0.424816366,0.153488329,DLL
20.5,-3.979445219,-0.927719772,8.668288231,2.347575903,-1.95885396,-5.960403919,-1034.700073,-9.900000572,-966.9000244,2.733986893,-0.423732498,0.111230136,DLL
20.53333333,-4.158887863,-0.951047301,8.490639687,2.835383892,-1.257629991,-4.824726105,-1053.900024,-6.900000095,-986.1000366,2.752414083,-0.447529038,0.110513647,DLL
20.56666667,-4.337732792,-0.860129595,9.167737007,2.972579956,-0.068598002,-3.932951927,-1044.300049,-8.700000763,-981.3000488,2.762947131,-0.440024115,0.09288188,DLL
20.6,-4.285694599,-0.535337985,8.739466667,3.490875959,0.495429993,-3.231727839,-1044.300049,-11.10000038,-981.3000488,2.764900205,-0.454385382,0.060754826,DLL
20.63333333,-4.586560249,-0.153722748,8.334524155,3.711913824,1.63872993,-1.920743942,-1039.5,-12.30000019,-974.1000366,2.757680717,-0.50192061,0.017402726,DLL
20.66666667,-4.959801674,0.001794429,8.951807976,3.346057892,2.515259981,-0.701223969,-1041.900024,-9.300000191,-969.3000488,2.75541938,-0.509580889,-0.003296982,DLL
20.7,-4.838378429,0.304454774,8.855506897,3.00306797,2.507637978,0.198172003,-1034.700073,-20.70000076,-983.7000122,2.743510641,-0.504548032,-0.037372721,DLL
20.73333333,-3.690542221,0.657359123,7.491740704,2.46952796,1.592997909,0.785066009,-1027.5,-10.5,-974.1000366,2.721292115,-0.463042144,-0.087740679,DLL
20.76666667,-3.698916197,0.876279473,7.540788651,1.684461951,0.815553963,0.861285985,-1027.5,-22.5,-969.3000488,2.708164017,-0.455409041,-0.116582565,DLL
20.8,-3.812563181,0.952243626,8.125772476,0.884151995,0.350611985,0.83079797,-1034.700073,-14.10000038,-993.3000488,2.705863781,-0.438229276,-0.118700815,DLL
20.83333333,-4.293470383,1.0425632,9.082800865,0.282013983,-0.114329994,0.373477995,-1022.700012,-21.30000114,-966.9000244,2.706560883,-0.438726891,-0.115398102,ST
20.86666667,-4.111036777,0.565245092,8.929676056,-0.40396598,-0.350611985,-0.121951997,-1037.100098,-11.70000076,-976.500061,2.726762877,-0.430928117,-0.067173851,ST
20.9,-4.145130634,0.410326064,8.918312073,-0.838419974,-0.518296003,-0.72408998,-1029.900024,-13.50000095,-966.9000244,2.736983509,-0.433625155,-0.045667499,ST
20.93333333,-4.528540611,-0.025720147,9.314880371,-1.059458017,-0.663114011,-0.907018006,-1032.300049,-20.10000038,-981.3000488,2.758712938,-0.450178592,0.001831262,ST
20.96666667,-4.675683498,-0.277538329,9.247290611,-1.455801964,-0.525918007,-1.166165948,-1020.300049,-6.900000095,-976.500061,2.77280809,-0.46548025,0.0306579,ST
21.0,-4.195374966,-0.172265172,8.198745728,-1.417691946,-0.221037999,-1.006103992,-1034.700073,-12.30000019,-978.9000244,2.771108661,-0.471976207,0.024808029,ST
21.03333333,-4.355677128,-0.205163032,8.138931274,-0.891773999,0.754577994,-0.236281991,-1027.5,-14.10000038,-986.1000366,2.771357258,-0.491004452,0.026832369,ST
21.06666667,-4.530334949,-0.363670915,8.017508507,-0.487807989,1.646351933,0.602137983,-1037.100098,-6.300000191,-978.9000244,2.777133838,-0.515034862,0.044351831,ST
21.1,-4.609289646,-0.39297992,8.155080795,-0.556405962,2.035073996,1.394825935,-1034.700073,-15.30000019,-990.9000244,2.773844003,-0.517374563,0.047521454,ST
21.13333333,-5.349192619,-0.610703945,9.097156525,-0.457319975,1.85214591,1.23476398,-1025.100098,-11.70000076,-976.500061,2.778257963,-0.532801703,0.06536432,ST
21.16666667,-5.289976597,-0.602928102,8.239418983,-0.685979962,1.676839948,1.356715918,-1017.900024,-11.10000038,-986.1000366,2.776948724,-0.56902573,0.072193316,ST
21.2,-5.051915646,-0.570628405,8.195755005,-0.625003994,1.196653962,1.410069942,-996.3000488,-11.70000076,-969.3000488,2.770297277,-0.55484868,0.069411141,ST
21.23333333,-5.039354324,-0.724351168,8.399123192,-0.480185986,0.251525998,1.463423967,-1003.500061,-13.50000095,-990.9000244,2.77274428,-0.540821975,0.083923722,ST
21.26666667,-4.671496391,-0.825437307,8.049209595,-0.564027965,-1.028970003,1.105189919,-1008.300049,-5.700000286,-969.3000488,2.776521968,-0.52370051,0.100339475,ST
21.3,-4.30902195,-0.683677435,7.617350578,-0.510674,-1.920743942,0.564027965,-1008.300049,-6.300000191,-969.3000488,2.768356506,-0.51088829,0.090478973,ST
21.33333333,-4.644580364,-0.568833947,8.297439575,0.038109999,-1.547266006,0.464941978,-1010.700012,-12.90000057,-986.1000366,2.756349406,-0.506999783,0.06953245,ST
21.36666667,-4.600317478,-0.58139497,8.406899452,0.525918007,-0.853663981,0.396344006,-1015.500061,-11.70000076,-990.9000244,2.755022453,-0.498976399,0.067847925,ST
21.4,-4.389771461,-0.58139497,8.190371513,0.739333987,-0.61738199,0.259148002,-1010.700012,-13.50000095,-976.500061,2.755943954,-0.490736616,0.069164778,ST
21.43333333,-5.154796124,-0.638816714,9.089380264,1.074702024,0.038109999,0.236281991,-1022.700012,-8.100000381,-976.500061,2.756577105,-0.512932779,0.06814889,ST
21.46666667,-5.087205887,-0.732127011,9.208411217,1.150921941,0.243903995,-0.045731999,-1015.500061,-6.300000191,-981.3000488,2.762801594,-0.504639795,0.076563942,ST
21.5,-4.490857601,-0.587974548,8.252578735,1.150921941,-0.228659987,-0.823175967,-1022.700012,-12.30000019,-971.7000122,2.764229,-0.497507373,0.070487252,ST
21.53333333,-4.642187595,-0.332567483,7.803971291,1.547266006,-0.160062,-0.91463995,-1020.300049,-13.50000095,-995.7000122,2.756317285,-0.532409282,0.04353988,ST
21.56666667,-4.609888077,-0.270360619,7.921805382,1.684461951,0.335367978,-0.670735955,-1010.700012,-8.100000381,-974.1000366,2.755927161,-0.527774843,0.032925038,ST
21.6,-4.493249893,-0.218322188,8.179605484,1.821658015,-0.060975999,-0.701223969,-1027.5,-15.30000019,-978.9000244,2.757325279,-0.504162926,0.024906937,ST
21.63333333,-4.76779747,0.011962859,8.418264389,1.501533985,-0.708845973,-0.564027965,-1022.700012,-11.10000038,-978.9000244,2.748963126,-0.513191473,-0.000908596,ST
21.66666667,-4.668505669,0.456383079,8.387759209,1.455801964,-0.556405962,-0.129574001,-993.9000244,-8.100000381,-976.500061,2.726650018,-0.506765801,-0.053264832,ST
21.7,-4.57938242,0.53414166,8.566603661,1.326228023,-0.83079797,0.259148002,-1013.100037,-14.70000076,-981.3000488,2.723190267,-0.490273624,-0.063742921,ST
21.73333333,-4.248011589,0.467747808,8.644960403,0.731711984,-0.80793196,0.228659987,-1005.900024,-14.10000038,-976.500061,2.727217404,-0.457942404,-0.056220908,ST
21.76666667,-3.768898964,0.726145566,8.446974754,0.076219998,-0.93750596,-0.068598002,-1022.700012,-9.300000191,-974.1000366,2.716232126,-0.420111946,-0.083376696,ST
21.8,-3.990809917,0.76263231,8.553444862,-0.289635986,-1.173787951,-0.022865999,-1025.100098,-12.90000057,-981.3000488,2.71430311,-0.432113127,-0.087976285,ST
21.83333333,-4.357471466,0.742893577,9.065454483,-0.472563982,-1.006103992,0.221037999,-1020.300049,-11.70000076,-971.7000122,2.715853959,-0.44381233,-0.081683338,ST
21.86666667,-4.220496655,0.594554126,8.988892555,-0.342989981,-0.823175967,0.579271972,-1017.900024,-13.50000095,-976.500061,2.719863253,-0.43728144,-0.06730246,ST
21.9,-4.094288826,0.391783655,8.591725349,-0.40396598,-0.922261953,0.449698001,-1029.900024,-14.10000038,-969.3000488,2.72661704,-0.44229019,-0.046722329,ST
21.93333333,-4.081129551,0.135778457,8.576771736,-0.495429993,-0.350611985,-0.091463998,-1034.700073,-5.700000286,-974.1000366,2.738702024,-0.443390577,-0.017518399,ST
21.96666667,-3.847255707,-0.132189602,8.234036446,-0.647870004,0.076219998,-0.708845973,-1027.5,-11.10000038,-978.9000244,2.753652446,-0.437751585,0.014580239,ST
22.0,-4.535717964,-0.464757085,8.402712822,-0.945127964,0.80793196,-1.539644003,-1017.900024,-7.500000477,-988.500061,2.77480527,-0.490406872,0.054277987,ST
22.03333333,-4.929296017,-0.598741114,9.074426651,-0.556405962,1.394825935,-1.410069942,-1022.700012,-10.5,-978.9000244,2.784472138,-0.498200352,0.067004593,ST
22.06666667,-4.532129288,-0.685471833,8.110818863,0.0,1.326228023,-1.028970003,-1029.900024,-10.5,-971.7000122,2.795962383,-0.509124292,0.083739363,ST
22.1,-4.865294933,-1.00488019,8.29145813,0.388722003,1.356715918,-0.685979962,-1013.100037,-9.900000572,-971.7000122,2.81577926,-0.527857848,0.117387249,ST
22.13333333,-4.667309761,-1.038974285,7.32605505,0.487807989,1.722571969,-0.586893976,-1017.900024,-12.90000057,-990.9000244,2.830111726,-0.562179433,0.138739504,ST
22.16666667,-5.19606781,-1.137069821,8.398525238,0.274392009,1.379581928,-0.350611985,-1013.100037,-12.30000019,-971.7000122,2.830412323,-0.552913575,0.134920652,ST
22.2,-4.688842773,-1.126901388,7.398430347,-0.045731999,0.548784018,-0.236281991,-1003.500061,-20.10000038,-969.3000488,2.839595521,-0.5601133,0.150532816,ST
22.23333333,-5.039354324,-1.16039741,7.970853329,0.0,-0.083841994,0.228659987,-998.7000122,-8.100000381,-983.7000122,2.83584262,-0.559059548,0.14481856,ST
22.26666667,-5.437717915,-1.222604275,8.613258362,0.304879993,-0.175305992,0.754577994,-1025.100098,-12.90000057,-966.9000244,2.831636841,-0.558569349,0.14009782,ST
22.3,-5.508896828,-1.103573799,8.637783051,0.365855992,-0.282013983,1.189031959,-1013.100037,-10.5,-981.3000488,2.82149534,-0.56336882,0.126457049,ST
22.33333333,-5.30493021,-1.076059222,8.658119202,0.579271972,-0.701223969,1.562510014,-1010.700012,-3.300000191,-983.7000122,2.81506702,-0.547047417,0.121390566,ST
22.36666667,-4.610486031,-0.965402782,7.89369297,0.853663981,-1.42531395,1.303362012,-1020.300049,-14.70000076,-995.7000122,2.810970666,-0.525357737,0.118956528,ST
22.4,-4.657141209,-0.841587186,8.074930191,1.63872993,-1.631107926,1.34147191,-1013.100037,-16.5,-976.500061,2.799960302,-0.518666489,0.100700973,ST
22.43333333,-4.362256527,-0.525169551,7.610173225,2.248489857,-1.509155989,0.929883957,-1020.300049,-9.300000191,-976.500061,2.783780621,-0.517085545,0.066473918,ST
22.46666667,-4.854528427,0.105871305,8.27710247,2.538125992,-0.899396002,1.097568035,-1022.700012,-16.5,-969.3000488,2.746335698,-0.527885247,-0.010608823,ST
22.5,-4.654150486,0.562852561,8.48346138,2.149404049,-0.785066009,1.242385983,-1025.100098,-14.70000076,-976.500061,2.719185737,-0.501998045,-0.065747863,ST
22.53333333,-4.721740723,0.736912131,9.073230743,1.387203932,-0.952749968,0.960371971,-1017.900024,-7.500000477,-976.500061,2.710566609,-0.478441349,-0.083003512,ST
22.56666667,-4.126588345,0.811081886,8.561220169,0.670735955,-0.998481989,0.518296003,-1020.300049,-15.30000019,-974.1000366,2.704993166,-0.448561958,-0.094828305,ST
22.6,-3.903481007,0.843381584,8.823804855,0.289635986,-0.846041977,0.129574001,-1020.300049,-13.50000095,-969.3000488,2.704875703,-0.416515788,-0.095745049,ST
22.63333333,-3.975258112,0.910373628,8.446376801,0.076219998,-0.922261953,-0.381099999,-1032.300049,-14.70000076,-976.500061,2.702206935,-0.434364337,-0.106080301,ST
22.66666667,-4.109840393,0.427074075,8.590529442,-1.875011921,-0.838419974,0.503051996,-1032.300049,-16.5,-978.9000244,2.720984103,-0.443393254,-0.052170605,ST
22.7,-3.782656193,0.179442897,8.037845612,-2.36281991,-0.754577994,0.053353999,-1027.5,-8.700000763,-978.9000244,2.730564942,-0.438759136,-0.020346665,ST
22.73333333,-4.256385326,0.040075578,9.219177246,-2.46952796,-0.785066009,0.693601966,-1013.100037,-9.900000572,-971.7000122,2.73239832,-0.431840208,-0.002377941,ST
22.76666667,-4.607495308,0.159106031,8.847132683,-2.378063917,-1.631107926,1.524399996,-1027.5,-6.900000095,-981.3000488,2.718728342,-0.473455231,-0.014045886,ST
22.8,-4.757030964,0.354698777,9.029566765,-1.981719971,-1.85214591,2.690565825,-1032.300049,-14.70000076,-983.7000122,2.696137542,-0.480659139,-0.036510794,ST
22.83333333,-4.316797733,0.223107323,8.695802689,-1.897877932,-1.653973937,3.574717999,-1034.700073,-10.5,-971.7000122,2.686890038,-0.4596731,-0.026416455,ST
22.86666667,-4.020118713,-0.437242508,8.935059547,-2.500015974,-1.135677934,3.887219906,-1029.900024,-9.300000191,-976.500061,2.700826917,-0.424195215,0.043284907,ST
22.9,-3.894508839,-0.841587186,9.249084473,-2.835383892,-1.242385983,2.355197906,-1044.300049,-3.300000191,-978.9000244,2.706740801,-0.397074523,0.090736675,ST
22.93333333,-4.055409431,-0.928317904,8.641969681,-1.951231956,-0.670735955,1.996963978,-1049.100098,-6.300000191,-971.7000122,2.703898629,-0.432562363,0.107278559,ST
22.96666667,-3.980043411,-1.297372103,8.419460297,-1.455801964,0.068598002,1.867389917,-1037.100098,-8.700000763,-983.7000122,2.713798848,-0.437260371,0.150070561,ST
23.0,-3.695925474,-1.595845461,7.601799011,-1.272873998,0.975615978,0.571649969,-1041.900024,-6.300000191,-964.500061,2.733542337,-0.445245447,0.203507952,NLL
23.03333333,-4.058400154,-1.474422455,7.46542263,-1.097568035,1.653973937,0.060975999,-1034.700073,-8.100000381,-983.7000122,2.729998751,-0.488873585,0.197698166,NLL
23.06666667,-4.48547411,-1.544405103,7.546770096,-0.823175967,2.057940006,0.160062,-1039.5,-5.100000381,-981.3000488,2.731958156,-0.527070279,0.203019343,NLL
23.1,-5.581272125,-1.604219437,8.527126312,-0.785066009,1.806414008,0.731711984,-1025.100098,-6.300000191,-971.7000122,2.72166927,-0.571002156,0.188286125,NLL
23.13333333,-5.752340794,-1.8380934,8.1754179,-1.326228023,1.196653962,1.516777992,-1017.900024,-3.300000191,-974.1000366,2.732509688,-0.601211142,0.218915963,NLL
23.16666667,-6.007748127,-1.849458098,8.317177773,-2.652456045,-0.289635986,2.911603928,-1027.5,-6.900000095,-976.500061,2.719529925,-0.613532953,0.219799185,NLL
23.2,-6.110030651,-1.876374483,8.583352089,-2.835383892,-0.960371971,3.658559799,-1027.5,-5.700000286,-988.500061,2.700999505,-0.607937762,0.215947481,NLL
23.23333333,-5.77088356,-1.721455455,7.860795021,-3.147886038,-2.042695999,5.678390026,-1029.900024,-8.700000763,-976.500061,2.673770749,-0.619953137,0.213800851,NLL
23.26666667,-5.498130322,-1.351803064,7.99896574,-3.231727839,-2.942091942,7.423827648,-1039.5,-0.900000036,-981.3000488,2.619081195,-0.595341424,0.168167905,NLL
23.3,-4.824621201,-0.983347058,6.831988811,-3.765267849,-3.40703392,9.527500153,-1039.5,2.700000048,-983.7000122,2.567661399,-0.605560682,0.140364483,NLL
23.33333333,-4.335938454,-1.062900066,6.850531578,-4.352161884,-3.292703867,10.739398,-1041.900024,9.300000191,-978.9000244,2.526968811,-0.559066897,0.148665688,NLL
23.36666667,-3.922621489,-1.189108253,8.496621132,-5.34302187,-3.391789913,11.15098572,-1037.100098,-0.900000036,-971.7000122,2.477314348,-0.436694918,0.139170056,NLL
23.4,-4.137354851,-1.122116208,9.712047577,-5.510705948,-4.245453835,10.29732132,-1049.100098,8.100000381,-971.7000122,2.425931314,-0.398592625,0.118413672,NLL
23.43333333,-2.887236118,-1.391280532,9.899864197,-4.603687763,-3.894841909,8.757678032,-1037.100098,12.30000019,-978.9000244,2.398106807,-0.287521587,0.140364288,NLL
23.46666667,-1.965497851,-1.108957052,9.551745415,-3.27745986,-3.589962006,6.394857883,-1037.100098,6.900000095,-978.9000244,2.367751021,-0.204996733,0.120533308,NLL
23.5,-2.164081335,-0.869101763,9.560118675,-1.760681987,-2.804895878,4.740883827,-1056.300049,5.700000286,-969.3000488,2.344076061,-0.216548446,0.094443535,NLL
23.53333333,-1.612593412,-0.942075193,8.841151237,-0.541162014,-1.326228023,2.378063917,-1051.5,5.100000381,-974.1000366,2.337364932,-0.181070929,0.105204131,NLL
23.56666667,-2.210138321,-0.68008858,9.586437225,-0.190549999,-0.099086002,1.280496001,-1046.700073,9.300000191,-976.500061,2.326597554,-0.221992474,0.073824453,NLL
23.6,-2.953031778,-0.418700069,9.334619522,0.655492008,0.525918007,0.861285985,-1046.700073,11.10000038,-962.1000366,2.317269593,-0.299400466,0.046077311,NLL
23.63333333,-3.109147072,-0.509019673,9.116296768,0.952749968,1.76830399,0.663114011,-1039.5,5.700000286,-986.1000366,2.318568948,-0.32871075,0.053136327,NLL
23.66666667,-3.539810181,-0.425279647,9.232934952,0.952749968,2.157026052,0.396344006,-1039.5,11.10000038,-964.500061,2.315979915,-0.365849821,0.044986569,NLL
23.7,-4.140345573,-0.40255022,9.173120499,1.280496001,2.332331896,0.205793992,-1044.300049,9.900000572,-974.1000366,2.316162577,-0.422103252,0.041841754,NLL
23.73333333,-3.905873537,-0.556871116,8.488246918,1.158543944,1.981719971,-0.175305992,-1029.900024,10.5,-966.9000244,2.326959438,-0.432830833,0.061738315,NLL
23.76666667,-3.844264984,-0.843979716,7.864383698,0.487807989,1.463423967,-0.655492008,-1032.300049,15.90000057,-971.7000122,2.347636127,-0.452890457,0.102615248,NLL
23.8,-4.418482304,-0.913364291,8.162857056,-0.350611985,1.059458017,-1.402447939,-1017.900024,5.700000286,-976.500061,2.356188372,-0.491279921,0.112434802,NLL
23.83333333,-4.770190239,-0.960617602,7.81832695,-0.464941978,0.907018006,-1.34147191,-1029.900024,8.700000763,-969.3000488,2.365448229,-0.541681134,0.123617891,NLL
23.86666667,-4.74925518,-1.083835006,8.00195694,-0.61738199,0.518296003,-1.150921941,-1049.100098,6.900000095,-962.1000366,2.374532515,-0.532929996,0.136040192,NLL
23.9,-5.353379726,-1.093405366,7.79918623,-0.739333987,-0.266770005,0.015244,-1015.500061,15.90000057,-964.500061,2.37517957,-0.590791897,0.140105594,NLL
23.93333333,-5.373716354,-1.381710291,7.985208511,-1.204275966,0.61738199,1.04421401,-1027.5,15.30000019,-969.3000488,2.386486929,-0.587264905,0.169452063,NLL
23.96666667,-4.861107826,-1.658052325,7.668192863,-0.891773999,0.960371971,1.547266006,-1037.100098,11.70000076,-962.1000366,2.402506742,-0.55922744,0.209828162,NLL
24.0,-5.148814678,-1.905085325,8.282485962,-0.40396598,0.983237982,1.783547997,-1037.100098,7.500000477,-959.7000122,2.404421235,-0.547977682,0.224015891,NLL
24.03333333,-4.40352869,-2.088715315,7.831485748,0.175305992,0.365855992,0.609759986,-1027.5,14.70000076,-969.3000488,2.419785133,-0.502321612,0.257227464,NLL
24.06666667,-5.565122128,-1.714875937,8.993678093,1.059458017,-0.068598002,-0.106707998,-1025.100098,14.70000076,-969.3000488,2.38991588,-0.542149125,0.193193057,NLL
24.1,-5.435325146,-1.729231358,8.700587273,1.417691946,-0.472563982,0.068598002,-1027.5,7.500000477,-969.3000488,2.392158326,-0.548323515,0.193513311,NLL
24.13333333,-4.810863972,-1.479805708,8.153884888,2.004585981,-0.967993975,-0.106707998,-1029.900024,7.500000477,-964.500061,2.38730213,-0.526458817,0.177540288,NLL
24.16666667,-4.196570873,-1.308736801,7.654435635,2.87349391,-1.067080021,-0.556405962,-1027.5,7.500000477,-971.7000122,2.387519482,-0.496440602,0.165842657,NLL
24.2,-4.591943741,-1.04734838,8.01391983,3.894841909,-1.318606019,-1.394825935,-1029.900024,11.10000038,-966.9000244,2.379408106,-0.512492184,0.128115851,NLL
24.23333333,-3.966285944,-1.466646552,7.862589359,4.695151806,-1.310984015,-3.40703392,-1041.900024,4.5,-966.9000244,2.418333663,-0.462230972,0.174553547,NLL
24.26666667,-3.931593657,-1.302755356,8.563014984,4.93905592,-2.591480017,-6.135709763,-1039.5,16.5,-971.7000122,2.435135914,-0.422645857,0.148611559,NLL
24.3,-3.682168245,-1.234567046,8.721522331,4.931433678,-4.603687763,-9.146399498,-1049.100098,11.10000038,-974.1000366,2.464711796,-0.389085784,0.139098278,NLL
24.33333333,-3.919631004,-0.96480459,9.780834198,4.801859856,-4.83234787,-10.36592007,-1056.300049,2.100000143,-978.9000244,2.487761136,-0.370957483,0.10051855,NLL
24.36666667,-3.257486582,-0.698630989,9.983604431,5.861317635,-3.727157831,-10.87659359,-1056.300049,3.300000191,-966.9000244,2.518179285,-0.312574175,0.06896102,NLL
24.4,-3.159989357,0.159106031,8.59950161,6.753091812,-1.105189919,-10.15250397,-1058.700073,-0.900000036,-978.9000244,2.532523024,-0.347098838,-0.016211492,NLL
24.43333333,-2.817851543,0.434849948,8.741261482,6.593029976,1.417691946,-8.147917747,-1061.100098,-6.300000191,-981.3000488,2.554363848,-0.317544826,-0.052854401,NLL
24.46666667,-2.924919128,0.57182467,8.755018234,5.160093784,1.836901903,-6.692115784,-1068.300049,-7.500000477,-974.1000366,2.576480691,-0.325003051,-0.068800124,NLL
24.5,-2.524163246,0.494066089,8.195755005,3.483253956,1.349093914,-5.907049656,-1065.900024,-8.100000381,-978.9000244,2.600872596,-0.30342162,-0.063569279,NLL
24.53333333,-3.27842164,0.592759669,8.934461594,2.271355867,1.63872993,-5.190581799,-1053.900024,-7.500000477,-978.9000244,2.620701461,-0.350916163,-0.066823371,NLL
24.56666667,-4.398743629,0.354698777,10.2300396,1.539644003,1.692083955,-3.338435888,-1061.100098,-12.90000057,-976.500061,2.645186357,-0.405077933,-0.037214983,NLL
24.6,-3.152213573,0.293090045,8.317177773,0.754577994,1.410069942,-2.698187828,-1051.5,-9.300000191,-971.7000122,2.656371439,-0.367470364,-0.034897188,NLL
24.63333333,-4.350892067,0.522776961,8.512770653,0.015244,3.079288006,-1.333850026,-1041.900024,-10.5,-974.1000366,2.65076068,-0.467281413,-0.057982041,NLL
24.66666667,-4.457959652,0.016748004,9.175513268,-0.548784018,3.826243877,-0.342989981,-1046.700073,-9.900000572,-969.3000488,2.674006548,-0.459764782,-0.00575358,NLL
24.7,-4.422668934,-0.023925718,8.506191254,-1.181409955,2.896359921,0.099086002,-1039.5,-11.70000076,-983.7000122,2.676191906,-0.482283342,0.003832258,NLL
24.73333333,-4.626636028,-0.345128506,8.097061157,-1.806414008,2.111294031,0.998481989,-1025.100098,-7.500000477,-966.9000244,2.688077405,-0.519980702,0.042240598,NLL
