seconds,sensor_accX_m_s_,sensor_accY_m_s_,sensor_accZ_m_s_,sensor_gyroX___s_,sensor_gyroY___s_,sensor_gyroZ___s_,sensor_magX__T_,sensor_magY__T_,sensor_magZ__T_,sensor_yaw___,sensor_pitch___,sensor_roll___,label5
0.0,1.55935871601105,-0.39836323261261,9.45125675201416,0.396344006061554,-0.198172003030777,0.480185985565186,-1267.5,0.300000011920929,-894.900024414062,2.74710785392312,0.163677239316355,0.0415730585532906,ST
0.0333333333333333,1.53543305397034,-0.374437510967255,9.42733097076416,0.365855991840363,-0.129574000835419,0.434453994035721,-1284.30004882812,-7.50000047683716,-882.900024414062,2.74267213582059,0.161526383972465,0.0391864598873004,ST
0.0666666666666667,1.51031100749969,-0.354698777198792,9.533203125,0.411587983369827,-0.0228659994900227,0.46494197845459,-1279.5,-8.10000038146973,-890.100036621094,2.73794754052287,0.157028854823597,0.0366026757792874,ST
0.1,1.5683308839798,-0.360680222511292,9.50808048248291,0.411587983369827,-0.0762199983000755,0.472563982009888,-1277.10009765625,-6.30000019073486,-899.700012207031,2.73258902469781,0.16345483518326,0.0373334349061431,ST
0.133333333333333,1.51270353794098,-0.364867210388184,9.43092060089111,0.320124000310898,-0.0838419944047928,0.411587983369827,-1274.70007324219,-11.1000003814697,-880.500061035156,2.72766727531322,0.159048377104455,0.0382258653704557,ST
0.166666666666667,1.47143173217773,-0.369054228067398,9.50927734375,0.228659987449646,-0.0914639979600906,0.365855991840363,-1284.30004882812,-0.900000035762787,-887.700012207031,2.72371049067191,0.153546264371996,0.038490801878369,ST
0.2,1.48339462280273,-0.361876487731934,9.52841758728027,0.236281991004944,-0.152439996600151,0.381099998950958,-1274.70007324219,1.5,-878.100036621094,2.71974283418273,0.154571551641539,0.0376540753345265,ST
0.233333333333333,1.4301598072052,-0.35410064458847,9.51226806640625,0.289635986089706,-0.198172003030777,0.388722002506256,-1267.5,-2.10000014305115,-885.300048828125,2.71548573960557,0.149454521682304,0.0368077609834556,ST
0.266666666666667,1.47860944271088,-0.37025049328804,9.41058349609375,0.266770005226135,-0.114329993724823,0.304879993200302,-1284.30004882812,-9.90000057220459,-894.900024414062,2.7113568613608,0.155905460179547,0.0389421307743925,ST
0.3,1.44630968570709,-0.296678900718689,9.5266227722168,0.236281991004944,-0.160062000155449,0.297257989645004,-1279.5,-5.70000028610229,-897.300048828125,2.70932419693769,0.150864031401499,0.0308087962577647,ST
0.333333333333333,1.51748871803284,-0.35410064458847,9.4907341003418,0.129574000835419,-0.3125019967556,0.282013982534409,-1262.70007324219,-10.5,-894.900024414062,2.70503696791026,0.158963838898252,0.0371455701353643,ST
0.366666666666667,1.48040390014648,-0.349913626909256,9.5026969909668,0.114329993724823,-0.175305992364883,0.289635986089706,-1267.5,-12.3000001907349,-899.700012207031,2.70198104826214,0.154733314997828,0.0366873451325121,ST
0.4,1.51389980316162,-0.391185492277145,9.533203125,0.182927995920181,-0.0533539988100529,0.327746003866196,-1272.30004882812,-2.10000014305115,-894.900024414062,2.69787727702201,0.157424298532524,0.0407785159990185,ST
0.433333333333333,1.48040390014648,-0.418101936578751,9.473388671875,0.152439996600151,-0.0914639979600906,0.266770005226135,-1279.5,-6.30000019073486,-897.300048828125,2.69454249280458,0.155009376805197,0.043910011344081,ST
0.466666666666667,1.43434679508209,-0.368456065654755,9.56191349029541,0.205793991684914,-0.190549999475479,0.259148001670837,-1274.70007324219,2.10000014305115,-892.500061035156,2.69252191696425,0.149108812519083,0.0382315994281587,ST
0.5,1.44870233535767,-0.334361910820007,9.50508975982666,0.335367977619171,-0.167683988809586,0.3125019967556,-1286.70007324219,-9.30000019073486,-885.300048828125,2.68937304962443,0.151428851210394,0.0346651073593179,ST
0.533333333333333,1.4600670337677,-0.311034351587296,9.47996807098389,0.320124000310898,-0.182927995920181,0.419209986925125,-1277.10009765625,-7.50000047683716,-897.300048828125,2.68513351480133,0.153028016801563,0.0323560941202733,ST
0.566666666666667,1.46365582942963,-0.28112718462944,9.48056602478027,0.274392008781433,-0.198172003030777,0.495429992675781,-1281.90002441406,-3.30000019073486,-887.700012207031,2.68033972509852,0.15342920619185,0.0293040177701144,ST
0.6,1.47502052783966,-0.312828779220581,9.48116397857666,0.221037998795509,-0.198172003030777,0.510673999786377,-1281.90002441406,-9.30000019073486,-890.100036621094,2.67448089579064,0.154569236295186,0.0327337849183648,ST
0.633333333333333,1.45588004589081,-0.30624920129776,9.50688457489014,0.228659987449646,-0.205793991684914,0.480185985565186,-1274.70007324219,-8.10000038146973,-906.900024414062,2.66955403378838,0.152216242887142,0.0319343586491605,ST
0.666666666666667,1.52526462078094,-0.364867210388184,9.46680927276611,0.167683988809586,-0.25152599811554,0.365855991840363,-1279.5,-11.1000003814697,-892.500061035156,2.66467497564252,0.160033350181697,0.0383285939081996,ST
0.7,1.50373148918152,-0.37623193860054,9.4853515625,0.0990860015153885,-0.228659987449646,0.25152599811554,-1277.10009765625,-3.30000019073486,-892.500061035156,2.66181340599389,0.157486282684221,0.0395416410429474,ST
0.733333333333333,1.41101932525635,-0.342137783765793,9.48176193237305,0.137196004390717,-0.198172003030777,0.175305992364883,-1279.5,-0.300000011920929,-890.100036621094,2.66040396686102,0.147980376739641,0.0358801865253381,ST
0.766666666666667,1.42178583145142,-0.337352633476257,9.48355674743652,0.121951997280121,-0.266770005226135,0.25152599811554,-1277.10009765625,6.90000009536743,-885.300048828125,2.6577701619764,0.149168608937953,0.0354134656788159,ST
0.8,1.46844100952148,-0.401952087879181,9.51765060424805,0.0990860015153885,-0.282013982534409,0.37347799539566,-1274.70007324219,-1.5,-887.700012207031,2.6527694451639,0.153405557681154,0.0421323925116602,ST
0.833333333333333,1.42597281932831,-0.37324121594429,9.51047325134277,0.190549999475479,-0.282013982534409,0.365855991840363,-1274.70007324219,-3.90000009536743,-894.900024414062,2.64931637605244,0.149187222635307,0.0389948713703859,ST
0.866666666666667,1.50373148918152,-0.392979919910431,9.42254638671875,0.266770005226135,-0.213415995240211,0.365855991840363,-1262.70007324219,-9.90000057220459,-892.500061035156,2.64493257523801,0.158454540535065,0.0413183773083925,ST
0.9,1.42716908454895,-0.359483927488327,9.53439903259277,0.297257989645004,-0.190549999475479,0.335367977619171,-1277.10009765625,1.5,-892.500061035156,2.64180271808992,0.148800398975427,0.0372613170356211,ST
0.933333333333333,1.52047944068909,-0.418101936578751,9.50209903717041,0.0304879993200302,-0.335367977619171,0.121951997280121,-1279.5,-6.90000009536743,-894.900024414062,2.63941334274336,0.159083232857149,0.0439502463595462,ST
0.966666666666667,1.52765715122223,-0.449803501367569,9.521240234375,-0.0457319989800453,-0.297257989645004,0.0762199983000755,-1277.10009765625,-6.30000019073486,-894.900024414062,2.63803284253716,0.159428805585816,0.0473099154230526,ST
1.0,1.52047944068909,-0.453990519046783,9.46262168884277,0.0609759986400604,-0.236281991004944,0.0990860015153885,-1277.10009765625,-5.70000028610229,-885.300048828125,2.63678409885841,0.159544379129733,0.0478644229958529,ST
1.03333333333333,1.45707631111145,-0.470140367746353,9.49193096160889,0.213415995240211,-0.0838419944047928,0.167683988809586,-1279.5,-4.5,-904.500061035156,2.63436283927728,0.152268815920008,0.0491630760057828,ST
1.06666666666667,1.4421226978302,-0.419896364212036,9.47996807098389,0.243903994560242,-0.0838419944047928,0.25152599811554,-1284.30004882812,-5.10000038146973,-894.900024414062,2.63232760560108,0.150948469248628,0.0439118926258765,ST
1.1,1.41101932525635,-0.402550220489502,9.47996807098389,0.190549999475479,-0.160062000155449,0.289635986089706,-1281.90002441406,-9.30000019073486,-894.900024414062,2.62944080901394,0.147887500627262,0.0421841072940339,ST
1.13333333333333,1.40922486782074,-0.465953379869461,9.51406192779541,0.198172003030777,-0.190549999475479,0.388722002506256,-1279.5,-2.10000014305115,-882.900024414062,2.62435176952331,0.147177488588091,0.0486859381605654,ST
1.16666666666667,1.43075799942017,-0.419298231601715,9.4913330078125,0.236281991004944,-0.190549999475479,0.37347799539566,-1277.10009765625,-1.5,-899.700012207031,2.62102914709671,0.14977430401504,0.043841689278317,ST
1.2,1.52167570590973,-0.382213354110718,9.49432373046875,0.297257989645004,-0.259148001670837,0.37347799539566,-1274.70007324219,-9.90000057220459,-892.500061035156,2.61747980553746,0.159209680405692,0.0398283855203755,ST
1.23333333333333,1.46066510677338,-0.401353925466537,9.53499698638916,0.297257989645004,-0.236281991004944,0.342989981174469,-1267.5,-12.3000001907349,-899.700012207031,2.61322620145903,0.152268816105021,0.0416419923767166,ST
1.26666666666667,1.49176859855652,-0.383409649133682,9.449462890625,0.152439996600151,-0.190549999475479,0.365855991840363,-1281.90002441406,-8.10000038146973,-878.100036621094,2.60922690111817,0.156753471903303,0.0403900415850333,ST
1.3,1.51449799537659,-0.43724250793457,9.45484638214111,0.0914639979600906,-0.160062000155449,0.335367977619171,-1279.5,-0.300000011920929,-887.700012207031,2.60476739153209,0.158916395639066,0.0461436104747515,ST
1.33333333333333,1.49715185165405,-0.536534249782562,9.50209903717041,0.0838419944047928,-0.152439996600151,0.167683988809586,-1286.70007324219,-10.5,-892.500061035156,2.60134616857626,0.156282986916686,0.0562957770535657,ST
1.36666666666667,1.40384149551392,-0.545506417751312,9.41536808013916,0.114329993724823,-0.137196004390717,0.106707997620106,-1269.90002441406,-8.10000038146973,-899.700012207031,2.59985864964388,0.148003957401504,0.0577018820517431,ST
1.4,1.36316788196564,-0.516795516014099,9.46561241149902,0.160062000155449,-0.0609759986400604,0.198172003030777,-1274.70007324219,-4.5,-904.500061035156,2.59817465519849,0.142912558083174,0.0543179276062017,ST
1.43333333333333,1.42896354198456,-0.558067381381989,9.55593204498291,0.25152599811554,-0.243903994560242,0.259148001670837,-1279.5,-5.10000038146973,-890.100036621094,2.59464215624045,0.14858064803905,0.0579620877581946,ST
1.46666666666667,1.47442245483398,-0.547300815582275,9.46561241149902,0.3125019967556,-0.297257989645004,0.25152599811554,-1286.70007324219,-13.5000009536743,-887.700012207031,2.59168144705626,0.154756864123803,0.0572839458375881,ST
1.5,1.47502052783966,-0.541917502880096,9.55772686004639,0.37347799539566,-0.282013982534409,0.3125019967556,-1274.70007324219,-9.30000019073486,-887.700012207031,2.58813462421754,0.153340275973532,0.0560767345823383,ST
1.53333333333333,1.39546751976013,-0.446812808513641,9.41417217254639,0.426831990480423,-0.190549999475479,0.381099998950958,-1267.5,-7.50000047683716,-885.300048828125,2.58499907389117,0.147302101763991,0.0467900584866548,ST
1.56666666666667,1.48459088802338,-0.506028950214386,9.43869590759277,0.46494197845459,-0.190549999475479,0.457319974899292,-1277.10009765625,-3.90000009536743,-887.700012207031,2.57886534602219,0.156069752584223,0.0528708215684476,ST
1.6,1.38470101356506,-0.494066089391708,9.46202373504639,0.304879993200302,-0.190549999475479,0.495429992675781,-1291.5,-6.30000019073486,-892.500061035156,2.57370519542634,0.145415756362525,0.051766492469098,ST
1.63333333333333,1.38649535179138,-0.528758406639099,9.72879505157471,0.121951997280121,-0.3125019967556,0.548784017562866,-1257.90002441406,-5.10000038146973,-894.900024414062,2.56770995123841,0.141852160454742,0.0542216891916798,ST
1.66666666666667,1.35299944877625,-0.494066089391708,9.19166278839111,0.0762199983000755,-0.0304879993200302,0.480185985565186,-1279.5,-6.30000019073486,-904.500061035156,2.56301657618755,0.14594495675551,0.0536908261815012,ST
1.7,1.21363210678101,-0.744089841842651,9.43271446228027,-0.0,0.449698001146317,0.228659987449646,-1267.5,-7.50000047683716,-897.300048828125,2.55749274169923,0.126760711026841,0.078754105472452,ST
1.73333333333333,1.10596632957458,-0.911569893360138,9.88311672210693,-0.236281991004944,0.0076219998300075,-0.304879993200302,-1269.90002441406,-4.5,-899.700012207031,2.55910763143802,0.111026982066806,0.0923129725893026,ST
1.76666666666667,0.913962483406067,-0.704014301300049,9.49492168426514,-0.0457319989800453,-0.365855991840363,-0.426831990480423,-1281.90002441406,-8.70000076293945,-892.500061035156,2.56491440436235,0.096409467460638,0.0740436053036178,ST
1.8,0.83560574054718,-0.78177285194397,9.11868953704834,0.0457319989800453,0.0152439996600151,0.144817993044853,-1289.10009765625,-6.30000019073486,-892.500061035156,2.56241081922149,0.0910071666897794,0.0854542542196927,ST
1.83333333333333,0.543711960315704,-0.359483927488327,9.77963733673096,0.175305992364883,-0.25152599811554,0.693601965904236,-1277.10009765625,-7.50000047683716,-885.300048828125,2.55817028061278,0.0559096866761012,0.0365235995808361,ST
1.86666666666667,0.831418752670288,-0.389989227056503,9.1689338684082,0.716467976570129,-0.922261953353882,1.51677799224854,-1281.90002441406,-2.70000004768372,-894.900024414062,2.54205157461211,0.0918081236998918,0.0415011022578116,ST
1.9,0.850559294223785,-0.594554126262665,8.82799243927002,0.548784017562866,-0.602137982845306,1.04421401023865,-1279.5,-5.10000038146973,-894.900024414062,2.52866559342912,0.0967583056470031,0.0664450362877451,ST
1.93333333333333,0.813474416732788,-0.43425178527832,9.97164154052734,0.640248000621796,-0.556405961513519,0.548784017562866,-1269.90002441406,-15.3000001907349,-894.900024414062,2.52467200700486,0.0822672036279633,0.0425126648084249,ST
1.96666666666667,1.31232571601868,-0.138171032071114,9.97523021697998,1.08232402801514,-2.12653803825378,0.121951997280121,-1286.70007324219,-8.10000038146973,-892.500061035156,2.52510168587065,0.134445962402144,0.0120309866372155,ST
2.0,1.73820352554321,-0.104076877236366,9.25506591796875,1.265251994133,-2.18751406669617,0.0152439996600151,-1289.10009765625,-2.10000014305115,-890.100036621094,2.52301986937118,0.189394122315568,0.00905306851717,ST
2.03333333333333,1.77528834342957,-0.239855334162712,9.29753398895264,0.685979962348938,-1.44055795669556,-0.152439996600151,-1279.5,-2.70000004768372,-887.700012207031,2.51998054815323,0.19112783467577,0.0245387003185728,ST
2.06666666666667,1.80160665512085,0.01914057508111,10.051194190979,0.556405961513519,-0.914639949798584,0.0304879993200302,-1291.5,-3.30000019073486,-892.500061035156,2.5237247940037,0.178969385183268,-0.0028361108210966,ST
2.1,2.0911078453064,-0.179442897439003,10.1875715255737,0.663114011287689,-1.2347639799118,0.0914639979600906,-1284.30004882812,-3.90000009536743,-882.900024414062,2.51750175236594,0.204557548434778,0.0164858075341107,ST
2.13333333333333,1.91166496276855,-0.0807493031024933,9.40400409698486,0.670735955238342,-0.914639949798584,-0.0533539988100529,-1279.5,-5.70000028610229,-885.300048828125,2.51836785053335,0.202140509767746,0.0074041577050741,ST
2.16666666666667,1.7405960559845,-0.0311034340411425,8.99128532409668,0.579271972179413,-0.167683988809586,0.152439996600151,-1303.5,-7.50000047683716,-880.500061035156,2.51676556731855,0.191524375807521,0.0025054830060946,ST
2.2,1.67001521587372,-0.0358885787427425,9.37828350067139,0.3125019967556,-0.0228659994900227,0.571649968624115,-1284.30004882812,-9.30000019073486,-882.900024414062,2.5101714519776,0.176270652742656,0.003458532960384,ST
2.23333333333333,1.74956822395325,0.0837400183081627,9.93754768371582,0.411587983369827,-0.442075997591019,0.92988395690918,-1269.90002441406,-8.10000038146973,-880.500061035156,2.50151578236457,0.175050654537659,-0.0088541402174672,ST
2.26666666666667,1.89551508426666,0.0275145769119263,9.02478122711182,0.670735955238342,-0.586893975734711,1.41006994247437,-1279.5,-3.90000009536743,-890.100036621094,2.48481436627156,0.208035946095058,-0.0037045142829566,ST
2.3,1.73521280288696,-0.0843381583690643,8.92788219451904,0.304879993200302,0.25152599811554,1.32622802257538,-1286.70007324219,-15.9000005722046,-887.700012207031,2.46811553026512,0.191507536409576,0.0093537633705073,ST
2.33333333333333,1.58926582336426,-0.278136491775513,9.05050086975098,-0.0304879993200302,-0.0457319989800453,0.708845973014832,-1284.30004882812,-6.90000009536743,-897.300048828125,2.45677948742169,0.17379772117273,0.0309818511443449,ST
2.36666666666667,1.63053774833679,-0.445616513490677,8.57437992095947,-0.495429992675781,-1.06708002090454,-0.106707997620106,-1293.90002441406,-9.90000057220459,-878.100036621094,2.45439580330496,0.189534514799728,0.052760470688498,ST
2.4,1.28361487388611,-0.488682806491852,8.62163257598877,-0.823175966739655,-1.13567793369293,-0.213415995240211,-1289.10009765625,-9.90000057220459,-882.900024414062,2.45620147831075,0.14960866294694,0.0580120814771799,ST
2.43333333333333,0.607713282108307,-0.551487803459167,10.030858039856,-0.967993974685669,-1.19665396213531,0.175305992364883,-1298.70007324219,-6.30000019073486,-887.700012207031,2.4545516938398,0.0625315844664286,0.0566404567049081,ST
2.46666666666667,0.673509001731873,-0.701023578643799,10.0141096115112,-1.05183601379395,-0.967993974685669,0.548784017562866,-1301.10009765625,-5.10000038146973,-885.300048828125,2.44825296949168,0.0686013739133832,0.071782331996008,ST
2.5,0.973178625106812,-0.680686712265015,10.4758758544922,-0.754577994346619,-0.586893975734711,0.327746003866196,-1291.5,-9.90000057220459,-885.300048828125,2.44578209854013,0.093394286601268,0.0662680755507832,ST
2.53333333333333,0.767417430877686,-0.148339450359344,10.186972618103,-0.228659987449646,-0.884151995182037,0.243903994560242,-1286.70007324219,-12.9000005722046,-887.700012207031,2.44772498245389,0.0767382065374635,0.0150508367602337,ST
2.56666666666667,1.28481113910675,-0.053234726190567,10.0685405731201,0.0533539988100529,-1.12043392658234,0.960371971130371,-1301.10009765625,-3.90000009536743,-885.300048828125,2.43923610510153,0.128807497732073,0.0054225173505866,ST
2.6,1.96250712871552,-0.250621914863586,9.37050819396973,-0.190549999475479,-1.85214591026306,0.266770005226135,-1298.70007324219,-2.10000014305115,-878.100036621094,2.43263491236494,0.20956619315418,0.027180695330255,ST
2.63333333333333,1.98344206809998,-0.346922934055328,9.32026386260986,-0.152439996600151,-1.64635193347931,-0.236281991004944,-1298.70007324219,-5.70000028610229,-890.100036621094,2.4326886171679,0.212426132204367,0.0374003033752219,ST
2.66666666666667,1.99002170562744,-0.611302137374878,9.80057239532471,-0.144817993044853,-1.10518991947174,-0.708845973014832,-1310.70007324219,-6.90000009536743,-885.300048828125,2.43402715912919,0.201963385401425,0.0622903596739149,ST
2.7,1.49236667156219,-0.348717361688614,9.43630313873291,0.0990860015153885,-0.434453994035721,-1.21189796924591,-1296.30004882812,-2.10000014305115,-880.500061035156,2.45035436417648,0.157620479950493,0.0364549871546484,ST
2.73333333333333,1.04914271831512,-0.241051614284515,9.7180290222168,0.137196004390717,0.510673999786377,-0.670735955238342,-1298.70007324219,-9.30000019073486,-882.900024414062,2.45843509947834,0.106703117047485,0.0244450701084483,ST
2.76666666666667,0.726743698120117,0.175854027271271,9.73716926574707,0.335367977619171,0.350611984729767,0.0838419944047928,-1305.90002441406,-6.90000009536743,-875.700012207031,2.46119932623664,0.0739130206550555,-0.0185842677720408,ST
2.8,0.945664048194885,0.218920320272446,9.17611122131348,0.297257989645004,0.655492007732391,0.830797970294952,-1286.70007324219,-4.5,-899.700012207031,2.45290943664721,0.101533312382504,-0.0242168960695737,ST
2.83333333333333,1.33684957027435,-0.331969350576401,9.70128059387207,-0.137196004390717,0.37347799539566,0.914639949798584,-1289.10009765625,-3.30000019073486,-894.900024414062,2.43653223681191,0.136136029485371,0.0346304999863016,ST
2.86666666666667,1.33326065540314,-0.86491471529007,10.2372169494629,-0.647870004177094,-0.144817993044853,0.221037998795509,-1301.10009765625,-5.70000028610229,-887.700012207031,2.42838875654801,0.129279945203918,0.0854145122871301,ST
2.9,1.82613050937653,-0.973776757717133,11.8779230117798,-0.937505960464478,-1.28049600124359,-0.830797970294952,-1296.30004882812,-8.10000038146973,-890.100036621094,2.43730065212009,0.15437129521679,0.0832410427980732,ST
2.93333333333333,2.33515024185181,-0.250023752450943,9.45963096618652,0.365855991840363,-1.80641400814056,-0.571649968624115,-1308.30004882812,-5.10000038146973,-882.900024414062,2.45276585084034,0.245012286253868,0.0256232774790253,ST
2.96666666666667,1.82553231716156,-0.0980954468250275,9.11988544464111,1.46342396736145,0.243903994560242,1.20427596569061,-1274.70007324219,-5.10000038146973,-882.900024414062,2.44205052740755,0.197157465352654,0.0086401145706806,ST
3.0,1.55696618556976,-0.508421540260315,10.3562469482422,1.57775402069092,1.10518991947174,2.34757590293884,-1296.30004882812,-9.30000019073486,-878.100036621094,2.4108404873028,0.14698467340526,0.0468519096234155,ST
3.03333333333333,1.64788389205933,-0.656760990619659,9.40639591217041,1.58537602424622,0.762199997901917,1.6615959405899,-1291.5,-8.10000038146973,-890.100036621094,2.38945339958165,0.171466135382336,0.0674019382905807,ST
3.06666666666667,1.42118775844574,-0.785361707210541,8.12876319885254,1.86738991737366,2.30946588516235,0.861285984516144,-1308.30004882812,-10.5,-887.700012207031,2.37571069570875,0.168150246093849,0.0932166651080242,ST
3.1,0.20755560696125,-0.697434723377228,8.17781066894531,2.0655620098114,5.73174381256104,0.983237981796265,-1293.90002441406,-4.5,-878.100036621094,2.37102419729117,0.015341963966106,0.0815002495430211,ST
3.13333333333333,-1.18312680721283,-0.665733098983765,9.14740085601807,2.13416004180908,6.57778596878052,1.94360995292664,-1267.5,-2.10000014305115,-890.100036621094,2.35822050859581,-0.139806186066091,0.0685835579646139,ST
3.16666666666667,-1.09101283550262,-0.865512907505035,10.7253017425537,1.37958192825317,4.69515180587769,2.73629784584045,-1289.10009765625,-6.90000009536743,-890.100036621094,2.33782529628659,-0.109622177943342,0.0776535026644487,ST
3.2,-0.177050322294235,-1.01145970821381,9.94233226776123,0.487807989120483,1.52439999580383,2.86587190628052,-1277.10009765625,-12.3000001907349,-899.700012207031,2.31300201571433,-0.0209600629617734,0.100405398589351,ST
3.23333333333333,0.202770471572876,-0.83859646320343,9.34418964385986,0.327746003866196,0.518296003341675,2.46952795982361,-1269.90002441406,-8.70000076293945,-904.500061035156,2.28933443804956,0.0202798345997543,0.0890299323460114,ST
3.26666666666667,0.312230616807938,-0.565843224525452,9.44228458404541,0.388722002506256,0.868907988071442,2.9192259311676,-1272.30004882812,-11.1000003814697,-887.700012207031,2.26201601583404,0.031166772100347,0.05936438607308,ST
3.3,0.486290246248245,-0.635825991630554,9.30052471160889,0.236281991004944,1.2423859834671,3.23172783851624,-1260.30004882812,-7.50000047683716,-897.300048828125,2.23081409854298,0.0495502050492286,0.068107038079009,ST
3.33333333333333,0.549095273017883,-0.658555388450623,8.704176902771,-0.221037998795509,0.967993974685669,2.83538389205933,-1265.10009765625,-2.70000004768372,-906.900024414062,2.20355710657417,0.0607482696929149,0.0761845016276129,ST
3.36666666666667,0.521580696105957,-0.999496877193451,9.5385856628418,-0.602137982845306,0.861285984516144,2.37806391716003,-1260.30004882812,-8.70000076293945,-904.500061035156,2.17858289977836,0.0524035136431484,0.105643471796632,ST
3.4,0.809287428855896,-1.04495573043823,8.96616268157959,-0.297257989645004,0.236281991004944,1.76830399036407,-1262.70007324219,-3.30000019073486,-899.700012207031,2.16115509329021,0.0886053796781459,0.116794611691821,ST
3.43333333333333,0.760239720344543,-1.40264523029327,9.08758640289307,-0.0609759986400604,1.14329993724823,1.49391198158264,-1250.70007324219,-1.5,-909.300048828125,2.14532788844705,0.0801299994113557,0.153387543425857,ST
3.46666666666667,0.268566191196442,-0.981552600860596,10.1038312911987,0.228659987449646,0.426831990480423,1.12805593013763,-1267.5,-5.70000028610229,-909.300048828125,2.13739911178669,0.025564665388132,0.0965410615432758,ST
3.5,0.560459971427917,-0.748875021934509,10.3694067001343,0.228659987449646,-0.0228659994900227,2.22562384605408,-1250.70007324219,-0.900000035762787,-904.500061035156,2.11455337031305,0.0536029554226203,0.0719153556865011,ST
3.53333333333333,0.457579374313354,-0.198583468794823,9.80475997924805,0.846041977405548,-0.0152439996600151,1.71494996547699,-1269.90002441406,-3.30000019073486,-911.700012207031,2.09847703360419,0.0465985627431689,0.0189408346244592,ST
3.56666666666667,0.177050322294235,-0.604124426841736,7.99238634109497,1.00610399246216,2.57623600959778,1.2500079870224,-1257.90002441406,-2.70000004768372,-918.900024414062,2.08589901716537,0.0174740946372144,0.0736601121143538,ST
3.6,-0.331969350576401,-0.610105812549591,10.9137163162231,0.647870004177094,2.56099200248718,0.236281991004944,-1257.90002441406,-6.30000019073486,-918.900024414062,2.08504314102621,-0.0347887779675725,0.054729162109301,ST
3.63333333333333,-0.353502482175827,0.0364867225289345,9.89328479766846,1.42531394958496,0.403965979814529,0.160062000155449,-1260.30004882812,-3.30000019073486,-902.100036621094,2.08179953941385,-0.0364183068504914,-0.0061337998122839,ST
3.66666666666667,0.30923992395401,-0.640012979507446,8.04502296447754,1.92836594581604,1.39482593536377,0.92988395690918,-1253.10009765625,-0.300000011920929,-909.300048828125,2.07314848438369,0.0356696253750715,0.0759800041778797,ST
3.7,0.0873288735747337,-1.00069320201874,8.88720798492432,1.22714197635651,2.30184388160706,0.480185985565186,-1253.10009765625,-8.70000076293945,-906.900024414062,2.06997467854246,0.0057124241753329,0.109949952980239,ST
3.73333333333333,-0.428868502378464,-0.789548695087433,8.9117317199707,1.07470202445984,2.74391984939575,0.449698001146317,-1248.30004882812,-3.30000019073486,-914.100036621094,2.06787137231927,-0.0526887145784756,0.0864914064602466,ST
3.76666666666667,-0.685471832752228,-1.3338588476181,9.45604228973389,0.83841997385025,3.17837381362915,1.05183601379395,-1255.5,-7.50000047683716,-909.300048828125,2.06566935645848,-0.0773770686688476,0.13853261170042,ST
3.8,-1.722651720047,-1.63891172409058,10.9854936599731,0.396344006061554,2.98020195960999,1.03659200668335,-1245.90002441406,-8.10000038146973,-914.100036621094,2.06150726424964,-0.159189167482906,0.147231482253443,ST
3.83333333333333,-2.9141526222229,0.789548695087433,12.9390287399292,2.40092992782593,2.24086785316467,1.28811800479889,-1231.5,-3.30000019073486,-916.500061035156,2.01277929163203,-0.224820897147567,-0.0654631298721703,ST
3.86666666666667,-0.0352904349565506,-0.126208171248436,7.85002851486206,2.17227005958557,0.25152599811554,2.69818782806396,-1233.90002441406,-4.5,-923.700012207031,1.99547676740678,-0.0051781417133628,0.0121880065766882,ST
3.9,0.904392182826996,-0.0149535741657019,9.16474628448486,0.777444005012512,-0.846041977405548,1.265251994133,-1229.10009765625,-9.90000057220459,-916.500061035156,1.98264368746976,0.0997485562137526,0.0005045258893168,ST
3.93333333333333,-0.072973445057869,1.79383075237274,10.8676595687866,2.32470989227295,-1.02897000312805,1.63872992992401,-1241.10009765625,-6.90000009536743,-916.500061035156,1.97585341085873,-0.0042644529588202,-0.167466458686806,ST
3.96666666666667,1.2118376493454,1.45528185367584,8.19455909729004,2.43903994560242,1.01372599601746,3.85673189163208,-1238.70007324219,-13.5000009536743,-914.100036621094,1.93259559193256,0.143948346459707,-0.17900805458201,ST
4.0,-0.385204076766968,1.41520631313324,9.3358154296875,1.12043392658234,1.63872992992401,3.353679895401,-1229.10009765625,-12.9000005722046,-911.700012207031,1.89431239178581,-0.0425850307587646,-0.152675298385778,ST
4.03333333333333,-0.506627082824707,1.09519982337952,8.3991231918335,-0.457319974899292,1.73781597614288,2.64483404159546,-1241.10009765625,-3.30000019073486,-914.100036621094,1.86568487310586,-0.0621412381119479,-0.129188730697913,ST
4.06666666666667,-1.0216281414032,0.650181412696838,9.30052471160889,-0.868907988071442,2.5152599811554,1.91312193870544,-1231.5,-6.90000009536743,-916.500061035156,1.84957415275996,-0.113235676087381,-0.0687570628512223,ST
4.1,-1.81117689609528,0.69564026594162,10.6505336761475,-0.602137982845306,1.91312193870544,1.12805593013763,-1231.5,-1.5,-926.100036621094,1.83713865387755,-0.171233118130294,-0.064552498205511,ST
4.13333333333333,-1.39187872409821,0.899607002735138,9.67257022857666,-0.830797970294952,1.47104597091675,0.922261953353882,-1217.10009765625,-4.5,-928.500061035156,1.8212031155256,-0.14474531752405,-0.0915348029424299,ST
4.16666666666667,-0.728538155555725,0.412120521068573,9.75272083282471,-0.975615978240967,0.983237981796265,0.952749967575073,-1207.5,-7.50000047683716,-926.100036621094,1.81620959139757,-0.0762184677687484,-0.0407182866696234,ST
4.2,-0.251220047473907,0.144152462482452,10.6463470458984,-1.37195992469788,-0.632625997066498,0.259148001670837,-1205.10009765625,-6.90000009536743,-909.300048828125,1.81446784123096,-0.0225020334455456,-0.0111661115451804,ST
4.23333333333333,0.378624498844147,-0.362474650144577,8.85191822052002,-0.967993974685669,-0.685979962348938,-0.495429992675781,-1224.30004882812,-11.7000007629395,-909.300048828125,1.81927283888997,0.0439104363857252,0.0425524034173621,ST
4.26666666666667,-0.519188106060028,-0.493467956781387,8.52353763580322,-0.846041977405548,1.11281192302704,-1.15854394435883,-1219.5,-10.5,-923.700012207031,1.83099622420184,-0.0624367601821283,0.059419658219694,ST
4.3,-1.7286331653595,-0.118432305753231,9.16534519195557,-0.129574000835419,2.67532205581665,-0.975615978240967,-1221.90002441406,-8.10000038146973,-906.900024414062,1.834953638911,-0.19090318096702,0.0135381395652438,ST
4.33333333333333,-2.69283962249756,0.134582161903381,9.51226806640625,1.29574000835419,2.97257995605469,-0.236281991004944,-1214.70007324219,-12.3000001907349,-923.700012207031,1.83386550692998,-0.281006333199764,-0.0162994557689551,ST
4.36666666666667,-2.67130661010742,0.192003890872002,9.38905048370361,1.01372599601746,1.93598794937134,0.0,-1207.5,-5.10000038146973,-926.100036621094,1.83479732468187,-0.280512409728568,-0.022233103723222,ST
4.4,-2.51519107818604,0.479112505912781,9.64445686340332,0.525918006896973,1.29574000835419,0.198172003030777,-1195.5,-7.50000047683716,-926.100036621094,1.82611140089669,-0.257069815299573,-0.0506507916061964,ST
4.43333333333333,-2.17245531082153,0.536534249782562,9.50927734375,0.548784017562866,0.708845973014832,0.144817993044853,-1205.10009765625,-9.30000019073486,-938.100036621094,1.82397533809696,-0.225512699858884,-0.0573867731196055,ST
4.46666666666667,-2.07854676246643,0.507823407649994,9.0014533996582,-0.0,0.937505960464478,0.221037998795509,-1200.30004882812,-8.70000076293945,-909.300048828125,1.82141272863485,-0.228196767752141,-0.0564674304874106,ST
4.5,-2.06598591804504,0.563450694084167,9.91601371765137,0.0685980021953583,0.823175966739655,0.3125019967556,-1193.10009765625,-0.300000011920929,-923.700012207031,1.81769957998092,-0.20650255975185,-0.0570119152144929,ST
4.53333333333333,-1.79442894458771,0.588572680950165,9.67257022857666,0.259148001670837,-0.411587983369827,0.0533539988100529,-1181.10009765625,-5.70000028610229,-921.300048828125,1.81708229997261,-0.182404712968629,-0.0612314862802546,ST
4.56666666666667,-1.69214642047882,0.616087257862091,9.39263916015625,0.297257989645004,-0.907018005847931,-0.510673999786377,-1190.70007324219,-12.3000001907349,-921.300048828125,1.8222533709018,-0.176356164329167,-0.0658354385961831,ST
4.6,-1.79801774024963,0.730332553386688,9.54636192321777,0.243903994560242,-0.846041977405548,-1.35671591758728,-1190.70007324219,-3.30000019073486,-926.100036621094,1.83443904694314,-0.184334059603617,-0.0763079675647062,ST
4.63333333333333,-1.6903520822525,0.702817976474762,9.36273193359375,-0.114329993724823,-0.914639949798584,-2.21800184249878,-1188.30004882812,-4.5,-923.700012207031,1.85661507383998,-0.17682848093743,-0.074016398664319,ST
4.66666666666667,-2.24303603172302,0.902597725391388,8.86029148101807,-0.106707997620106,-0.541162014007568,-2.90398192405701,-1200.30004882812,-8.10000038146973,-933.300048828125,1.87893223658989,-0.246209854924225,-0.100015337287366,ST
4.7,-2.19339036941528,0.260192185640335,9.00324821472168,-0.640248000621796,0.221037998795509,-3.26221585273743,-1205.10009765625,-7.50000047683716,-935.700012207031,1.92602030933578,-0.239418880640853,-0.0264687187942109,ST
4.73333333333333,-2.52595782279968,-0.111852735280991,9.60916709899902,-1.08232402801514,0.0762199983000755,-3.89484190940857,-1193.10009765625,-4.5,-921.300048828125,1.97154887672956,-0.25705420965736,0.0152795329363348,ST
4.76666666666667,-2.96260213851929,-0.0209350045770407,9.80715179443359,-0.289635986089706,0.342989981174469,-3.91008591651917,-1209.90002441406,-6.30000019073486,-928.500061035156,2.00459471660755,-0.29389400517691,0.0047164493002961,ST
4.8,-2.73650407791138,-0.235070183873177,9.40340518951416,0.792688012123108,0.114329993724823,-3.05642199516296,-1195.5,-0.300000011920929,-921.300048828125,2.04130909302486,-0.283184530769296,0.0251412039403031,ST
4.83333333333333,-2.86689925193787,0.0221312902867794,9.72101974487305,1.2576299905777,-0.396344006061554,-2.16464805603027,-1205.10009765625,-3.90000009536743,-926.100036621094,2.05710751059548,-0.286103470447072,-0.003328087750185,ST
4.86666666666667,-2.65695118904114,0.241649761795998,9.85081672668457,1.01372599601746,-1.30336201190948,-0.99848198890686,-1190.70007324219,-12.9000005722046,-933.300048828125,2.06334143650897,-0.261172520415924,-0.0257895903219109,ST
4.9,-2.00258255004883,-0.0053832866251468,9.15816688537598,0.518296003341675,-2.26373386383057,0.0076219998300075,-1195.5,-8.10000038146973,-923.700012207031,2.07043931625217,-0.211382105968324,-0.0003478950897563,ST
4.93333333333333,-1.57849931716919,-0.137572884559631,9.58882999420166,-0.518296003341675,-1.99696397781372,0.228659987449646,-1197.90002441406,-6.30000019073486,-926.100036621094,2.06960352062264,-0.159679941208152,0.0151724264401173,ST
4.96666666666667,-1.55397546291351,-0.226696193218231,9.0014533996582,-0.25152599811554,-1.33385002613068,0.350611984729767,-1207.5,-8.70000076293945,-918.900024414062,2.06719130556986,-0.168576380535536,0.0254926090773033,ST
5.0,-1.82194352149963,-0.504832684993744,8.98530387878418,-0.152439996600151,-0.579271972179413,0.365855991840363,-1212.30004882812,-8.10000038146973,-935.700012207031,2.06872397370593,-0.198743228641696,0.0562174555849079,ST
5.03333333333333,-2.27473783493042,-0.463560789823532,8.67068004608154,-0.129574000835419,0.442075997591019,0.594515979290009,-1207.5,-4.5,-921.300048828125,2.06236211319334,-0.256977720871369,0.0533805029329324,ST
5.06666666666667,-2.86450672149658,-0.241649761795998,9.17611122131348,0.289635986089706,1.36433792114258,1.32622802257538,-1202.70007324219,0.900000035762787,-926.100036621094,2.04264373960628,-0.304893135297049,0.0251340327704043,ST
5.1,-3.01822948455811,-0.242846041917801,9.2287483215332,0.457319974899292,1.16616594791412,1.80641400814056,-1200.30004882812,-1.5,-940.500061035156,2.02591699197969,-0.318085106388495,0.0244902730751739,ST
5.13333333333333,-2.79153323173523,0.167480036616325,9.96266937255859,0.221037998795509,-0.640248000621796,1.89025592803955,-1214.70007324219,-8.10000038146973,-930.900024414062,1.99536707396236,-0.272011136384295,-0.0180828297155473,ST
5.16666666666667,-2.28012108802795,0.278136491775513,9.79339504241943,0.266770005226135,-1.79879200458527,1.76830399036407,-1207.5,-11.1000003814697,-918.900024414062,1.97582779688605,-0.225459854085232,-0.0295386866063303,ST
5.2,-1.70530557632446,0.491673529148102,9.13125038146973,0.602137982845306,-2.28659987449646,1.63110792636871,-1209.90002441406,-2.70000004768372,-921.300048828125,1.95718564211023,-0.18027545288238,-0.0552957812956364,ST
5.23333333333333,-1.23516523838043,0.555076658725739,9.22396278381348,0.419209986925125,-1.96647596359253,1.19665396213531,-1217.10009765625,-5.10000038146973,-926.100036621094,1.94612000214573,-0.129369261168303,-0.0610769207091801,ST
5.26666666666667,-1.00488018989563,0.665733098983765,8.07851886749268,0.167683988809586,-1.21951997280121,0.655492007732391,-1202.70007324219,-12.9000005722046,-918.900024414062,1.9382127545942,-0.121133351288257,-0.0826084873302538,ST
5.3,-1.07605922222137,0.477916240692139,8.98051834106445,-0.342989981174469,0.0609759986400604,0.289635986089706,-1212.30004882812,-6.90000009536743,-916.500061035156,1.93855656786112,-0.119167829076667,-0.0526624490304637,ST
5.33333333333333,-1.03119850158691,0.267369896173477,8.68144702911377,-0.487807989120483,-0.335367977619171,-0.388722002506256,-1212.30004882812,-5.70000028610229,-923.700012207031,1.94467466108238,-0.117609097704905,-0.0298739914549467,ST
5.36666666666667,-1.17236018180847,0.14056359231472,9.42493915557861,-1.14329993724823,-0.960371971130371,-1.12043392658234,-1219.5,-5.70000028610229,-935.700012207031,1.95728581787672,-0.122086782601265,-0.0126832339012245,ST
5.4,-0.643003702163696,0.0388792939484119,9.61155986785889,-1.47104597091675,-1.60061991214752,-1.53202199935913,-1209.90002441406,-2.10000014305115,-928.500061035156,1.97270719861073,-0.0640589921333595,-0.0013141175348498,ST
5.43333333333333,-0.643601834774017,-0.326586067676544,9.64804649353027,-1.47104597091675,-1.87501192092896,-1.60824191570282,-1221.90002441406,-5.10000038146973,-918.900024414062,1.98936070134049,-0.0632003788942815,0.0365331411747906,ST
5.46666666666667,-0.573020994663239,-0.538328647613525,9.60557842254639,-1.46342396736145,-1.57013201713562,-1.81403601169586,-1221.90002441406,-9.90000057220459,-921.300048828125,2.00672122378467,-0.0565779011794602,0.0586849014948019,ST
5.5,-0.87986832857132,-0.44322395324707,9.38725566864014,-0.99848198890686,-1.03659200668335,-1.63110792636871,-1212.30004882812,-3.90000009536743,-918.900024414062,2.0205631861284,-0.0913680830814101,0.0491857406668763,ST
5.53333333333333,-0.977365612983704,-0.135180309414864,10.2461891174316,0.114329993724823,-0.365855991840363,-1.38720393180847,-1219.5,-6.90000009536743,-918.900024414062,2.03201572741512,-0.0944197967904549,0.0132396452563249,ST
5.56666666666667,-0.863120317459106,0.0610105842351913,9.79160022735596,1.08994603157043,-0.106707997620106,-1.12805593013763,-1217.10009765625,-1.5,-911.700012207031,2.0420414342242,-0.087756654773243,-0.0079362642767518,ST
5.6,-0.701023578643799,0.0328978635370731,9.52243614196777,0.937505960464478,-0.175305992364883,-1.03659200668335,-1231.5,-5.10000038146973,-921.300048828125,2.05408551842256,-0.0731955877727218,-0.0049596612774987,ST
5.63333333333333,-0.827231705188751,0.0293090064078569,10.0799055099487,0.457319974899292,-0.655492007732391,-1.05945801734924,-1219.5,-10.5,-933.300048828125,2.06491211943258,-0.0807377650520949,-0.0035576019081201,ST
5.66666666666667,-0.583787560462952,-0.0879270136356354,9.91063117980957,-0.236281991004944,-1.40244793891907,-1.10518991947174,-1221.90002441406,-6.90000009536743,-918.900024414062,2.07763849644964,-0.0563786935850337,0.0093869173315219,ST
5.7,-0.306847333908081,-0.410326063632965,9.02238845825195,-0.846041977405548,-1.49391198158264,-1.34909391403198,-1226.70007324219,-7.50000047683716,-926.100036621094,2.09158776037888,-0.0312748578433868,0.0469526990866975,ST
5.73333333333333,-0.594554126262665,-0.718369722366333,9.75272083282471,-0.967993974685669,-0.495429992675781,-1.41769194602966,-1221.90002441406,-9.90000057220459,-926.100036621094,2.10701668962322,-0.0596608729633871,0.0753439473774945,ST
5.76666666666667,-0.745884299278259,-0.727341830730438,10.2940406799316,-0.46494197845459,-0.701223969459534,-1.31098401546478,-1221.90002441406,-4.5,-911.700012207031,2.11981770902639,-0.0707623190028395,0.0715083477444073,ST
5.8,-0.391783654689789,-0.823044717311859,9.57507228851318,0.144817993044853,-1.16616594791412,-1.05183601379395,-1229.10009765625,-6.30000019073486,-921.300048828125,2.13051861414448,-0.0385807874976139,0.0855483741962706,ST
5.83333333333333,-0.653172135353088,-0.580796837806702,9.51226806640625,0.403965979814529,-0.685979962348938,-0.503051996231079,-1224.30004882812,-8.10000038146973,-911.700012207031,2.13390405513078,-0.0671518417917662,0.0603586714746605,ST
5.86666666666667,-0.964206457138062,-0.644798099994659,9.81074142456055,0.632625997066498,-0.137196004390717,0.46494197845459,-1224.30004882812,-14.7000007629395,-916.500061035156,2.13020032201808,-0.0975362642592752,0.0644400327984664,ST
5.9,-0.285314202308655,-1.08024621009827,9.67855167388916,-0.297257989645004,-1.08232402801514,0.381099998950958,-1233.90002441406,-5.70000028610229,-926.100036621094,2.12793301737247,-0.0275316773680272,0.111615835574769,ST
5.93333333333333,0.0394774377346039,-0.995309889316559,9.35316181182861,-0.701223969459534,-1.65397393703461,-0.0228659994900227,-1233.90002441406,-8.70000076293945,-916.500061035156,2.12637102881675,0.0070332209167151,0.107245814053652,ST
5.96666666666667,-0.297277063131332,-0.605320692062378,9.59899806976318,-0.221037998795509,-1.37195992469788,0.205793991684914,-1231.5,-7.50000047683716,-914.100036621094,2.12288759693806,-0.0284923376867809,0.0633973934371766,ST
6.0,-0.497056812047958,-0.583787560462952,9.79339504241943,0.381099998950958,-0.480185985565186,0.792688012123108,-1238.70007324219,-6.90000009536743,-914.100036621094,2.1148593649674,-0.0498422136952551,0.0588086602080627,ST
6.03333333333333,-0.436046212911606,-0.733323276042938,9.71683216094971,0.541162014007568,0.0076219998300075,0.983237981796265,-1243.5,-7.50000047683716,-909.300048828125,2.10624617265348,-0.0448642123790953,0.0742881257276731,ST
6.06666666666667,-0.708201289176941,-0.889438569545746,10.5285129547119,0.221037998795509,-0.205793991684914,0.518296003341675,-1250.70007324219,-3.90000009536743,-921.300048828125,2.10169980793636,-0.0666199351769941,0.0838205777416734,ST
6.1,-0.837998330593109,-0.541319370269775,9.39742469787598,0.228659987449646,-0.518296003341675,0.114329993724823,-1231.5,-9.30000019073486,-923.700012207031,2.09840296150873,-0.0878763966367248,0.0571477323419897,ST
6.13333333333333,-1.16697692871094,-0.511412262916565,9.35914325714111,0.533540010452271,0.960371971130371,0.602137982845306,-1241.10009765625,-3.30000019073486,-916.500061035156,2.09329777203657,-0.125553750460111,0.0535409143523808,ST
6.16666666666667,-0.754258275032043,-0.803904175758362,8.60189437866211,0.449698001146317,1.37195992469788,0.434453994035721,-1241.10009765625,-5.10000038146973,-938.100036621094,2.09449360155433,-0.0895521247695152,0.0923382564138819,ST
6.2,-1.1998747587204,-0.771006286144257,9.33641338348389,0.388722002506256,1.14329993724823,-0.0533539988100529,-1224.30004882812,-6.30000019073486,-926.100036621094,2.09536232826498,-0.129340970884405,0.0817555482584956,ST
6.23333333333333,-0.902597725391388,-0.643003702163696,10.1714210510254,0.0685980021953583,-0.556405961513519,-0.365855991840363,-1243.5,-2.70000004768372,-918.900024414062,2.09660477492903,-0.0873683152254405,0.0630841716551132,ST
6.26666666666667,-0.70461243391037,-0.662742435932159,9.35136699676514,0.0304879993200302,-1.49391198158264,-0.175305992364883,-1241.10009765625,-8.70000076293945,-928.500061035156,2.09795297460557,-0.0724093826012792,0.0707019361662461,ST
6.3,-0.366063505411148,-0.782969176769257,9.76049709320068,-0.282013982534409,-1.12043392658234,0.160062000155449,-1245.90002441406,-5.70000028610229,-906.900024414062,2.09594242141008,-0.0354811960413198,0.0805125801252652,ST
6.33333333333333,-0.440831363201141,-0.809287428855896,9.45125675201416,-0.0457319989800453,-0.282013982534409,0.602137982845306,-1245.90002441406,-8.10000038146973,-916.500061035156,2.08927875938118,-0.0460343075229435,0.0854468997190059,ST
6.36666666666667,-1.01145970821381,-0.797324597835541,9.1922607421875,0.564027965068817,1.63110792636871,0.78506600856781,-1241.10009765625,-12.3000001907349,-916.500061035156,2.08322104983243,-0.11209603974163,0.0854121133433809,ST
6.4,-1.41460812091827,-0.647190690040588,9.18269062042236,0.92988395690918,2.28659987449646,0.746955990791321,-1236.30004882812,-3.90000009536743,-923.700012207031,2.07668561033604,-0.156499755548434,0.0685981432651801,ST
6.43333333333333,-1.64070618152618,-0.598741114139557,10.0147075653076,1.21189796924591,2.04269599914551,0.884151995182037,-1245.90002441406,-2.70000004768372,-933.300048828125,2.06947083217343,-0.165740834806179,0.0573903192313473,ST
6.46666666666667,-1.24772620201111,-0.548497080802917,9.12407302856445,1.13567793369293,0.884151995182037,0.548784017562866,-1233.90002441406,-8.70000076293945,-923.700012207031,2.06631671685181,-0.137293842720634,0.0579409488823207,ST
6.5,-0.923532724380493,-0.538328647613525,9.00922966003418,0.815553963184357,1.18903195858002,0.83841997385025,-1233.90002441406,-14.1000003814697,-911.700012207031,2.05974062211817,-0.104165668253271,0.0581183747557976,ST
6.53333333333333,-0.958225011825562,-0.393578082323074,9.43690204620361,0.6250039935112,1.03659200668335,1.05183601379395,-1241.10009765625,-8.70000076293945,-918.900024414062,2.04874611361885,-0.102989603822148,0.0404290280454588,ST
6.56666666666667,-0.705808699131012,-0.66932201385498,9.39443397521973,0.403965979814529,0.419209986925125,1.36433792114258,-1238.70007324219,-4.5,-923.700012207031,2.03869910118818,-0.0757272965227578,0.0702118446577303,ST
6.6,-0.821848452091217,-0.634629666805267,9.58225059509277,0.411587983369827,0.632625997066498,1.37195992469788,-1231.5,-11.7000007629395,-923.700012207031,2.02453817674998,-0.0866246537071412,0.0652162438497606,ST
6.63333333333333,-0.938486337661743,-0.832016885280609,9.98001575469971,0.564027965068817,0.746955990791321,1.60061991214752,-1226.70007324219,-18.3000011444092,-921.300048828125,2.01071032646862,-0.094960816052637,0.0819257617104245,ST
6.66666666666667,-1.04136693477631,-0.827231705188751,10.0218858718872,0.487807989120483,0.457319974899292,1.36433792114258,-1231.5,-14.1000003814697,-926.100036621094,1.99824878893248,-0.104167971818632,0.081264077674467,ST
6.7,-0.998300611972809,-0.73451954126358,9.01401424407959,0.480185985565186,0.830797970294952,1.44817996025085,-1229.10009765625,-17.1000003814697,-926.100036621094,1.98525064495037,-0.111578592270777,0.0802009068234793,ST
6.73333333333333,-1.34283101558685,-0.933701157569885,8.60608100891113,0.586893975734711,2.0579400062561,1.52439999580383,-1231.5,-16.5,-926.100036621094,1.97700248048716,-0.157699340794466,0.106658423321749,ST
6.76666666666667,-1.34641981124878,-1.15860295295715,8.47269535064697,0.472563982009888,1.95123195648193,0.87652999162674,-1219.5,-17.7000007629395,-928.500061035156,1.97623787309669,-0.15974356692368,0.134876722920333,ST
6.8,-1.53603112697601,-0.940280735492706,8.82739353179932,0.388722002506256,1.27287399768829,0.739333987236023,-1224.30004882812,-21.3000011444092,-928.500061035156,1.9659261049495,-0.173668037107232,0.105275734451141,ST
6.83333333333333,-1.79203629493713,-0.974973022937775,9.16235446929932,0.533540010452271,0.381099998950958,0.724089980125427,-1221.90002441406,-21.3000011444092,-928.500061035156,1.96029080209416,-0.192863462772158,0.104849559342109,ST
6.86666666666667,-1.92542219161987,-0.744089841842651,8.60966968536377,0.503051996231079,0.983237981796265,1.46342396736145,-1226.70007324219,-16.5,-930.900024414062,1.94374798620629,-0.221126119095615,0.0848114961926441,ST
6.9,-0.748276829719543,-0.663938701152802,9.27420711517334,-0.777444005012512,0.815553963184357,1.39482593536377,-1209.90002441406,-17.7000007629395,-918.900024414062,1.9269083659905,-0.0819717372593064,0.0726382597646393,ST
6.93333333333333,-0.0933103039860725,-0.82065212726593,9.91242504119873,-0.807931959629059,1.30336201190948,0.846041977405548,-1219.5,-23.7000007629395,-926.100036621094,1.92003891071889,-0.0118492198543059,0.0839835600589106,ST
6.96666666666667,-0.811081886291504,-0.503636360168457,10.8885946273804,-0.556405961513519,0.83841997385025,-0.144817993044853,-1202.70007324219,-20.7000007629395,-930.900024414062,1.91997538216909,-0.0756677899723149,0.0472475234005193,ST
7.0,-1.73521280288696,-0.0023925718851387,9.90943431854248,-0.0990860015153885,0.434453994035721,0.922261953353882,-1195.5,-21.3000011444092,-928.500061035156,1.90479152543976,-0.174024483390372,0.0001733588972837,ST
7.03333333333333,-1.93977761268616,-0.10527316480875,9.38785362243652,-0.0762199983000755,1.06708002090454,3.43752193450928,-1185.90002441406,-17.1000003814697,-921.300048828125,1.87359946899205,-0.205633709745489,0.0100900345057881,ST
7.06666666666667,-2.60072565078735,-0.333165645599365,10.0356426239014,-0.190549999475479,0.87652999162674,4.10825777053833,-1193.10009765625,-20.1000003814697,-918.900024414062,1.83691232455176,-0.255159266449584,0.031650397096876,ST
7.1,-2.60790324211121,-0.426475942134857,10.0565776824951,-0.525918006896973,0.335367977619171,3.29270386695862,-1178.70007324219,-19.5,-921.300048828125,1.80711136898238,-0.254340771054584,0.0418029987417888,ST
7.13333333333333,-2.54689288139343,-0.303856641054153,10.0141096115112,-0.990859985351562,-0.0914639979600906,2.09605002403259,-1178.70007324219,-16.5,-921.300048828125,1.78214724123907,-0.248900850666418,0.0311439845733136,ST
7.16666666666667,-2.27653217315674,-0.467149674892426,9.86577033996582,-0.670735955238342,-0.236281991004944,1.77592599391937,-1164.30004882812,-27.3000011444092,-916.500061035156,1.76641944909806,-0.226286507468636,0.0477573775052393,ST
7.2,-1.95712375640869,-0.385802209377289,9.27958965301514,-0.541162014007568,-0.945127964019775,0.945127964019775,-1169.10009765625,-19.5,-926.100036621094,1.75403948430251,-0.206120480413188,0.0421405071422903,ST
7.23333333333333,-1.60362136363983,-0.1722651720047,9.48714542388916,0.0533539988100529,-1.57013201713562,0.87652999162674,-1171.5,-12.9000005722046,-916.500061035156,1.74006707569877,-0.164729519111015,0.017812055672199,ST
7.26666666666667,-1.78126978874207,0.0484495796263218,9.33701133728027,0.983237981796265,-1.33385002613068,0.945127964019775,-1171.5,-16.5,-921.300048828125,1.72838255587809,-0.186144691660371,-0.0071854406569043,ST
7.3,-1.41640257835388,-0.206957474350929,9.14740085601807,0.548784017562866,-0.861285984516144,1.00610399246216,-1171.5,-12.9000005722046,-911.700012207031,1.72417167434402,-0.152155399041247,0.0213568903725951,ST
7.33333333333333,-2.25679349899292,0.445018380880356,9.11569881439209,0.564027965068817,-0.403965979814529,0.548784017562866,-1173.90002441406,-23.7000007629395,-916.500061035156,1.70612504629713,-0.241604420773431,-0.049943492612504,ST
7.36666666666667,-2.20415687561035,-0.0071777156554162,9.23173904418945,0.442075997591019,1.02897000312805,0.525918006896973,-1154.70007324219,-11.7000007629395,-911.700012207031,1.71344709392042,-0.236169337420057,-0.0002398346245951,ST
7.4,-2.35070180892944,-0.507225215435028,9.19943904876709,-0.137196004390717,1.6615959405899,-0.586893975734711,-1147.5,-18.9000015258789,-916.500061035156,1.73290095647351,-0.252630967392734,0.0555632064534235,ST
7.43333333333333,-2.9021897315979,-0.378624498844147,8.9536018371582,-0.579271972179413,1.77592599391937,-1.84452390670776,-1152.30004882812,-5.10000038146973,-899.700012207031,1.74603935446647,-0.316072462457424,0.0443792586931227,ST
7.46666666666667,-3.04634213447571,-0.850559294223785,9.14201736450195,-0.769822001457214,2.21800184249878,-2.0655620098114,-1145.10009765625,-10.5,-897.300048828125,1.7805721851516,-0.32386622070768,0.0953835220052624,ST
7.5,-3.32447862625122,-1.15680849552155,9.55832481384277,-0.967993974685669,1.50153398513794,-2.65245604515076,-1157.10009765625,-11.1000003814697,-916.500061035156,1.8154633624443,-0.334499296991054,0.123825651229375,ST
7.53333333333333,-3.28201055526733,-1.10118126869202,9.48654747009277,-1.12043392658234,0.350611984729767,-2.69818782806396,-1147.5,-6.30000019073486,-909.300048828125,1.83554660232328,-0.331066232655725,0.119154033052146,ST
7.56666666666667,-2.69583034515381,-1.25550210475922,8.16943645477295,-1.13567793369293,0.152439996600151,-1.53964400291443,-1135.5,-1.5,-911.700012207031,1.85791737765329,-0.315147873859415,0.155311389332995,ST
7.6,-2.76162600517273,-1.29198884963989,8.80825328826904,-1.03659200668335,0.640248000621796,-0.419209986925125,-1135.5,-5.70000028610229,-911.700012207031,1.85744280802105,-0.301802255875708,0.147730839929397,ST
7.63333333333333,-2.32258915901184,-1.35479378700256,8.62761402130127,-0.564027965068817,0.320124000310898,0.602137982845306,-1140.30004882812,-8.10000038146973,-921.300048828125,1.85325850871711,-0.260689787473123,0.156478654614949,ST
7.66666666666667,-2.36386108398438,-1.47023546695709,9.31308650970459,0.320124000310898,0.365855991840363,1.07470202445984,-1147.5,-2.70000004768372,-918.900024414062,1.84320369686563,-0.246579879423556,0.155575765630875,ST
7.7,-2.11204290390015,-1.32548487186432,9.69589710235596,0.708845973014832,-0.449698001146317,0.99848198890686,-1152.30004882812,-3.30000019073486,-916.500061035156,1.82981385576163,-0.212055037920121,0.134254728701719,ST
7.73333333333333,-1.67360401153564,-1.17654716968536,8.31478500366211,1.06708002090454,-0.663114011287689,0.937505960464478,-1161.90002441406,-1.5,-921.300048828125,1.82291750312454,-0.195815471410782,0.138346797382073,ST
7.76666666666667,-1.78844749927521,-1.24473547935486,8.55643558502197,0.739333987236023,0.739333987236023,1.15092194080353,-1157.10009765625,-3.30000019073486,-914.100036621094,1.81534563078024,-0.205516939094907,0.142789386784627,ST
7.8,-2.38718867301941,-0.865512907505035,9.03614616394043,0.266770005226135,0.282013982534409,1.05945801734924,-1164.30004882812,0.300000011920929,-923.700012207031,1.7951874999365,-0.257763946326927,0.094608230091193,ST
7.83333333333333,-2.57440733909607,-0.574217259883881,8.57019233703613,-0.221037998795509,-0.129574000835419,1.79117000102997,-1157.10009765625,-10.5,-914.100036621094,1.77004476342452,-0.291144358020168,0.0663805973712721,ST
7.86666666666667,-2.8040943145752,-0.528160214424133,9.1689338684082,-0.594515979290009,0.0762199983000755,2.79727387428284,-1154.70007324219,-1.5,-918.900024414062,1.73953426771693,-0.296735077484259,0.0570999916246241,ST
7.9,-3.18630766868591,-0.377428203821182,9.37648963928223,-1.52439999580383,-0.0533539988100529,3.40703392028809,-1169.10009765625,-3.30000019073486,-926.100036621094,1.69375503651558,-0.327467317782326,0.04087940051722,ST
7.93333333333333,-2.45118999481201,-0.74648243188858,9.22216796875,-3.68904781341553,-1.6692179441452,5.89180564880371,-1149.90002441406,-1.5,-921.300048828125,1.63998723936699,-0.257014593873151,0.0843990293682007,ST
7.96666666666667,-2.10965037345886,-0.873288750648499,9.87115383148193,-3.74240183830261,-2.30184388160706,6.33388185501099,-1154.70007324219,2.10000014305115,-930.900024414062,1.57158484053711,-0.206829186229472,0.0923732450567005,ST
8.0,-1.16099548339844,-1.6544634103775,10.3610324859619,-2.28659987449646,-1.99696397781372,5.67839002609253,-1159.5,-0.900000035762787,-916.500061035156,1.51664736398241,-0.108400081634199,0.161172119893187,ST
8.03333333333333,-0.858933329582214,-1.68078172206879,9.54038047790527,-0.579271972179413,-1.265251994133,2.71343183517456,-1171.5,0.900000035762787,-918.900024414062,1.48928284367005,-0.0871070036287789,0.17494029892287,ST
8.06666666666667,-1.05871307849884,-1.47980570793152,8.73827075958252,0.861285984516144,0.0152439996600151,-0.0990860015153885,-1166.70007324219,-0.900000035762787,-916.500061035156,1.49032048710157,-0.118856563840956,0.166283266189933,ST
8.1,-1.96729218959808,-1.3099330663681,8.87345123291016,1.79879200458527,1.07470202445984,-2.05031800270081,-1173.90002441406,5.10000038146973,-916.500061035156,1.51111224844588,-0.217141819074058,0.144288924807037,ST
8.13333333333333,-2.82981443405151,-1.09220910072327,10.4896335601807,1.99696397781372,0.746955990791321,-3.353679895401,-1161.90002441406,9.30000019073486,-923.700012207031,1.53830982062492,-0.262795877599672,0.101911567723801,ST
8.16666666666667,-3.19348526000977,-0.776987731456757,10.3628273010254,1.83690190315247,-0.663114011287689,-3.7957558631897,-1171.5,6.30000019073486,-926.100036621094,1.57186894871042,-0.296472587228379,0.0736474801796528,ST
8.2,-2.13417410850525,-0.974374890327454,8.64914703369141,0.304879993200302,-1.2423859834671,-2.78202986717224,-1166.70007324219,4.5,-930.900024414062,1.61025488777912,-0.237784135072543,0.112742710154022,ST
8.23333333333333,-2.1150336265564,-1.42178583145142,9.11031532287598,-0.952749967575073,-1.08994603157043,-2.16464805603027,-1178.70007324219,0.300000011920929,-918.900024414062,1.63821241082562,-0.223021560128043,0.157228292219224,ST
8.26666666666667,-2.38060903549194,-1.48698341846466,9.62053108215332,-1.07470202445984,-1.33385002613068,-2.05031800270081,-1164.30004882812,-1.5,-930.900024414062,1.65279561083633,-0.236969409380069,0.15599510926671,ST
8.3,-2.23765277862549,-1.17594909667969,9.64684963226318,0.0990860015153885,-0.67835795879364,-1.47104597091675,-1173.90002441406,5.70000028610229,-916.500061035156,1.65826200694353,-0.224834142149501,0.121716573558818,ST
8.33333333333333,-2.2472231388092,-0.948654770851135,9.28617000579834,1.54726600646973,-0.297257989645004,-0.823175966739655,-1171.5,5.10000038146973,-928.500061035156,1.66486404065894,-0.235582558280838,0.0994492455880444,ST
8.36666666666667,-2.14613699913025,-1.39786016941071,8.72750377655029,1.48628997802734,0.0381099991500378,-0.274392008781433,-1169.10009765625,5.10000038146973,-928.500061035156,1.68445326522273,-0.238190869352145,0.156292775583496,ST
8.4,-1.85304689407349,-1.39905643463135,8.14072608947754,0.46494197845459,0.0914639979600906,-0.724089980125427,-1181.10009765625,-2.10000014305115,-933.300048828125,1.69546247306576,-0.220647685495681,0.169655731131775,ST
8.43333333333333,-2.77777600288391,-1.39726197719574,9.24609375,0.335367977619171,0.746955990791321,-0.92988395690918,-1171.5,-2.10000014305115,-930.900024414062,1.70111509446988,-0.289721833847644,0.149956694102144,ST
8.46666666666667,-2.37163686752319,-2.04505085945129,9.02896785736084,-0.144817993044853,0.6250039935112,-1.45580196380615,-1171.5,0.900000035762787,-933.300048828125,1.73514869473598,-0.251332363333621,0.223611410861914,ST
8.5,-2.28789687156677,-1.94157207012177,9.00564098358154,-0.487807989120483,-0.213415995240211,-1.76068198680878,-1178.70007324219,-1.5,-923.700012207031,1.74753357075174,-0.242414245221437,0.213930551616587,ST
8.53333333333333,-2.37223505973816,-1.50552582740784,9.21140193939209,-0.0228659994900227,-0.746955990791321,-1.39482593536377,-1164.30004882812,-0.900000035762787,-923.700012207031,1.74688637100417,-0.247203824141825,0.162659006426634,ST
8.56666666666667,-2.40453481674194,-1.60780835151672,9.73716926574707,0.525918006896973,-0.617381989955902,-0.434453994035721,-1176.30004882812,-3.90000009536743,-923.700012207031,1.7512826677584,-0.237812632686891,0.162864858155396,ST
8.6,-2.29148578643799,-1.36795294284821,9.88431262969971,1.13567793369293,-0.884151995182037,0.807931959629059,-1169.10009765625,-0.300000011920929,-928.500061035156,1.73805878747574,-0.224396657489652,0.135187477466778,ST
8.63333333333333,-1.92721664905548,-1.39187872409821,9.76707649230957,1.80641400814056,-0.990859985351562,1.70732796192169,-1171.5,-7.50000047683716,-930.900024414062,1.72323133632864,-0.191628795964737,0.137780001428025,ST
8.66666666666667,-0.922336459159851,-1.44272089004517,8.50858402252197,2.0655620098114,-0.884151995182037,1.2423859834671,-1178.70007324219,3.30000019073486,-926.100036621094,1.71627148714261,-0.105398672898166,0.164074588881138,ST
8.7,-1.12151801586151,-1.29079258441925,8.43262004852295,2.05031800270081,-0.37347799539566,0.594515979290009,-1178.70007324219,-2.10000014305115,-935.700012207031,1.71066665134582,-0.130198742655543,0.148184385400937,ST
8.73333333333333,-1.66463184356689,-0.896616339683533,8.68742847442627,2.0579400062561,0.190549999475479,0.0,-1188.30004882812,-0.900000035762787,-926.100036621094,1.70690876560372,-0.188635825446535,0.099291520000493,ST
8.76666666666667,-2.13477230072021,-0.693845868110657,8.93924713134766,2.23324584960938,0.350611984729767,0.556405961513519,-1166.70007324219,0.300000011920929,-935.700012207031,1.70133857441022,-0.234401091352568,0.0733582465788456,ST
8.8,-2.17006278038025,-0.843381583690643,8.86328220367432,1.6844619512558,0.228659987449646,0.83841997385025,-1176.30004882812,-5.10000038146973,-916.500061035156,1.70175859790815,-0.239601574214284,0.0915621821703877,ST
8.83333333333333,-2.35010361671448,-0.51739364862442,9.75930118560791,1.2576299905777,-0.213415995240211,0.914639949798584,-1161.90002441406,-7.50000047683716,-938.100036621094,1.68614655849419,-0.235702296074419,0.0504286488408997,ST
8.86666666666667,-1.67958545684814,-0.56464695930481,9.47817325592041,1.14329993724823,-1.10518991947174,1.02897000312805,-1171.5,-2.10000014305115,-935.700012207031,1.67908480782571,-0.173326973799696,0.0571656052794392,ST
8.9,-1.19568777084351,-0.91874760389328,9.01102352142334,1.02897000312805,-1.70732796192169,0.541162014007568,-1173.90002441406,-1.5,-930.900024414062,1.68008456427888,-0.128427052526845,0.0996038513114037,ST
8.93333333333333,-0.809885561466217,-1.10716259479523,8.80227184295654,0.442075997591019,-1.54726600646973,-0.739333987236023,-1188.30004882812,-7.50000047683716,-916.500061035156,1.68887047659128,-0.0882240516581681,0.124420088690889,ST
8.96666666666667,-0.806296706199646,-0.881662726402283,8.70178413391113,0.388722002506256,-1.37958192825317,-1.03659200668335,-1176.30004882812,1.5,-926.100036621094,1.6962791228797,-0.0893489413123978,0.100452075706969,ST
9.0,-1.28062415122986,-0.901401460170746,9.74015998840332,0.548784017562866,-1.44817996025085,-0.434453994035721,-1185.90002441406,-3.90000009536743,-926.100036621094,1.6988439059002,-0.127550457916429,0.0914010056512571,ST
9.03333333333333,-1.58747148513794,-1.06589078903198,11.2582473754883,0.236281991004944,-1.71494996547699,0.335367977619171,-1190.70007324219,0.900000035762787,-923.700012207031,1.69468682927991,-0.136531076496858,0.0938611922537891,ST
9.06666666666667,-0.754258275032043,-0.906784772872925,10.1690282821655,0.106707997620106,-2.0655620098114,1.08232402801514,-1195.5,2.10000014305115,-926.100036621094,1.68042205620993,-0.0703468274281358,0.0885961802836076,ST
9.1,-0.940878868103027,-1.20944511890411,9.68453311920166,0.640248000621796,-0.541162014007568,1.41769194602966,-1195.5,-3.30000019073486,-918.900024414062,1.66864765680405,-0.0954558236004746,0.122854874727766,ST
9.13333333333333,-1.37871956825256,-1.79741966724396,9.86696624755859,0.182927995920181,0.78506600856781,0.579271972179413,-1193.10009765625,-2.70000004768372,-926.100036621094,1.67125272986475,-0.138093934023285,0.179703103993352,ST
9.16666666666667,-2.36326289176941,-1.30215728282928,8.98171520233154,0.137196004390717,1.41006994247437,0.221037998795509,-1183.5,2.10000014305115,-938.100036621094,1.66442938415884,-0.257170332687247,0.143747339967737,ST
9.2,-2.56902408599854,-1.06230187416077,8.81363677978516,0.777444005012512,1.2500079870224,1.45580196380615,-1190.70007324219,-2.70000004768372,-933.300048828125,1.64654838119378,-0.284145756203308,0.117946727300826,ST
9.23333333333333,-2.84716057777405,-0.753660142421722,9.60497951507568,0.731711983680725,0.0685980021953583,2.27135586738586,-1183.5,0.300000011920929,-918.900024414062,1.61550637427091,-0.287756979037381,0.0759076832061181,ST
9.26666666666667,-2.76581311225891,-0.265575468540192,8.94283580780029,1.10518991947174,-1.15854394435883,3.19361782073975,-1176.30004882812,-0.900000035762787,-918.900024414062,1.57399131960632,-0.29793794847704,0.0260857001945251,ST
9.3,-1.84347665309906,-0.531150937080383,8.34349632263184,0.853663980960846,-1.41006994247437,4.11588001251221,-1178.70007324219,3.30000019073486,-933.300048828125,1.54469253344658,-0.21509604955187,0.0604433430041412,ST
9.33333333333333,-1.89192616939545,-0.30923992395401,9.29753398895264,0.87652999162674,-1.35671591758728,3.49849796295166,-1185.90002441406,-2.10000014305115,-935.700012207031,1.50623846955944,-0.198477575124713,0.0305074298713883,ST
9.36666666666667,-1.3721399307251,-0.266173630952835,9.69051456451416,0.609759986400604,-1.28811800479889,2.79727387428284,-1190.70007324219,-2.70000004768372,-921.300048828125,1.47890501433313,-0.138553081849389,0.0257103691835823,ST
9.4,-1.45767438411713,-0.0299071483314037,9.59182071685791,0.914639949798584,-0.853663980960846,2.53812599182129,-1190.70007324219,-1.5,-928.500061035156,1.45202423072402,-0.149319051320888,0.0008823461266676,ST
9.43333333333333,-1.56474196910858,-0.0622068680822849,9.68094444274902,0.78506600856781,-0.327746003866196,2.30946588516235,-1200.30004882812,-2.70000004768372,-928.500061035156,1.4307843166057,-0.159679059926924,0.0044029875121814,ST
9.46666666666667,-1.54859220981598,-0.0789548754692078,9.92857551574707,0.0304879993200302,-0.426831990480423,2.05031800270081,-1193.10009765625,-5.70000028610229,-933.300048828125,1.41021941192522,-0.154006728333516,0.0073405473910667,ST
9.5,-1.42118775844574,0.0053832866251468,10.0266704559326,-0.6250039935112,-0.67835795879364,1.60061991214752,-1190.70007324219,-7.50000047683716,-921.300048828125,1.39178225718172,-0.139628863295493,0.0001659705264711,ST
9.53333333333333,-1.10237753391266,-0.138769164681435,8.91352653503418,-0.609759986400604,-0.167683988809586,1.75305998325348,-1200.30004882812,-7.50000047683716,-921.300048828125,1.3744653733759,-0.122800472403825,0.0162449355330921,ST
9.56666666666667,-0.906784772872925,-0.544908225536346,9.1151008605957,-0.78506600856781,0.655492007732391,1.27287399768829,-1185.90002441406,-2.70000004768372,-930.900024414062,1.36619953099065,-0.100275586898259,0.0608253776258859,ST
9.6,-0.842185318470001,-0.39537250995636,8.69580268859863,-0.868907988071442,0.480185985565186,0.533540010452271,-1197.90002441406,-2.10000014305115,-930.900024414062,1.35903017516117,-0.0973337570821831,0.0468805632061341,DLL
9.63333333333333,-1.3440272808075,-0.275145769119263,8.75621509552002,-0.83841997385025,0.670735955238342,0.571649968624115,-1188.30004882812,2.70000004768372,-926.100036621094,1.35078071003734,-0.153372380474075,0.0327436602378259,DLL
9.66666666666667,-1.86560797691345,-0.186620607972145,9.38007831573486,-0.556405961513519,1.32622802257538,0.990859985351562,-1195.5,-0.900000035762787,-930.900024414062,1.33837628899434,-0.198590547039218,0.020539449708713,DLL
9.7,-2.50502276420593,-0.0197387188673019,10.0182962417603,-0.243903994560242,1.12043392658234,2.0655620098114,-1188.30004882812,-5.10000038146973,-930.900024414062,1.31338888202976,-0.246940338573826,0.001505748012309,DLL
9.73333333333333,-2.94884490966797,-0.0645994395017624,9.76528167724609,-1.08232402801514,0.381099998950958,3.56709599494934,-1178.70007324219,3.30000019073486,-942.900024414062,1.27826375186199,-0.29391322042812,0.0066181184114276,DLL
9.76666666666667,-2.45238614082336,-0.393578082323074,9.51944541931152,-2.66770005226135,-0.67835795879364,5.66314601898193,-1188.30004882812,12.9000005722046,-926.100036621094,1.22580188403078,-0.25120955084271,0.0433976332376714,DLL
9.8,-1.85304689407349,-0.78177285194397,9.10014724731445,-3.69666981697083,-1.58537602424622,6.73022603988647,-1188.30004882812,5.70000028610229,-928.500061035156,1.15867730733028,-0.198492629952355,0.0897153858199805,DLL
9.83333333333333,-0.38939106464386,-1.48459088802338,9.04571628570557,-4.58844375610352,-2.19513607025146,6.89790964126587,-1188.30004882812,1.5,-933.300048828125,1.09308047794347,-0.0408435394004582,0.170088856005133,DLL
9.86666666666667,-0.354698777198792,-1.47860944271088,8.76997184753418,-3.83386588096619,-1.90549993515015,4.91618967056274,-1195.5,7.50000047683716,-926.100036621094,1.04113983604105,-0.0380679965127783,0.173372424840877,DLL
9.9,-0.83859646320343,-1.61199533939362,8.84713268280029,-2.47714996337891,0.442075997591019,4.46649169921875,-1183.5,7.50000047683716,-923.700012207031,0.997673537888919,-0.0951034903244489,0.18382497524101,DLL
9.93333333333333,-2.22090482711792,-1.01325416564941,9.65402793884277,-1.95123195648193,0.556405961513519,4.72563982009888,-1193.10009765625,9.90000057220459,-926.100036621094,0.936938628619133,-0.226621615061444,0.106207502623569,DLL
9.96666666666667,-4.00337076187134,-0.0352904349565506,9.56490421295166,-2.17227005958557,-0.388722002506256,7.75919580459595,-1176.30004882812,6.90000009536743,-928.500061035156,0.826204062624152,-0.395563558126197,0.0019665085192582,DLL
10.0,-4.59493446350098,-0.1214230209589,8.45415306091309,-4.90094566345215,-0.564027965068817,15.7546739578247,-1181.10009765625,11.1000003814697,-928.500061035156,0.659980759626812,-0.496979769402342,0.0080164292014032,DLL
10.0333333333333,-2.43324565887451,-2.13895916938782,9.49551963806152,-7.64486598968506,-1.27287399768829,20.2592754364014,-1178.70007324219,14.7000007629395,-909.300048828125,0.51694754537966,-0.250840977276389,0.225776045756191,DLL
10.0666666666667,-0.839194595813751,-3.25748658180237,10.1122055053711,-6.97412967681885,-2.88111591339111,16.3949222564697,-1188.30004882812,23.7000007629395,-914.100036621094,0.35438226722295,-0.0831895834488661,0.321328371597924,DLL
10.1,0.298473328351974,-3.59783005714417,9.35076904296875,-4.28356409072876,-2.69056582450867,7.65248775482178,-1176.30004882812,21.9000015258789,-911.700012207031,0.272080749969927,0.0291882364152605,0.375149507101465,DLL
10.1333333333333,-0.552085936069489,-2.86570286750793,9.32504844665527,-2.11129403114319,-1.99696397781372,2.89635992050171,-1173.90002441406,22.5,-916.500061035156,0.235222754469105,-0.0546526549036703,0.301567171362761,DLL
10.1666666666667,-1.67779099941254,-2.48049879074097,8.89677810668945,-1.12805593013763,-0.853663980960846,0.914639949798584,-1166.70007324219,27.3000011444092,-909.300048828125,0.218298781332185,-0.178630430982697,0.273538088461309,DLL
10.2,-2.06060242652893,-2.29926156997681,8.67247486114502,-1.56251001358032,-0.480185985565186,0.381099998950958,-1181.10009765625,19.5,-911.700012207031,0.20742743012499,-0.225085675342269,0.261698404515651,DLL
10.2333333333333,-2.56483697891235,-2.29028940200806,8.85670280456543,-1.80641400814056,-0.182927995920181,1.08232402801514,-1185.90002441406,23.1000003814697,-914.100036621094,0.190983004696167,-0.273468179629201,0.255675626100082,DLL
10.2666666666667,-2.67968058586121,-2.33156132698059,9.63309288024902,-0.922261953353882,-0.327746003866196,1.27287399768829,-1176.30004882812,24.3000011444092,-911.700012207031,0.171625636661277,-0.264034506554353,0.238478112939591,DLL
10.3,-1.83988773822784,-2.56423902511597,8.83516979217529,-0.708845973014832,-0.922261953353882,0.899396002292633,-1176.30004882812,20.7000007629395,-899.700012207031,0.168994493310505,-0.19632667668489,0.283288665106712,DLL
10.3333333333333,-2.49545240402222,-2.29686903953552,9.63668155670166,-0.655492007732391,-2.01982998847961,0.259148001670837,-1181.10009765625,30.3000011444092,-911.700012207031,0.149898078991094,-0.243389121808482,0.234867420764695,DLL
10.3666666666667,-1.82254159450531,-2.2591860294342,8.54447269439697,-0.609759986400604,-2.42379593849182,0.541162014007568,-1176.30004882812,33.9000015258789,-906.900024414062,0.143126749352328,-0.199564755348603,0.259121651806511,DLL
10.4,-1.7806715965271,-1.99241423606873,7.98879766464233,-0.525918006896973,-1.61586391925812,0.78506600856781,-1193.10009765625,24.9000015258789,-894.900024414062,0.128084900917764,-0.210575321902184,0.24491860097283,DLL
10.4333333333333,-1.19628596305847,-2.25858783721924,8.25317668914795,-1.2347639799118,-1.38720393180847,1.44817996025085,-1183.5,23.7000007629395,-906.900024414062,0.111668722623841,-0.1372817785626,0.268839779982007,DLL
10.4666666666667,-1.56414389610291,-1.60421943664551,8.59172534942627,-0.99848198890686,-1.76830399036407,-0.152439996600151,-1185.90002441406,29.1000003814697,-911.700012207031,0.0952705684533884,-0.173963474275049,0.18637223017821,DLL
10.5,-0.800315320491791,-3.06189393997192,9.88969612121582,-1.90549993515015,-2.30184388160706,-2.21037983894348,-1197.90002441406,32.1000022888184,-906.900024414062,0.122816533759753,-0.072253285392657,0.303652638753421,DLL
10.5333333333333,-0.360680222511292,-3.75753402709961,9.28916072845459,-2.58385801315308,-2.29422187805176,-3.53660798072815,-1195.5,31.5000019073486,-899.700012207031,0.150222919759493,-0.0299831659411775,0.388928955641036,DLL
10.5666666666667,-1.1777435541153,-3.42556476593018,9.81791877746582,-1.265251994133,-0.533540010452271,-1.88263392448425,-1202.70007324219,30.3000011444092,-899.700012207031,0.160939279260302,-0.110723204282478,0.338277134106252,DLL
10.6,-1.45647811889648,-3.09060478210449,9.82629299163818,1.90549993515015,1.34147191047668,-0.236281991004944,-1193.10009765625,32.7000007629395,-916.500061035156,0.164980281467049,-0.142540997851186,0.301599616391045,DLL
10.6333333333333,-1.54978847503662,-2.71437287330627,8.91950798034668,2.72105383872986,0.777444005012512,-0.716467976570129,-1200.30004882812,33.3000030517578,-892.500061035156,0.17642733897721,-0.165636975358929,0.290942486863537,DLL
10.6666666666667,-1.81715834140778,-2.24303603172302,7.90864658355713,2.0579400062561,0.0609759986400604,-0.228659987449646,-1195.5,23.7000007629395,-902.100036621094,0.180020504587842,-0.217521372352463,0.27286921561,DLL
10.7,-1.8105788230896,-2.23645663261414,8.49183559417725,0.777444005012512,-0.472563982009888,0.480185985565186,-1202.70007324219,24.9000015258789,-904.500061035156,0.172313800313645,-0.202761195472844,0.255965537883162,DLL
10.7333333333333,-1.24952065944672,-2.57620167732239,8.32854270935059,-0.381099998950958,-1.47104597091675,1.05183601379395,-1195.5,21.9000015258789,-899.700012207031,0.164589141162557,-0.140490114595466,0.300267149776785,DLL
10.7666666666667,-0.790146887302399,-3.25030899047852,8.05818176269531,-1.44817996025085,-1.2423859834671,0.571649968624115,-1188.30004882812,28.5000019073486,-909.300048828125,0.16274032228951,-0.0890871510021941,0.385711034441206,DLL
10.8,-1.02701151371002,-3.49853825569153,9.1210823059082,-1.52439999580383,-0.236281991004944,0.381099998950958,-1193.10009765625,23.1000003814697,-892.500061035156,0.155119421192417,-0.104586940336635,0.368853903208138,DLL
10.8333333333333,-0.662144243717194,-3.80119848251343,9.35316181182861,-0.769822001457214,-0.510673999786377,-0.121951997280121,-1185.90002441406,26.7000007629395,-887.700012207031,0.155298720084733,-0.0646113352324806,0.387340578154154,DLL
10.8666666666667,-0.922336459159851,-3.54818415641785,9.1151008605957,-0.274392008781433,0.0152439996600151,-1.00610399246216,-1207.5,26.1000003814697,-902.100036621094,0.163026535686394,-0.0933722847220178,0.371867312933692,DLL
10.9,-2.26995253562927,-2.73949480056763,9.37110614776611,0.342989981174469,0.87652999162674,-1.06708002090454,-1200.30004882812,21.9000015258789,-902.100036621094,0.163015923213156,-0.229315946792247,0.284372561878528,DLL
10.9333333333333,-2.42546963691711,-2.78136491775513,9.35196495056152,0.403965979814529,0.144817993044853,0.777444005012512,-1209.90002441406,33.3000030517578,-894.900024414062,0.157610457730048,-0.244273976971246,0.288065566765242,DLL
10.9666666666667,-1.82732677459717,-2.96858358383179,9.3358154296875,0.457319974899292,-0.556405961513519,2.25611186027527,-1197.90002441406,30.3000011444092,-909.300048828125,0.140083943848054,-0.184737675241288,0.306291856459961,DLL
11.0,-1.00667464733124,-3.02779960632324,9.67675685882568,0.899396002292633,-1.41769194602966,2.02745199203491,-1205.10009765625,29.7000007629395,-892.500061035156,0.114761411638344,-0.0976803471470909,0.301271715480243,DLL
11.0333333333333,-0.769211888313293,-2.47810626029968,8.80286979675293,1.2347639799118,-2.17989206314087,1.86738991737366,-1202.70007324219,26.7000007629395,-897.300048828125,0.0884594968330406,-0.0811373042629411,0.271934473848889,DLL
11.0666666666667,-0.925925314426422,-2.04564905166626,8.71673774719238,2.09605002403259,-0.67835795879364,2.17227005958557,-1207.5,33.9000015258789,-890.100036621094,0.064186217832477,-0.102723746089625,0.226493343091423,DLL
11.1,-1.11254596710205,-1.91345942020416,8.71673774719238,2.71343183517456,0.480185985565186,1.74543797969818,-1209.90002441406,28.5000019073486,-892.500061035156,0.0489366364222745,-0.125472875490428,0.211007693268297,DLL
11.1333333333333,-1.49356305599213,-1.82852303981781,8.87046051025391,1.97409796714783,0.792688012123108,1.10518991947174,-1209.90002441406,28.5000019073486,-904.500061035156,0.0413921601246201,-0.165132576566123,0.19958794111579,DLL
11.1666666666667,-1.65625786781311,-1.69394087791443,8.82679557800293,0.685979962348938,0.0990860015153885,0.647870004177094,-1193.10009765625,26.1000003814697,-899.700012207031,0.0342452043036264,-0.182605470871837,0.18821324791192,DLL
11.2,-1.52586269378662,-1.8386914730072,8.88003063201904,0.152439996600151,-0.106707997620106,0.891773998737335,-1209.90002441406,24.3000011444092,-902.100036621094,0.0285382415273282,-0.166849841891574,0.203627623748565,DLL
11.2333333333333,-1.53304040431976,-2.30703735351562,8.75681304931641,-0.632625997066498,0.0304879993200302,0.632625997066498,-1178.70007324219,27.9000015258789,-894.900024414062,0.0303850536958076,-0.168034478909433,0.258491761373517,DLL
11.2666666666667,-1.96370339393616,-2.19877362251282,9.41895771026611,-0.960371971130371,0.25152599811554,0.632625997066498,-1195.5,29.1000003814697,-914.100036621094,0.0181439363641988,-0.200947199243921,0.230842860699972,DLL
11.3,-1.46664655208588,-2.65934371948242,8.96317195892334,-0.716467976570129,0.365855991840363,0.510673999786377,-1181.10009765625,30.9000015258789,-902.100036621094,0.0232264514883009,-0.156492280263588,0.289538081188281,DLL
11.3333333333333,-1.36855113506317,-2.61627745628357,9.4195556640625,-0.518296003341675,0.0838419944047928,0.129574000835419,-1190.70007324219,25.5000019073486,-899.700012207031,0.0187518149448385,-0.139295518286349,0.271809137065893,DLL
11.3666666666667,-1.06409633159637,-2.73590588569641,8.94462966918945,-0.175305992364883,-0.602137982845306,-0.236281991004944,-1200.30004882812,30.3000011444092,-904.500061035156,0.0222642445475235,-0.112163354507696,0.297137555520836,DLL
11.4,-1.16697692871094,-2.58936095237732,8.89139556884766,0.0152439996600151,-0.0685980021953583,-0.213415995240211,-1207.5,31.5000019073486,-899.700012207031,0.0225691400671484,-0.125124671346815,0.283406545133168,DLL
11.4333333333333,-0.980356335639954,-2.44819927215576,8.76877593994141,0.640248000621796,0.3125019967556,0.0914639979600906,-1190.70007324219,30.3000011444092,-904.500061035156,0.0218224973608074,-0.107852394117794,0.271154428427222,DLL
11.4666666666667,-1.24054849147797,-2.48468589782715,8.65153980255127,0.800309956073761,1.02134799957275,0.518296003341675,-1193.10009765625,26.7000007629395,-894.900024414062,0.0216063103875038,-0.138884818424352,0.278211452218269,DLL
11.5,-1.66403377056122,-2.33036494255066,8.59471607208252,0.541162014007568,1.59299790859222,0.403965979814529,-1185.90002441406,30.3000011444092,-892.500061035156,0.0205027071891752,-0.187547912282067,0.263853751502238,DLL
11.5333333333333,-1.8907299041748,-2.34412240982056,9.34478759765625,0.205793991684914,1.28049600124359,-0.0304879993200302,-1181.10009765625,25.5000019073486,-899.700012207031,0.0207177194939212,-0.195932428319402,0.245555953387434,DLL
11.5666666666667,-1.68676316738129,-2.58337950706482,9.0373420715332,0.129574000835419,0.510673999786377,-0.266770005226135,-1190.70007324219,30.3000011444092,-894.900024414062,0.0308342073388805,-0.178314512630865,0.278293432944131,DLL
11.6,-1.5623494386673,-2.48468589782715,9.19166278839111,0.0304879993200302,0.0304879993200302,-0.716467976570129,-1181.10009765625,29.1000003814697,-909.300048828125,0.0352429219198861,-0.162378353425944,0.264172135030837,DLL
11.6333333333333,-0.833811283111572,-2.67429733276367,8.76877593994141,0.350611984729767,-1.09756803512573,-0.846041977405548,-1195.5,26.7000007629395,-904.500061035156,0.0445040312287782,-0.0885042198250449,0.295456494218839,DLL
11.6666666666667,-0.699827253818512,-2.70420432090759,8.704176902771,0.137196004390717,-1.53964400291443,-0.807931959629059,-1188.30004882812,23.7000007629395,-906.900024414062,0.0481497023020352,-0.0736627833754726,0.301019948244311,DLL
11.7,-0.75246387720108,-2.46434903144836,8.93924713134766,0.724089980125427,-0.807931959629059,-0.274392008781433,-1193.10009765625,29.1000003814697,-916.500061035156,0.0467349905241934,-0.0794820340356255,0.26775198580676,DLL
11.7333333333333,-0.735117733478546,-2.68386745452881,8.95778942108154,0.571649968624115,-0.182927995920181,0.0,-1202.70007324219,32.7000007629395,-892.500061035156,0.0484207253359151,-0.0781454992311045,0.290085200493182,DLL
11.7666666666667,-2.03248977661133,-1.97805881500244,9.21140193939209,0.67835795879364,0.571649968624115,-0.137196004390717,-1200.30004882812,30.3000011444092,-904.500061035156,0.0405921212236351,-0.213251154956261,0.2105296456433,DLL
11.8,-1.82613050937653,-2.39556264877319,9.05349159240723,0.548784017562866,1.17378795146942,-0.0609759986400604,-1197.90002441406,28.5000019073486,-902.100036621094,0.0547042240410057,-0.194547718842085,0.257798272994834,DLL
11.8333333333333,-2.04804158210754,-2.69104528427124,9.11569881439209,-0.37347799539566,0.327746003866196,-1.50153398513794,-1193.10009765625,22.5,-904.500061035156,0.0747784729684222,-0.212018451192819,0.288250103148975,DLL
11.8666666666667,-2.12041687965393,-2.80469250679016,8.88900279998779,-0.518296003341675,0.144817993044853,-2.12653803825378,-1193.10009765625,29.7000007629395,-904.500061035156,0.0981465641696666,-0.222791386922855,0.307344449281667,DLL
11.9,-2.131183385849,-2.8603196144104,9.10553073883057,-0.548784017562866,-0.480185985565186,-1.2347639799118,-1193.10009765625,32.1000022888184,-902.100036621094,0.107023666897504,-0.218247017685842,0.305728272861325,DLL
11.9333333333333,-2.13955736160278,-2.80648684501648,8.69580268859863,-0.617381989955902,-0.952749967575073,0.205793991684914,-1197.90002441406,31.5000019073486,-906.900024414062,0.102449859889253,-0.228528060538141,0.31305982099109,DLL
11.9666666666667,-1.40384149551392,-3.01523876190186,9.04212760925293,-1.33385002613068,-1.28811800479889,1.59299790859222,-1181.10009765625,27.3000011444092,-890.100036621094,0.0838061166046926,-0.145076407298225,0.323694711106114,DLL
12.0,-1.44272089004517,-3.28858995437622,9.48594951629639,-0.800309956073761,-1.28811800479889,1.62348592281342,-1188.30004882812,35.1000022888184,-897.300048828125,0.0640896410132902,-0.141532062723785,0.334617327115085,DLL
12.0333333333333,-0.880466461181641,-3.43752765655518,8.88361930847168,-0.0076219998300075,-0.663114011287689,0.762199997901917,-1207.5,35.7000007629395,-911.700012207031,0.058848989801035,-0.0916259782552212,0.369029580304382,DLL
12.0666666666667,-1.81955087184906,-2.62285685539246,8.95599460601807,1.41769194602966,-0.0228659994900227,0.442075997591019,-1183.5,30.9000015258789,-906.900024414062,0.0446553269151379,-0.192686856999883,0.282317775239276,DLL
12.1,-1.94097399711609,-2.40094590187073,8.96676158905029,1.77592599391937,-0.297257989645004,1.05183601379395,-1197.90002441406,36.9000015258789,-906.900024414062,0.0326944092950238,-0.206084411116097,0.258145936984315,DLL
12.1333333333333,-2.25619530677795,-2.39556264877319,9.497314453125,0.960371971130371,-0.640248000621796,1.78354799747467,-1200.30004882812,23.1000003814697,-892.500061035156,0.0138685196264835,-0.226046363374748,0.244664008491095,DLL
12.1666666666667,-1.52945160865784,-2.50741529464722,8.87285327911377,-0.426831990480423,-1.30336201190948,2.02745199203491,-1193.10009765625,33.3000030517578,-902.100036621094,-0.003090692051,-0.163223417674918,0.275459408095666,DLL
12.2,-1.36197149753571,-2.61268854141235,8.76279449462891,-0.297257989645004,-0.503051996231079,2.31708788871765,-1202.70007324219,31.5000019073486,-899.700012207031,-0.0242170509805324,-0.148189913630995,0.289651842238331,DLL
12.2333333333333,-1.54679775238037,-2.62046432495117,8.9954719543457,0.297257989645004,0.221037998795509,2.29422187805176,-1190.70007324219,32.1000022888184,-899.700012207031,-0.0455740819698719,-0.165082543755213,0.28233190665733,DLL
12.2666666666667,-1.38350474834442,-2.6276421546936,9.87593841552734,0.87652999162674,0.0762199983000755,1.73019397258759,-1195.5,32.7000007629395,-897.300048828125,-0.0640008349578252,-0.135493448915679,0.258143720012447,DLL
12.3,-0.939682602882385,-2.51459312438965,8.98291110992432,1.91312193870544,-0.510673999786377,-0.0990860015153885,-1188.30004882812,23.7000007629395,-894.900024414062,-0.0610626032539707,-0.0995318809291946,0.269585570087543,DLL
12.3333333333333,-0.933701157569885,-2.28610253334045,8.34289836883545,2.46952795982361,-0.221037998795509,-0.922261953353882,-1202.70007324219,30.3000011444092,-894.900024414062,-0.0510585967260847,-0.10672195211388,0.263304913456128,DLL
12.3666666666667,-1.03777801990509,-2.56005191802979,8.00076007843018,2.5000159740448,0.617381989955902,-1.93598794937134,-1190.70007324219,21.9000015258789,-914.100036621094,-0.0214486861336079,-0.122920823643652,0.305734212796136,DLL
12.4,-1.8967113494873,-2.17066073417664,8.67666149139404,1.6768399477005,0.967993974685669,-2.30946588516235,-1205.10009765625,23.7000007629395,-902.100036621094,-0.0031906817518068,-0.209579265603438,0.243173285327172,DLL
12.4333333333333,-2.03248977661133,-2.155109167099,9.36273193359375,1.50915598869324,0.37347799539566,-1.2500079870224,-1193.10009765625,30.3000011444092,-904.500061035156,0.0102663721033078,-0.208628699442926,0.224093378813263,DLL
12.4666666666667,-1.46784281730652,-2.42846035957336,8.48824691772461,-0.0838419944047928,-1.28049600124359,0.205793991684914,-1200.30004882812,26.1000003814697,-902.100036621094,0.0149923061848023,-0.162750035329815,0.278581824169833,DLL
12.5,-1.35778450965881,-2.75803732872009,8.41048812866211,-0.800309956073761,-0.823175966739655,1.11281192302704,-1195.5,20.1000003814697,-911.700012207031,0.0072555371281057,-0.151469625643417,0.317881323722643,DLL
12.5333333333333,-1.14245307445526,-3.1647744178772,8.71853160858154,-0.701223969459534,-0.0838419944047928,1.52439999580383,-1197.90002441406,24.3000011444092,-918.900024414062,-0.0044723175605799,-0.123346958122195,0.349090253732189,DLL
12.5666666666667,-1.40623414516449,-3.13367104530334,8.94104099273682,0.228659987449646,-0.426831990480423,0.960371971130371,-1197.90002441406,27.9000015258789,-904.500061035156,-0.0166075487144312,-0.147185159301023,0.336442291904392,DLL
12.6,-1.65027642250061,-2.9261155128479,8.06954669952393,0.746955990791321,0.106707997620106,1.01372599601746,-1195.5,29.7000007629395,-906.900024414062,-0.0231381748782571,-0.190693344419778,0.346248751307151,DLL
12.6333333333333,-2.08034133911133,-2.95901322364807,9.03315544128418,0.0228659994900227,0.0533539988100529,1.60824191570282,-1185.90002441406,29.1000003814697,-897.300048828125,-0.0436601307594325,-0.216393396448857,0.315971027159623,DLL
12.6666666666667,-1.97387182712555,-3.03916454315186,9.15756893157959,-0.846041977405548,-0.891773998737335,2.53812599182129,-1197.90002441406,23.1000003814697,-894.900024414062,-0.0700965078965776,-0.201726049066244,0.320947663732334,DLL
12.7,-1.71188521385193,-2.65455842018127,9.25028133392334,-0.327746003866196,-0.716467976570129,3.07166600227356,-1185.90002441406,26.7000007629395,-904.500061035156,-0.108875599049033,-0.176346568581789,0.279098042896945,DLL
12.7333333333333,-1.58208811283112,-2.44401216506958,10.0685405731201,2.31708788871765,0.434453994035721,3.01831197738647,-1183.5,28.5000019073486,-909.300048828125,-0.142348724326742,-0.15349707788726,0.233346019847421,DLL
12.7666666666667,-0.92173832654953,-2.30165410041809,9.66479396820068,2.88873791694641,-0.609759986400604,0.525918006896973,-1190.70007324219,30.3000011444092,-906.900024414062,-0.146700554128236,-0.0917153565707301,0.228648996326259,DLL
12.8,-1.94635725021362,-1.04495573043823,9.70785999298096,2.95733594894409,-1.10518991947174,-1.21189796924591,-1193.10009765625,17.1000003814697,-916.500061035156,-0.148429025187812,-0.194560254526243,0.102523073393697,DLL
12.8333333333333,-1.3900842666626,-1.44930040836334,8.86806774139404,1.85976791381836,-0.6250039935112,0.152439996600151,-1207.5,20.7000007629395,-909.300048828125,-0.138189097915331,-0.152495274678448,0.158622063924977,DLL
12.8666666666667,-0.998300611972809,-1.47621691226959,8.70896148681641,0.571649968624115,-1.10518991947174,0.0914639979600906,-1185.90002441406,28.5000019073486,-911.700012207031,-0.139095282963751,-0.110710106178274,0.166849318679866,DLL
12.9,-1.11912548542023,-1.27045571804047,8.95778942108154,0.541162014007568,-0.815553963184357,0.647870004177094,-1195.5,28.5000019073486,-906.900024414062,-0.148973502704932,-0.121806331529726,0.13981130022297,DLL
12.9333333333333,-0.860129594802856,-1.68855762481689,9.28676795959473,1.13567793369293,-0.0381099991500378,0.769822001457214,-1188.30004882812,25.5000019073486,-906.900024414062,-0.151330507799421,-0.0910798765988937,0.177713159480228,DLL
12.9666666666667,-0.464757084846497,-2.10008001327515,9.62352180480957,1.57013201713562,0.144817993044853,-1.98171997070312,-1197.90002441406,20.1000003814697,-909.300048828125,-0.128859354735185,-0.0467171013331386,0.2122383912152,DLL
13.0,1.03239476680756,-3.30713248252869,9.52482891082764,1.02134799957275,-0.243903994560242,-5.87656164169312,-1195.5,26.1000003814697,-923.700012207031,-0.0792924068015972,0.105599858549382,0.3312696649191,DLL
13.0333333333333,-0.0939084440469742,-2.84656238555908,9.281982421875,3.94819593429565,0.731711983680725,-14.7180814743042,-1193.10009765625,17.1000003814697,-899.700012207031,0.0705473972982806,-0.0034553255843409,0.290780006618481,DLL
13.0666666666667,-0.977365612983704,-2.4535825252533,9.28497314453125,6.33388185501099,2.85062789916992,-17.3248062133789,-1209.90002441406,26.1000003814697,-923.700012207031,0.260116417324524,-0.0986993304899672,0.250324085375293,DLL
13.1,-2.18082928657532,-1.76751244068146,9.75451564788818,7.94974565505981,3.7957558631897,-18.186092376709,-1214.70007324219,14.7000007629395,-930.900024414062,0.453017647284475,-0.217527054928114,0.172580793876235,DLL
13.1333333333333,-3.28201055526733,-1.31770896911621,9.71623420715332,7.90401363372803,4.03203773498535,-16.0443096160889,-1207.5,13.5000009536743,-923.700012207031,0.623788119970674,-0.326224442040475,0.130733104405795,ST
13.1666666666667,-2.69642853736877,-1.04854464530945,9.12526893615723,4.86283588409424,2.20275783538818,-11.349157333374,-1202.70007324219,7.50000047683716,-930.900024414062,0.739812570248535,-0.287184507962448,0.111888033372752,ST
13.2,-3.07684755325317,-0.32838049530983,9.11988544464111,3.40703392028809,1.09756803512573,-7.83541584014893,-1202.70007324219,5.70000028610229,-928.500061035156,0.800176183513746,-0.326577765725856,0.0347819809083147,ST
13.2333333333333,-2.28071904182434,-0.751865744590759,8.28966331481934,2.02745199203491,1.13567793369293,-3.94057393074036,-1188.30004882812,0.300000011920929,-933.300048828125,0.859305545398151,-0.268870978803656,0.0887945311286139,ST
13.2666666666667,-1.6664263010025,-1.0395724773407,8.58574390411377,1.27287399768829,1.73019397258759,-2.66770005226135,-1178.70007324219,3.30000019073486,-923.700012207031,0.896107146892767,-0.192882033345779,0.119216548349067,ST
13.3,-1.82313978672028,-0.948654770851135,8.71135425567627,1.21951997280121,1.2423859834671,-1.98934197425842,-1178.70007324219,5.10000038146973,-926.100036621094,0.917756464396458,-0.206902147054286,0.107124398458454,ST
13.3333333333333,-2.4715268611908,-1.21901535987854,9.78143215179443,0.609759986400604,0.304879993200302,-0.37347799539566,-1190.70007324219,0.300000011920929,-935.700012207031,0.926955357589512,-0.246093278125739,0.123090110494762,ST
13.3666666666667,-1.53782558441162,-1.13288283348083,10.039231300354,-0.121951997280121,-0.655492007732391,-0.0457319989800453,-1190.70007324219,3.90000009536743,-933.300048828125,0.924368747726919,-0.14995898739576,0.112580812490802,ST
13.4,-0.985141456127167,-1.27643704414368,9.60139083862305,-0.121951997280121,-1.83690190315247,1.19665396213531,-1193.10009765625,4.5,-930.900024414062,0.911538240122076,-0.0984835787485129,0.132124171796602,ST
13.4333333333333,-0.632835268974304,-1.42956173419952,9.28916072845459,-0.381099998950958,-1.39482593536377,1.06708002090454,-1200.30004882812,1.5,-926.100036621094,0.89989542694049,-0.0651321055602089,0.153204433735054,ST
13.4666666666667,-0.0490477234125137,-1.2818204164505,9.05827713012695,-0.46494197845459,-1.20427596569061,0.655492007732391,-1193.10009765625,5.10000038146973,-933.300048828125,0.891386648431508,-0.0035098069786677,0.14139372489844,ST
13.5,0.0622068680822849,-1.02222633361816,8.95061111450195,-0.274392008781433,-1.27287399768829,-0.144817993044853,-1193.10009765625,3.90000009536743,-923.700012207031,0.891409508245006,0.0091269590398657,0.11422369647106,ST
13.5333333333333,-1.06050753593445,-0.653172135353088,9.24729061126709,1.28049600124359,0.495429992675781,0.571649968624115,-1197.90002441406,-5.70000028610229,-935.700012207031,0.884945943355643,-0.114697022792512,0.0682262747125784,ST
13.5666666666667,-1.73939979076385,-0.681284844875336,8.90395641326904,1.89025592803955,1.77592599391937,1.21951997280121,-1195.5,1.5,-930.900024414062,0.878279616851908,-0.195551158780406,0.072689975795878,ST
13.6,-2.34591674804688,-0.642405569553375,9.25387001037598,1.75305998325348,2.37044191360474,1.37958192825317,-1193.10009765625,-0.300000011920929,-930.900024414062,0.869268001385942,-0.251929868812347,0.0657130472142057,ST
13.6333333333333,-2.53732252120972,-0.632237136363983,10.1014385223389,1.43293595314026,1.82165801525116,0.602137982845306,-1183.5,8.10000038146973,-933.300048828125,0.866613409793502,-0.248872270242499,0.0597967677407558,ST
13.6666666666667,-2.58278131484985,-0.16568560898304,10.2234592437744,1.82165801525116,0.320124000310898,-0.442075997591019,-1190.70007324219,-2.70000004768372,-935.700012207031,0.864329838523598,-0.24797382488574,0.0132539809430013,ST
13.7,-1.8105788230896,-0.554478526115417,9.35615253448486,0.967993974685669,-1.48628997802734,-1.02134799957275,-1176.30004882812,5.70000028610229,-935.700012207031,0.88491846394303,-0.188202391394864,0.0577666601771508,ST
13.7333333333333,-1.54978847503662,-0.540721237659454,8.96197605133057,0.0685980021953583,-2.15702605247498,-1.35671591758728,-1185.90002441406,1.5,-923.700012207031,0.897333042264268,-0.167053433438228,0.0604999178200802,ST
13.7666666666667,-1.37094366550446,-0.775193274021149,9.20302772521973,-0.853663980960846,-1.45580196380615,-0.487807989120483,-1195.5,-2.10000014305115,-923.700012207031,0.90355581503862,-0.144785424737549,0.0855889779244588,ST
13.8,-1.26746499538422,-1.04974091053009,9.58703517913818,-0.746955990791321,-0.564027965068817,-0.25152599811554,-1188.30004882812,6.30000019073486,-923.700012207031,0.907912115863543,-0.129652854725855,0.110395468827031,ST
13.8333333333333,-1.23875403404236,-1.07306849956512,9.53439903259277,-0.221037998795509,-0.3125019967556,-0.221037998795509,-1195.5,1.5,-933.300048828125,0.909699189042142,-0.127816047605002,0.112500314912467,ST
13.8666666666667,-0.95762687921524,-0.851755619049072,8.85730075836182,0.213415995240211,-0.579271972179413,-0.0609759986400604,-1190.70007324219,6.30000019073486,-926.100036621094,0.907981934059759,-0.106215477764213,0.0955166784545626,ST
13.9,-0.939682602882385,-0.714182734489441,7.91702032089233,0.762199997901917,-0.243903994560242,0.3125019967556,-1183.5,-4.5,-923.700012207031,0.904610944794427,-0.11728411974833,0.0885697639852521,ST
13.9333333333333,-1.46425402164459,-0.470738530158997,8.6623067855835,0.899396002292633,0.266770005226135,0.617381989955902,-1190.70007324219,-2.70000004768372,-930.900024414062,0.894552288887771,-0.167714682889284,0.0525564894926297,ST
13.9666666666667,-1.61199533939362,-0.445616513490677,9.58464336395264,0.708845973014832,-0.617381989955902,0.640248000621796,-1195.5,-3.30000019073486,-933.300048828125,0.88799802592211,-0.165425940746162,0.0450357177800737,ST
14.0,-1.84885990619659,-0.66034984588623,9.88849925994873,0.282013982534409,-0.685979962348938,0.419209986925125,-1193.10009765625,5.10000038146973,-940.500061035156,0.887690447961244,-0.183268955325182,0.0660150719280216,ST
14.0333333333333,-2.01813435554504,-0.637022256851196,10.4669036865234,0.198172003030777,-0.0838419944047928,0.0381099991500378,-1190.70007324219,2.10000014305115,-930.900024414062,0.886603279357067,-0.189980804543324,0.0604314757245645,ST
14.0666666666667,-1.88953363895416,-0.70461243391037,10.2473850250244,0.457319974899292,-0.274392008781433,0.0,-1197.90002441406,-0.300000011920929,-911.700012207031,0.888610346980241,-0.181455203757132,0.0678397847780445,ST
14.1,-1.32668113708496,-0.957028746604919,9.67795372009277,0.114329993724823,-0.78506600856781,-0.221037998795509,-1207.5,1.5,-918.900024414062,0.895138656070978,-0.13420312003165,0.0983857943687301,ST
14.1333333333333,-1.07426476478577,-0.774595141410828,8.44936752319336,0.213415995240211,-0.182927995920181,-0.67835795879364,-1190.70007324219,5.70000028610229,-933.300048828125,0.900868791410727,-0.125524195081838,0.0912000269349571,ST
14.1666666666667,-1.19030451774597,-0.808091163635254,9.06545448303223,0.388722002506256,0.503051996231079,-0.525918006896973,-1195.5,0.300000011920929,-926.100036621094,0.907246165773542,-0.130836009334807,0.0883578498900731,ST
14.2,-1.0216281414032,-1.1735565662384,9.25626277923584,0.129574000835419,-0.426831990480423,-0.0990860015153885,-1197.90002441406,-1.5,-940.500061035156,0.912324952832677,-0.108324832606898,0.125853229520894,ST
14.2333333333333,-1.31711077690125,-1.14484560489655,9.48295879364014,0.106707997620106,-0.503051996231079,-0.0152439996600151,-1197.90002441406,6.90000009536743,-930.900024414062,0.911299909575479,-0.136121421904986,0.119954694257069,ST
14.2666666666667,-1.25310957431793,-1.06110560894012,9.53978252410889,0.274392008781433,-0.670735955238342,0.274392008781433,-1193.10009765625,0.900000035762787,-926.100036621094,0.906989041173748,-0.128714279070035,0.110227657973519,ST
14.3,-1.33684957027435,-1.13288283348083,9.14859676361084,0.396344006061554,-0.937505960464478,1.16616594791412,-1190.70007324219,5.10000038146973,-933.300048828125,0.896833111341893,-0.142623104867343,0.122180423586728,ST
14.3333333333333,-1.22439861297607,-1.04615211486816,9.17132663726807,0.495429992675781,-0.716467976570129,1.72257196903229,-1195.5,0.300000011920929,-935.700012207031,0.878727186638224,-0.130980411105891,0.112310591723887,ST
14.3666666666667,-1.37632691860199,-0.78177285194397,9.86995697021484,0.83841997385025,-1.11281192302704,1.6844619512558,-1209.90002441406,8.10000038146973,-928.500061035156,0.857965053518109,-0.136410804366014,0.0771945597213263,ST
14.4,-0.983347058296204,-0.401353925466537,9.26762676239014,1.2576299905777,-2.24086785316467,2.21037983894348,-1207.5,-8.10000038146973,-923.700012207031,0.829860312053752,-0.101874994371252,0.040687453846058,ST
14.4333333333333,-0.870298027992249,-0.144152462482452,9.32624530792236,1.51677799224854,-2.14178204536438,2.33995389938354,-1205.10009765625,0.900000035762787,-923.700012207031,0.804021683153115,-0.0893587386818575,0.0124554549105583,ST
14.4666666666667,-1.13348090648651,0.21712589263916,10.3556489944458,1.42531394958496,-1.82927989959717,2.57623600959778,-1219.5,-3.30000019073486,-933.300048828125,0.775724806650221,-0.10568873017036,-0.0238969368517497,ST
14.5,-0.60950767993927,0.129198879003525,9.82449817657471,0.78506600856781,-1.57775402069092,2.76678586006165,-1219.5,2.70000004768372,-928.500061035156,0.750210338849657,-0.0591809576702638,-0.0148155171654099,ST
14.5333333333333,-0.962412059307098,0.584983825683594,10.2073097229004,0.609759986400604,-0.617381989955902,2.24086785316467,-1209.90002441406,-5.10000038146973,-933.300048828125,0.724608735239234,-0.0925295239523944,-0.0586389314801067,ST
14.5666666666667,-0.912168025970459,0.45937380194664,10.3490695953369,0.548784017562866,-0.907018005847931,1.97409796714783,-1219.5,9.90000057220459,-921.300048828125,0.707425024873701,-0.0860952399824837,-0.045622124181433,ST
14.6,-0.482103228569031,0.391783654689789,9.35076904296875,0.243903994560242,-0.823175966739655,1.39482593536377,-1212.30004882812,0.300000011920929,-923.700012207031,0.694497780695923,-0.0499681146201367,-0.0424224798322049,ST
14.6333333333333,-0.420494496822357,0.194994613528252,8.79090690612793,0.228659987449646,0.846041977405548,0.442075997591019,-1224.30004882812,1.5,-918.900024414062,0.691051111308799,-0.0492442144294433,-0.0226383565657104,ST
14.6666666666667,-1.02402079105377,0.362474650144577,9.07801628112793,0.152439996600151,1.59299790859222,-0.655492007732391,-1226.70007324219,-2.70000004768372,-933.300048828125,0.695583406237319,-0.114989675735426,-0.0400355774969878,ST
14.7,-1.24772620201111,0.32838049530983,8.76578521728516,-0.205793991684914,1.30336201190948,-1.01372599601746,-1205.10009765625,5.10000038146973,-918.900024414062,0.705066184170707,-0.143599719243482,-0.0368454469293037,ST
14.7333333333333,-1.39307498931885,0.2613884806633,8.6981954574585,-0.853663980960846,1.05183601379395,-1.18903195858002,-1195.5,4.5,-928.500061035156,0.716247772738987,-0.160612850963469,-0.0282345404460798,ST
14.7666666666667,-1.3320643901825,-0.0951047316193581,9.41656494140625,-1.12043392658234,1.38720393180847,-0.990859985351562,-1207.5,-6.30000019073486,-930.900024414062,0.731190332785341,-0.142929495993931,0.012286877488882,ST
14.8,-1.15680849552155,-0.494664251804352,9.87175178527832,-1.28049600124359,0.990859985351562,-1.50153398513794,-1205.10009765625,2.70000004768372,-933.300048828125,0.749915350349078,-0.118124695883268,0.0525789185054424,ST
14.8333333333333,-1.17535090446472,-0.664536833763123,10.1014385223389,-0.960371971130371,1.03659200668335,-1.80641400814056,-1205.10009765625,3.90000009536743,-926.100036621094,0.770329407264181,-0.117178807974889,0.0677445186843064,ST
14.8666666666667,-1.47322618961334,-0.74648243188858,10.3688087463379,-0.320124000310898,0.670735955238342,-1.84452390670776,-1209.90002441406,-3.30000019073486,-930.900024414062,0.788872845814586,-0.141684365639913,0.0728915817735502,ST
14.9,-0.992319166660309,-0.939084470272064,9.07681941986084,-0.37347799539566,0.632625997066498,-1.83690190315247,-1209.90002441406,3.90000009536743,-921.300048828125,0.810736056854433,-0.109120421089683,0.104072842130141,ST
14.9333333333333,-1.37154185771942,-0.66932201385498,8.67785835266113,-0.228659987449646,1.15854394435883,-1.93598794937134,-1200.30004882812,-5.70000028610229,-916.500061035156,0.827689509199866,-0.158017459954458,0.0779548449027713,ST
14.9666666666667,-1.6323322057724,-0.872690618038177,9.08280086517334,-0.0457319989800453,1.21951997280121,-1.42531394958496,-1202.70007324219,-1.5,-926.100036621094,0.846357952621934,-0.178886182278671,0.0963395712966481,ST
15.0,-1.81416761875153,-0.887046039104462,9.4554443359375,-0.434453994035721,0.762199997901917,-1.09756803512573,-1190.70007324219,3.90000009536743,-930.900024414062,0.857094512166271,-0.189888146451157,0.0946892337387212,ST
15.0333333333333,-1.64728569984436,-0.662742435932159,9.73716926574707,0.434453994035721,0.693601965904236,-0.190549999475479,-1190.70007324219,0.900000035762787,-923.700012207031,0.855258137866152,-0.168417781458538,0.0673007116377194,ST
15.0666666666667,-1.63532292842865,-0.616685390472412,10.0171003341675,1.13567793369293,0.533540010452271,0.198172003030777,-1188.30004882812,4.5,-930.900024414062,0.854180502431101,-0.162482075677063,0.0594649776086582,ST
15.1,-1.26088535785675,-0.503038227558136,9.26344013214111,1.00610399246216,0.0152439996600151,0.228659987449646,-1190.70007324219,-2.10000014305115,-933.300048828125,0.852201641287994,-0.135144486935637,0.0524430519917728,ST
15.1333333333333,-1.3458217382431,-0.470140367746353,9.61514854431152,0.609759986400604,-0.0076219998300075,0.129574000835419,-1185.90002441406,5.10000038146973,-930.900024414062,0.851100295544604,-0.138896739160084,0.0477640795954287,ST
15.1666666666667,-0.385802209377289,-0.766819298267365,9.1210823059082,-0.327746003866196,-1.18140995502472,-0.99848198890686,-1178.70007324219,1.5,-926.100036621094,0.863292387318188,-0.0400077947932846,0.0844780394500383,ST
15.2,-0.824839174747467,-0.41451308131218,8.53490161895752,-0.228659987449646,-1.47104597091675,-1.27287399768829,-1181.10009765625,-3.30000019073486,-930.900024414062,0.872351897331404,-0.0934979240253043,0.0491627212684484,ST
15.2333333333333,-1.0216281414032,-0.91874760389328,9.2227668762207,-0.198172003030777,-0.388722002506256,-0.853663980960846,-1190.70007324219,2.10000014305115,-928.500061035156,0.885891623194085,-0.108952651018177,0.0997646288808081,ST
15.2666666666667,-1.5121054649353,-0.855344474315643,9.94951057434082,-0.274392008781433,-0.495429992675781,-0.419209986925125,-1185.90002441406,-7.50000047683716,-930.900024414062,0.887404981932184,-0.149308539731191,0.0863498369789792,ST
15.3,-1.53004968166351,-0.867307305335999,9.78681564331055,0.0990860015153885,-0.274392008781433,0.0990860015153885,-1181.10009765625,-0.300000011920929,-933.300048828125,0.886641552886846,-0.154019668987492,0.0881807992586446,ST
15.3333333333333,-1.92422592639923,-0.910373628139496,9.42912578582764,1.01372599601746,0.815553963184357,0.236281991004944,-1188.30004882812,1.5,-930.900024414062,0.888123549309764,-0.201804829184644,0.0944184519016646,ST
15.3666666666667,-2.07675242424011,-0.88285905122757,10.206711769104,1.33385002613068,1.08232402801514,0.0381099991500378,-1190.70007324219,5.70000028610229,-935.700012207031,0.889176532248347,-0.201890573066767,0.0839864148742673,ST
15.4,-1.83390629291534,-0.821250319480896,10.1791973114014,0.830797970294952,-0.746955990791321,-0.46494197845459,-1183.5,-0.900000035762787,-926.100036621094,0.893626123741603,-0.176349378102406,0.079185806562729,ST
15.4333333333333,-1.53962004184723,-0.943869590759277,9.32923603057861,0.564027965068817,-1.50915598869324,-0.0533539988100529,-1183.5,-3.30000019073486,-940.500061035156,0.897086729401494,-0.160129340387314,0.0997951880819009,ST
15.4666666666667,-1.28241848945618,-0.782370984554291,8.89498424530029,0.320124000310898,-0.777444005012512,0.106707997620106,-1181.10009765625,-1.5,-928.500061035156,0.893936504785358,-0.141328648925311,0.0871425317867557,ST
15.5,-1.36077523231506,-0.892429292201996,8.82500171661377,0.396344006061554,0.0152439996600151,0.342989981174469,-1188.30004882812,-1.5,-930.900024414062,0.893106479737971,-0.15230030867388,0.0999855487469075,ST
15.5333333333333,-1.70889449119568,-0.881064593791962,9.06844520568848,0.6250039935112,0.388722002506256,0.137196004390717,-1190.70007324219,2.70000004768372,-926.100036621094,0.892542732977435,-0.186082784918161,0.0957326559205642,ST
15.5666666666667,-1.76691436767578,-0.69564026594162,9.533203125,0.685979962348938,-0.320124000310898,0.25152599811554,-1197.90002441406,4.5,-933.300048828125,0.886561391168095,-0.18226461692828,0.0715679399722248,ST
15.6,-1.42298209667206,-0.588572680950165,9.44228458404541,1.02897000312805,-0.945127964019775,0.617381989955902,-1183.5,-2.10000014305115,-935.700012207031,0.879416065841215,-0.147733575308977,0.0602892174959168,ST
15.6333333333333,-1.32129776477814,-0.486888378858566,9.76767444610596,1.15854394435883,-0.830797970294952,0.724089980125427,-1193.10009765625,-0.900000035762787,-928.500061035156,0.871221034400003,-0.132911261542016,0.0476115912196118,ST
15.6666666666667,-1.6263507604599,-0.278136491775513,9.73058986663818,1.54726600646973,-0.320124000310898,1.18140995502472,-1195.5,-1.5,-935.700012207031,0.858295327983887,-0.165014652546047,0.0255444287542072,ST
15.7,-1.39845824241638,-0.35709136724472,9.57507228851318,1.37195992469788,0.137196004390717,1.2347639799118,-1183.5,-4.5,-933.300048828125,0.849168497124189,-0.145254501274613,0.0345622514716458,ST
15.7333333333333,-1.34462535381317,-0.37623193860054,9.13663387298584,0.853663980960846,-0.442075997591019,0.937505960464478,-1183.5,-6.30000019073486,-918.900024414062,0.841839551444457,-0.145291337459579,0.0394159995569962,ST
15.7666666666667,-1.33146619796753,-0.315221339464188,8.72451305389404,0.297257989645004,-0.152439996600151,0.92988395690918,-1183.5,-1.5,-909.300048828125,0.832624075945539,-0.151131424346408,0.0353521142478227,ST
15.8,-1.42776727676392,-0.44023323059082,8.65811920166016,0.419209986925125,0.640248000621796,1.08232402801514,-1195.5,-0.300000011920929,-928.500061035156,0.825393406302619,-0.164422265267478,0.0497514832520728,ST
15.8333333333333,-1.78844749927521,-0.691453278064728,9.84304046630859,0.0609759986400604,0.792688012123108,1.12805593013763,-1200.30004882812,-5.70000028610229,-923.700012207031,0.817959748044025,-0.18080969251446,0.0696719544909278,ST
15.8666666666667,-1.74956822395325,-0.696836590766907,9.83765697479248,-0.3125019967556,-0.533540010452271,0.983237981796265,-1185.90002441406,-2.10000014305115,-926.100036621094,0.807830104486514,-0.17477235232158,0.0709455574488297,ST
15.9,-1.22080981731415,-0.852951884269714,9.45185565948486,-0.243903994560242,-1.01372599601746,0.853663980960846,-1190.70007324219,2.10000014305115,-926.100036621094,0.800435316269242,-0.126332098443342,0.0902050093090857,ST
15.9333333333333,-1.35419571399689,-0.702219843864441,9.27061748504639,0.403965979814529,-0.236281991004944,0.685979962348938,-1197.90002441406,-1.5,-933.300048828125,0.791718283118436,-0.144305950498676,0.074729722331269,ST
15.9666666666667,-1.35120499134064,-0.589768946170807,9.53499698638916,0.861285984516144,0.0685980021953583,0.541162014007568,-1207.5,-3.30000019073486,-933.300048828125,0.785275871432807,-0.140686088702544,0.0601460754305162,ST
16.0,-1.39546751976013,-0.574815392494202,8.97872447967529,0.937505960464478,-0.807931959629059,0.975615978240967,-1193.10009765625,-2.70000004768372,-938.100036621094,0.776500080262024,-0.15256629380537,0.0620199191818443,ST
16.0333333333333,-0.96659904718399,-0.702817976474762,9.5326042175293,0.388722002506256,-1.08994603157043,0.716467976570129,-1193.10009765625,3.90000009536743,-928.500061035156,0.770553437343837,-0.0990349131339657,0.0727661043051053,ST
16.0666666666667,-0.685471832752228,-0.808091163635254,9.21439266204834,0.434453994035721,-1.29574000835419,0.419209986925125,-1200.30004882812,2.10000014305115,-921.300048828125,0.766478663244642,-0.071795875037136,0.0866429961513307,ST
16.1,-0.653172135353088,-0.911569893360138,9.62292385101318,1.01372599601746,0.25152599811554,-0.0685980021953583,-1193.10009765625,1.5,-940.500061035156,0.768472442136426,-0.067902051144274,0.0926821200573461,ST
16.1333333333333,-0.804502308368683,-0.882260859012604,9.70845890045166,1.36433792114258,0.83841997385025,-0.701223969459534,-1188.30004882812,-3.90000009536743,-921.300048828125,0.776768592390661,-0.0836717800387061,0.0883632752526392,ST
16.1666666666667,-0.994711756706238,-0.610105812549591,10.4806613922119,1.2347639799118,0.167683988809586,-1.36433792114258,-1200.30004882812,-4.5,-930.900024414062,0.789282038132202,-0.0946177671885555,0.0562401960938096,ST
16.2,-1.74119424819946,-0.242846041917801,10.5907192230225,1.60061991214752,-0.243903994560242,-1.98171997070312,-1197.90002441406,-5.70000028610229,-923.700012207031,0.807495489964396,-0.162365392854916,0.0207198960383788,ST
16.2333333333333,-1.55756425857544,0.229088753461838,9.32564735412598,1.73019397258759,0.144817993044853,-1.93598794937134,-1185.90002441406,-5.10000038146973,-938.100036621094,0.821156379590932,-0.165782272814292,-0.0269632820333347,ST
16.2666666666667,-2.37223505973816,0.522776961326599,9.34598350524902,2.03507399559021,-0.0076219998300075,-0.571649968624115,-1190.70007324219,-8.70000076293945,-933.300048828125,0.824903252098315,-0.248178165509376,-0.0591497989350307,ST
16.3,-1.80340111255646,0.238659039139748,9.60916709899902,2.01982998847961,0.335367977619171,0.914639949798584,-1202.70007324219,-3.90000009536743,-918.900024414062,0.825983442901062,-0.186033266478325,-0.0286753109744537,ST
16.3333333333333,-2.01992893218994,0.452196091413498,9.44766807556152,1.91312193870544,0.0914639979600906,1.34909391403198,-1193.10009765625,-6.30000019073486,-933.300048828125,0.812336081718064,-0.210409576070348,-0.0516439308659063,ST
16.3666666666667,-2.07555603981018,0.776987731456757,9.09895133972168,1.59299790859222,0.0762199983000755,2.11891603469849,-1188.30004882812,-0.300000011920929,-933.300048828125,0.787531402384457,-0.223278347768779,-0.088764577363237,ST
16.4,-1.9989937543869,0.700425446033478,9.18867206573486,1.02897000312805,0.434453994035721,2.22562384605408,-1178.70007324219,-11.1000003814697,-928.500061035156,0.770306053055421,-0.214072114089424,-0.0787415785874556,ST
16.4333333333333,-1.21064138412476,0.369054228067398,8.85610485076904,-0.0685980021953583,-0.815553963184357,1.69970595836639,-1171.5,-5.70000028610229,-928.500061035156,0.759051526725478,-0.134236389314394,-0.0419399564614586,ST
16.4666666666667,-1.38470101356506,0.440831363201141,9.02238845825195,-0.609759986400604,-1.00610399246216,1.27287399768829,-1185.90002441406,-7.50000047683716,-928.500061035156,0.745447341160533,-0.150228737226132,-0.0480724992499507,ST
16.5,-1.27225005626678,0.203368604183197,9.4075927734375,-0.411587983369827,-0.525918006896973,0.701223969459534,-1188.30004882812,-0.300000011920929,-928.500061035156,0.742046224974573,-0.133464840215693,-0.0210872905881609,ST
16.5333333333333,-1.62993955612183,0.137572884559631,9.66838264465332,-0.236281991004944,-0.221037998795509,0.304879993200302,-1190.70007324219,-5.70000028610229,-935.700012207031,0.739635433976182,-0.166582475766468,-0.0139090221277373,ST
16.5666666666667,-1.92183339595795,0.308043628931046,9.6043815612793,0.0533539988100529,0.0228659994900227,0.403965979814529,-1178.70007324219,-2.10000014305115,-933.300048828125,0.732523631599853,-0.197375674633254,-0.0322759691619025,ST
16.6,-1.49057233333588,0.166283741593361,9.54097843170166,-0.114329993724823,0.685979962348938,0.243903994560242,-1197.90002441406,-8.70000076293945,-930.900024414062,0.732166443368406,-0.156158241790779,-0.0173031884820792,ST
16.6333333333333,-1.36017715930939,-0.0167480036616325,9.59182071685791,-0.487807989120483,0.25152599811554,-0.503051996231079,-1185.90002441406,-6.90000009536743,-923.700012207031,0.739574691402375,-0.141313084059774,0.0027093276457268,ST
16.6666666666667,-1.50074076652527,-0.209350034594536,9.34359169006348,-0.342989981174469,0.541162014007568,-0.846041977405548,-1193.10009765625,-3.30000019073486,-926.100036621094,0.750411912222916,-0.160107068119859,0.0232194844069734,ST
16.7,-1.43733751773834,-0.617881715297699,9.1450080871582,-0.762199997901917,1.03659200668335,-0.99848198890686,-1188.30004882812,-3.30000019073486,-933.300048828125,0.766725365536225,-0.157236265552431,0.0690370007466781,ST
16.7333333333333,-1.53004968166351,-0.503636360168457,9.89507961273193,-1.18140995502472,0.426831990480423,-1.17378795146942,-1181.10009765625,-6.30000019073486,-930.900024414062,0.774069976088438,-0.153855969922876,0.0532564017320934,ST
16.7666666666667,-1.37513065338135,-0.270360618829727,8.89737701416016,-0.739333987236023,0.0,-1.27287399768829,-1185.90002441406,-0.300000011920929,-930.900024414062,0.782026980467234,-0.153201210673293,0.0320339804032566,ST
16.8,-1.53842377662659,-0.327782362699509,9.33162879943848,-0.365855991840363,0.960371971130371,-0.525918006896973,-1183.5,-0.900000035762787,-938.100036621094,0.787464411156019,-0.164921831930552,0.0359081650831522,ST
16.8333333333333,-1.23097825050354,-0.442625790834427,9.13005447387695,-0.289635986089706,-0.0609759986400604,0.46494197845459,-1181.10009765625,0.300000011920929,-933.300048828125,0.784461938537386,-0.133831134639393,0.0488234414013692,ST
16.8666666666667,-1.0216281414032,-0.324791640043259,8.30282211303711,-0.213415995240211,-0.182927995920181,1.00610399246216,-1185.90002441406,-3.90000009536743,-933.300048828125,0.773142062296236,-0.122100835125291,0.0392643303131148,ST
16.9,-1.19927668571472,-0.587974548339844,9.70307540893555,-0.6250039935112,0.899396002292633,1.08232402801514,-1183.5,-4.5,-928.500061035156,0.765104838191971,-0.124430857622842,0.0613651957102042,ST
16.9333333333333,-1.30634427070618,-0.627451956272125,10.170823097229,-1.15092194080353,-0.37347799539566,0.815553963184357,-1183.5,-8.70000076293945,-933.300048828125,0.755227649435355,-0.126939449497139,0.0634342415343765,ST
16.9666666666667,-1.48997414112091,-0.696238398551941,10.0852890014648,-0.846041977405548,-0.388722002506256,0.83841997385025,-1176.30004882812,-0.900000035762787,-938.100036621094,0.746021369702252,-0.145746533660361,0.0701768600517908,ST
17.0,-2.18202567100525,-0.722556710243225,10.0936622619629,0.0304879993200302,0.548784017562866,0.823175966739655,-1178.70007324219,-0.300000011920929,-928.500061035156,0.738521573452604,-0.21337394513364,0.0711140624038463,ST
17.0333333333333,-1.65565979480743,-0.886447906494141,9.497314453125,0.274392008781433,0.0762199983000755,0.746955990791321,-1178.70007324219,-7.50000047683716,-923.700012207031,0.735965993014076,-0.172160652968567,0.0923409812129307,ST
17.0666666666667,-1.91824448108673,-0.738706588745117,8.98769664764404,0.0457319989800453,-0.152439996600151,-0.228659987449646,-1171.5,-0.300000011920929,-938.100036621094,0.736292252526187,-0.209266571717188,0.0820133732355219,ST
17.1,-2.46016192436218,-0.404942780733109,9.55473613739014,0.266770005226135,-0.198172003030777,-0.548784017562866,-1171.5,-2.70000004768372,-923.700012207031,0.732941734141993,-0.251357786217267,0.0421766516252641,ST
17.1333333333333,-2.10366892814636,-0.354698777198792,9.93096733093262,0.617381989955902,-0.884151995182037,-0.579271972179413,-1166.70007324219,0.900000035762787,-935.700012207031,0.737795414979907,-0.207085866262087,0.0348328220883137,ST
17.1666666666667,-1.27105379104614,-0.396568775177002,8.95121002197266,0.823175966739655,-1.37958192825317,-0.221037998795509,-1183.5,-8.10000038146973,-928.500061035156,0.741974646111313,-0.138572348460867,0.0428680159247738,ST
17.2,-1.66941702365875,-0.45638307929039,9.19166278839111,0.807931959629059,-0.297257989645004,0.0609759986400604,-1183.5,-7.50000047683716,-926.100036621094,0.743442510891373,-0.17889065010998,0.0481711623583687,ST
17.2333333333333,-1.76153099536896,-0.90977543592453,9.72221565246582,0.411587983369827,0.365855991840363,0.152439996600151,-1195.5,-3.30000019073486,-933.300048828125,0.750888930921868,-0.179138814246876,0.0925006236801693,ST
17.2666666666667,-1.85902833938599,-0.961813926696777,8.81543064117432,0.0762199983000755,0.746955990791321,-0.419209986925125,-1169.10009765625,-4.5,-933.300048828125,0.75891045227893,-0.207831712411062,0.108707790715378,ST
17.3,-2.63481974601746,-0.589768946170807,9.34478759765625,0.564027965068817,0.754577994346619,0.304879993200302,-1183.5,-2.70000004768372,-916.500061035156,0.746720915398387,-0.275605886609454,0.0619488384789096,ST
17.3333333333333,-2.7903368473053,-0.866111040115356,8.58753871917725,0.975615978240967,0.480185985565186,0.891773998737335,-1176.30004882812,-2.10000014305115,-928.500061035156,0.751996812461891,-0.31364547389936,0.0983148177810657,ST
17.3666666666667,-2.88783431053162,-0.577207982540131,9.30949687957764,0.846041977405548,1.01372599601746,1.07470202445984,-1166.70007324219,-4.5,-918.900024414062,0.733242419596197,-0.302137759736094,0.0599294171911674,ST
17.4,-2.551677942276,-0.646592557430267,9.29334735870361,0.480185985565186,-0.731711983680725,1.44055795669556,-1171.5,0.900000035762787,-938.100036621094,0.721957224229084,-0.26627123137579,0.0679119997046254,ST
17.4333333333333,-2.32916879653931,-0.555076658725739,8.72451305389404,0.365855991840363,-1.10518991947174,1.60824191570282,-1166.70007324219,-0.300000011920929,-923.700012207031,0.704170153466786,-0.258634313090753,0.0621278709077414,ST
17.4666666666667,-2.26576566696167,-0.277538329362869,10.1720190048218,0.602137982845306,-1.60061991214752,2.31708788871765,-1166.70007324219,-3.30000019073486,-935.700012207031,0.673572882107329,-0.216435101699232,0.0253513997751148,ST
