seconds,sensor_accX_m_s_,sensor_accY_m_s_,sensor_accZ_m_s_,sensor_gyroX___s_,sensor_gyroY___s_,sensor_gyroZ___s_,sensor_magX__T_,sensor_magY__T_,sensor_magZ__T_,sensor_yaw___,sensor_pitch___,sensor_roll___,label4
0.0,-1.309933066,-0.9719823,9.497314453,0.137196004,0.068598002,0.022865999,-1128.300049,-13.50000095,-978.9000244,1.777414853,-0.136460566,0.101755539,ST
0.033333333,-1.434944987,-0.946262181,9.51286602,0.304879993,0.167683989,-0.144817993,-1121.100098,-9.900000572,-966.9000244,1.778007518,-0.148895538,0.098742641,ST
0.066666667,-1.489974141,-0.96958977,9.498510361,0.373477995,0.030487999,-0.175305992,-1109.100098,-13.50000095,-976.500061,1.779422487,-0.154585846,0.101025142,ST
0.1,-1.498946309,-0.924729049,9.472789764,0.373477995,-0.160062,-0.099086002,-1118.700073,-11.10000038,-971.7000122,1.779422113,-0.155856821,0.096858472,ST
0.133333333,-1.484590888,-0.932504892,9.485351563,0.381099999,-0.259148002,0.022865999,-1121.100098,-11.10000038,-976.500061,1.779542576,-0.154147567,0.097298313,ST
0.166666667,-1.469637275,-0.93669188,9.530212402,0.365855992,-0.335367978,0.091463998,-1121.100098,-12.30000019,-966.9000244,1.779236166,-0.151812441,0.097300193,ST
0.2,-1.381112099,-0.937290013,9.441088676,0.373477995,-0.243903995,0.144817993,-1118.700073,-4.5,-971.7000122,1.778858282,-0.144468345,0.098219924,ST
0.233333333,-1.427169085,-0.876279473,9.521838188,0.480185986,-0.137196004,0.114329994,-1121.100098,-8.700000763,-976.500061,1.777581607,-0.147798456,0.091196397,ST
0.266666667,-1.35778451,-0.951047301,9.472191811,0.487807989,-0.129574001,0.0,-1125.900024,-8.700000763,-959.7000122,1.778956382,-0.141704982,0.098888963,ST
0.3,-1.376326919,-0.875083148,9.53559494,0.548784018,-0.213415995,-0.144817993,-1125.900024,-8.700000763,-962.1000366,1.778753875,-0.142333491,0.090924338,ST
0.333333333,-1.369149208,-0.860727727,9.47877121,0.586893976,-0.266770005,-0.106707998,-1111.5,-8.100000381,-978.9000244,1.779326298,-0.142389036,0.089609365,ST
0.366666667,-1.431356072,-0.811081886,9.482958794,0.579271972,-0.266770005,0.007622,-1113.900024,-9.300000191,-983.7000122,1.778857486,-0.148649991,0.08443558,ST
0.4,-1.399654508,-0.79074502,9.434509277,0.464941978,-0.312501997,0.083841994,-1121.100098,-9.300000191,-983.7000122,1.778438507,-0.146339717,0.082846224,ST
0.433333333,-1.345223546,-0.79553014,9.393237114,0.320124,-0.228659987,0.106707998,-1125.900024,-6.300000191,-990.9000244,1.778222085,-0.141564141,0.083857379,ST
0.466666667,-1.311727524,-0.870896161,9.552941322,0.167683989,-0.198172003,0.076219998,-1128.300049,-9.900000572,-969.3000488,1.778771367,-0.135717784,0.090431678,ST
0.5,-1.363765955,-0.853550017,9.469201088,0.251525998,-0.160062,0.022865999,-1121.100098,-8.700000763,-983.7000122,1.778632156,-0.141960081,0.089483814,ST
0.533333333,-1.408626676,-0.869699895,9.456640244,0.289635986,0.015244,0.045731999,-1121.100098,-9.300000191,-969.3000488,1.778860141,-0.147074017,0.091122763,ST
0.566666667,-1.405635953,-0.883457184,9.417760849,0.213415995,0.068598002,0.060975999,-1113.900024,-12.90000057,-978.9000244,1.779041894,-0.147627468,0.09306505,ST
0.6,-1.446907878,-0.878672004,9.516454697,0.175305992,-0.007622,0.114329994,-1133.100098,-19.5,-971.7000122,1.778450778,-0.150155724,0.091788686,ST
0.633333333,-1.451094866,-0.897214472,9.511669159,0.190549999,-0.190549999,0.236281991,-1109.100098,-20.10000038,-981.3000488,1.777697243,-0.150428963,0.093574377,ST
0.666666667,-1.433748722,-0.863120317,9.482958794,0.198172003,-0.266770005,0.335367978,-1123.5,-14.70000076,-981.3000488,1.775735817,-0.149093056,0.090459843,ST
0.7,-1.394271255,-0.907981038,9.387255669,0.182927996,-0.259148002,0.327746004,-1130.700073,-12.90000057,-974.1000366,1.774922151,-0.14645571,0.095858809,ST
0.733333333,-1.350606799,-0.951047301,9.4907341,0.007622,-0.137196004,0.121951997,-1116.300049,-9.300000191,-976.500061,1.774856994,-0.140690508,0.099666716,ST
0.766666667,-1.335653305,-0.967795312,9.525426865,0.228659987,-0.274392009,0.068598002,-1123.5,-13.50000095,-981.3000488,1.77472142,-0.138246131,0.100784104,ST
0.8,-1.39546752,-0.968393445,9.542773247,0.320124,-0.251525998,0.106707998,-1128.300049,-13.50000095,-981.3000488,1.774297785,-0.143818221,0.100551016,ST
0.833333333,-1.413411856,-0.913962483,9.46381855,0.411587983,-0.182927996,0.175305992,-1123.5,-11.70000076,-964.500061,1.772995865,-0.147147391,0.095712721,ST
0.866666667,-1.3697474,-0.950449169,9.532006264,0.358233988,-0.076219998,0.282013983,-1128.300049,-14.10000038,-969.3000488,1.772329812,-0.142155229,0.098564794,ST
0.9,-1.358382702,-1.068283319,9.656419754,0.312501997,-0.190549999,0.266770005,-1118.700073,-14.70000076,-988.500061,1.772706336,-0.138780781,0.109119472,ST
0.933333333,-1.342831016,-0.975571215,9.499706268,0.525918007,-0.053353999,0.236281991,-1130.700073,-9.900000572,-962.1000366,1.77091221,-0.139613969,0.101674371,ST
0.966666667,-1.495955586,-0.799118996,9.369311333,0.868907988,0.259148002,0.510674,-1113.900024,-13.50000095,-971.7000122,1.766715234,-0.157535602,0.084177449,ST
1.0,-1.482796431,-0.776987731,9.410583496,0.876529992,0.259148002,0.655492008,-1123.5,-12.30000019,-976.500061,1.763943573,-0.156354284,0.080816806,ST
1.033333333,-1.472627997,-0.719565988,9.40699482,0.701223969,0.083841994,0.678357959,-1113.900024,-14.10000038,-978.9000244,1.760519489,-0.155128203,0.075175732,ST
1.066666667,-1.472029805,-0.699827254,9.393835068,0.457319975,-0.068598002,0.579271972,-1123.5,-13.50000095,-966.9000244,1.757642721,-0.154973844,0.073448061,ST
1.1,-1.415804386,-0.729734421,9.436303139,0.282013983,-0.160062,0.464941978,-1140.300049,-15.30000019,-971.7000122,1.755948604,-0.14846215,0.076474629,ST
1.133333333,-1.378121376,-0.751865745,9.524828911,0.198172003,-0.312501997,0.228659987,-1116.300049,-12.30000019,-974.1000366,1.755134154,-0.142920386,0.078304429,ST
1.166666667,-1.481600165,-0.686668158,9.533203125,0.274392009,-0.464941978,0.114329994,-1116.300049,-11.10000038,-986.1000366,1.753669247,-0.152585285,0.071667958,ST
1.2,-1.348812342,-0.826633573,9.382471085,-0.007622,-0.068598002,0.274392009,-1111.5,-3.300000191,-981.3000488,1.754583001,-0.142452909,0.087366109,ST
1.233333333,-1.431954265,-0.732127011,9.660607338,-0.121951997,0.030487999,0.144817993,-1128.300049,-11.10000038,-974.1000366,1.752171103,-0.146690122,0.076141751,ST
1.266666667,-1.521077633,-0.906784773,9.320263863,0.083841994,0.358233988,0.175305992,-1106.700073,-5.700000286,-983.7000122,1.754613943,-0.161202551,0.096140594,ST
1.3,-1.795027018,-0.819455862,9.511669159,0.228659987,0.769822001,0.099086002,-1116.300049,-18.90000153,-981.3000488,1.752905411,-0.186150027,0.085963414,ST
1.333333333,-2.188006878,-0.897812605,9.432116508,0.495429993,0.899396002,-0.007622,-1118.700073,-11.10000038,-976.500061,1.755386223,-0.226792781,0.093738433,ST
1.366666667,-2.171258926,-0.942673326,9.47877121,0.419209987,1.036592007,-0.29725799,-1123.5,-8.700000763,-964.500061,1.758634272,-0.225899882,0.09835776,ST
1.4,-2.234662056,-0.923532724,9.470397949,0.396344006,0.838419974,-0.685979962,-1113.900024,-11.70000076,-976.500061,1.762146841,-0.231760864,0.096894447,ST
1.433333333,-2.316607714,-0.841587186,9.053491592,0.525918007,0.83079797,-1.006103992,-1104.300049,-4.5,-974.1000366,1.766495963,-0.249982801,0.092438542,ST
1.466666667,-2.30883193,-0.778782129,8.852516174,0.640248001,0.746955991,-1.013725996,-1118.700073,-15.30000019,-981.3000488,1.770921185,-0.25513833,0.087309831,ST
1.5,-2.688054562,-0.575413525,9.086389542,0.83079797,0.464941978,-0.891773999,-1101.900024,-11.10000038,-978.9000244,1.769626908,-0.286468146,0.063284575,ST
1.533333333,-2.768803835,-0.394176215,9.110315323,0.838419974,-0.038109999,-0.243903995,-1104.300049,-16.5,-974.1000366,1.765930954,-0.294370563,0.042774258,ST
1.566666667,-2.511602402,-0.426475942,9.151587486,0.571649969,-0.853663981,0.228659987,-1109.100098,-20.10000038,-976.500061,1.766167269,-0.267120309,0.045345949,ST
1.6,-2.309430122,-0.532347262,9.103735924,0.015244,-1.501533985,0.335367978,-1106.700073,-14.10000038,-971.7000122,1.767463889,-0.246329248,0.057676547,ST
1.633333333,-2.05462122,-0.495860517,9.292749405,-0.53354001,-1.76830399,0.198172003,-1116.300049,-14.70000076,-983.7000122,1.764805486,-0.215539347,0.05426867,ST
1.666666667,-1.879365206,-0.482103229,9.1665411,-0.564027965,-1.996963978,0.076219998,-1111.5,-14.70000076,-983.7000122,1.763291158,-0.199170023,0.053497305,ST
1.7,-1.733418345,-0.396568775,9.120484352,-0.503051996,-1.570132017,0.045731999,-1116.300049,-8.700000763,-966.9000244,1.76062023,-0.185490124,0.044666213,ST
1.733333333,-1.58388257,-0.462962657,9.484752655,-0.541162014,-1.158543944,0.442075998,-1116.300049,-14.10000038,-962.1000366,1.75852449,-0.163915252,0.049433543,ST
1.766666667,-1.637117267,-0.605918825,9.357348442,-1.006103992,-1.318606019,0.243903995,-1101.900024,-9.300000191,-966.9000244,1.758977196,-0.170307891,0.0656345,ST
1.8,-2.251410246,-0.475523651,9.310693741,-0.861285985,-0.541162014,0.060975999,-1113.900024,-10.5,-969.3000488,1.755202111,-0.233351036,0.053040183,ST
1.833333333,-2.242438078,-0.502440095,9.329236031,-0.609759986,0.251525998,0.182927996,-1123.5,-8.700000763,-964.500061,1.754182315,-0.235910354,0.054726575,ST
1.866666667,-2.448199272,-0.553282261,9.183288574,-0.396344006,0.495429993,0.259148002,-1118.700073,-7.500000477,-981.3000488,1.754007634,-0.260267693,0.060591567,ST
1.9,-2.086920738,-0.784165442,9.150391579,-0.503051996,-0.007622,-0.434453994,-1121.100098,-9.900000572,-969.3000488,1.761383711,-0.224867772,0.085495985,ST
1.933333333,-2.025312185,-1.064694524,9.344189644,-0.586893976,0.106707998,-0.72408998,-1125.900024,-10.5,-971.7000122,1.770508334,-0.212517866,0.113931637,ST
1.966666667,-0.982150733,-1.646089435,9.801170349,-0.929883957,-1.295740008,-0.823175967,-1125.900024,-11.70000076,-974.1000366,1.781158793,-0.099337493,0.166627197,ST
2.0,-0.125011876,-2.253802776,9.41536808,-1.189031959,-2.903981924,-1.42531395,-1128.300049,-2.100000143,-978.9000244,1.788579768,-0.010017248,0.235074474,ST
2.033333333,-0.53653425,-2.55107975,9.982408524,-0.670735955,-2.774407864,-1.196653962,-1121.100098,-9.900000572,-962.1000366,1.791408297,-0.045905451,0.251002848,ST
2.066666667,-1.40264523,-2.279522896,10.20252419,0.632625997,-1.646351933,-0.213415995,-1121.100098,-6.300000191,-964.500061,1.788238805,-0.127059929,0.220009518,ST
2.1,-1.588069558,-2.26397109,9.591222763,0.983237982,-0.40396598,0.548784018,-1133.100098,-6.900000095,-974.1000366,1.787403608,-0.157995057,0.229511361,ST
2.133333333,-2.311224461,-2.016340017,10.67206669,0.556405962,0.083841994,0.503051996,-1125.900024,-9.900000572,-964.500061,1.778065245,-0.207884696,0.187393478,ST
2.166666667,-2.856132746,-1.608406425,10.23901176,1.55488801,0.396344006,0.510674,-1125.900024,-14.70000076,-978.9000244,1.770066284,-0.267209962,0.154310257,ST
2.2,-2.524163246,-2.080939293,8.898572922,1.402447939,2.157026052,0.754577994,-1121.100098,-5.100000381,-964.500061,1.789084884,-0.273234325,0.224184385,ST
2.233333333,-3.160587549,-1.603023171,9.664793968,0.876529992,2.454283953,0.434453994,-1128.300049,-9.300000191,-971.7000122,1.773327355,-0.314690231,0.165342955,ST
2.266666667,-3.295767784,-1.740596056,8.658718109,1.509155989,1.913121939,1.471045971,-1118.700073,-7.500000477,-964.500061,1.780340353,-0.359059193,0.193819811,ST
2.3,-3.27842164,-1.812373161,9.64385891,0.823175967,1.181409955,1.63872993,-1116.300049,-8.100000381,-976.500061,1.771899738,-0.326078284,0.183823548,ST
2.333333333,-2.98652792,-1.601228714,9.757506371,1.775925994,0.228659987,2.027451992,-1109.100098,-11.10000038,-966.9000244,1.758314006,-0.295580149,0.159517845,ST
2.366666667,-3.321487904,-1.413411856,8.932666779,2.17227006,1.463423967,3.216483831,-1111.5,-17.10000038,-988.500061,1.746205159,-0.352928494,0.151604039,ST
2.4,-3.481790304,-1.339242101,8.820814133,1.722571969,2.240867853,4.070147991,-1104.300049,-13.50000095,-974.1000366,1.730954565,-0.376006482,0.145406106,ST
2.433333333,-3.660036802,-0.952841759,7.909244537,1.669217944,3.010689974,4.634175777,-1109.100098,-16.5,-969.3000488,1.703197401,-0.434906864,0.114612689,ST
2.466666667,-3.841872215,-0.544310093,7.386467457,-0.053353999,3.483253956,5.114361763,-1104.300049,-8.700000763,-971.7000122,1.664052876,-0.483219091,0.071141301,ST
2.5,-3.173746586,-0.537730515,7.653837681,-2.240867853,3.62045002,5.34302187,-1094.700073,-9.900000572,-969.3000488,1.638090626,-0.402568269,0.070212428,ST
2.533333333,-3.816750288,-0.436644375,8.708363533,-2.218001842,4.260697842,5.152472019,-1101.900024,-12.90000057,-964.500061,1.60559508,-0.419787624,0.050968046,ST
2.566666667,-3.394461393,-0.695640266,9.875340462,-1.806414008,3.795755863,5.000031948,-1075.5,-3.300000191,-957.3000488,1.589137371,-0.34085064,0.069700441,ST
2.6,-3.002677679,-0.384007782,9.991379738,-1.143299937,2.446661949,4.336917877,-1070.700073,-13.50000095,-971.7000122,1.559506087,-0.298135024,0.039356586,ST
2.633333333,-3.53741765,0.050244011,9.312487602,0.282013983,2.004585981,3.765267849,-1073.100098,-5.700000286,-983.7000122,1.527133379,-0.364582104,-0.006992249,ST
2.666666667,-2.759831667,-0.242247909,9.315478325,0.045731999,1.905499935,4.016793728,-1075.5,-7.500000477,-974.1000366,1.518800894,-0.294031007,0.022690601,ST
2.7,-3.117521048,-0.674705267,8.978125572,0.274392009,2.355197906,1.8292799,-1073.100098,-18.30000114,-976.500061,1.526484241,-0.336440876,0.072078176,ST
2.733333333,-3.111539841,-0.860727727,8.455348969,0.137196004,3.437521935,1.493911982,-1068.300049,-6.900000095,-976.500061,1.530846,-0.356336695,0.099309771,ST
2.766666667,-3.844862938,-1.427169085,9.685131073,0.038109999,3.376545906,1.158543944,-1051.5,-11.70000076,-976.500061,1.543870864,-0.379394028,0.14387639,ST
2.8,-3.004472256,-1.53902185,9.143811226,0.625003994,2.050318003,-0.708845973,-1056.300049,-6.300000191,-981.3000488,1.556637711,-0.319231175,0.165382389,ST
2.833333333,-3.502725124,-0.721958578,7.44628191,0.53354001,1.974097967,0.175305992,-1051.5,-9.900000572,-986.1000366,1.533216897,-0.43640729,0.098705737,ST
2.866666667,-2.690447092,-2.041461945,8.652137756,-2.06556201,4.13112402,0.266770005,-1049.100098,-5.100000381,-983.7000122,1.580066454,-0.306670091,0.230354942,ST
2.9,-3.864003658,-1.04495573,9.280786514,0.106707998,3.589962006,-2.446661949,-1044.300049,-9.900000572,-998.1000366,1.554682014,-0.394333301,0.118849551,ST
2.933333333,-4.791125298,-1.298568368,7.917020321,2.583858013,5.464973927,-0.053353999,-1027.5,-4.5,-974.1000366,1.581096335,-0.541512876,0.15716069,ST
2.966666667,-5.456260204,-1.302755356,7.722623825,3.178373814,5.083873749,1.371959925,-1025.100098,-7.500000477,-978.9000244,1.58933643,-0.614900199,0.160763994,ST
3.0,-6.426447868,0.025122005,7.277605534,3.719535828,2.027451992,1.996963978,-1027.5,-11.10000038,-983.7000122,1.49013474,-0.722605721,-0.005370501,ST
3.033333333,-6.842157364,0.499449372,7.811747074,3.193617821,0.365855992,3.849109888,-1010.700012,-14.10000038,-969.3000488,1.442135554,-0.718710153,-0.072499121,ST
3.066666667,-6.507795334,0.913364291,8.302224159,2.667700052,-0.419209987,4.61893177,-1025.100098,-16.5,-988.500061,1.404210739,-0.662645026,-0.118586084,ST
3.1,-5.679965496,1.842280388,8.011527061,2.179892063,-0.975615978,4.489357948,-1027.5,-11.70000076,-976.500061,1.327412404,-0.60352991,-0.230870874,ST
3.133333333,-6.012533188,2.863908529,8.242409706,1.653973937,-0.495429993,4.176856041,-1020.300049,-14.10000038,-976.500061,1.256774596,-0.600400969,-0.337333183,ST
3.166666667,-4.865892887,2.482293367,7.762101173,0.365855992,-0.72408998,3.978683949,-1017.900024,-20.10000038,-983.7000122,1.255957061,-0.537569985,-0.314821951,ST
3.2,-4.202552319,2.266961813,8.872254372,-0.983237982,-2.789651871,0.358233988,-1032.300049,-10.5,-990.9000244,1.2856917,-0.428961298,-0.250194397,ST
3.233333333,-3.810768843,1.500142574,7.610771179,-0.975615978,-3.597584009,-1.463423967,-1022.700012,-9.900000572,-986.1000366,1.316976406,-0.450104247,-0.193548223,ST
3.266666667,-4.490857601,1.002487659,8.316579819,-1.570132017,-3.696669817,-3.269837856,-1049.100098,-12.90000057,-974.1000366,1.365057133,-0.485411004,-0.116136355,ST
3.3,-4.407117367,0.225499898,7.384673119,-2.080806017,-3.528985977,-4.146368027,-1039.5,-0.900000036,-971.7000122,1.42301703,-0.530658424,-0.025280472,ST
3.333333333,-5.581870079,-0.219518468,8.067153931,-1.981719971,-2.339953899,-4.53508997,-1044.300049,-11.70000076,-986.1000366,1.466822338,-0.597975495,0.033327239,ST
3.366666667,-6.245809078,-0.535337985,8.652137756,-0.952749968,-1.257629991,-4.733262062,-1041.900024,-9.900000572,-981.3000488,1.5036669,-0.621041927,0.068339581,ST
3.4,-6.264949322,-0.776389599,8.299832344,-0.708845973,-1.265251994,-4.778994083,-1044.300049,-11.10000038,-990.9000244,1.537178996,-0.64066878,0.099204256,ST
3.433333333,-5.499326706,-0.628648281,8.329140663,0.152439997,-1.067080021,-4.611310005,-1041.900024,-8.100000381,-981.3000488,1.544249854,-0.582209766,0.081034371,ST
3.466666667,-5.487961769,-0.661546111,8.147305489,0.571649969,-0.967993975,-4.352161884,-1049.100098,-8.700000763,-983.7000122,1.564124006,-0.58866438,0.084820425,ST
3.5,-4.861706257,-0.321800917,8.112014771,0.72408998,-0.373477995,-3.323191881,-1056.300049,-12.30000019,-986.1000366,1.556705716,-0.540700075,0.043567627,ST
3.533333333,-3.9537251,0.119628593,8.138931274,1.112811923,-0.327746004,-2.789651871,-1037.100098,-6.300000191,-969.3000488,1.544873413,-0.454160015,-0.012673334,ST
3.566666667,-3.526052713,-0.10946016,8.636586189,1.387203932,0.289635986,-2.721053839,-1051.5,-17.10000038,-971.7000122,1.570133151,-0.389913663,0.011555932,ST
3.6,-2.539116859,-0.04844958,9.221570015,0.891773999,0.213415995,-2.949713945,-1046.700073,-11.10000038,-974.1000366,1.583629037,-0.272434669,0.005360047,ST
3.633333333,-2.617473602,-0.061608724,9.024781227,0.083841994,1.577754021,-2.57623601,-1041.900024,-6.900000095,-969.3000488,1.596588713,-0.2845985,0.00791127,ST
3.666666667,-3.450686693,-0.159704179,9.499108315,-0.731711984,3.056421995,-1.394825935,-1034.700073,-12.90000057,-969.3000488,1.605107177,-0.350876892,0.018532145,ST
3.7,-3.709682703,0.157311603,9.429125786,-0.83079797,2.858249903,-0.419209987,-1037.100098,-5.700000286,-976.500061,1.593858536,-0.379067129,-0.014132683,ST
3.733333333,-4.404126644,-0.090319589,8.421853065,-1.676839948,1.493911982,1.577754021,-1022.700012,-10.5,-981.3000488,1.593796868,-0.481466937,0.011473821,ST
3.766666667,-4.642187595,-0.250023752,8.971546173,-3.437521935,-0.586893976,2.721053839,-1017.900024,-10.5,-988.500061,1.583606578,-0.476632198,0.030677652,ST
3.8,-4.79351759,-0.68008858,7.731595993,-4.778994083,-3.346057892,4.557955742,-1039.5,-10.5,-981.3000488,1.579470332,-0.546114306,0.08926244,ST
3.833333333,-4.01234293,-1.671809554,8.34828186,-6.11284399,-3.551851988,6.989373684,-1041.900024,0.300000012,-986.1000366,1.587348568,-0.441068488,0.197543552,ST
3.866666667,-4.179822922,-2.72753191,9.275403023,-6.143332005,-4.192100048,6.288149834,-1029.900024,-2.100000143,-988.500061,1.582715108,-0.405578169,0.28750432,ST
3.9,-3.919631004,-2.374029398,8.276504517,-3.902463913,-3.071666002,5.655523777,-1053.900024,3.900000095,-969.3000488,1.54646753,-0.42401313,0.2814879,ST
3.933333333,-4.384985924,-2.762224197,8.341701508,-2.416173935,-0.29725799,5.373509884,-1046.700073,3.900000095,-981.3000488,1.533442588,-0.464126019,0.318398339,ST
3.966666667,-4.322779179,-2.864506721,7.457048416,-0.487807989,1.897877932,1.897877932,-1051.5,3.300000191,-988.500061,1.549113606,-0.498997244,0.364802852,ST
4.0,-5.401829243,-2.476910114,6.833185196,1.288118005,5.274424076,0.640248001,-1044.300049,-1.5,-969.3000488,1.548540753,-0.643952513,0.347566872,ST
4.033333333,-5.855221748,-1.952338696,7.681950092,2.629590034,6.021379948,0.0,-1039.5,1.5,-969.3000488,1.503522152,-0.64638822,0.250352603,ST
4.066666667,-6.283492088,-1.68496871,7.955899715,2.949713945,4.519845963,0.457319975,-1020.300049,-2.100000143,-971.7000122,1.486849131,-0.664948845,0.206114323,ST
4.1,-6.309212208,-1.081442475,7.687931538,2.339953899,2.096050024,0.198172003,-1022.700012,-0.900000036,-983.7000122,1.451965002,-0.685262232,0.138693931,ST
4.133333333,-6.900775433,-0.902597725,7.273418427,0.815553963,-0.228659987,1.097568035,-1020.300049,-0.900000036,-974.1000366,1.439001768,-0.752294409,0.121004095,ST
4.166666667,-6.413887024,-0.882859051,6.981524944,-0.838419974,-1.532021999,3.117398024,-1025.100098,-9.900000572,-971.7000122,1.425920314,-0.737723129,0.121990909,ST
4.2,-6.034664631,-0.927719772,7.506694317,-1.951231956,-2.675322056,4.016793728,-1037.100098,-3.300000191,-971.7000122,1.403863161,-0.672378427,0.120362551,ST
4.233333333,-5.365342617,-1.367952943,7.738175392,-2.46952796,-3.689047813,4.557955742,-1025.100098,-3.300000191,-971.7000122,1.408353621,-0.597232616,0.171073001,ST
4.266666667,-4.882640839,-1.437337518,7.88173008,-2.698187828,-4.123501778,4.984787941,-1037.100098,-6.300000191,-981.3000488,1.382218312,-0.543543689,0.178828746,ST
4.3,-4.392762184,-1.674202204,8.616249084,-2.949713945,-4.093013763,4.961921692,-1037.100098,1.5,-981.3000488,1.357305753,-0.461331743,0.191658376,ST
4.333333333,-3.293973446,-1.842878461,8.167043686,-2.721053839,-4.809482098,4.512223721,-1039.5,8.700000763,-978.9000244,1.341550481,-0.372111046,0.221628757,ST
4.366666667,-2.962602139,-1.806391716,8.543873787,-1.410069942,-3.361301899,4.237832069,-1041.900024,2.100000143,-981.3000488,1.31163906,-0.324246818,0.208314815,ST
4.4,-3.010453463,-1.638911724,9.12168026,0.449698001,-2.019829988,3.955817938,-1049.100098,0.300000012,-966.9000244,1.281708516,-0.312185915,0.175530536,ST
4.433333333,-2.936283827,-1.421785831,8.920105934,3.10977602,-1.006103992,3.254593849,-1049.100098,2.700000048,-993.3000488,1.264003833,-0.313388965,0.151732748,ST
4.466666667,-3.136661768,-1.394869447,9.372302055,3.612828016,-1.394825935,1.859767914,-1049.100098,3.300000191,-978.9000244,1.256443402,-0.317605749,0.140588812,ST
4.5,-3.65704608,-0.909775436,8.276504517,3.163130045,-1.920743942,-0.076219998,-1049.100098,2.700000048,-974.1000366,1.248976029,-0.407879535,0.104912096,ST
4.533333333,-4.741479397,-0.613694668,7.901468754,2.553369999,-0.602137983,0.350611985,-1049.100098,2.100000143,-966.9000244,1.23902045,-0.533970841,0.073710255,ST
4.566666667,-4.870678425,-0.769810021,8.454153061,1.12805593,0.40396598,0.42683199,-1058.700073,2.100000143,-976.500061,1.247196413,-0.522169513,0.087854421,ST
4.6,-4.734899998,-0.949851036,8.307009697,0.365855992,-0.929883957,-0.365855992,-1058.700073,-0.900000036,-986.1000366,1.26126738,-0.513942371,0.112429489,ST
4.633333333,-5.089000225,-0.142956167,8.275906563,-0.083841994,0.083841994,0.998481989,-1049.100098,-2.700000048,-986.1000366,1.209059564,-0.550560928,0.018789661,ST
4.666666667,-4.632617474,-0.428868502,9.049304962,0.243903995,0.060975999,2.019829988,-1058.700073,-6.900000095,-986.1000366,1.213526771,-0.4754199,0.044293453,ST
4.7,-4.306031227,-0.288304925,9.383069038,-0.320124,-1.150921941,1.592997909,-1053.900024,0.300000012,-986.1000366,1.199578158,-0.429647898,0.030403965,ST
4.733333333,-3.964491606,0.325389773,9.62112999,-0.91463995,-2.522881985,1.326228023,-1051.5,-6.900000095,-978.9000244,1.168142806,-0.38799534,-0.030586647,ST
4.766666667,-3.006864786,0.162694886,8.951210022,-0.998481989,-3.734779835,1.158543944,-1058.700073,2.100000143,-990.9000244,1.165742912,-0.319215004,-0.01740359,ST
4.8,-3.171354055,-0.025122005,9.118091583,-1.516777992,-2.385685921,0.975615978,-1075.5,1.5,-981.3000488,1.165743113,-0.330200119,0.004107049,ST
4.833333333,-2.69702673,-0.607713282,9.61096096,-0.655492008,0.457319975,-0.114329994,-1068.300049,0.300000012,-971.7000122,1.182738788,-0.276157001,0.061951634,ST
4.866666667,-2.798112869,-0.25421077,9.18927002,-0.038109999,1.859767914,-1.120433927,-1073.100098,3.300000191,-969.3000488,1.178840464,-0.297743662,0.029720462,ST
4.9,-2.94405961,0.046057008,8.784327507,-0.038109999,2.614346027,-0.685979962,-1070.700073,2.700000048,-971.7000122,1.171838541,-0.327098107,-0.003800058,ST
4.933333333,-2.50382638,-0.139367312,9.094763756,-0.701223969,2.240867853,-0.274392009,-1049.100098,-1.5,-981.3000488,1.178088597,-0.274488009,0.015970824,ST
4.966666667,-2.333355665,-0.3271842,8.694007874,-1.585376024,2.324709892,-0.434453994,-1053.900024,8.100000381,-986.1000366,1.184723187,-0.266401031,0.03963139,ST
5.0,-3.651662827,-0.747678697,8.967957497,-2.073184013,2.98020196,-0.251525998,-1044.300049,2.100000143,-976.500061,1.198194519,-0.387119187,0.08574708,ST
5.033333333,-4.816845417,-1.223202348,9.488342285,-1.592997909,2.942091942,0.647870004,-1039.5,-2.100000143,-974.1000366,1.211688945,-0.468239839,0.128859047,ST
5.066666667,-4.947838783,-1.475020528,8.899768829,-1.349093914,1.707327962,1.173787951,-1037.100098,9.300000191,-964.500061,1.221619861,-0.503453449,0.164233488,ST
5.1,-4.775573254,-1.779475331,8.384768486,-1.585376024,0.251525998,1.036592007,-1039.5,3.300000191,-971.7000122,1.235780662,-0.508919434,0.209266946,ST
5.133333333,-4.942455292,-1.586873293,8.531910896,-0.884151995,-1.676839948,0.472563982,-1046.700073,9.300000191,-954.9000244,1.218448649,-0.514821389,0.185368071,ST
5.166666667,-4.454968929,-1.32967186,7.099359035,-0.815553963,-1.85214591,0.564027965,-1046.700073,8.100000381,-974.1000366,1.213108082,-0.548263142,0.18561608,ST
5.2,-4.47410965,-1.333858848,7.555143833,-0.503051996,0.007622,0.678357959,-1039.5,6.900000095,-971.7000122,1.204030023,-0.528992956,0.175370404,ST
5.233333333,-4.757030964,-1.993610501,8.007938385,-0.381099999,1.875011921,0.442075998,-1034.700073,1.5,-959.7000122,1.236790424,-0.526401357,0.242471699,ST
5.266666667,-5.276219368,-1.740596056,7.691520691,0.274392009,1.882633924,0.304879993,-1034.700073,7.500000477,-966.9000244,1.227707538,-0.590273913,0.223063091,ST
5.3,-5.119505882,-2.606707096,8.019302368,-0.861285985,1.699705958,0.975615978,-1034.700073,7.500000477,-986.1000366,1.271750972,-0.550541847,0.312097632,ST
5.333333333,-4.998680592,-2.038471222,8.468507767,-1.013725996,-0.29725799,0.815553963,-1022.700012,12.90000057,-974.1000366,1.228783771,-0.521950863,0.239753383,ST
5.366666667,-5.322276115,-1.783662319,8.338710785,-0.40396598,-1.471045971,1.943609953,-1032.300049,6.300000191,-966.9000244,1.203605792,-0.554964372,0.210181492,ST
5.4,-4.028492928,-1.743586779,8.386562347,0.312501997,-1.379581928,2.888737917,-1034.700073,8.100000381,-981.3000488,1.186974142,-0.441965763,0.202060133,ST
5.433333333,-4.215711594,-1.69214642,8.43441391,1.013725996,-1.196653962,2.926847935,-1029.900024,1.5,-962.1000366,1.172256063,-0.454149083,0.193892083,ST
5.466666667,-4.176234245,-1.574312329,8.897974968,1.310984015,-0.541162014,2.903981924,-1039.5,5.100000381,-964.500061,1.15284473,-0.433737982,0.171374463,ST
5.5,-3.892116308,-1.687959433,8.424843788,1.95885396,-0.876529992,2.721053839,-1039.5,2.700000048,-981.3000488,1.152971869,-0.425099419,0.191234778,ST
5.533333333,-3.886733055,-1.455880046,8.32196331,2.240867853,-1.783547997,2.522881985,-1041.900024,1.5,-966.9000244,1.135918422,-0.428717289,0.168035918,ST
5.566666667,-4.166065693,-1.239950418,7.64127636,2.713431835,-1.913121939,2.59910202,-1041.900024,13.50000095,-969.3000488,1.123593822,-0.488585249,0.154082288,ST
5.6,-4.154102802,-0.761435986,8.095267296,2.400929928,-1.463423967,2.865871906,-1044.300049,4.5,-974.1000366,1.085215388,-0.470721151,0.088577866,ST
5.633333333,-5.101561546,-0.397166938,8.958387375,3.064043999,0.076219998,2.606724024,-1044.300049,-0.900000036,-981.3000488,1.057797212,-0.51568871,0.038556463,ST
5.666666667,-4.953221798,-0.493467957,8.737074852,2.484771967,0.983237982,1.920743942,-1034.700073,7.500000477,-978.9000244,1.061475637,-0.516897305,0.049760649,ST
5.7,-5.216404915,0.037084863,8.605483055,2.263733864,1.417691946,1.463423967,-1051.5,8.100000381,-969.3000488,1.032116279,-0.546190477,-0.007360782,ST
5.733333333,-4.776171684,0.485093951,8.171829224,1.943609953,0.503051996,1.486289978,-1037.100098,0.900000036,-964.500061,1.002728865,-0.529605046,-0.061948454,ST
5.766666667,-5.598020077,0.768015563,8.364431381,1.539644003,-0.388722003,0.861285985,-1041.900024,-2.100000143,-971.7000122,0.986483044,-0.584713041,-0.093807923,ST
5.8,-4.506409168,0.690257013,8.113211632,0.556405962,0.396344006,-0.586893976,-1020.300049,6.900000095,-964.500061,0.994244126,-0.509437028,-0.085632184,ST
5.833333333,-2.098285437,0.105871305,8.916517258,-0.907018006,-2.751541853,-3.856731892,-1034.700073,2.700000048,-978.9000244,1.037647216,-0.237983336,-0.011393315,ST
5.866666667,-2.923722744,0.401952088,9.214990616,-0.777444005,-3.414655924,-4.718018055,-1034.700073,2.700000048,-966.9000244,1.051380753,-0.299016459,-0.038626304,ST
5.9,-2.886039734,0.28471604,8.802869797,-0.121951997,-1.890255928,-3.91770792,-1044.300049,-0.900000036,-986.1000366,1.071726675,-0.313044507,-0.030198801,ST
5.933333333,-3.851442575,0.381017059,9.484752655,0.137196004,-0.739333987,-1.082324028,-1056.300049,-3.900000095,-981.3000488,1.073659533,-0.38132701,-0.039236186,ST
5.966666667,-3.787441254,0.297875196,9.048109055,-0.099086002,-0.480185986,1.166165948,-1044.300049,-5.100000381,-964.500061,1.070505687,-0.394824226,-0.033775232,ST
6.0,-4.35866785,-0.098693587,9.021790504,-0.381099999,0.175305992,1.387203932,-1056.300049,3.900000095,-966.9000244,1.0809595,-0.448799153,0.009168936,ST
6.033333333,-4.036268711,-0.037683006,9.025977135,-1.013725996,0.998481989,1.196653962,-1046.700073,-5.700000286,-971.7000122,1.072113589,-0.423214545,0.005146491,ST
6.066666667,-4.131971836,-0.068786442,8.961976051,-0.685979962,1.288118005,1.371959925,-1039.5,2.700000048,-986.1000366,1.06613378,-0.433815943,0.007667418,ST
6.1,-3.738991737,-0.653770268,8.278897285,-1.455801964,0.952749968,1.692083955,-1041.900024,-2.700000048,-981.3000488,1.085418094,-0.425305193,0.07713652,ST
6.133333333,-4.063185215,-0.193200186,8.190969467,-1.615863919,0.655492008,1.897877932,-1029.900024,9.900000572,-978.9000244,1.052042431,-0.460487928,0.026484667,ST
6.166666667,-4.038063049,-0.218322188,7.716044426,-1.013725996,0.335367978,3.071666002,-1034.700073,10.5,-969.3000488,1.037703205,-0.481804266,0.027244275,ST
6.2,-5.115318775,-0.166283742,8.909937859,-1.135677934,0.625003994,3.856731892,-1044.300049,6.300000191,-986.1000366,1.014884918,-0.520662692,0.017257807,ST
6.233333333,-5.022008419,-0.512608528,8.994874001,-1.074702024,0.708845973,4.344540119,-1039.5,12.30000019,-990.9000244,1.011778143,-0.510482239,0.053415338,ST
6.266666667,-4.986119747,-0.617283523,8.804066658,0.167683989,0.746955991,4.207344055,-1032.300049,5.700000286,-976.500061,1.00123018,-0.515806016,0.065112347,ST
6.3,-4.606897354,-1.140658617,8.357851982,0.640248001,0.80793196,3.071666002,-1022.700012,10.5,-969.3000488,1.021867042,-0.502550468,0.129015672,ST
6.333333333,-3.691140175,-2.057611704,6.917523384,-0.457319975,0.419209987,1.798792005,-1017.900024,5.100000381,-966.9000244,1.086104512,-0.475673621,0.282038857,ST
6.366666667,-4.998082638,-0.86371845,9.335217476,-2.118916035,-1.288118005,-1.547266006,-1029.900024,10.5,-969.3000488,1.004580327,-0.487117135,0.104800879,ST
6.4,-5.581272125,-0.602928102,9.270019531,-0.579271972,-2.934469938,0.342989981,-1029.900024,-2.100000143,-974.1000366,0.982507885,-0.533975953,0.067062303,ST
6.433333333,-4.410706043,-0.773997009,7.956497669,0.304879993,-3.414655924,1.676839948,-1037.100098,3.900000095,-971.7000122,0.988360318,-0.499963058,0.093432064,ST
6.466666667,-3.816750288,-0.896018147,7.249492645,-0.304879993,-2.583858013,2.035073996,-1044.300049,7.500000477,-969.3000488,0.990901202,-0.478352974,0.120260859,ST
6.5,-3.89032197,-0.865512908,8.191568375,-0.785066009,-1.836901903,2.477149963,-1051.5,5.100000381,-969.3000488,0.969906651,-0.43948949,0.104825931,ST
6.533333333,-3.884340525,-0.936093748,8.405104637,-1.120433927,-1.63872993,1.974097967,-1041.900024,6.300000191,-964.500061,0.961340629,-0.428559876,0.110900615,ST
6.566666667,-3.926210403,-0.949851036,8.407497406,-1.295740008,-0.861285985,1.295740008,-1037.100098,2.100000143,-962.1000366,0.953655195,-0.43307925,0.113558151,ST
6.6,-4.133167744,-0.729734421,9.542773247,0.015244,-0.022865999,0.769822001,-1039.5,11.10000038,-959.7000122,0.935426685,-0.408654646,0.077054581,ST
6.633333333,-3.648672104,-0.747080564,8.93386364,1.42531395,-0.015244,0.198172003,-1049.100098,0.900000036,-966.9000244,0.938501172,-0.387417989,0.080651565,ST
6.666666667,-3.831703901,-0.670518279,9.480566025,2.911603928,0.83079797,-0.602137983,-1049.100098,12.90000057,-976.500061,0.941711792,-0.38468208,0.066405383,ST
6.7,-3.548184156,-0.497654945,8.803468704,3.201239824,1.280496001,-1.364337921,-1051.5,6.900000095,-971.7000122,0.948808945,-0.384680775,0.052358647,ST
6.733333333,-3.671401501,0.02213129,8.418862343,3.323191881,2.210379839,-1.951231956,-1041.900024,1.5,-971.7000122,0.941441449,-0.413998233,-0.004789661,ST
6.766666667,-3.038566351,-0.35529694,9.264038086,2.835383892,1.501533985,-2.782029867,-1039.5,2.100000143,-974.1000366,0.971968443,-0.323065715,0.033539569,ST
6.8,-3.539211988,-0.448009074,9.157568932,1.592997909,0.388722003,-4.02441597,-1039.5,7.500000477,-981.3000488,0.996887101,-0.3668855,0.048141058,ST
6.833333333,-3.699514389,-0.385802209,8.90754509,-0.381099999,0.137196004,-4.420759678,-1027.5,3.900000095,-981.3000488,1.014754673,-0.392120303,0.047165193,ST
6.866666667,-3.692934752,-0.586778283,8.470900536,-1.806414008,-1.051836014,-4.184477806,-1037.100098,4.5,-981.3000488,1.039434886,-0.407247967,0.074235983,ST
6.9,-4.061988831,-0.964206457,8.787916183,-1.577754021,-1.074702024,-2.073184013,-1049.100098,0.900000036,-981.3000488,1.059985351,-0.427588858,0.111962111,ST
6.933333333,-3.907668114,-1.0120579,8.470302582,-1.265251994,-0.411587983,-0.975615978,-1041.900024,2.100000143,-974.1000366,1.065363555,-0.428592914,0.12145885,ST
6.966666667,-4.191785812,-0.924729049,8.930872917,-0.472563982,0.411587983,0.678357959,-1046.700073,11.10000038,-974.1000366,1.05458322,-0.437264208,0.104218078,ST
7.0,-3.962099075,-0.886447906,8.402712822,-0.487807989,0.007622,1.76830399,-1051.5,2.100000143,-978.9000244,1.045914579,-0.43876492,0.10450943,ST
7.033333333,-4.292871952,-0.567637682,8.695204735,-0.282013983,0.175305992,3.574717999,-1056.300049,3.900000095,-962.1000366,1.013207192,-0.457699165,0.064350136,ST
7.066666667,-4.029689312,-0.57182467,9.082202911,0.068598002,0.053353999,4.405515671,-1032.300049,10.5,-974.1000366,0.991760668,-0.418695417,0.059476795,ST
7.1,-3.830507517,-0.833811283,8.675465584,0.007622,-0.503051996,4.382649899,-1029.900024,4.5,-974.1000366,0.985970034,-0.41410016,0.091083801,ST
7.133333333,-4.57280302,-0.613096535,8.513368607,-0.381099999,-0.121951997,3.871975899,-1049.100098,9.300000191,-969.3000488,0.958366945,-0.48990511,0.069640883,ST
7.166666667,-4.716955662,-0.64958328,8.362038612,-0.160062,0.289635986,3.696669817,-1046.700073,10.5,-974.1000366,0.945335988,-0.512343582,0.074035702,ST
7.2,-4.809667587,-1.232174516,8.408694267,-0.358233988,0.228659987,2.949713945,-1034.700073,11.10000038,-974.1000366,0.965550707,-0.515981874,0.140448979,ST
7.233333333,-4.958605289,-1.216024637,8.786720276,-0.289635986,0.022865999,2.149404049,-1032.300049,3.900000095,-969.3000488,0.954233997,-0.510509789,0.136127553,ST
7.266666667,-4.520764351,-1.481001973,8.254971504,-0.327746004,-0.365855992,1.257629991,-1034.700073,6.900000095,-974.1000366,0.967086645,-0.494811311,0.175219834,ST
7.3,-4.319788456,-1.587471485,8.129361153,-0.358233988,-1.067080021,0.373477995,-1046.700073,10.5,-974.1000366,0.971983446,-0.479661422,0.192239769,ST
7.333333333,-3.974061966,-1.606013894,7.254876137,-0.266770005,-0.442075998,-0.144817993,-1034.700073,9.900000572,-974.1000366,0.983289226,-0.489886521,0.217297129,ST
7.366666667,-4.51597929,-1.335055113,7.925992489,0.29725799,0.42683199,-0.160062,-1039.5,8.700000763,-966.9000244,0.961474204,-0.511786178,0.16842513,ST
7.4,-4.742675781,-1.013254166,8.179605484,1.356715918,0.754577994,0.289635986,-1032.300049,6.300000191,-971.7000122,0.9411001,-0.523199026,0.122034207,ST
7.433333333,-5.072850704,-0.672312677,8.370412827,1.592997909,0.61738199,0.83079797,-1027.5,7.500000477,-983.7000122,0.919453918,-0.543947613,0.078011119,ST
7.466666667,-5.081822872,-0.300267786,8.423647881,1.486289978,0.365855992,0.990859985,-1039.5,6.900000095,-981.3000488,0.896097744,-0.543282008,0.033470206,ST
7.5,-4.932286739,-0.31761393,8.555836678,1.074702024,-0.099086002,1.120433927,-1034.700073,2.700000048,-969.3000488,0.894443513,-0.523386382,0.034072354,ST
7.533333333,-4.399341583,-0.378624499,8.864479065,0.396344006,-0.42683199,0.739333987,-1022.700012,5.100000381,-971.7000122,0.895292068,-0.461198141,0.041158187,ST
7.566666667,-3.320889711,-0.331969351,8.301028252,-0.442075998,-1.539644003,-0.038109999,-1020.300049,3.300000191,-978.9000244,0.894217356,-0.380980033,0.040732654,ST
7.6,-3.851442575,-0.125610024,8.689223289,-0.038109999,-1.181409955,-0.259148002,-1027.5,8.100000381,-969.3000488,0.885416368,-0.414267728,0.015361785,ST
7.633333333,-3.773684025,-0.253014475,8.898572922,0.663114011,-0.114329994,0.221037999,-1039.5,8.700000763,-971.7000122,0.89014421,-0.401304698,0.026628464,ST
7.666666667,-4.051820278,-0.348717362,8.865077019,0.967993975,0.411587983,-0.099086002,-1029.900024,6.300000191,-964.500061,0.896716449,-0.427995162,0.037257489,ST
7.7,-3.960304499,-0.208751902,8.932068825,0.785066009,-0.388722003,-0.289635986,-1034.700073,0.300000012,-974.1000366,0.893447044,-0.417009723,0.022822364,ST
7.733333333,-3.528445482,-0.18482618,8.711952209,-0.144817993,-1.577754021,-0.434453994,-1037.100098,9.300000191,-964.500061,0.894489715,-0.383393107,0.021790849,ST
7.766666667,-3.416592598,-0.425279647,9.09536171,-0.716467977,-1.463423967,-0.792688012,-1029.900024,8.700000763,-981.3000488,0.905735285,-0.357460469,0.047375612,ST
7.8,-3.375320673,-0.732725143,9.106726646,-0.564027965,-1.04421401,-1.23476398,-1034.700073,8.100000381,-971.7000122,0.921386614,-0.35214138,0.080602823,ST
7.833333333,-3.762319326,-0.744687974,9.098352432,0.0,-0.091463998,-1.310984015,-1032.300049,8.700000763,-976.500061,0.927642765,-0.38901545,0.082504743,ST
7.866666667,-3.913649559,-0.625657558,9.232336998,0.175305992,0.076219998,-0.716467977,-1046.700073,6.900000095,-969.3000488,0.925947082,-0.399891833,0.068253164,ST
7.9,-3.808974504,-0.491673529,9.087586403,0.701223969,-0.685979962,0.053353999,-1044.300049,3.900000095,-959.7000122,0.921043383,-0.395378084,0.053389329,ST
7.933333333,-3.16298008,-0.550889671,9.481761932,1.539644003,-2.19513607,0.548784018,-1041.900024,5.700000286,-981.3000488,0.921091905,-0.320849583,0.054891411,ST
7.966666667,-3.328067541,-0.530552804,8.607276917,1.55488801,-3.125020027,0.716467977,-1044.300049,3.900000095,-964.500061,0.920706929,-0.36142554,0.058125959,ST
8.0,-3.310721397,-0.96480459,7.700492382,0.602137983,-0.785066009,0.510674,-1049.100098,7.500000477,-971.7000122,0.942431942,-0.400351432,0.120451744,ST
8.033333333,-4.361658573,-1.016244888,8.755018234,-0.076219998,2.934469938,-0.647870004,-1034.700073,2.700000048,-974.1000366,0.945289065,-0.462890556,0.11663769,ST
8.066666667,-5.167955399,-1.14364934,8.784327507,0.739333987,3.986305952,-0.373477995,-1039.5,6.900000095,-969.3000488,0.956499006,-0.532631782,0.128650603,ST
8.1,-4.997484684,-0.938486338,8.041434288,0.625003994,3.666181803,-0.137196004,-1029.900024,11.10000038,-978.9000244,0.953993071,-0.558501462,0.116117282,ST
8.133333333,-4.655944824,-0.744089842,7.246501923,1.021348,3.048799992,0.358233988,-1025.100098,0.300000012,-974.1000366,0.948430212,-0.573570796,0.10099168,ST
8.166666667,-4.891613007,-0.863120317,7.970254898,0.754577994,2.179892063,0.320124,-1027.5,12.30000019,-974.1000366,0.952728621,-0.552592059,0.106247853,ST
8.2,-5.070457935,-0.981552601,8.021097183,0.312501997,0.72408998,0.152439997,-1015.500061,12.30000019,-981.3000488,0.960781502,-0.561287067,0.120541479,ST
8.233333333,-5.668601036,-0.988132179,8.369216919,0.114329994,0.259148002,-0.038109999,-1025.100098,6.300000191,-971.7000122,0.959698389,-0.591298101,0.117532059,ST
8.266666667,-5.388669968,-0.958225012,8.459535599,0.030487999,-0.121951997,0.236281991,-1020.300049,0.900000036,-969.3000488,0.956153442,-0.565230043,0.112662908,ST
8.3,-4.984923363,-0.843381584,8.041434288,0.114329994,-0.907018006,0.213415995,-1025.100098,2.700000048,-981.3000488,0.950751383,-0.551459497,0.104277874,ST
8.333333333,-5.215806484,-0.93908447,8.761598587,0.663114011,-1.105189919,0.228659987,-1017.900024,2.100000143,-959.7000122,0.951469122,-0.533177247,0.105230746,ST
8.366666667,-4.789928913,-1.185519338,8.605483055,0.655492008,-1.173787951,-0.419209987,-1025.100098,3.900000095,-969.3000488,0.968950518,-0.50280218,0.135041651,ST
8.4,-4.140345573,-0.790146887,7.689127922,0.388722003,-1.516777992,-1.600619912,-1022.700012,3.900000095,-974.1000366,0.961210196,-0.489279781,0.104073095,ST
8.433333333,-4.435230255,-0.220714763,7.675968647,0.693601966,-1.669217944,-1.516777992,-1020.300049,2.100000143,-976.500061,0.933728116,-0.519657808,0.031744286,ST
8.466666667,-4.569214344,-0.21772404,8.281888008,0.929883957,-0.449698001,0.144817993,-1027.5,-0.300000012,-974.1000366,0.931813495,-0.503823516,0.024768684,ST
8.5,-4.516577721,-0.045458864,8.214895248,0.678357959,-0.114329994,0.29725799,-1017.900024,5.100000381,-969.3000488,0.922465788,-0.502534065,0.004722942,ST
8.533333333,-4.498633385,-0.223705471,8.851319313,0.076219998,0.198172003,0.975615978,-1022.700012,9.300000191,-971.7000122,0.927447553,-0.471779042,0.023485836,ST
8.566666667,-4.367042065,-0.345726639,8.411086082,-0.708845973,-0.480185986,0.746955991,-1027.5,5.100000381,-971.7000122,0.930778543,-0.47751769,0.040888074,ST
8.6,-4.145729065,-0.596348524,8.306411743,-0.967993975,-0.228659987,0.365855992,-1034.700073,7.500000477,-962.1000366,0.941174973,-0.462200975,0.071731009,ST
8.633333333,-4.264759541,-1.000693202,10.17142105,-1.227141976,-1.44817996,0.068598002,-1037.100098,7.500000477,-959.7000122,0.949372048,-0.395620811,0.098927132,ST
8.666666667,-2.787944317,-1.195089698,9.093567848,-1.753059983,-3.086910009,-0.358233988,-1027.5,4.5,-971.7000122,0.958010278,-0.293973882,0.132324914,ST
8.7,-2.078546762,-0.58139497,7.468413353,-1.897877932,-3.437521935,-0.777444005,-1034.700073,6.900000095,-969.3000488,0.943931005,-0.265645836,0.083064016,ST
8.733333333,-3.106156349,-0.535936117,8.641969681,-0.175305992,-0.929883957,0.365855992,-1051.5,6.300000191,-978.9000244,0.935588142,-0.34039449,0.062674641,ST
8.766666667,-3.076847553,-0.830222428,9.207813263,0.106707998,-0.160062,0.632625997,-1029.900024,6.900000095,-966.9000244,0.941266636,-0.321880599,0.088281881,ST
8.8,-4.007557869,-0.615489125,9.306506157,-0.579271972,-0.609759986,1.074702024,-1044.300049,6.900000095,-964.500061,0.927396672,-0.402554008,0.066879389,ST
8.833333333,-4.541699409,-0.486888379,9.192260742,-0.739333987,-1.013725996,1.737815976,-1044.300049,12.30000019,-962.1000366,0.912524988,-0.454789298,0.053222809,ST
8.866666667,-4.486670494,-0.906186581,8.204129219,-0.998481989,0.076219998,2.591480017,-1051.5,8.100000381,-971.7000122,0.924001871,-0.497119166,0.107505097,ST
8.9,-4.346107006,-1.197482228,8.682044983,-1.349093914,0.739333987,2.568614006,-1032.300049,14.70000076,-966.9000244,0.924306914,-0.463649587,0.136077734,ST
8.933333333,-4.317994118,-1.252511382,8.359645844,-1.082324028,0.449698001,2.423795938,-1041.900024,8.100000381,-964.500061,0.917852982,-0.473260976,0.148025337,ST
8.966666667,-4.161280632,-1.584480762,7.82251358,-0.419209987,0.731711984,2.164648056,-1041.900024,11.10000038,-957.3000488,0.931175606,-0.482219866,0.196705561,ST
9.0,-4.178627014,-1.551582813,7.930179596,-0.381099999,0.388722003,1.356715918,-1034.700073,3.900000095,-978.9000244,0.922907669,-0.478479909,0.192852553,ST
9.033333333,-4.733703613,-1.801008463,8.482265472,0.015244,-0.015244,1.036592007,-1027.5,8.100000381,-969.3000488,0.925730706,-0.499161965,0.207595585,ST
9.066666667,-4.109840393,-2.073163509,7.864982128,-0.731711984,-0.388722003,0.289635986,-1034.700073,12.30000019,-966.9000244,0.945461466,-0.468651486,0.256626193,ST
9.1,-4.516577721,-1.958918214,8.55464077,-0.53354001,-0.815553963,-0.015244,-1044.300049,9.900000572,-954.9000244,0.930229324,-0.473701277,0.227140141,ST
9.133333333,-4.376612186,-1.938581347,8.525331497,0.106707998,-0.983237982,-0.053353999,-1022.700012,17.10000038,-966.9000244,0.928081792,-0.462880919,0.223414421,ST
9.166666667,-4.938268185,-1.588069558,8.969752312,0.815553963,-0.53354001,0.228659987,-1032.300049,11.70000076,-964.500061,0.906448362,-0.494600383,0.175567143,ST
9.2,-4.431043148,-1.479805708,8.458339691,1.524399996,-0.099086002,0.72408998,-1041.900024,8.700000763,-971.7000122,0.904182738,-0.477171202,0.170109478,ST
9.233333333,-4.559643745,-1.051535368,8.232839584,1.34147191,0.106707998,0.419209987,-1039.5,8.700000763,-969.3000488,0.884835584,-0.501619482,0.126191754,ST
9.266666667,-4.616467476,-0.813474417,8.716737747,1.661595941,0.434453994,0.602137983,-1034.700073,8.700000763,-976.500061,0.869516151,-0.486680227,0.090942237,ST
9.3,-4.056007385,-0.798520863,8.346487045,1.417691946,-0.083841994,0.182927996,-1034.700073,8.100000381,-974.1000366,0.872443805,-0.451914577,0.092677811,ST
9.333333333,-4.253394604,-0.398363233,9.094763756,1.760681987,-0.381099999,0.007622,-1034.700073,9.900000572,-959.7000122,0.85435379,-0.436869554,0.042133541,ST
9.366666667,-4.223487377,-0.374437511,9.540380478,1.981719971,-0.975615978,0.144817993,-1046.700073,6.300000191,-983.7000122,0.854757278,-0.415683732,0.03589288,ST
9.4,-3.05471611,-0.416307509,8.638978958,1.669217944,-2.46952796,-0.106707998,-1046.700073,3.300000191,-971.7000122,0.860832933,-0.338462891,0.044871202,ST
9.433333333,-3.182718754,0.10826388,8.42005825,1.173787951,-3.300325871,-1.318606019,-1034.700073,8.100000381,-959.7000122,0.849531067,-0.35515158,-0.012359521,ST
9.466666667,-4.342517853,0.103478737,9.904649734,1.516777992,-2.46952796,-0.861285985,-1046.700073,11.10000038,-976.500061,0.855955748,-0.406693331,-0.012442781,ST
9.5,-1.958320141,-0.540123105,8.065958023,0.365855992,-2.019829988,-1.310984015,-1041.900024,7.500000477,-986.1000366,0.886251842,-0.241069583,0.063693521,ST
9.533333333,-3.169559717,-0.21054633,9.042127609,-0.282013983,-0.693601966,-1.463423967,-1049.100098,3.300000191,-969.3000488,0.881598994,-0.331925847,0.026257535,ST
9.566666667,-2.726933718,-0.529954672,8.828590393,-0.556405962,-0.152439997,-0.853663981,-1044.300049,9.300000191,-983.7000122,0.895003458,-0.300076597,0.059972526,ST
9.6,-2.744279861,0.047253296,8.735877991,-2.263733864,-0.228659987,-0.022865999,-1041.900024,5.100000381,-966.9000244,0.874096368,-0.303877485,0.000513829,ST
9.633333333,-3.050529242,0.045458864,9.244897842,-1.356715918,0.685979962,0.518296003,-1061.100098,3.900000095,-976.500061,0.868634561,-0.319400966,-0.002740023,ST
9.666666667,-3.257486582,-1.135275364,9.433312416,0.022865999,2.027451992,0.823175967,-1039.5,11.10000038,-966.9000244,0.903603546,-0.333612617,0.115913641,ST
9.7,-3.104362011,-1.483992696,8.597108841,-0.594515979,2.423795938,-0.731711984,-1044.300049,9.300000191,-978.9000244,0.925547255,-0.345345133,0.170357683,ST
9.733333333,-4.300049782,-0.792539418,8.067752838,0.106707998,2.644834042,-0.236281991,-1037.100098,13.50000095,-971.7000122,0.900184754,-0.486280734,0.101318166,ST
9.766666667,-4.779760361,-0.812278152,8.17123127,1.379581928,3.330813885,1.196653962,-1032.300049,5.700000286,-962.1000366,0.897276762,-0.531222375,0.096016321,ST
9.8,-4.428052425,-1.041366935,8.31000042,1.150921941,3.025933981,1.722571969,-1027.5,9.900000572,-964.500061,0.906275044,-0.493564143,0.120392669,ST
9.833333333,-5.00107336,-1.07546103,8.490639687,1.12805593,2.919225931,1.478667974,-1034.700073,6.900000095,-964.500061,0.905586574,-0.532548145,0.122787652,ST
9.866666667,-5.038756371,-0.912168026,7.581462383,1.44817996,3.597584009,1.257629991,-1017.900024,4.5,-971.7000122,0.902673078,-0.587437179,0.116526555,ST
9.9,-5.178721905,-0.745884299,7.117901325,1.463423967,3.521363974,1.539644003,-1015.500061,12.90000057,-966.9000244,0.893367117,-0.630936288,0.10104177,ST
9.933333333,-5.190086365,-1.318905234,7.737577438,0.53354001,2.926847935,0.876529992,-1008.300049,9.900000572,-981.3000488,0.93012679,-0.590713689,0.165646015,ST
9.966666667,-5.225975037,-1.521077633,8.308803558,-0.472563982,1.463423967,0.480185986,-1013.100037,3.300000191,-971.7000122,0.936471267,-0.558090232,0.181020026,ST
10.0,-5.66202116,-1.365560412,8.451162338,-0.967993975,-0.594515979,0.083841994,-989.1000366,5.700000286,-969.3000488,0.923337665,-0.582321522,0.162485387,ST
10.03333333,-6.583759785,-1.241744757,9.788609505,-0.266770005,-1.166165948,0.53354001,-1003.500061,6.900000095,-957.3000488,0.900243617,-0.586383067,0.127032968,ST
10.06666667,-5.251695156,-1.381710291,8.315981865,0.274392009,-1.562510014,0.312501997,-1001.100037,9.900000572,-969.3000488,0.917869496,-0.555444455,0.162547846,ST
10.1,-5.000475407,-0.811680019,7.957694054,-0.274392009,-1.996963978,-0.548784018,-1001.100037,7.500000477,-964.500061,0.887637593,-0.555165284,0.104185259,ST
10.13333333,-4.591943741,-0.567039549,7.744156837,0.060975999,-2.820139885,-0.564027965,-1010.700012,9.300000191,-971.7000122,0.873748707,-0.5300148,0.074441297,ST
10.16666667,-3.979445219,-0.893027484,7.425944805,-0.007622,-2.545747995,-1.105189919,-1010.700012,2.100000143,-974.1000366,0.898608204,-0.486194506,0.118610296,ST
10.2,-3.22877574,-0.901999593,6.410896301,-0.144817993,-1.509155989,-2.454283953,-1017.900024,4.5,-974.1000366,0.917696822,-0.460517316,0.141027963,ST
10.23333333,-4.416687489,-0.935495615,8.777150154,0.320124,-0.464941978,-3.40703392,-1017.900024,8.700000763,-971.7000122,0.918937405,-0.462418005,0.10956472,ST
10.26666667,-4.241431713,-1.274044514,9.021790504,0.967993975,-0.609759986,-3.490875959,-1032.300049,12.30000019,-971.7000122,0.948700891,-0.43482912,0.140221622,ST
10.3,-5.171544075,-0.881662726,10.19534683,1.592997909,-0.777444005,-3.689047813,-1015.500061,6.900000095,-971.7000122,0.944416289,-0.464724646,0.088828558,ST
10.33333333,-4.916735172,-0.668723822,10.23960972,2.294221878,-1.242385983,-2.06556201,-1025.100098,7.500000477,-962.1000366,0.946928715,-0.445074976,0.063688661,ST
10.36666667,-3.66661644,-0.671714544,8.418264389,1.806414008,-2.332331896,-0.40396598,-1034.700073,9.900000572,-971.7000122,0.95705113,-0.40648889,0.076324382,ST
10.4,-2.989518642,-0.68248111,8.335720062,1.105189919,-1.989341974,0.114329994,-1037.100098,9.300000191,-964.500061,0.958901752,-0.341966337,0.079490456,ST
10.43333333,-2.799907207,-1.04017067,8.814832687,0.472563982,-1.295740008,1.280496001,-1039.5,1.5,-969.3000488,0.964150265,-0.304657412,0.114836081,ST
10.46666667,-3.028397799,-0.840390861,8.689821243,0.167683989,-0.29725799,1.196653962,-1044.300049,2.700000048,-978.9000244,0.952855963,-0.332660699,0.096012167,ST
10.5,-3.594839334,-0.801511586,9.133045197,0.556405962,0.708845973,1.844523907,-1032.300049,9.300000191,-964.500061,0.942136739,-0.373833922,0.085702073,ST
10.53333333,-4.023707867,-0.799717128,8.967957497,0.579271972,1.189031959,2.25611186,-1039.5,5.700000286,-986.1000366,0.93383664,-0.421124761,0.086247253,ST
10.56666667,-4.435828209,-0.588572681,9.351964951,1.227141976,1.326228023,2.301843882,-1039.5,-0.300000012,-971.7000122,0.915753483,-0.443844437,0.059874018,ST
10.6,-3.724038124,-0.64719069,8.548061371,1.791170001,1.112811923,1.890255928,-1039.5,6.300000191,-974.1000366,0.916000922,-0.413284273,0.070611834,ST
10.63333333,-3.826320648,-0.855344474,7.407402515,1.242385983,1.318606019,0.327746004,-1025.100098,0.300000012,-974.1000366,0.934974031,-0.473903186,0.110860616,ST
10.66666667,-4.614074707,-0.719565988,7.806962013,0.792688012,2.210379839,0.007622,-1032.300049,6.300000191,-976.500061,0.928457117,-0.534242763,0.091238366,ST
10.7,-4.237244606,-0.996506214,7.189080238,0.221037999,2.385685921,0.137196004,-1013.100037,5.100000381,-976.500061,0.952163773,-0.532682325,0.135666095,ST
10.73333333,-5.456858158,-0.654368401,8.315981865,-0.167683989,1.8292799,0.685979962,-1013.100037,8.100000381,-969.3000488,0.920703287,-0.580583188,0.080611631,ST
10.76666667,-5.581870079,-0.835007608,8.399123192,0.716467977,1.295740008,2.164648056,-1005.900024,6.300000191,-964.500061,0.922113672,-0.586725194,0.095069638,ST
10.8,-5.192479134,-0.92712158,8.509181976,0.495429993,0.800309956,2.08842802,-1013.100037,2.700000048,-959.7000122,0.920773937,-0.548478813,0.105164328,ST
10.83333333,-5.438913822,-0.79792273,8.913526535,0.320124,0.266770005,1.440557957,-1005.900024,-1.5,-974.1000366,0.907030515,-0.546862279,0.087949102,ST
10.86666667,-5.412595749,-0.796726465,8.1754179,0.640248001,0.495429993,0.983237982,-1013.100037,4.5,-964.500061,0.908473964,-0.582617974,0.094757078,ST
10.9,-4.978343964,-0.648985147,7.498918533,0.388722003,0.487807989,0.602137983,-1005.900024,3.300000191,-966.9000244,0.902165007,-0.585180357,0.085401803,ST
10.93333333,-5.168553352,-0.332567483,7.736979485,0.487807989,-0.358233988,0.518296003,-1005.900024,9.300000191,-971.7000122,0.878020649,-0.587842443,0.043270839,ST
10.96666667,-4.461548328,-0.539524972,6.933673382,0.861285985,-0.769822001,0.670735955,-1001.100037,8.700000763,-974.1000366,0.894247845,-0.569909068,0.074051351,ST
11.0,-4.703197956,-0.562852561,7.589836121,0.632625997,-1.189031959,-0.015244,-1008.300049,4.5,-971.7000122,0.894964794,-0.552046653,0.07287997,ST
11.03333333,-5.33543539,-0.637620389,8.301626205,0.693601966,-1.486289978,-0.282013983,-998.7000122,5.700000286,-974.1000366,0.898965457,-0.566835579,0.075551516,ST
11.06666667,-5.13984251,-0.772202551,8.1221838,0.609759986,-1.097568035,-0.42683199,-1027.5,-3.300000191,-969.3000488,0.911244426,-0.560466775,0.093327232,ST
11.1,-5.241527081,-0.496458679,8.8890028,0.815553963,-1.371959925,-0.884151995,-1010.700012,5.100000381,-971.7000122,0.897429744,-0.530612584,0.056391009,ST
11.13333333,-4.610486031,-0.409727931,8.688624382,0.800309956,-2.218001842,-0.907018006,-1010.700012,2.700000048,-959.7000122,0.898181243,-0.484777886,0.046740505,ST
11.16666667,-4.054213047,0.113647163,8.309402466,0.990859985,-2.964957952,-1.181409955,-1003.500061,3.900000095,-978.9000244,0.878736884,-0.449899376,-0.012457708,ST
11.2,-3.482388496,0.01614986,8.356655121,1.288118005,-2.59910202,-0.564027965,-1013.100037,8.100000381,-969.3000488,0.886997076,-0.392722977,-0.004102463,ST
11.23333333,-2.974565029,-0.135180309,9.20123291,-0.053353999,-1.882633924,-0.564027965,-1020.300049,1.5,-969.3000488,0.89587254,-0.311998262,0.014494738,ST
11.26666667,-3.402237177,-0.133385882,10.00513744,-0.594515979,-0.564027965,0.045731999,-1027.5,3.300000191,-971.7000122,0.894724876,-0.326172202,0.014344288,ST
11.3,-3.234158993,-0.31761393,9.052295685,-0.701223969,-0.190549999,0.815553963,-1027.5,5.100000381,-974.1000366,0.896383859,-0.342253874,0.035251907,ST
11.33333333,-3.776076555,-0.189611316,9.365722656,-0.815553963,0.327746004,1.150921941,-1022.700012,1.5,-978.9000244,0.8852389,-0.382105647,0.021467311,ST
11.36666667,-3.7324121,-0.309239924,8.801673889,-0.571649969,1.051836014,1.387203932,-1022.700012,-0.300000012,-986.1000366,0.883467126,-0.401927327,0.034562603,ST
11.4,-4.055409431,-0.304454774,8.356057167,-0.434453994,1.135677934,1.23476398,-1020.300049,2.700000048,-971.7000122,0.87828334,-0.451533755,0.036111248,ST
11.43333333,-4.715160847,-0.418101937,8.295046806,-0.655492008,1.051836014,1.242385983,-1013.100037,6.300000191,-969.3000488,0.878361268,-0.515560304,0.049744152,ST
11.46666667,-5.164366245,-0.625657558,8.334524155,-1.166165948,0.365855992,1.577754021,-1017.900024,2.700000048,-966.9000244,0.881953925,-0.552738623,0.07424883,ST
11.5,-5.489158154,-0.812278152,8.578566551,-1.798792005,-0.495429993,1.890255928,-1025.100098,9.900000572,-971.7000122,0.880174823,-0.566200263,0.094732028,ST
11.53333333,-4.891015053,-1.585677028,7.788419724,-1.882633924,-0.922261953,1.76830399,-1020.300049,9.900000572,-971.7000122,0.92240647,-0.551148791,0.199070275,ST
11.56666667,-4.726525784,-1.76990509,7.623930454,-2.591480017,-0.594515979,1.166165948,-1027.5,11.70000076,-964.500061,0.927037046,-0.543036706,0.230136758,ST
11.6,-4.685852051,-1.80280292,7.351775169,-1.951231956,-0.419209987,1.387203932,-1017.900024,10.5,-964.500061,0.922747621,-0.553714424,0.241826496,ST
11.63333333,-5.060887814,-1.655659795,8.217288017,0.487807989,0.365855992,2.560992002,-1015.500061,8.700000763,-969.3000488,0.891087599,-0.545072472,0.19725895,ST
11.66666667,-4.645776272,-1.57909739,7.934366703,1.570132017,0.594515979,2.881115913,-1022.700012,6.900000095,-976.500061,0.880897937,-0.524146768,0.191225823,ST
11.7,-4.9962883,-1.25191319,8.396132469,1.844523907,0.647870004,2.736297846,-1022.700012,6.300000191,-966.9000244,0.851087599,-0.53341579,0.144108987,ST
11.73333333,-5.270237923,-0.739304721,8.007340431,2.568614006,1.905499935,1.974097967,-1010.700012,12.30000019,-976.500061,0.820878111,-0.581755897,0.08797599,ST
11.76666667,-5.803781033,-0.529954672,9.061267853,2.538125992,1.943609953,2.080806017,-1015.500061,3.300000191,-966.9000244,0.800744925,-0.572871797,0.053238581,ST
11.8,-5.561533451,-0.449205369,8.81363678,2.286599874,0.373477995,1.867389917,-1008.300049,11.10000038,-971.7000122,0.794911173,-0.563529548,0.045233468,ST
11.83333333,-3.975856304,-0.150732026,7.065264702,1.082324028,-1.12805593,0.266770005,-1010.700012,5.100000381,-974.1000366,0.783402792,-0.51266298,0.020183374,ST
11.86666667,-4.441809654,0.318810195,8.254372597,0.663114011,-1.821658015,-0.655492008,-1005.900024,0.900000036,-974.1000366,0.760314506,-0.490873095,-0.037436123,ST
11.9,-4.328760624,-0.000598143,8.910535812,-0.228659987,-2.080806017,-0.236281991,-1015.500061,3.900000095,-969.3000488,0.777703914,-0.449947983,-0.00052322,ST
11.93333333,-3.835292816,0.044262581,9.252673149,-1.059458017,-2.25611186,-0.182927996,-1013.100037,1.5,-971.7000122,0.775618465,-0.391198022,-0.002722508,ST
11.96666667,-4.322779179,0.488682806,9.600792885,-0.769822001,-2.858249903,0.022865999,-1020.300049,6.900000095,-983.7000122,0.756580969,-0.416864151,-0.048086592,ST
12.0,-3.06428647,0.128002599,8.333328247,-0.442075998,-2.484771967,1.013725996,-1015.500061,6.300000191,-974.1000366,0.763611301,-0.350756828,-0.016524712,ST
12.03333333,-3.191690922,0.458177507,8.229848862,-0.129574001,-1.189031959,0.548784018,-1013.100037,2.700000048,-966.9000244,0.748052863,-0.36665651,-0.054109327,ST
12.06666667,-3.267655134,-0.004187001,9.387853622,-0.304879993,-0.266770005,0.304879993,-1027.5,5.700000286,-959.7000122,0.764415744,-0.335810729,-0.001414562,ST
12.1,-2.792131424,0.168078169,8.190371513,-1.318606019,-1.417691946,-0.693601966,-1008.300049,8.700000763,-964.500061,0.760437408,-0.326430836,-0.017127608,ST
12.13333333,-3.758132219,0.24942562,8.825001717,-2.721053839,-1.478667974,-0.198172003,-1032.300049,7.500000477,-986.1000366,0.754758024,-0.396888052,-0.023057929,ST
12.16666667,-4.674487114,-0.087927014,9.27659893,-3.734779835,-1.028970003,1.76830399,-1029.900024,-1.5,-959.7000122,0.755048417,-0.462211133,0.012919373,ST
12.2,-3.938771486,-0.36008206,8.84832859,-4.588443756,-0.868907988,3.338435888,-1032.300049,6.300000191,-964.500061,0.745641402,-0.419050229,0.044699037,ST
12.23333333,-3.898695946,-0.949851036,8.780140877,-4.458869934,-1.257629991,5.899427891,-1037.100098,14.10000038,-964.500061,0.736031116,-0.414764017,0.108826062,ST
12.26666667,-3.746169329,-1.534834862,8.525331497,-4.32167387,-0.282013983,6.036623955,-1025.100098,17.10000038,-974.1000366,0.728720842,-0.409688828,0.178823558,ST
12.3,-4.398145199,-1.491768599,9.238318443,-2.225623846,0.678357959,5.579303741,-1025.100098,6.900000095,-974.1000366,0.691690785,-0.441178078,0.160107432,ST
12.33333333,-4.622448921,-1.431954265,8.990088463,-0.632625997,1.387203932,5.137228012,-1013.100037,21.30000114,-959.7000122,0.666120258,-0.472712408,0.15490089,ST
12.36666667,-4.819237709,-1.236361504,8.121584892,0.632625997,1.981719971,3.772889853,-1020.300049,18.90000153,-950.1000366,0.649872548,-0.532390257,0.146818423,ST
12.4,-5.027989864,-0.959421337,8.061771393,1.051836014,2.408551931,3.216483831,-1010.700012,9.900000572,-959.7000122,0.624457336,-0.55824621,0.114828293,ST
12.43333333,-4.84316349,-0.816465139,7.550358772,0.701223969,1.493911982,2.660078049,-1013.100037,18.30000114,-947.7000122,0.610036363,-0.570430024,0.10402986,ST
12.46666667,-5.395249367,-0.808689296,7.839859962,0.320124,1.265251994,2.057940006,-1008.300049,12.30000019,-959.7000122,0.601351956,-0.60152205,0.100108065,ST
12.5,-5.193675518,-0.705808699,8.568398476,0.777444005,0.975615978,1.676839948,-993.9000244,12.30000019,-959.7000122,0.586141187,-0.547638844,0.079948504,ST
12.53333333,-4.801891804,-0.987534046,7.894290924,1.600619912,0.29725799,0.868907988,-1003.500061,11.70000076,-950.1000366,0.607136134,-0.543895453,0.119315626,ST
12.56666667,-5.232554913,-0.471336663,8.294448853,2.416173935,0.975615978,0.846041977,-986.7000122,3.300000191,-957.3000488,0.575902987,-0.563072304,0.054452513,ST
12.6,-5.080626488,-0.285912335,8.179605484,2.705809832,0.876529992,0.861285985,-993.9000244,5.100000381,-957.3000488,0.566470356,-0.557364382,0.030332632,ST
12.63333333,-5.098570824,-0.239855334,8.630604744,2.202757835,-0.449698001,-0.175305992,-989.1000366,14.10000038,-959.7000122,0.569253008,-0.533637641,0.02436399,ST
12.66666667,-4.384985924,-0.180639178,8.307009697,1.951231956,-1.623485923,-1.570132017,-981.9000244,4.5,-962.1000366,0.577633345,-0.484769554,0.019951267,ST
12.7,-4.01234293,-0.21652776,8.221475601,1.920743942,-2.797273874,-2.957335949,-1003.500061,9.900000572,-957.3000488,0.595879569,-0.450339643,0.025216145,ST
12.73333333,-3.229972124,-0.705210567,8.142519951,0.907018006,-3.346057892,-4.230209827,-1003.500061,1.5,-959.7000122,0.638509025,-0.373243541,0.08510073,ST
12.76666667,-3.547585964,-0.02213129,8.871058464,0.952749968,-1.661595941,-6.867421627,-1017.900024,16.5,-978.9000244,0.642119206,-0.377236105,0.008448179,ST
12.8,-2.729326487,-0.149535745,8.400320053,1.173787951,0.053353999,-6.753091812,-1015.500061,8.700000763,-978.9000244,0.678865904,-0.315994915,0.019320779,ST
12.83333333,-3.909462452,-0.600535572,9.583446503,1.783547997,1.12805593,-5.93753767,-1025.100098,5.100000381,-966.9000244,0.722113807,-0.385090221,0.061767189,ST
12.86666667,-3.822133541,-0.586180091,9.819114685,2.263733864,0.282013983,-4.878079891,-1017.900024,3.900000095,-969.3000488,0.745899854,-0.371182755,0.059122547,ST
12.9,-4.081727505,-0.36247465,9.508080482,2.500015974,-0.503051996,-3.719535828,-1010.700012,9.300000191,-964.500061,0.757821229,-0.402762214,0.037396693,ST
12.93333333,-3.692934752,-0.648386955,9.104932785,1.867389917,0.342989981,-2.538125992,-1025.100098,15.30000019,-966.9000244,0.783863626,-0.385493123,0.068353122,ST
12.96666667,-3.898097754,-0.64719069,8.571987152,1.55488801,0.693601966,-2.339953899,-1022.700012,9.900000572,-986.1000366,0.799117086,-0.424957875,0.07424905,ST
13.0,-4.164271355,-0.799717128,8.730494499,1.455801964,1.288118005,-1.935987949,-1034.700073,1.5,-981.3000488,0.817021258,-0.444555093,0.089827635,ST
13.03333333,-3.925612211,-0.964206457,8.607276917,1.836901903,1.059458017,-2.522881985,-1017.900024,3.900000095,-969.3000488,0.840358446,-0.427554253,0.109712212,ST
13.06666667,-3.736599207,-1.556367993,9.099549294,2.911603928,0.609759986,-4.336917877,-1015.500061,6.900000095,-964.500061,0.886103943,-0.386235072,0.165159388,ST
13.1,-4.099073887,-2.006171465,7.375700951,4.344540119,1.585376024,-8.079319954,-1032.300049,5.700000286,-974.1000366,0.969529724,-0.48719152,0.261048573,ST
13.13333333,-4.482483387,-2.397955179,9.010425568,5.144849777,3.925329924,-11.5015974,-1020.300049,8.100000381,-966.9000244,1.035697755,-0.450610686,0.261434215,ST
13.16666667,-6.221883297,-1.166378736,9.868163109,8.22413826,2.87349391,-12.8506918,-1008.300049,6.900000095,-976.500061,1.040335678,-0.5569178,0.123459148,ST
13.2,-5.468223095,-0.946262181,7.839859962,9.702805519,0.609759986,-9.687561989,-1015.500061,1.5,-966.9000244,1.097587809,-0.602789749,0.115053801,ST
13.23333333,-5.20384407,-1.114340305,7.491740704,8.429931641,0.0,-9.161643982,-1015.500061,-0.900000036,-983.7000122,1.169548887,-0.599892517,0.142614028,ST
13.26666667,-5.583066463,-0.771604419,7.647257805,6.463455677,-0.929883957,-8.673835754,-1013.100037,4.5,-971.7000122,1.195221952,-0.623982259,0.101721485,ST
13.3,-4.981334686,-0.74827683,7.279399872,5.061007977,-1.371959925,-7.164680004,-1013.100037,-2.100000143,-971.7000122,1.235044895,-0.595230325,0.101912111,ST
13.33333333,-5.537009716,-0.659153581,8.676063538,4.13112402,-1.996963978,-6.181441784,-1010.700012,-12.90000057,-976.500061,1.254554177,-0.563738426,0.076365203,ST
13.36666667,-4.324573517,-0.864316583,7.30033493,3.521363974,-1.592997909,-4.474113941,-1027.5,-2.100000143,-981.3000488,1.302177687,-0.529135903,0.114981873,ST
13.4,-4.47410965,-0.822446585,7.718436718,2.57623601,-0.42683199,-3.666181803,-1025.100098,-6.900000095,-986.1000366,1.318980293,-0.521710825,0.105587138,ST
13.43333333,-4.615869522,-1.035385489,8.296841621,2.248489857,0.266770005,-2.477149963,-1027.5,-12.30000019,-981.3000488,1.342089626,-0.5050757,0.121956639,ST
13.46666667,-4.254590988,-1.069479585,8.502602577,2.225623846,-0.335367978,-2.042695999,-1020.300049,-5.100000381,-981.3000488,1.355388412,-0.461645615,0.122950176,ST
13.5,-3.826320648,-0.641209245,7.758512497,2.301843882,-0.564027965,-1.882633924,-1022.700012,-9.300000191,-974.1000366,1.349351927,-0.455819428,0.081749114,ST
13.53333333,-4.318592072,-0.238060907,8.267532349,2.667700052,0.129574001,-0.929883957,-1020.300049,-9.300000191,-974.1000366,1.334206077,-0.480351841,0.027303365,ST
13.56666667,-4.596130371,-0.250023752,8.920105934,2.812517881,0.579271972,-0.442075998,-1029.900024,-15.30000019,-983.7000122,1.340822816,-0.476731927,0.023647853,ST
13.6,-4.364649296,-0.367857933,8.689223289,2.157026052,0.480185986,-0.80793196,-1017.900024,-13.50000095,-971.7000122,1.356053578,-0.466267134,0.038780096,ST
13.63333333,-4.809667587,-0.165087461,8.979920387,1.021348,0.838419974,-1.12805593,-1022.700012,-12.30000019,-971.7000122,1.35359333,-0.491986567,0.018529974,ST
13.66666667,-4.774377346,0.037683006,9.257458687,0.876529992,0.91463995,-0.327746004,-1013.100037,-18.90000153,-978.9000244,1.346150201,-0.478330305,-0.004344854,ST
13.7,-4.736095905,0.590965271,8.532509804,1.95885396,1.158543944,0.762199998,-1017.900024,-17.70000076,-981.3000488,1.31550338,-0.506832456,-0.071412164,ST
13.73333333,-2.05701375,0.012561003,8.31000042,2.278977871,1.577754021,1.12805593,-1008.300049,-15.90000057,-981.3000488,1.33763631,-0.256073575,-0.008515655,ST
13.76666667,-4.387976646,1.444515228,8.263943672,3.528985977,2.202757835,0.045731999,-1005.900024,-16.5,-971.7000122,1.28387062,-0.476368739,-0.171963609,ST
13.8,-5.376109123,1.58149004,9.844237328,2.59910202,1.8292799,1.021348,-1010.700012,-16.5,-983.7000122,1.287264383,-0.49652638,-0.165342124,ST
13.83333333,-4.254590988,1.394271255,9.553539276,0.670735955,-0.358233988,1.310984015,-1008.300049,-15.30000019,-966.9000244,1.291194909,-0.417453226,-0.147787588,ST
13.86666667,-3.607998371,1.286007404,8.042032242,-1.021348,-1.875011921,-0.038109999,-1005.900024,-19.5,-981.3000488,1.287275663,-0.413956734,-0.156175636,ST
13.9,-4.561438084,0.96719718,8.164052963,-1.722571969,-0.449698001,-0.495429993,-1001.100037,-22.5,-966.9000244,1.30362695,-0.50213783,-0.116177197,ST
13.93333333,-4.166065693,-0.140563592,8.485854149,-1.821658015,0.190549999,-0.495429993,-1005.900024,-16.5,-964.500061,1.362788817,-0.458202308,0.015907643,ST
13.96666667,-4.777966022,-0.32239905,8.786122322,-0.640248001,-0.129574001,-2.667700052,-1010.700012,-19.5,-976.500061,1.384012959,-0.496289892,0.03959371,ST
14.0,-5.62015152,0.086132586,8.410488129,0.708845973,1.227141976,-1.875011921,-1003.500061,-17.10000038,-983.7000122,1.368963627,-0.587357741,-0.007248828,ST
14.03333333,-5.475998878,-0.377428204,8.070144653,0.967993975,2.06556201,-0.40396598,-1005.900024,-19.5,-969.3000488,1.401551732,-0.598801118,0.04346718,ST
14.06666667,-5.22238636,-0.890634894,8.071939468,0.83079797,1.882633924,-0.632625997,-1020.300049,-12.90000057,-981.3000488,1.441764898,-0.575679005,0.106754673,ST
14.1,-4.585363865,-1.038376212,7.463627815,0.594515979,1.067080021,-0.93750596,-986.7000122,-15.30000019,-974.1000366,1.464040227,-0.549153883,0.137363964,ST
14.13333333,-4.397547245,-1.299764633,7.871561527,0.754577994,-0.182927996,-1.753059983,-1010.700012,-16.5,-971.7000122,1.485756134,-0.50462883,0.163048258,ST
14.16666667,-4.146327019,-1.312923789,7.786625385,1.371959925,-0.038109999,-2.301843882,-1001.100037,-15.90000057,-976.500061,1.500735595,-0.483395793,0.166628329,ST
14.2,-4.064381599,-1.648482084,8.13414669,1.989341974,-0.175305992,-3.178373814,-981.9000244,-21.90000153,-981.3000488,1.531667751,-0.455219055,0.197833333,ST
14.23333333,-4.942455292,-1.454085588,8.997266769,3.117398024,-0.175305992,-5.160093784,-986.7000122,-17.70000076,-976.500061,1.542154429,-0.493505562,0.161086613,ST
14.26666667,-4.682861328,-1.155014038,8.763392448,3.925329924,-1.021348,-6.04424572,-993.9000244,-15.90000057,-969.3000488,1.562937711,-0.484291163,0.130471851,ST
14.3,-5.784042358,-0.440233231,8.555836678,5.182960033,-1.219519973,-6.227173805,-1005.900024,-18.30000114,-971.7000122,1.559779555,-0.586726408,0.052839528,ST
14.33333333,-5.991000175,-0.03229972,8.451162338,5.083873749,-0.716467977,-5.205825806,-986.7000122,-21.90000153,-971.7000122,1.564848398,-0.614183316,0.003446565,ST
14.36666667,-5.347398281,0.18482618,8.01391983,3.963439941,-1.280496001,-4.21496582,-996.3000488,-25.50000191,-978.9000244,1.575792245,-0.58735298,-0.023871628,ST
14.4,-5.534616947,0.771604419,6.923504829,2.019829988,-0.464941978,-2.690565825,-1001.100037,-18.30000114,-966.9000244,1.542524355,-0.667669121,-0.107071646,ST
14.43333333,-5.320481777,1.006076455,8.494228363,1.067080021,0.777444005,-0.701223969,-989.1000366,-30.30000114,-969.3000488,1.541224867,-0.561432241,-0.118732772,ST
14.46666667,-4.8808465,1.163388133,8.492433548,1.112811923,-0.503051996,-0.068598002,-991.500061,-25.50000191,-974.1000366,1.534874791,-0.518583878,-0.137186587,ST
14.5,-4.686450005,1.396663785,7.764493942,0.655492008,-0.358233988,0.40396598,-981.9000244,-22.5,-969.3000488,1.51466587,-0.534622132,-0.177732,ST
14.53333333,-4.337134838,1.205856204,7.928983212,0.0,-0.259148002,0.419209987,-991.500061,-24.30000114,-978.9000244,1.525701792,-0.496782138,-0.152335804,ST
14.56666667,-4.401135921,1.160995483,8.743654251,-0.236281991,-0.091463998,0.083841994,-993.9000244,-26.70000076,-974.1000366,1.534094329,-0.46403483,-0.132486725,ST
14.6,-4.082923889,1.04017067,8.436208725,-0.213415995,-1.23476398,0.213415995,-998.7000122,-19.5,-983.7000122,1.537705144,-0.446358911,-0.122766042,ST
14.63333333,-3.950734377,0.717173398,8.409292221,-0.487807989,-1.204275966,-0.106707998,-1003.500061,-15.90000057,-971.7000122,1.553547,-0.436173673,-0.085621581,ST
14.66666667,-4.288685322,0.360680223,9.211999893,-0.815553963,-0.579271972,-0.655492008,-996.3000488,-24.90000153,-969.3000488,1.574435567,-0.434545282,-0.039129522,ST
14.7,-4.186402798,0.260790348,9.231140137,0.205793992,-0.777444005,-1.272873998,-991.500061,-23.10000038,-971.7000122,1.584881213,-0.424742556,-0.028045658,ST
14.73333333,-4.251600266,-0.142956167,8.7239151,0.846041977,-0.335367978,-1.653973937,-996.3000488,-18.90000153,-988.500061,1.612160413,-0.451924979,0.014857863,ST
14.76666667,-4.438818932,-0.391783655,8.664100647,0.762199998,0.419209987,-1.806414008,-996.3000488,-18.30000114,-969.3000488,1.634320712,-0.472769523,0.044216233,ST
14.8,-4.470520496,-0.961813927,9.95190239,1.646351933,0.327746004,-2.08842802,-991.500061,-20.70000076,-969.3000488,1.667515716,-0.422857104,0.093137363,ST
14.83333333,-4.212720871,-0.799717128,9.046912193,3.38416791,-0.464941978,-2.553369999,-991.500061,-21.30000114,-962.1000366,1.680958648,-0.432700412,0.084632477,ST
14.86666667,-4.231263161,-0.570030272,8.05100441,4.53508997,-1.539644003,-2.896359921,-996.3000488,-21.90000153,-978.9000244,1.693558548,-0.477909956,0.066038295,ST
14.9,-4.988512516,-0.095104732,8.04681778,3.993927956,-1.364337921,-2.378063917,-996.3000488,-23.70000076,-974.1000366,1.684884311,-0.549790214,0.009514275,ST
14.93333333,-4.558447361,-0.106469452,7.828495026,2.301843882,-0.42683199,-0.823175967,-996.3000488,-27.30000114,-966.9000244,1.694508444,-0.527239805,0.010393438,ST
14.96666667,-4.649963379,-0.221911043,8.036050797,0.731711984,-0.320124,-0.495429993,-1003.500061,-23.70000076,-966.9000244,1.706053282,-0.523961581,0.026155352,ST
15.0,-4.336536407,-0.046655152,7.665800095,-0.556405962,0.160062,-0.083841994,-993.9000244,-28.50000191,-971.7000122,1.696064523,-0.515451442,0.007907896,ST
15.03333333,-4.350293636,-0.133984029,7.978629112,-0.929883957,0.83079797,0.525918007,-989.1000366,-28.50000191,-971.7000122,1.696594379,-0.501192928,0.017518169,ST
15.06666667,-4.81265831,-0.387596637,8.37101078,-1.440557957,1.028970003,0.792688012,-979.500061,-27.90000153,-957.3000488,1.704255224,-0.52255248,0.047169987,ST
15.1,-4.794713974,-0.585581958,8.792103767,-1.882633924,0.678357959,0.853663981,-984.3000488,-24.90000153,-976.500061,1.70703707,-0.500543133,0.068135703,ST
15.13333333,-4.955016136,-0.505430818,8.844739914,-0.823175967,0.373477995,0.121951997,-979.500061,-21.90000153,-964.500061,1.700287161,-0.51021846,0.058819193,ST
15.16666667,-4.849743366,-0.251220047,8.32196331,-0.457319975,0.213415995,-0.144817993,-981.9000244,-23.70000076,-974.1000366,1.686606343,-0.5271896,0.032137572,ST
15.2,-4.800097466,0.093908444,8.935059547,-0.259148002,-0.411587983,0.190549999,-984.3000488,-18.90000153,-959.7000122,1.665367369,-0.493671574,-0.008552459,ST
15.23333333,-4.746264458,0.452794224,9.402209282,0.876529992,-1.463423967,0.213415995,-989.1000366,-15.90000057,-976.500061,1.648282238,-0.465646708,-0.048128422,ST
15.26666667,-4.221693039,1.201669216,8.548659325,1.897877932,-1.646351933,0.182927996,-996.3000488,-23.70000076,-964.500061,1.611774267,-0.452563919,-0.139102303,ST
15.3,-3.85503149,1.499544382,7.333830833,2.187514067,-1.288118005,0.72408998,-996.3000488,-17.10000038,-981.3000488,1.585732286,-0.472308279,-0.203172654,ST
15.33333333,-4.069764614,1.4002527,8.576173782,1.295740008,0.045731999,0.381099999,-984.3000488,-27.30000114,-974.1000366,1.603417701,-0.438947842,-0.165491706,ST
15.36666667,-3.829909563,1.366158605,8.781934738,1.067080021,-0.365855992,-0.152439997,-984.3000488,-29.10000038,-962.1000366,1.610026479,-0.407620165,-0.156409058,ST
15.4,-4.557849407,1.053927898,9.372302055,0.609759986,-0.480185986,-0.762199998,-1003.500061,-30.30000114,-971.7000122,1.632791288,-0.448324893,-0.113642167,ST
15.43333333,-4.460351944,0.943869591,8.902759552,0.137196004,0.045731999,-0.685979962,-1013.100037,-27.30000114,-962.1000366,1.639394602,-0.461853193,-0.10562087,ST
15.46666667,-4.834191322,0.791941285,8.807057381,-0.495429993,0.579271972,0.434453994,-1003.500061,-18.90000153,-964.500061,1.643591422,-0.499639902,-0.08995207,ST
15.5,-4.454968929,0.817063272,8.031864166,-0.922261953,0.945127964,0.861285985,-993.9000244,-26.70000076,-964.500061,1.632750414,-0.505482099,-0.100250389,ST
15.53333333,-4.474707603,0.480308801,8.05100441,-1.42531395,1.227141976,1.394825935,-998.7000122,-21.90000153,-966.9000244,1.64302778,-0.508397231,-0.060221092,ST
15.56666667,-5.100365162,0.140563592,8.281289101,-2.370441914,0.663114011,1.996963978,-996.3000488,-21.90000153,-957.3000488,1.651384766,-0.551239221,-0.016849923,ST
15.6,-4.889220715,-0.322997212,8.184988022,-2.507637978,0.876529992,2.76678586,-993.9000244,-21.30000114,-966.9000244,1.661800805,-0.540113964,0.039531537,ST
15.63333333,-4.991503239,-1.049142718,8.447572708,-3.338435888,0.381099999,3.147886038,-991.500061,-23.10000038,-962.1000366,1.684174876,-0.532024148,0.122714069,ST
15.66666667,-5.216404915,-1.135873556,8.614455223,-3.833865881,-0.495429993,3.300325871,-1001.100037,-15.30000019,-959.7000122,1.666946091,-0.540269866,0.133890472,ST
15.7,-4.764806747,-1.310531259,8.429629326,-3.437521935,-1.036592007,3.246971846,-991.500061,-18.90000153,-954.9000244,1.656698352,-0.5097406,0.155996149,ST
15.73333333,-4.243824482,-1.206454396,8.311794281,-2.317087889,-0.93750596,2.690565825,-984.3000488,-22.5,-969.3000488,1.635656959,-0.468670572,0.146087855,ST
15.76666667,-4.476501942,-0.902597725,8.152091026,-1.440557957,-0.800309956,2.629590034,-979.500061,-11.10000038,-969.3000488,1.605537525,-0.497537794,0.111720456,ST
15.8,-4.678076267,-0.78595984,8.504995346,-1.028970003,-0.381099999,3.315569878,-1001.100037,-16.5,-969.3000488,1.580131094,-0.500823194,0.091611915,ST
15.83333333,-4.453174591,-0.90379405,8.728700638,-0.571649969,-0.685979962,3.574717999,-1001.100037,-17.70000076,-969.3000488,1.568278773,-0.470318941,0.10056096,ST
15.86666667,-4.359864235,-0.776389599,8.407497406,-0.701223969,-0.990859985,3.201239824,-998.7000122,-23.70000076,-959.7000122,1.548892436,-0.475241479,0.090781112,ST
15.9,-4.066773891,-0.845774174,7.902665138,-0.929883957,-0.129574001,2.477149963,-1001.100037,-25.50000191,-964.500061,1.542097445,-0.473230492,0.105649617,ST
15.93333333,-4.143336296,-0.78835243,8.222671509,-1.089946032,0.213415995,1.699705958,-998.7000122,-17.70000076,-969.3000488,1.528777087,-0.465890607,0.096404594,ST
15.96666667,-4.69243145,-0.273351341,8.763392448,-0.40396598,-0.236281991,1.288118005,-1003.500061,-17.10000038,-986.1000366,1.493596143,-0.49010102,0.033388413,ST
16.0,-4.944848061,0.077758588,8.775355339,0.663114011,-0.419209987,1.753059983,-1005.900024,-17.10000038,-981.3000488,1.466427064,-0.511756619,-0.010445045,ST
16.03333333,-4.716955662,-0.049645867,9.148596764,0.289635986,-0.045731999,1.875011921,-998.7000122,-18.30000114,-983.7000122,1.465657519,-0.477417597,0.002672742,ST
16.06666667,-4.691833496,0.446812809,9.4375,0.503051996,0.40396598,1.417691946,-989.1000366,-18.90000153,-978.9000244,1.438164835,-0.462181319,-0.047343285,ST
16.1,-3.901686668,0.901999593,8.049209595,0.876529992,0.198172003,1.600619912,-993.9000244,-24.30000114,-957.3000488,1.40458553,-0.449463008,-0.112088203,ST
16.13333333,-4.157093525,0.915756881,8.057583809,1.006103992,0.091463998,1.760681987,-989.1000366,-21.30000114,-950.1000366,1.397539814,-0.472523424,-0.116307699,ST
16.16666667,-4.006361485,0.891233027,8.186782837,0.685979962,-0.099086002,1.615863919,-986.7000122,-15.90000057,-971.7000122,1.394339905,-0.452944889,-0.111159348,ST
16.2,-3.519473314,0.691453278,7.52164793,0.236281991,-0.304879993,1.082324028,-993.9000244,-20.10000038,-971.7000122,1.397795338,-0.435891483,-0.09351463,ST
16.23333333,-4.074550152,0.473729223,8.125174522,-0.609759986,-0.167683989,0.099086002,-1001.100037,-20.10000038,-969.3000488,1.411305971,-0.462715527,-0.058744926,ST
16.26666667,-4.630224705,0.372643083,8.612062454,-0.983237982,-0.167683989,-0.015244,-996.3000488,-9.900000572,-969.3000488,1.41681092,-0.491784581,-0.041997545,ST
16.3,-4.314405441,-0.139367312,8.780738831,-2.134160042,-0.663114011,-0.053353999,-1003.500061,-15.90000057,-986.1000366,1.439625708,-0.456818759,0.01744344,ST
16.33333333,-4.095484734,-0.707603157,7.461833477,-3.27745986,-0.182927996,-0.266770005,-991.500061,-20.10000038,-976.500061,1.470227811,-0.498015089,0.097055707,ST
16.36666667,-4.473511219,-1.357186437,8.365029335,-3.932951927,1.714949965,-0.640248001,-991.500061,-16.5,-971.7000122,1.497722577,-0.488898353,0.165652767,ST
16.4,-4.78215313,-1.58149004,8.883021355,-2.507637978,2.36281991,-0.548784018,-991.500061,-17.70000076,-969.3000488,1.503291491,-0.4911634,0.180814378,ST
16.43333333,-5.501121044,-1.623958111,9.015211105,-1.082324028,2.210379839,0.556405962,-981.9000244,-15.90000057,-974.1000366,1.49978954,-0.542605927,0.179992891,ST
16.46666667,-6.305623055,-1.198678493,8.615053177,0.358233988,2.309465885,1.669217944,-996.3000488,-16.5,-969.3000488,1.471552485,-0.62946612,0.137096995,ST
16.5,-5.696115494,-1.162191749,7.884122372,0.876529992,1.95885396,2.439039946,-972.3000488,-13.50000095,-976.500061,1.468770227,-0.624750431,0.141942937,ST
16.53333333,-5.396445751,-1.172958374,7.775260448,0.632625997,0.602137983,2.294221878,-977.1000366,-12.30000019,-978.9000244,1.464445223,-0.603966709,0.145833613,ST
16.56666667,-5.118907452,-1.245333672,7.587443829,0.419209987,-0.564027965,1.55488801,-984.3000488,-17.70000076,-971.7000122,1.46698338,-0.587522225,0.159485127,ST
16.6,-4.745666504,-1.389486074,7.588041782,0.449698001,-1.112811923,1.105189919,-986.7000122,-9.300000191,-969.3000488,1.473184206,-0.551468093,0.178164401,ST
16.63333333,-4.691235542,-1.26148355,7.800382614,0.556405962,-1.516777992,0.625003994,-984.3000488,-11.10000038,-983.7000122,1.46131512,-0.534072494,0.159263051,ST
16.66666667,-4.801891804,-1.036581755,7.92359972,0.967993975,-1.760681987,0.586893976,-996.3000488,-18.90000153,-969.3000488,1.44478493,-0.538012268,0.12883949,ST
16.7,-5.225377083,-0.779978454,8.241213799,1.34147191,-1.303362012,0.655492008,-977.1000366,-17.10000038,-976.500061,1.426083658,-0.559993517,0.092721128,ST
16.73333333,-5.502915382,-0.980954468,8.436806679,1.463423967,-0.190549999,0.701223969,-984.3000488,-13.50000095,-966.9000244,1.437211345,-0.574231983,0.111750299,ST
16.76666667,-4.928698063,-0.39058736,8.293850899,1.074702024,0.221037999,0.335367978,-984.3000488,-9.900000572,-966.9000244,1.404499106,-0.537519215,0.047193074,ST
16.8,-5.180516243,0.149535745,8.608473778,1.806414008,-0.792688012,0.884151995,-984.3000488,-11.10000038,-978.9000244,1.371462363,-0.540187534,-0.018645664,ST
16.83333333,-5.388072014,0.427672237,8.948817253,2.49239397,-0.945127964,1.432935953,-996.3000488,-6.900000095,-969.3000488,1.354637918,-0.539714752,-0.05213785,ST
16.86666667,-4.738488674,0.68726629,8.684437752,2.149404049,-1.379581928,1.577754021,-989.1000366,-17.70000076,-988.500061,1.338341514,-0.497347089,-0.08284814,ST
16.9,-4.046437263,1.019833803,8.308803558,1.577754021,-1.783547997,1.417691946,-996.3000488,-15.30000019,-976.500061,1.31775876,-0.448931973,-0.124188538,NLR
16.93333333,-3.514090061,1.123910666,7.684342861,1.120433927,-1.913121939,0.80793196,-991.500061,-15.30000019,-966.9000244,1.308146909,-0.4224084,-0.146764446,NLR
16.96666667,-4.224085808,0.696836591,8.10782814,-0.091463998,-1.371959925,-0.289635986,-998.7000122,-13.50000095,-971.7000122,1.335328856,-0.474284536,-0.087794839,NLR
17.0,-5.002867699,0.348717362,9.662401199,-0.579271972,0.038109999,-0.480185986,-1005.900024,-20.10000038,-974.1000366,1.359420739,-0.477481545,-0.036796932,NLR
17.03333333,-3.505715847,-0.046057008,8.539089203,-0.266770005,0.304879993,-0.960371971,-1008.300049,-17.70000076,-981.3000488,1.380557516,-0.393651063,0.004867437,NLR
17.06666667,-4.601513863,-0.06998273,8.557033539,0.945127964,0.472563982,-2.17227006,-1003.500061,-20.10000038,-969.3000488,1.392980609,-0.490062421,0.008337331,NLR
17.1,-5.490952492,-0.314025074,9.85799408,1.897877932,0.708845973,-2.454283953,-996.3000488,-21.30000114,-971.7000122,1.417523874,-0.508339048,0.029996775,NLR
17.13333333,-5.017821312,-0.442027658,9.078614235,3.841487885,-0.945127964,-3.795755863,-1003.500061,-15.90000057,-974.1000366,1.449928734,-0.502673895,0.045052047,NLR
17.16666667,-4.830602646,-0.636424124,8.54686451,4.740883827,-3.056421995,-4.664663792,-996.3000488,-12.90000057,-971.7000122,1.490225602,-0.507204212,0.069305107,NLR
17.2,-4.357471466,-0.602329969,7.42773962,4.702774048,-3.757645845,-5.960403919,-1001.100037,-21.90000153,-978.9000244,1.530922935,-0.521360224,0.07808417,NLR
17.23333333,-5.01542902,-0.24942562,8.826197624,4.504601955,-2.660078049,-6.082355976,-1005.900024,-21.90000153,-976.500061,1.541386062,-0.511942796,0.028156234,NLR
17.26666667,-3.360965252,-0.364269078,8.05519104,3.871975899,-2.423795938,-6.013757706,-1010.700012,-23.10000038,-966.9000244,1.579858548,-0.395219571,0.042330165,NLR
17.3,-3.875966549,-0.349913627,7.740568161,2.370441914,-1.227141976,-4.885701656,-998.7000122,-26.10000038,-971.7000122,1.607252131,-0.459185649,0.045039298,NLR
17.33333333,-4.124195576,-0.50842154,8.141324043,1.623485923,0.838419974,-3.849109888,-1013.100037,-23.70000076,-974.1000366,1.634932596,-0.468805463,0.062318697,NLR
17.36666667,-4.024904251,-0.464757085,7.772269726,1.34147191,1.684461951,-2.46952796,-1001.100037,-29.10000038,-974.1000366,1.64712985,-0.479329483,0.059812095,NLR
17.4,-4.76361084,-0.533543527,8.684437752,1.120433927,1.775925994,-1.242385983,-1001.100037,-20.70000076,-966.9000244,1.655441594,-0.502878659,0.060652661,NLR
17.43333333,-5.336631775,-0.566441417,9.585839272,0.91463995,1.173787951,-0.312501997,-1001.100037,-24.30000114,-969.3000488,1.65769448,-0.509002005,0.057912927,NLR
17.46666667,-4.972960472,-0.652574003,9.03195858,0.632625997,0.190549999,0.0,-1008.300049,-29.10000038,-964.500061,1.665256681,-0.502798724,0.070504785,NLR
17.5,-4.796508312,-0.82603544,8.270523071,-0.083841994,-0.152439997,-0.510674,-989.1000366,-28.50000191,-959.7000122,1.681008113,-0.522231092,0.098965091,NLR
17.53333333,-4.184608459,-0.698032856,7.443889141,-0.40396598,-0.160062,-0.769822001,-996.3000488,-29.10000038,-964.500061,1.681197488,-0.510355781,0.095101524,NLR
17.56666667,-4.28330183,-0.488084674,7.638884068,-0.251525998,-0.060975999,-0.396344006,-981.9000244,-26.70000076,-964.500061,1.667922214,-0.510040535,0.065865703,NLR
17.6,-4.771984577,-0.07596416,8.593520164,0.541162014,0.175305992,0.068598002,-991.500061,-21.30000114,-990.9000244,1.641557412,-0.507307486,0.009673697,NLR
17.63333333,-4.847948551,0.447410941,9.179101944,1.379581928,-0.29725799,0.746955991,-993.9000244,-24.30000114,-966.9000244,1.613450231,-0.485786281,-0.049324197,NLR
17.66666667,-4.408911705,0.968393445,8.571987152,1.935987949,-1.600619912,1.760681987,-1008.300049,-24.90000153,-959.7000122,1.580942816,-0.47006504,-0.114536189,NLR
17.7,-4.581775188,1.293185115,8.991883278,1.76830399,-1.143299937,1.783547997,-1003.500061,-21.30000114,-962.1000366,1.563787548,-0.464931655,-0.146000554,NLR
17.73333333,-4.769592285,1.570125341,9.981809616,1.74543798,-0.891773999,1.791170001,-991.500061,-27.30000114,-950.1000366,1.554449691,-0.440042302,-0.159832588,NLR
17.76666667,-3.685756922,1.79084003,8.894984245,1.562510014,-1.371959925,1.379581928,-1010.700012,-28.50000191,-964.500061,1.536289233,-0.385354063,-0.200500231,NLR
17.8,-3.147428274,1.71547401,7.202239513,0.663114011,-1.280496001,0.861285985,-1001.100037,-23.10000038,-957.3000488,1.522118663,-0.39900319,-0.234266427,NLR
17.83333333,-3.741384268,1.239950418,8.490639687,-0.564027965,-0.411587983,0.205793992,-998.7000122,-28.50000191,-964.500061,1.554569423,-0.409998506,-0.147821419,NLR
17.86666667,-3.289786339,1.032394767,8.195755005,-1.250007987,-0.464941978,-0.884151995,-1008.300049,-26.70000076,-966.9000244,1.565738927,-0.379674414,-0.123489945,NLR
17.9,-3.078043699,0.751865745,7.821317673,-1.547266006,-0.769822001,-1.105189919,-991.500061,-24.90000153,-969.3000488,1.579407626,-0.372453899,-0.093325051,NLR
17.93333333,-5.182310581,0.622068703,9.1073246,-2.141782045,-0.320124,-0.106707998,-1005.900024,-27.90000153,-962.1000366,1.587388023,-0.51059591,-0.065454722,NLR
17.96666667,-5.332444668,0.39297992,9.367517471,-2.926847935,-0.137196004,2.004585981,-1001.100037,-24.90000153,-974.1000366,1.585309329,-0.516488028,-0.039878052,NLR
18.0,-5.328257561,0.237462759,9.242505074,-3.902463913,-1.242385983,4.83234787,-1015.500061,-29.70000076,-962.1000366,1.564900884,-0.520266138,-0.024323933,NLR
18.03333333,-4.419678211,-0.823044717,8.515163422,-4.466491699,-1.402447939,6.524431705,-1010.700012,-23.10000038,-962.1000366,1.582958111,-0.476880712,0.094303526,NLR
18.06666667,-4.027894974,-0.918747604,8.159866333,-4.954299927,-0.83079797,5.93753767,-1017.900024,-20.10000038,-966.9000244,1.557227197,-0.456610994,0.114744179,NLR
18.1,-4.206739426,-0.82842803,8.351870537,-4.32167387,0.083841994,5.785098076,-1013.100037,-20.70000076,-981.3000488,1.515872963,-0.465555911,0.101759537,NLR
18.13333333,-2.863310337,-1.358980775,7.60419178,-3.582340002,0.076219998,5.099117756,-1008.300049,-24.30000114,-974.1000366,1.518247795,-0.361044473,0.176637077,NLR
18.16666667,-3.244327545,-1.328475595,7.81055069,-2.477149963,0.556405962,3.475631952,-1022.700012,-13.50000095,-976.500061,1.497580058,-0.38945799,0.170690949,NLR
18.2,-4.425061703,-0.981552601,8.860890388,-0.670735955,1.608241916,2.560992002,-1013.100037,-11.70000076,-981.3000488,1.462321736,-0.461045633,0.11204772,NLR
18.23333333,-4.712768555,-1.202267408,9.52722168,-0.091463998,1.333850026,2.393307924,-1008.300049,-17.10000038,-969.3000488,1.457977958,-0.459139935,0.123307865,NLR
18.26666667,-4.389771461,-1.213033915,8.681447029,-0.053353999,-0.099086002,1.478667974,-1013.100037,-20.70000076,-969.3000488,1.457890813,-0.464239796,0.137047915,NLR
18.3,-4.245020866,-0.988730311,8.137137413,-0.282013983,-0.556405962,0.83079797,-1010.700012,-15.30000019,-986.1000366,1.446155811,-0.47665272,0.121133189,NLR
18.33333333,-4.85751915,-0.759043455,8.830983162,-0.038109999,-0.129574001,0.609759986,-1003.500061,-14.10000038,-969.3000488,1.427391733,-0.500216864,0.086697102,NLR
18.36666667,-4.146327019,-0.788950562,8.285476685,0.571649969,-0.114329994,0.121951997,-1008.300049,-12.90000057,-971.7000122,1.4312333,-0.463562905,0.093538574,NLR
18.4,-4.122999668,-0.455784947,8.497219086,1.326228023,-0.769822001,-0.868907988,-1001.100037,-14.70000076,-969.3000488,1.419690857,-0.450330501,0.053649904,NLR
18.43333333,-5.096776485,0.051440295,9.943529129,2.035073996,-0.800309956,-0.975615978,-1013.100037,-16.5,-978.9000244,1.401619163,-0.47138259,-0.0053367,NLR
18.46666667,-4.51597929,0.391185492,9.470397949,2.698187828,-1.288118005,-0.518296003,-993.9000244,-12.30000019,-978.9000244,1.392335708,-0.443600438,-0.043899559,NLR
18.5,-4.28330183,0.820652127,8.708363533,2.25611186,-0.983237982,0.083841994,-1013.100037,-17.70000076,-969.3000488,1.374370556,-0.453250683,-0.095689574,NLR
18.53333333,-3.913051367,0.959421337,8.677858353,1.562510014,-0.083841994,0.609759986,-1022.700012,-15.30000019,-983.7000122,1.367661915,-0.421884876,-0.112876523,ST
18.56666667,-3.767104387,0.740500987,8.748438835,1.013725996,0.030487999,0.564027965,-1020.300049,-15.90000057,-974.1000366,1.3772763,-0.405958821,-0.087693336,ST
18.6,-3.2383461,0.687864423,7.766886711,0.625003994,0.167683989,0.42683199,-1020.300049,-18.30000114,-981.3000488,1.375704547,-0.394250898,-0.08967887,ST
18.63333333,-3.524856567,0.666929424,7.561125278,0.457319975,0.685979962,-0.068598002,-1015.500061,-17.70000076,-969.3000488,1.376948193,-0.434253743,-0.088811084,ST
18.66666667,-4.136756897,0.138769165,8.499013901,-0.022865999,1.158543944,-0.228659987,-1003.500061,-15.90000057,-971.7000122,1.407935243,-0.454331018,-0.018455313,ST
18.7,-4.952623844,-0.302062213,10.236619,-0.815553963,0.754577994,-0.282013983,-998.7000122,-24.90000153,-974.1000366,1.428433611,-0.45185713,0.029393262,ST
18.73333333,-5.002269745,-0.316417634,10.16663647,-0.312501997,-0.007622,-0.609759986,-1020.300049,-15.90000057,-974.1000366,1.431620372,-0.45684662,0.032091744,ST
18.76666667,-4.209132195,-0.423485219,8.51755619,0.685979962,-0.205793992,-0.106707998,-1005.900024,-17.10000038,-976.500061,1.440487948,-0.458073827,0.047969871,ST
18.8,-3.690542221,-0.894821882,7.975040436,1.089946032,0.144817993,-0.205793992,-1017.900024,-11.10000038,-974.1000366,1.469186067,-0.432380121,0.107522908,ST
18.83333333,-4.255188942,-1.015048623,8.398525238,1.920743942,0.655492008,-0.678357959,-1013.100037,-15.90000057,-964.500061,1.481053235,-0.46606776,0.117285165,ST
18.86666667,-4.194178581,-1.074862957,8.02468586,2.416173935,0.640248001,-0.228659987,-1003.500061,-14.10000038,-978.9000244,1.49259739,-0.478507534,0.128723847,ST
18.9,-4.463342667,-0.737510264,8.120388985,2.324709892,-0.099086002,-0.40396598,-1008.300049,-14.70000076,-974.1000366,1.480398152,-0.499713147,0.08860174,ST
18.93333333,-4.837780476,-0.224901751,8.268728256,2.57623601,0.114329994,0.137196004,-1015.500061,-29.70000076,-966.9000244,1.454606892,-0.528232929,0.025275938,ST
18.96666667,-4.530932903,-0.347521067,8.851918221,2.271355867,-0.259148002,0.525918007,-998.7000122,-26.10000038,-964.500061,1.462088866,-0.473933947,0.034541707,ST
19.0,-4.121204853,-0.161498606,8.174221992,1.730193973,-0.762199998,-0.236281991,-1003.500061,-19.5,-966.9000244,1.458935283,-0.465903566,0.017642979,ST
19.03333333,-3.9489398,-0.098693587,7.389458179,1.089946032,-0.304879993,-1.089946032,-1003.500061,-25.50000191,-969.3000488,1.46340689,-0.489206527,0.012666713,ST
19.06666667,-4.551270008,0.034692291,7.681352139,0.967993975,0.739333987,-0.960371971,-1005.900024,-22.5,-983.7000122,1.461070337,-0.534273029,-0.004486789,ST
19.1,-4.967577457,0.143554315,8.155080795,0.701223969,1.112811923,-0.457319975,-1008.300049,-26.10000038,-964.500061,1.457630631,-0.548401077,-0.01779268,ST
19.13333333,-5.494541168,0.277538329,8.845337868,0.594515979,1.23476398,0.586893976,-1003.500061,-29.70000076,-962.1000366,1.448938244,-0.55737063,-0.032460013,ST
19.16666667,-5.386277676,0.25899592,9.529015541,0.480185986,0.792688012,0.800309956,-996.3000488,-24.30000114,-964.500061,1.448397413,-0.516833037,-0.028930025,ST
19.2,-4.676281929,0.323595345,8.52832222,0.327746004,-0.076219998,0.152439997,-993.9000244,-25.50000191,-966.9000244,1.443983691,-0.501748084,-0.038249943,ST
19.23333333,-4.739086628,0.653172135,8.707167625,0.434453994,0.350611985,-0.213415995,-984.3000488,-24.90000153,-969.3000488,1.428599791,-0.498063311,-0.073949336,ST
19.26666667,-4.237843037,0.952841759,8.104837418,1.204275966,-0.167683989,-0.388722003,-1008.300049,-22.5,-966.9000244,1.41263424,-0.479552279,-0.116957534,ST
19.3,-4.308423996,0.992917359,7.888907433,1.204275966,-0.251525998,-0.358233988,-998.7000122,-24.30000114,-957.3000488,1.412330952,-0.495539205,-0.126535752,ST
19.33333333,-4.283899784,0.773997009,8.161062241,0.564027965,0.099086002,-0.442075998,-996.3000488,-26.10000038,-969.3000488,1.429442849,-0.482360217,-0.096412391,ST
19.36666667,-4.385584354,0.833213151,8.318374634,0.068598002,-0.40396598,-0.518296003,-998.7000122,-18.30000114,-964.500061,1.430574046,-0.482509085,-0.099334652,ST
19.4,-5.019017696,0.742893577,9.271216393,-0.350611985,-0.785066009,-0.137196004,-993.9000244,-23.10000038,-959.7000122,1.439714453,-0.493053536,-0.079983966,ST
19.43333333,-4.825817585,0.545506418,9.363329887,-0.655492008,-1.036592007,-0.129574001,-1003.500061,-29.70000076,-969.3000488,1.449435019,-0.474206416,-0.057810168,ST
19.46666667,-4.458557606,0.555674791,8.730494499,-0.960371971,-1.242385983,-0.182927996,-1001.100037,-19.5,-966.9000244,1.446770827,-0.469379667,-0.061516604,ST
19.5,-4.517773628,0.077758588,8.276504517,-1.631107926,-0.579271972,0.045731999,-993.9000244,-28.50000191,-971.7000122,1.46761474,-0.497588028,-0.008594405,ST
19.53333333,-4.453174591,-0.098693587,7.832084179,-2.240867853,-0.030487999,0.419209987,-986.7000122,-19.5,-971.7000122,1.472386386,-0.516136387,0.015089009,ST
19.56666667,-4.938268185,-0.050244011,8.090481758,-2.59910202,0.106707998,1.379581928,-1001.100037,-20.10000038,-983.7000122,1.457992421,-0.546919788,0.009540131,ST
19.6,-4.808471203,-0.157909751,7.561723232,-2.621968031,-0.449698001,3.086910009,-993.9000244,-18.30000114,-971.7000122,1.444758002,-0.565028121,0.02164373,ST
19.63333333,-4.40352869,-0.643003702,7.387663841,-3.00306797,-0.495429993,4.375028133,-989.1000366,-15.90000057,-966.9000244,1.452143724,-0.536568533,0.08540504,ST
19.66666667,-5.303135395,-1.298568368,9.789806366,-3.643316031,-0.72408998,4.527467728,-998.7000122,-20.10000038,-981.3000488,1.446348825,-0.493805489,0.132556136,ST
19.7,-5.087804317,-1.019833803,8.63419342,-2.972579956,-1.34147191,4.260697842,-1003.500061,-13.50000095,-966.9000244,1.413760861,-0.526941425,0.118798979,ST
19.73333333,-3.866396189,-1.257894635,7.282989025,-2.667700052,-0.548784018,4.405515671,-1008.300049,-23.10000038,-974.1000366,1.41447078,-0.484123089,0.169477234,ST
19.76666667,-3.944752932,-1.195687771,7.942142487,-2.187514067,0.632625997,3.643316031,-996.3000488,-21.30000114,-976.500061,1.384674928,-0.459231485,0.150671105,ST
19.8,-4.051820278,-1.046750188,8.565407753,-1.516777992,0.259148002,2.888737917,-1005.900024,-15.90000057,-964.500061,1.357873094,-0.440859056,0.12305667,ST
19.83333333,-4.039259434,-1.052731633,8.168240547,-1.021348,-0.907018006,2.073184013,-996.3000488,-14.70000076,-966.9000244,1.3489155,-0.454300496,0.127906201,ST
19.86666667,-4.663720608,-1.108957052,8.518752098,-1.089946032,-1.410069942,1.410069942,-1010.700012,-15.30000019,-971.7000122,1.340217027,-0.494088793,0.129822789,ST
19.9,-4.689440727,-0.993515491,8.190371513,-1.143299937,-1.013725996,1.356715918,-1010.700012,-12.30000019,-974.1000366,1.32776255,-0.514521482,0.121619043,ST
19.93333333,-4.986119747,-0.842783451,8.758008957,-1.04421401,-0.762199998,1.577754021,-1015.500061,-14.10000038,-978.9000244,1.30673964,-0.514533503,0.097168716,ST
19.96666667,-4.855126381,-0.773398876,8.789113045,-0.80793196,-0.853663981,2.370441914,-1005.900024,-9.900000572,-978.9000244,1.290277553,-0.502446814,0.08725228,ST
20.0,-4.733703613,-0.669920146,8.344094276,-1.143299937,-0.891773999,2.225623846,-1005.900024,-6.900000095,-971.7000122,1.275040939,-0.512977247,0.080166838,ST
20.03333333,-4.686450005,-0.46595338,8.256765366,-1.387203932,-0.121951997,1.737815976,-1029.900024,-12.30000019,-969.3000488,1.254002833,-0.515437523,0.058010992,ST
20.06666667,-4.459156036,-0.415709376,9.52363205,-0.83079797,0.282013983,1.189031959,-1005.900024,-9.300000191,-974.1000366,1.24129086,-0.441257455,0.044616446,ST
20.1,-3.49973464,0.026318291,7.558134556,0.0,-0.541162014,0.777444005,-1010.700012,-10.5,-966.9000244,1.21820697,-0.433068613,-0.002141452,ST
20.13333333,-4.597326756,0.112450875,8.479872704,0.510674,0.525918007,0.708845973,-1013.100037,-8.700000763,-966.9000244,1.210840742,-0.495326456,-0.014354608,ST
20.16666667,-4.382593632,0.089123301,9.165943146,0.61738199,0.53354001,0.449698001,-989.1000366,-14.70000076,-983.7000122,1.211612521,-0.448651071,-0.011296602,ST
20.2,-3.852040768,0.468944103,8.204129219,0.739333987,-0.579271972,0.205793992,-1005.900024,-11.70000076,-969.3000488,1.192866075,-0.437790985,-0.056622327,ST
20.23333333,-4.552466393,0.220116615,9.46022892,0.571649969,-0.815553963,0.365855992,-1008.300049,-15.30000019,-981.3000488,1.205816077,-0.44664472,-0.025712134,ST
20.26666667,-4.30184412,-0.06041244,9.300524712,-0.144817993,-1.250007987,-0.038109999,-1022.700012,-12.90000057,-978.9000244,1.218974503,-0.431682711,0.00546206,ST
20.3,-3.846657515,0.057421725,8.033060074,-0.571649969,-1.417691946,-0.358233988,-1027.5,-12.90000057,-986.1000366,1.214750871,-0.443660467,-0.005435252,ST
20.33333333,-3.451284885,-0.250023752,7.619145393,-0.266770005,-0.411587983,-0.060975999,-1017.900024,-9.300000191,-978.9000244,1.23022931,-0.425024165,0.032081839,ST
20.36666667,-4.093092442,-0.696836591,8.91173172,0.0,-0.190549999,0.243903995,-1032.300049,-12.90000057,-969.3000488,1.247332385,-0.428950152,0.075964987,ST
20.4,-4.486670494,-0.917551339,9.680944443,0.823175967,-0.327746004,0.137196004,-1025.100098,-12.90000057,-978.9000244,1.2550112,-0.43162522,0.092235209,ST
20.43333333,-5.190086365,-1.008469105,9.655223846,1.974097967,-0.038109999,-0.129574001,-1032.300049,-9.300000191,-966.9000244,1.263906556,-0.489408412,0.100508632,ST
20.46666667,-4.265955448,-1.169369459,7.934366703,1.775925994,0.91463995,0.335367978,-1020.300049,-15.30000019,-983.7000122,1.286077115,-0.490491213,0.141310801,ST
20.5,-3.889125586,-1.343429089,7.656229973,1.547266006,1.288118005,-0.678357959,-1022.700012,-14.70000076,-978.9000244,1.306399629,-0.466937348,0.17056834,DLR
20.53333333,-4.030287266,-1.314120054,8.071939468,1.310984015,1.166165948,-1.516777992,-1008.300049,-17.70000076,-971.7000122,1.311755579,-0.459763291,0.160961549,DLR
20.56666667,-4.159486294,-1.07785368,8.179006577,1.440557957,0.045731999,-1.951231956,-1013.100037,-12.90000057,-964.500061,1.309536622,-0.466349067,0.131468604,DLR
20.6,-4.184010029,-0.727940023,7.620341301,1.928365946,-1.371959925,-2.073184013,-1015.500061,-14.10000038,-981.3000488,1.305582662,-0.496597022,0.094768183,DLR
20.63333333,-4.404725075,-0.900205195,8.497817039,1.615863919,-1.265251994,-1.257629991,-1010.700012,-18.90000153,-981.3000488,1.317897994,-0.474344806,0.103410583,DLR
20.66666667,-5.08361721,-1.013852358,9.713243484,0.93750596,-1.753059983,-1.478667974,-1010.700012,-9.900000572,-971.7000122,1.325208119,-0.476542498,0.103521216,DLR
20.7,-5.084215164,-0.39776507,9.082800865,1.006103992,-1.714949965,-1.608241916,-1017.900024,-16.5,-993.3000488,1.306306863,-0.505565086,0.045956581,DLR
20.73333333,-4.117616177,-0.392381787,8.559426308,0.922261953,-0.320124,-0.503051996,-1027.5,-10.5,-974.1000366,1.309766207,-0.449468706,0.044664993,DLR
20.76666667,-4.061390877,-0.28950119,8.56241703,0.975615978,0.221037999,-0.876529992,-1025.100098,-18.30000114,-974.1000366,1.310922326,-0.443193997,0.033160639,DLR
20.8,-3.907668114,0.18482618,8.109622002,1.34147191,0.564027965,-1.036592007,-1029.900024,-11.70000076,-976.500061,1.294102359,-0.449686901,-0.021928829,DLR
20.83333333,-4.871276379,0.597544849,8.814832687,1.623485923,0.198172003,-0.419209987,-1025.100098,-16.5,-976.500061,1.278084264,-0.502065728,-0.068131566,DLR
20.86666667,-4.408313751,0.083740018,8.609669685,0.838419974,0.045731999,0.625003994,-1015.500061,-14.10000038,-986.1000366,1.302817045,-0.474323315,-0.013751049,DLR
20.9,-4.455566883,0.272155046,9.140222549,0.190549999,-0.579271972,1.653973937,-1017.900024,-12.90000057,-964.500061,1.288818388,-0.453197714,-0.030784483,DLR
20.93333333,-4.487866879,0.209350035,9.434509277,1.135677934,0.701223969,2.530503988,-1027.5,-15.90000057,-981.3000488,1.282369588,-0.44535306,-0.026472819,DLR
20.96666667,-3.841872215,0.301464051,9.008032799,1.74543798,1.394825935,2.500015974,-1015.500061,-19.5,-986.1000366,1.270187402,-0.406835742,-0.037949923,DLR
21.0,-4.234253883,0.464158952,8.977527618,1.951231956,1.242385983,1.097568035,-1015.500061,-15.90000057,-981.3000488,1.261958368,-0.440821617,-0.055273658,DLR
21.03333333,-3.897499561,0.513206661,8.610866547,2.157026052,0.861285985,-0.152439997,-1022.700012,-15.30000019,-978.9000244,1.263332687,-0.426494405,-0.062890276,DLR
21.06666667,-3.570913553,0.708201289,7.744755268,2.477149963,-0.083841994,-1.227141976,-1022.700012,-14.10000038,-976.500061,1.260624029,-0.430332572,-0.09324104,DLR
21.1,-4.244422436,0.683079302,8.318972588,2.606724024,-0.746955991,-2.050318003,-1008.300049,-23.10000038,-971.7000122,1.279527801,-0.468328444,-0.084888874,DLR
21.13333333,-4.432239532,0.547300816,8.789113045,2.111294031,-1.082324028,-2.850627899,-1015.500061,-24.90000153,-962.1000366,1.305217089,-0.464891123,-0.064197715,DLR
21.16666667,-4.37003231,0.107665733,9.631896019,2.187514067,-1.387203932,-4.603687763,-1015.500061,-24.30000114,-981.3000488,1.353904343,-0.424660352,-0.012607888,DLR
21.2,-4.101466179,-0.178246602,9.593016624,2.957335949,-1.501533985,-6.745470047,-1008.300049,-21.30000114,-969.3000488,1.399723684,-0.40214241,0.017188858,DLR
21.23333333,-3.468631029,-1.183126807,9.634288788,5.548815727,-1.44817996,-11.24244976,-1022.700012,-20.70000076,-971.7000122,1.492108418,-0.341324162,0.115398593,DLR
21.26666667,-3.465640306,-1.19090271,8.221475601,7.073215961,-1.44817996,-15.16777992,-1005.900024,-23.10000038,-971.7000122,1.576553284,-0.387125923,0.140776828,DLR
21.3,-4.236048698,-0.957028747,7.25128746,7.682975769,-1.227141976,-17.0809021,-1010.700012,-28.50000191,-969.3000488,1.666129548,-0.515036076,0.13416355,DLR
21.33333333,-4.368237972,-0.383409649,6.909747601,6.417723656,-1.120433927,-15.49552536,-1005.900024,-26.70000076,-964.500061,1.705928959,-0.557410493,0.063930387,DLR
21.36666667,-4.394556522,-0.189611316,7.77286768,4.954299927,-1.615863919,-11.88269806,-996.3000488,-26.70000076,-964.500061,1.746517925,-0.512844646,0.028959914,DLR
21.4,-5.017223358,0.009570288,8.908143044,3.719535828,-1.364337921,-8.247003555,-993.9000244,-29.70000076,-974.1000366,1.774580105,-0.510584338,0.001665511,DLR
21.43333333,-4.047633648,-0.058618013,9.082800865,2.019829988,-1.074702024,-3.78813386,-1010.700012,-22.5,-974.1000366,1.798593217,-0.419618556,0.005830266,DLR
21.46666667,-3.850246191,-0.320604622,9.030164719,0.815553963,-0.564027965,-1.585376024,-989.1000366,-30.90000153,-957.3000488,1.817999024,-0.402473362,0.034048457,DLR
21.5,-4.235450268,-0.361278355,9.216186523,-0.091463998,0.647870004,-0.114329994,-989.1000366,-24.30000114,-974.1000366,1.820572676,-0.430791122,0.039296685,DLR
21.53333333,-3.712075233,-0.654368401,7.971451283,-0.929883957,1.547266006,0.739333987,-974.7000122,-24.90000153,-959.7000122,1.833591794,-0.437144275,0.081795631,DLR
21.56666667,-4.294068336,-0.345726639,9.064856529,-0.861285985,1.478667974,1.097568035,-986.7000122,-30.90000153,-962.1000366,1.810039999,-0.444483153,0.040512885,DLR
21.6,-3.942360401,-0.31761393,8.759803772,-0.213415995,0.42683199,1.402447939,-984.3000488,-27.90000153,-962.1000366,1.801612414,-0.424239023,0.035694112,DLR
21.63333333,-4.038063049,0.057421725,8.973938942,0.289635986,-0.42683199,1.608241916,-993.9000244,-28.50000191,-945.3000488,1.778097109,-0.422177804,-0.006387035,DLR
21.66666667,-4.085914612,0.283519775,9.871751785,1.028970003,-0.80793196,1.623485923,-981.9000244,-24.90000153,-976.500061,1.763535627,-0.392072634,-0.030658343,DLR
21.7,-3.700710535,0.869699895,8.630604744,1.890255928,-0.846041977,0.861285985,-981.9000244,-28.50000191,-950.1000366,1.736103611,-0.401319994,-0.101641339,DLR
21.73333333,-3.329263687,0.705808699,8.281888008,2.111294031,-0.205793992,0.342989981,-993.9000244,-30.30000114,-966.9000244,1.743155645,-0.381314282,-0.089380736,DLR
21.76666667,-3.084623337,0.342735916,8.775953293,2.355197906,0.922261953,-2.004585981,-991.500061,-33.30000305,-966.9000244,1.772742125,-0.340728232,-0.043226382,DLR
21.8,-3.885536671,1.04017067,7.742362499,1.859767914,-0.480185986,-4.032037735,-977.1000366,-28.50000191,-950.1000366,1.761133208,-0.458188901,-0.130705809,DLR
21.83333333,-4.220496655,0.523375094,9.314282417,1.189031959,0.792688012,-4.794238091,-981.9000244,-29.70000076,-954.9000244,1.815319219,-0.427947945,-0.057116506,DLR
21.86666667,-4.728918552,0.686069965,8.969153404,0.579271972,0.29725799,-4.756127834,-979.500061,-33.90000153,-940.500061,1.829251699,-0.482779219,-0.072423473,DLR
21.9,-4.714562893,0.336156338,9.079212189,-0.030487999,-0.419209987,-3.666181803,-974.7000122,-32.70000076,-959.7000122,1.863012195,-0.478312904,-0.034714404,DLR
21.93333333,-4.212122917,-0.137572885,9.262244225,-0.373477995,-1.303362012,-2.317087889,-972.3000488,-25.50000191,-947.7000122,1.894502331,-0.426178989,0.01572218,DLR
21.96666667,-4.535717964,0.085534446,8.457741737,0.045731999,-0.72408998,-0.266770005,-977.1000366,-23.70000076,-957.3000488,1.884797511,-0.489143423,-0.009195903,DLR
22.0,-4.170850754,-0.199181616,9.037342072,-0.388722003,0.61738199,0.952749968,-979.500061,-33.30000305,-962.1000366,1.893444653,-0.4356704,0.020706902,DLR
22.03333333,-3.38907814,-0.129797027,8.362636566,-0.556405962,-0.152439997,0.967993975,-979.500061,-29.10000038,-950.1000366,1.886440656,-0.386821887,0.015981301,DLR
22.06666667,-2.959611416,-0.733323276,7.538993835,-0.594515979,0.769822001,0.022865999,-967.500061,-26.70000076,-966.9000244,1.914809505,-0.374407495,0.094716313,DLR
22.1,-3.700112343,-0.872690618,8.34469223,-0.83079797,1.55488801,-0.72408998,-977.1000366,-29.10000038,-945.3000488,1.921328306,-0.416146912,0.105846476,DLR
22.13333333,-3.825722456,-0.921140194,9.134839058,-0.053353999,1.120433927,-1.006103992,-967.500061,-20.70000076,-947.7000122,1.924276059,-0.397374822,0.101589565,DLR
22.16666667,-3.915443897,-0.963608325,9.282580376,0.564027965,0.29725799,-0.868907988,-965.1000366,-28.50000191,-954.9000244,1.929647181,-0.397597187,0.103047542,DLR
22.2,-3.963295221,-1.208846927,9.430920601,1.996963978,-0.251525998,-0.846041977,-962.7000122,-31.50000191,-952.500061,1.945103694,-0.394430746,0.123899838,DLR
22.23333333,-4.326966286,-0.924130917,9.774253845,2.652456045,-0.518296003,-1.34147191,-957.9000244,-33.30000305,-957.3000488,1.942815923,-0.413198906,0.091976008,DLR
22.26666667,-3.780263662,-0.627451956,8.264541626,2.995445967,-0.40396598,-1.562510014,-965.1000366,-32.10000229,-966.9000244,1.946973317,-0.426443715,0.072577221,DLR
22.3,-3.848451853,-0.60711509,8.290261269,2.591480017,0.091463998,-1.265251994,-960.3000488,-28.50000191,-950.1000366,1.95607976,-0.433305636,0.069720704,DLR
22.33333333,-4.097877502,-0.436046213,8.652736664,2.240867853,-0.022865999,-1.326228023,-962.7000122,-27.30000114,-954.9000244,1.956966392,-0.441314213,0.048432625,DLR
22.36666667,-4.056605816,-0.200377896,7.748343945,1.951231956,0.289635986,-0.868907988,-960.3000488,-32.70000076,-954.9000244,1.95388055,-0.480954612,0.024274612,DLR
22.4,-5.012438297,-0.090319589,9.140222549,1.333850026,0.861285985,-0.876529992,-960.3000488,-34.5,-950.1000366,1.953378615,-0.502278775,0.008973176,DLR
22.43333333,-4.889818668,0.36247465,8.93805027,1.295740008,0.61738199,-0.907018006,-957.9000244,-33.90000153,-954.9000244,1.936625184,-0.501424624,-0.040517677,DLR
22.46666667,-4.145729065,0.407933503,7.565910339,1.036592007,-0.038109999,-0.594515979,-960.3000488,-32.70000076,-940.500061,1.934603484,-0.500676545,-0.054512975,DLR
22.5,-4.688842773,0.712388277,8.277700424,0.663114011,0.282013983,-0.876529992,-953.1000366,-32.70000076,-942.9000244,1.924772331,-0.513863604,-0.084878043,DLR
22.53333333,-4.81265831,1.486385226,8.775953293,1.371959925,-0.396344006,0.304879993,-965.1000366,-39.90000153,-952.500061,1.886960694,-0.495633521,-0.167349782,DLR
22.56666667,-3.990211725,1.43554318,8.1221838,1.714949965,-1.387203932,0.731711984,-960.3000488,-37.5,-942.9000244,1.883731285,-0.449910905,-0.177896511,DLR
22.6,-4.236048698,1.370345592,8.017508507,0.998481989,-1.211897969,0.228659987,-962.7000122,-33.30000305,-945.3000488,1.888827474,-0.47710018,-0.171271275,DLR
22.63333333,-4.002772808,1.146041989,9.033155441,0.61738199,-0.586893976,-0.083841994,-962.7000122,-31.50000191,-947.7000122,1.90917926,-0.415488082,-0.128693803,DLR
22.66666667,-4.467529774,0.841587186,9.498510361,0.564027965,-1.318606019,-0.274392009,-965.1000366,-40.5,-930.9000244,1.927660319,-0.435075793,-0.0906712,DLR
22.7,-4.428650379,0.774595141,8.84832859,0.42683199,-0.304879993,-0.548784018,-953.1000366,-35.70000076,-947.7000122,1.932186119,-0.460983657,-0.087699931,DLR
22.73333333,-4.961596012,0.733921409,9.410583496,0.274392009,0.411587983,-0.022865999,-957.9000244,-35.10000229,-959.7000122,1.936814721,-0.483706395,-0.078706428,DLR
22.76666667,-3.962697268,0.129797027,8.688026428,-0.251525998,0.015244,0.160062,-957.9000244,-36.90000153,-942.9000244,1.962970323,-0.429705807,-0.016621457,DLR
22.8,-3.264664412,-0.529954672,8.236428261,-1.265251994,-0.160062,-0.846041977,-955.500061,-31.50000191,-942.9000244,1.99589055,-0.378521614,0.063713503,DLR
22.83333333,-3.729421377,-0.632237136,8.472097397,-1.036592007,0.746955991,-0.998481989,-962.7000122,-33.90000153,-942.9000244,2.003726736,-0.413798391,0.076716056,DLR
22.86666667,-3.914247513,-0.892429292,8.801673889,-0.464941978,1.455801964,-0.503051996,-962.7000122,-36.90000153,-940.500061,2.01568992,-0.418834869,0.101541955,DLR
22.9,-4.179822922,-0.636424124,8.75442028,-0.190549999,-0.007622,-0.152439997,-960.3000488,-32.10000229,-945.3000488,2.004391209,-0.443676552,0.073840236,DLR
22.93333333,-3.746169329,-0.870298028,8.559426308,-0.457319975,-0.464941978,0.060975999,-960.3000488,-31.50000191,-947.7000122,2.014335991,-0.410709717,0.101354028,DLR
22.96666667,-4.25997448,-0.532347262,8.714344978,-1.227141976,-1.265251994,0.388722003,-955.500061,-30.30000114,-950.1000366,1.994055812,-0.450498661,0.064023739,DLR
23.0,-5.245713711,-0.062206868,8.38536644,-2.126538038,-1.943609953,2.682943821,-960.3000488,-27.30000114,-957.3000488,1.952570551,-0.551447782,0.010717746,DLR
23.03333333,-5.821725368,0.152526453,8.036050797,-3.879597902,-2.339953899,7.172301769,-953.1000366,-34.5,-952.500061,1.898440561,-0.619699938,-0.01959921,DLR
23.06666667,-4.967577457,-0.704014301,8.019901276,-6.067111969,-3.429899931,12.96502209,-969.9000244,-23.70000076,-959.7000122,1.88568524,-0.55109628,0.080228087,DLR
23.1,-3.415994406,-1.18133235,7.582060337,-6.996995926,-3.315569878,13.85679531,-979.500061,-26.70000076,-971.7000122,1.846617657,-0.422020305,0.152352077,DLR
23.13333333,-4.262366772,-1.071274042,10.00872612,-6.882665634,-2.682943821,13.49094009,-1001.100037,-29.10000038,-952.500061,1.759013239,-0.399551625,0.110215582,DLR
23.16666667,-2.965592861,-1.326681137,8.387160301,-5.81558609,-3.521363974,12.53056812,-1008.300049,-29.70000076,-966.9000244,1.704986138,-0.335109655,0.157692409,DLR
23.2,-2.726335764,-1.83330822,8.229250908,-6.211929798,-3.658559799,10.11439419,-1001.100037,-16.5,-964.500061,1.669610459,-0.311279338,0.221333947,DLR
23.23333333,-4.072755337,-0.58139497,10.32035923,-3.658559799,-2.538125992,7.179924011,-1029.900024,-26.10000038,-966.9000244,1.578998835,-0.369708119,0.064576205,DLR
23.26666667,-3.620559454,0.090319589,9.386059761,-1.036592007,-2.278977871,7.179924011,-1020.300049,-17.70000076,-976.500061,1.519597296,-0.364403139,-0.009475818,DLR
23.3,-2.959611416,0.058618013,9.082202911,-0.274392009,-1.524399996,7.279009819,-1015.500061,-12.30000019,-983.7000122,1.487283529,-0.314331589,-0.010143821,DLR
23.33333333,-2.877067804,0.726743698,8.413478851,-0.160062,-0.769822001,5.670767784,-1029.900024,-20.10000038,-983.7000122,1.438605549,-0.325801399,-0.085953928,DLR
23.36666667,-2.83818841,0.749473155,8.515163422,-0.632625997,-0.091463998,4.908567905,-1029.900024,-22.5,-978.9000244,1.415246842,-0.319902107,-0.089369342,DLR
23.4,-3.164176226,0.58378756,9.091773033,-1.211897969,0.091463998,4.268320084,-1039.5,-20.70000076,-990.9000244,1.402475741,-0.333363823,-0.06558213,DLR
23.43333333,-3.280215979,0.065197587,9.281982422,-1.547266006,-0.091463998,4.054903984,-1027.5,-21.30000114,-976.500061,1.401105279,-0.339195197,-0.009203515,DLR
23.46666667,-3.025407076,-0.353502482,9.395031929,-1.974097967,-0.106707998,3.666181803,-1025.100098,-27.30000114,-966.9000244,1.396490428,-0.312360814,0.037250252,DLR
23.5,-3.451883078,0.052038439,9.283777237,-1.753059983,-0.327746004,3.460387945,-1037.100098,-15.30000019,-978.9000244,1.365568418,-0.353678076,-0.003012175,DLR
23.53333333,-3.299954891,0.007177716,8.97513485,-1.623485923,0.030487999,3.887219906,-1027.5,-18.30000114,-969.3000488,1.344671698,-0.352415047,-0.00052434,DLR
23.56666667,-3.144437551,-0.358885795,9.12945652,-2.157026052,0.121951997,3.650938034,-1029.900024,-23.70000076,-969.3000488,1.338851096,-0.332737531,0.039175746,DLR
23.6,-3.605605841,-0.717173398,9.220972061,-2.035073996,0.640248001,3.269837856,-1041.900024,-18.90000153,-976.500061,1.334838562,-0.371616499,0.077375928,DLR
23.63333333,-3.959108353,-1.348214269,10.42443562,-1.996963978,1.250007987,2.850627899,-1037.100098,-14.70000076,-983.7000122,1.338206673,-0.363359015,0.128185386,DLR
23.66666667,-3.082230806,-1.340438366,9.176111221,-2.027451992,-0.129574001,1.486289978,-1034.700073,-15.90000057,-974.1000366,1.33468902,-0.322557155,0.147013076,DLR
23.7,-3.939369678,-1.116134763,8.681447029,-0.815553963,1.272873998,1.859767914,-1039.5,-14.70000076,-981.3000488,1.319521455,-0.421346398,0.128811811,DLR
23.73333333,-3.371133804,-1.514497995,8.253176689,-0.251525998,2.19513607,1.707327962,-1039.5,-14.10000038,-983.7000122,1.333145484,-0.387752876,0.178910811,DLR
23.76666667,-3.427359343,-1.4804039,8.155080795,0.106707998,2.035073996,1.166165948,-1029.900024,-8.700000763,-974.1000366,1.329956511,-0.395626591,0.178823029,DLR
23.8,-3.791628361,-1.142453074,7.489946365,0.464941978,1.463423967,1.021348,-1027.5,-15.90000057,-966.9000244,1.315826548,-0.464529766,0.150821048,DLR
23.83333333,-4.295862675,-1.165780663,7.946329594,0.419209987,0.739333987,1.288118005,-1020.300049,-15.30000019,-981.3000488,1.30888664,-0.491618864,0.144135863,DLR
23.86666667,-4.878454208,-1.333858848,9.04631424,0.236281991,-0.251525998,1.242385983,-1013.100037,-11.10000038,-971.7000122,1.304556207,-0.49003825,0.144774825,DLR
23.9,-4.684057713,-1.269857526,7.988797665,0.121951997,-0.777444005,1.173787951,-1041.900024,-12.30000019,-966.9000244,1.304984482,-0.52248181,0.155669767,DLR
23.93333333,-4.680468559,-1.224398613,8.311794281,-0.068598002,-0.152439997,0.975615978,-1020.300049,-14.70000076,-981.3000488,1.296011039,-0.508841019,0.145825148,DLR
23.96666667,-4.863500595,-1.190304518,8.701784134,0.198172003,0.381099999,1.051836014,-1022.700012,-11.70000076,-981.3000488,1.28725199,-0.506717899,0.135092471,DLR
24.0,-4.495044231,-0.680686712,8.087491035,0.42683199,-0.464941978,1.387203932,-1015.500061,-15.30000019,-983.7000122,1.257676843,-0.505279541,0.084005735,DLR
24.03333333,-4.966979027,-0.200976044,7.964871883,-0.480185986,-0.670735955,2.202757835,-1015.500061,-16.5,-978.9000244,1.218482143,-0.554362724,0.026210713,ST
24.06666667,-4.754040241,-0.14714317,9.38845253,-0.121951997,0.312501997,3.38416791,-1025.100098,-14.70000076,-969.3000488,1.198222997,-0.472754982,0.013328366,ST
24.1,-3.076847553,0.25660333,9.164148331,0.769822001,-1.539644003,2.98020196,-1027.5,-17.70000076,-978.9000244,1.170146794,-0.327142034,-0.029471126,ST
24.13333333,-4.398145199,0.46834594,9.881919861,0.998481989,-1.74543798,2.317087889,-1029.900024,-12.30000019,-966.9000244,1.154928818,-0.411512759,-0.049885485,ST
24.16666667,-3.274832726,0.403148353,8.839356422,0.678357959,-1.112811923,1.974097967,-1020.300049,-12.30000019,-962.1000366,1.148514996,-0.354757672,-0.048095959,ST
24.2,-2.973368645,0.469542235,8.871656418,0.335367978,-1.112811923,0.579271972,-1029.900024,-17.10000038,-993.3000488,1.144700778,-0.321810949,-0.053627958,ST
24.23333333,-2.962602139,0.053234726,8.96436882,0.076219998,-0.876529992,-0.777444005,-1015.500061,-12.90000057,-966.9000244,1.163125238,-0.317809736,-0.007151135,ST
24.26666667,-3.04275322,0.031103434,8.649745941,0.358233988,-0.952749968,-1.410069942,-1039.5,-11.70000076,-974.1000366,1.170990577,-0.335834912,-0.003520388,ST
24.3,-3.915443897,0.148937598,9.536193848,0.625003994,-0.731711984,-1.440557957,-1032.300049,-14.70000076,-969.3000488,1.174134481,-0.386179159,-0.01519064,ST
24.33333333,-3.818544626,0.24822934,9.255065918,1.204275966,-0.746955991,-0.685979962,-1034.700073,-14.70000076,-990.9000244,1.174437859,-0.389762766,-0.02787334,ST
24.36666667,-4.090101719,0.467149675,8.856702805,1.318606019,0.175305992,0.060975999,-1029.900024,-11.10000038,-983.7000122,1.166216296,-0.430670188,-0.053935539,ST
24.4,-3.765908241,-0.136376604,8.772364616,1.059458017,1.509155989,0.472563982,-1027.5,-15.30000019,-966.9000244,1.192463315,-0.409053146,0.010647591,ST
24.43333333,-3.478799582,-0.75066942,8.299832344,-0.129574001,2.164648056,-0.335367978,-1015.500061,-11.70000076,-969.3000488,1.224476741,-0.399615583,0.087565617,ST
24.46666667,-4.261170387,-0.79313755,8.253176689,-0.282013983,2.568614006,-0.556405962,-1022.700012,-11.10000038,-978.9000244,1.231053395,-0.475867878,0.09660477,ST
24.5,-4.675085545,-0.973178625,8.00614357,0.053353999,3.10977602,-0.129574001,-1022.700012,-11.10000038,-983.7000122,1.244647807,-0.528725349,0.120451007,ST
24.53333333,-4.868285656,-1.101181269,8.41587162,0.144817993,2.157026052,0.365855992,-1013.100037,-11.10000038,-969.3000488,1.249115008,-0.524748108,0.129392534,ST
24.56666667,-5.12130022,-1.074862957,8.327944756,0.236281991,0.769822001,0.510674,-1013.100037,-14.70000076,-981.3000488,1.247070627,-0.548332709,0.127571121,ST
24.6,-4.57280302,-1.226791263,8.068350792,-0.29725799,-0.152439997,0.419209987,-1020.300049,-15.30000019,-983.7000122,1.256016125,-0.512111571,0.150048532,ST
24.63333333,-4.510596275,-1.103573799,8.799879074,-0.487807989,-1.570132017,0.190549999,-1020.300049,-25.50000191,-971.7000122,1.242122489,-0.469623371,0.126240823,ST
24.66666667,-3.957911968,-1.143051267,7.97563839,-0.365855992,-2.096050024,0.525918007,-1022.700012,-16.5,-974.1000366,1.244718088,-0.453641187,0.141781321,ST
24.7,-4.105055332,-1.163986206,8.514565468,-0.373477995,-1.85214591,0.381099999,-1025.100098,-11.10000038,-983.7000122,1.238938672,-0.442971522,0.136226417,ST
24.73333333,-4.160084248,-1.326082945,8.560024261,-0.381099999,-1.120433927,0.525918007,-1025.100098,-14.70000076,-971.7000122,1.242575756,-0.44581923,0.153068981,ST
24.76666667,-4.389173031,-1.227987528,8.790906906,-0.205793992,-0.29725799,0.342989981,-1017.900024,-11.10000038,-986.1000366,1.234608074,-0.458270716,0.139404689,ST
