seconds,sensor_accX_m_s_,sensor_accY_m_s_,sensor_accZ_m_s_,sensor_gyroX___s_,sensor_gyroY___s_,sensor_gyroZ___s_,sensor_magX__T_,sensor_magY__T_,sensor_magZ__T_,sensor_yaw___,sensor_pitch___,sensor_roll___,label2
0.0,-2.028900862,-1.021030068,9.386657715,0.487807989,-0.800309956,0.137196004,-1121.100098,-8.700000763,-966.9000244,-2.558033785,-0.211869832,0.108023074,ST
0.033333333,-2.007966042,-0.934897482,9.31727314,0.602137983,-0.800309956,0.129574001,-1113.900024,0.900000036,-983.7000122,-2.559832493,-0.210204807,0.100410816,ST
0.066666667,-2.033686161,-0.933701158,9.216186523,0.495429993,-0.61738199,0.221037999,-1118.700073,-4.5,-981.3000488,-2.5603352,-0.214261014,0.100064828,ST
0.1,-1.964899659,-0.943271458,9.348974228,0.236281991,-0.503051996,0.137196004,-1130.700073,-0.900000036,-974.1000366,-2.560640547,-0.207098552,0.100072415,ST
0.133333333,-1.953534961,-0.930112302,9.34777832,0.40396598,-0.602137983,0.160062,-1116.300049,-0.900000036,-969.3000488,-2.561218875,-0.204637622,0.098728878,ST
0.166666667,-2.010956764,-0.920542061,9.282580376,0.342989981,-0.632625997,0.274392009,-1118.700073,-6.900000095,-969.3000488,-2.561931119,-0.210018681,0.098238093,ST
0.2,-1.987629056,-0.886447906,9.324450493,0.221037999,-0.571649969,0.365855992,-1113.900024,-7.500000477,-976.500061,-2.563433235,-0.208544804,0.095046717,ST
0.233333333,-1.977460623,-0.93669188,9.394433975,0.099086002,-0.434453994,0.518296003,-1123.5,-9.900000572,-971.7000122,-2.563993304,-0.206355492,0.098204417,ST
0.266666667,-1.936188817,-1.010861635,9.453649521,0.106707998,-0.419209987,0.457319975,-1118.700073,2.700000048,-976.500061,-2.563793064,-0.201413482,0.104650506,ST
0.3,-1.862019062,-1.010861635,9.431518555,0.213415995,-0.396344006,0.29725799,-1113.900024,-6.900000095,-969.3000488,-2.564201571,-0.194857625,0.105953586,ST
0.333333333,-1.887739182,-0.985739589,9.375890732,0.40396598,-0.350611985,0.121951997,-1118.700073,-3.900000095,-986.1000366,-2.5646826,-0.196597277,0.104386503,ST
0.366666667,-1.871589303,-1.003085732,9.377087593,0.480185986,-0.373477995,0.091463998,-1111.5,-5.100000381,-978.9000244,-2.564559208,-0.195547504,0.105422213,ST
0.4,-1.852448821,-0.914560616,9.351366997,0.525918007,-0.396344006,0.045731999,-1113.900024,-3.900000095,-969.3000488,-2.56591066,-0.194275502,0.098227356,ST
0.433333333,-1.888935447,-0.919345737,9.311291695,0.411587983,-0.381099999,0.175305992,-1123.5,-10.5,-971.7000122,-2.566318894,-0.197806512,0.097731183,ST
0.466666667,-1.80280292,-0.915158749,9.491930962,0.304879993,-0.503051996,0.144817993,-1121.100098,-13.50000095,-978.9000244,-2.566958821,-0.188377998,0.09596559,ST
0.5,-1.80041039,-0.765024841,9.40340519,0.518296003,-0.647870004,0.160062,-1133.100098,-8.700000763,-976.500061,-2.569580295,-0.187651584,0.083378768,ST
0.533333333,-1.825532317,-0.715379,9.412377357,0.53354001,-0.586893976,0.510674,-1130.700073,-6.900000095,-974.1000366,-2.57190069,-0.189593982,0.076483355,ST
0.566666667,-1.702314854,-0.849961162,9.370508194,0.167683989,-0.487807989,0.663114011,-1125.900024,-6.900000095,-983.7000122,-2.571438627,-0.180529048,0.08723172,ST
0.6,-1.686763167,-0.809885561,9.451855659,-0.182927996,-0.29725799,0.327746004,-1123.5,-12.90000057,-966.9000244,-2.572531317,-0.176513776,0.085996724,ST
0.633333333,-1.969086647,-0.898410738,9.162952423,-0.121951997,0.358233988,0.464941978,-1109.100098,-3.300000191,-974.1000366,-2.5717772,-0.204364222,0.095411037,ST
0.666666667,-1.838691473,-1.101779342,9.709056854,-0.464941978,0.510674,-0.030487999,-1121.100098,-8.700000763,-976.500061,-2.56876128,-0.189636681,0.110944478,ST
0.7,-1.927814841,-0.961813927,9.523034096,-0.160062,0.373477995,-0.236281991,-1121.100098,-5.700000286,-962.1000366,-2.569748514,-0.197729074,0.102697586,ST
0.733333333,-1.937983274,-0.918747604,9.254467964,0.137196004,0.365855992,-0.160062,-1111.5,-0.300000012,-986.1000366,-2.569860651,-0.204474051,0.09952647,ST
0.766666667,-1.876972675,-0.936093748,9.116296768,0.022865999,0.236281991,-0.160062,-1116.300049,-6.900000095,-966.9000244,-2.56894215,-0.202773006,0.101847038,ST
0.8,-1.887739182,-1.0425632,9.119885445,-0.083841994,0.076219998,-0.030487999,-1121.100098,0.300000012,-969.3000488,-2.566941905,-0.202917641,0.111538096,ST
0.833333333,-2.067182064,-1.108358979,9.347180367,-0.015244,0.198172003,-0.167683989,-1116.300049,-12.30000019,-983.7000122,-2.565323323,-0.214356465,0.117083654,ST
0.866666667,-1.988825321,-1.220809817,9.315478325,0.091463998,0.091463998,-0.304879993,-1106.700073,-0.300000012,-976.500061,-2.562355343,-0.209843291,0.1276138,ST
0.9,-2.030097246,-1.056918621,9.324450493,0.442075998,-0.586893976,-0.289635986,-1121.100098,-8.700000763,-962.1000366,-2.564232192,-0.211546885,0.115290387,ST
0.933333333,-1.967890382,-1.099386811,9.478173256,0.358233988,-0.945127964,-0.099086002,-1109.100098,-0.300000012,-962.1000366,-2.564157891,-0.20370844,0.114936469,ST
0.966666667,-1.850056171,-1.139462352,9.345385551,0.419209987,-1.12805593,-0.076219998,-1123.5,-6.300000191,-976.500061,-2.563202591,-0.194413175,0.119443067,ST
1.0,-1.808186173,-1.089218378,9.517650604,0.495429993,-0.846041977,0.060975999,-1128.300049,-5.700000286,-978.9000244,-2.564335759,-0.186868326,0.114245059,ST
1.033333333,-1.761530995,-1.010263443,9.458435059,0.472563982,-0.990859985,0.190549999,-1123.5,-9.900000572,-976.500061,-2.566162375,-0.182400392,0.107049418,ST
1.066666667,-1.777082801,-0.92712158,9.292151451,0.182927996,-0.663114011,0.594515979,-1121.100098,-5.700000286,-986.1000366,-2.568830615,-0.186133965,0.100457199,ST
1.1,-1.771699429,-0.921140194,9.305908203,-0.076219998,-0.289635986,0.868907988,-1116.300049,-3.900000095,-969.3000488,-2.571175,-0.186735111,0.098895983,ST
1.133333333,-1.763325453,-1.043161392,9.262244225,-0.289635986,0.015244,0.990859985,-1121.100098,-10.5,-966.9000244,-2.571661802,-0.187109655,0.110078478,ST
1.166666667,-1.821943521,-1.18133235,9.338208199,-0.350611985,0.251525998,0.640248001,-1116.300049,-5.700000286,-976.500061,-2.570783373,-0.190939508,0.123358006,ST
1.2,-1.915253758,-1.312923789,9.324450493,-0.373477995,0.251525998,0.0,-1130.700073,1.5,-983.7000122,-2.568217495,-0.199050784,0.137079333,ST
1.233333333,-2.255597115,-1.26148355,9.229346275,-0.121951997,0.480185986,-0.274392009,-1121.100098,-9.900000572,-971.7000122,-2.567669703,-0.230416003,0.136372632,ST
1.266666667,-2.484685898,-1.166976929,9.24609375,0.205793992,0.785066009,-0.365855992,-1133.100098,-0.900000036,-957.3000488,-2.568618955,-0.25549976,0.127624337,ST
1.3,-2.476311922,-1.223202348,8.801673889,0.076219998,0.510674,-0.40396598,-1121.100098,-9.900000572,-966.9000244,-2.565093256,-0.269875701,0.136510632,ST
1.333333333,-2.570220232,-1.191500783,8.688026428,-0.396344006,0.236281991,-0.518296003,-1123.5,-8.100000381,-971.7000122,-2.563969843,-0.28226486,0.137107822,ST
1.366666667,-2.693437815,-0.842185318,8.808851242,-0.754577994,-0.480185986,-0.152439997,-1111.5,-9.900000572,-990.9000244,-2.5733889,-0.292166915,0.104867502,ST
1.4,-3.06428647,-0.544310093,9.30291748,-0.419209987,-0.731711984,0.693601966,-1116.300049,-0.900000036,-986.1000366,-2.586703273,-0.312222701,0.067067825,ST
1.433333333,-2.584575891,-0.925327182,9.336413383,-0.213415995,-1.135677934,1.333850026,-1111.5,-3.900000095,-978.9000244,-2.58269587,-0.276168615,0.09217652,ST
1.466666667,-1.923029661,-0.977365613,9.042725563,-0.236281991,-1.44817996,0.335367978,-1128.300049,-3.900000095,-981.3000488,-2.580801582,-0.216985313,0.105452027,ST
1.5,-1.747175574,-0.797324598,8.853114128,0.396344006,-0.891773999,0.556405962,-1123.5,-2.700000048,-974.1000366,-2.585005741,-0.19671595,0.09166717,ST
1.533333333,-1.402047157,-1.201071143,8.807057381,-0.541162014,-0.586893976,-0.083841994,-1123.5,2.100000143,-978.9000244,-2.578758052,-0.163772254,0.127512062,ST
1.566666667,-1.129892111,-1.670015216,8.401515961,-1.105189919,-0.42683199,-0.510674,-1116.300049,-1.5,-962.1000366,-2.56952876,-0.136692826,0.184883696,ST
1.6,-3.19348526,-0.738108456,9.214392662,-0.884151995,0.785066009,-1.166165948,-1128.300049,0.300000012,-971.7000122,-2.585326406,-0.300668142,0.100446826,ST
1.633333333,-2.544500113,-1.611397147,8.393740654,-0.289635986,1.905499935,-0.327746004,-1123.5,-4.5,-969.3000488,-2.56311947,-0.294403525,0.172415188,ST
1.666666667,-3.439321995,-1.564143896,8.70118618,-0.434453994,1.463423967,-1.265251994,-1118.700073,-1.5,-969.3000488,-2.55834521,-0.357258285,0.178113174,ST
1.7,-3.851442575,-1.262081623,9.302319527,-0.076219998,0.800309956,-1.257629991,-1116.300049,-4.5,-978.9000244,-2.567822836,-0.384520583,0.143553511,ST
1.733333333,-2.519976377,-1.469039083,8.676063538,-0.251525998,-1.615863919,-1.250007987,-1116.300049,-0.900000036,-974.1000366,-2.558542125,-0.292945718,0.164938925,ST
1.766666667,-1.256100297,-1.880561471,8.515163422,-1.112811923,-3.269837856,-1.966475964,-1118.700073,-6.300000191,-957.3000488,-2.546053593,-0.168412407,0.209089897,ST
1.8,-0.916953146,-2.238849163,9.417162895,-2.096050024,-3.567095995,-2.713431835,-1116.300049,3.300000191,-966.9000244,-2.539358581,-0.103679879,0.231817587,ST
1.833333333,-0.909775436,-1.650276423,10.23721695,-1.913121939,-2.919225931,-1.996963978,-1121.100098,-0.900000036,-983.7000122,-2.54183968,-0.08627856,0.177180407,ST
1.866666667,-0.697434723,-1.661043048,10.62421513,-1.333850026,-2.019829988,-0.685979962,-1130.700073,-1.5,-966.9000244,-2.542496738,-0.065589831,0.160978405,ST
1.9,-0.366661638,-1.754951477,10.6212244,-1.410069942,-0.53354001,0.060975999,-1128.300049,-6.300000191,-964.500061,-2.542786159,-0.039683802,0.165150769,ST
1.933333333,-0.494066089,-2.036676884,10.23303032,-1.310984015,0.945127964,-0.068598002,-1130.700073,3.300000191,-964.500061,-2.541119699,-0.047368912,0.193127562,ST
1.966666667,-0.808689296,-2.912358046,10.25157261,-1.722571969,3.544229984,-1.23476398,-1125.900024,0.300000012,-964.500061,-2.532532497,-0.074428083,0.262491876,ST
2.0,-2.254400969,-3.103763819,9.902854919,-0.655492008,3.940573931,-2.187514067,-1116.300049,-1.5,-971.7000122,-2.520908151,-0.190095308,0.296951365,ST
2.033333333,-2.618071795,-3.060697556,9.526622772,-0.137196004,3.902463913,-1.867389917,-1116.300049,2.100000143,-966.9000244,-2.511695051,-0.247037387,0.309202901,ST
2.066666667,-2.768803835,-3.304739952,9.524230957,0.160062,2.911603928,-0.884151995,-1111.5,1.5,-974.1000366,-2.501960014,-0.268124638,0.330269,ST
2.1,-2.333355665,-3.650466442,9.014613152,0.289635986,1.631107926,-0.053353999,-1101.900024,7.500000477,-974.1000366,-2.489012666,-0.243528244,0.374939922,ST
2.133333333,-3.082230806,-3.608596563,9.381274223,1.051836014,0.975615978,0.53354001,-1109.100098,-0.900000036,-976.500061,-2.490708374,-0.288188206,0.367288074,ST
2.166666667,-3.490762472,-3.469229221,7.720829487,2.560992002,2.59910202,0.998481989,-1104.300049,-2.100000143,-964.500061,-2.475654944,-0.374283323,0.407386618,ST
2.2,-3.904677391,-3.543997049,6.764997005,1.189031959,5.152472019,1.364337921,-1092.300049,-0.300000012,-971.7000122,-2.44695822,-0.46488278,0.469314182,ST
2.233333333,-5.507700443,-1.535433054,9.067847252,1.34147191,3.452765942,2.141782045,-1087.5,-3.900000095,-971.7000122,-2.566321596,-0.53517767,0.221365223,ST
2.266666667,-4.077540398,-2.198773623,9.065454483,1.280496001,0.160062,4.870458126,-1087.5,4.5,-981.3000488,-2.570601441,-0.438706575,0.229824472,ST
2.3,-3.34182477,-1.982245803,8.838758469,0.564027965,-1.516777992,4.367405891,-1073.100098,-0.300000012,-969.3000488,-2.584070135,-0.369911903,0.219045852,ST
2.333333333,-3.531436205,-1.488777876,8.647353172,1.219519973,-0.579271972,4.009171963,-1075.5,5.100000381,-966.9000244,-2.607329547,-0.380397932,0.176396099,ST
2.366666667,-4.081129551,-1.344027281,8.328542709,1.707327962,1.410069942,4.123501778,-1073.100098,-2.100000143,-966.9000244,-2.622173784,-0.442535599,0.157599364,ST
2.4,-4.146327019,-1.030002236,9.030164719,1.387203932,1.143299937,3.300325871,-1070.700073,5.700000286,-969.3000488,-2.644693764,-0.432889535,0.117311148,ST
2.433333333,-4.499829769,-1.153817773,8.577968597,1.310984015,0.205793992,2.652456045,-1077.900024,-0.900000036,-974.1000366,-2.644933243,-0.47289555,0.127229139,ST
2.466666667,-4.774377346,-0.97676748,8.707167625,0.480185986,0.670735955,2.378063917,-1073.100098,1.5,-981.3000488,-2.656594368,-0.495933187,0.111884315,ST
2.5,-4.522559166,-0.876279473,9.168933868,0.899396002,0.525918007,3.765267849,-1065.900024,5.100000381,-969.3000488,-2.67204458,-0.464368555,0.093977034,ST
2.533333333,-3.840676069,-1.399056435,8.033658028,1.493911982,0.396344006,3.643316031,-1058.700073,0.300000012,-969.3000488,-2.652246482,-0.446532664,0.152300796,ST
2.566666667,-3.286795616,-1.632930279,8.096463203,0.693601966,0.091463998,1.981719971,-1077.900024,-5.700000286,-976.500061,-2.641230463,-0.393104904,0.1877342,ST
2.6,-3.137857914,-1.400850892,7.440300465,0.746955991,0.045731999,1.394825935,-1070.700073,-7.500000477,-974.1000366,-2.644670284,-0.393367643,0.184600849,ST
2.633333333,-3.076847553,-2.142548084,8.029471397,0.61738199,1.791170001,1.04421401,-1056.300049,-8.700000763,-957.3000488,-2.623334139,-0.36537181,0.244442437,ST
2.666666667,-3.611587286,-2.079144955,8.545668602,1.242385983,3.102154016,0.548784018,-1068.300049,-9.300000191,-986.1000366,-2.624104491,-0.389821653,0.238038894,ST
2.7,-4.32098484,-1.818952799,8.457143784,1.897877932,3.643316031,1.219519973,-1058.700073,-0.300000012,-971.7000122,-2.632791389,-0.453789465,0.214403305,ST
2.733333333,-5.170347691,-0.970786035,9.726403236,3.018311977,2.46952796,3.064043999,-1039.5,-2.700000048,-959.7000122,-2.679880475,-0.48485376,0.115394174,ST
2.766666667,-4.462744713,-0.949851036,10.08827972,3.978683949,-0.015244,5.152472019,-1049.100098,-12.90000057,-966.9000244,-2.699053361,-0.427315404,0.088132162,ST
2.8,-4.176234245,-0.493467957,10.64275742,3.955817938,-1.836901903,5.518327713,-1068.300049,-3.900000095,-981.3000488,-2.724016719,-0.382353612,0.045857438,ST
2.833333333,-3.610390902,-0.47313109,8.817225456,5.015275955,-3.757645845,3.856731892,-1049.100098,-8.100000381,-974.1000366,-2.729443931,-0.381990625,0.042787889,ST
2.866666667,-2.475115538,0.089123301,6.763202667,4.123501778,-1.844523907,0.960371971,-1056.300049,-9.300000191,-988.500061,-2.747149808,-0.353430975,-0.01037612,ST
2.9,-2.768803835,-0.321202785,7.732792377,2.118916035,0.274392009,0.114329994,-1056.300049,-8.100000381,-969.3000488,-2.732537575,-0.346034675,0.028086606,ST
2.933333333,-3.879555225,0.478514373,7.159771442,1.585376024,0.868907988,-1.028970003,-1063.5,-15.30000019,-978.9000244,-2.759104605,-0.466918064,-0.047926196,ST
2.966666667,-4.827611923,0.693247676,9.203625679,2.118916035,2.19513607,0.099086002,-1065.900024,-8.100000381,-978.9000244,-2.768710044,-0.481961205,-0.072790935,ST
3.0,-4.588354588,1.032394767,9.527819633,2.850627899,1.577754021,0.80793196,-1056.300049,-15.90000057,-974.1000366,-2.782853485,-0.455024126,-0.106516678,ST
3.033333333,-4.312610626,1.314120054,9.738964081,2.25611186,0.068598002,0.91463995,-1058.700073,-17.70000076,-971.7000122,-2.793675216,-0.421370753,-0.132744612,ST
3.066666667,-4.059596539,1.597041726,8.961378098,2.400929928,-0.701223969,0.487807989,-1053.900024,-13.50000095,-971.7000122,-2.808235389,-0.418790136,-0.172251969,ST
3.1,-4.431641102,1.123910666,7.163360119,0.175305992,0.198172003,0.853663981,-1058.700073,-9.300000191,-959.7000122,-2.804276587,-0.524002642,-0.159944344,ST
3.133333333,-5.138646126,0.839792728,9.094763756,-0.472563982,2.019829988,0.525918007,-1063.5,-11.10000038,-964.500061,-2.779354131,-0.517696122,-0.105604682,ST
3.166666667,-5.263658047,1.080844402,8.533107758,-0.198172003,2.210379839,0.838419974,-1046.700073,-8.100000381,-978.9000244,-2.790288148,-0.545763443,-0.122453003,ST
3.2,-5.094383717,1.127499461,7.412786007,-0.91463995,1.532021999,1.303362012,-1037.100098,-12.30000019,-974.1000366,-2.807141926,-0.589620631,-0.145793962,ST
3.233333333,-5.09498167,0.815867007,7.486955643,-1.699705958,0.975615978,1.150921941,-1058.700073,-3.900000095,-978.9000244,-2.794271853,-0.595099568,-0.113989701,ST
3.266666667,-5.605197906,0.979758203,7.4648242,-1.722571969,0.922261953,0.205793992,-1044.300049,-17.70000076,-966.9000244,-2.804038376,-0.633745373,-0.125462104,ST
3.3,-6.155489445,0.591563404,8.094070435,-1.23476398,1.295740008,-0.015244,-1049.100098,-8.100000381,-971.7000122,-2.779975404,-0.647764307,-0.082011769,ST
3.333333333,-6.529926777,0.608909547,8.245999336,-1.42531395,0.358233988,-0.846041977,-1034.700073,-16.5,-959.7000122,-2.774699427,-0.66487255,-0.07252528,ST
3.366666667,-6.229061127,0.553282261,7.631706238,-2.035073996,-1.570132017,-1.364337921,-1032.300049,-9.300000191,-971.7000122,-2.77202562,-0.677871239,-0.06777896,ST
3.4,-5.98920536,0.116039738,8.511574745,-2.736297846,-3.757645845,-2.06556201,-1037.100098,-11.70000076,-969.3000488,-2.7409239,-0.61949526,-0.016731013,ST
3.433333333,-5.155992508,-0.515599251,8.323757172,-2.614346027,-5.259180069,-2.378063917,-1041.900024,-11.10000038,-971.7000122,-2.701602904,-0.559796677,0.052172535,ST
3.466666667,-5.308518887,-0.428868502,8.48705101,-1.890255928,-5.899427891,-2.667700052,-1053.900024,-8.700000763,-969.3000488,-2.697273858,-0.549848282,0.055629195,ST
3.5,-4.383191586,-0.766221166,8.798085213,-1.722571969,-5.823207855,-1.493911982,-1056.300049,-8.700000763,-954.9000244,-2.682833147,-0.468169773,0.084789029,ST
3.533333333,-3.971071243,-0.492271662,9.359741211,-0.899396002,-5.297289848,-1.326228023,-1070.700073,-3.300000191,-969.3000488,-2.691940091,-0.406894365,0.060771066,ST
3.566666667,-2.627043962,-0.625059426,9.217981339,-0.990859985,-3.757645845,-0.53354001,-1068.300049,-3.900000095,-971.7000122,-2.689652943,-0.297977472,0.067914643,ST
3.6,-2.413506985,-0.723752975,9.821507454,-0.952749968,-3.056421995,-0.487807989,-1085.100098,-1.5,-976.500061,-2.688044336,-0.247657974,0.073868525,ST
3.633333333,-2.028900862,-0.618479848,8.993079185,-0.381099999,-1.897877932,-0.731711984,-1080.300049,-8.100000381,-964.500061,-2.687723896,-0.223969309,0.070436732,ST
3.666666667,-1.560554981,-1.162191749,8.786122322,-0.167683989,2.301843882,-0.868907988,-1077.900024,-0.300000012,-966.9000244,-2.674845741,-0.186389583,0.12127719,ST
3.7,-2.649175167,-0.75066942,9.469201088,0.282013983,4.367405891,-1.410069942,-1068.300049,-2.700000048,-966.9000244,-2.677908465,-0.26061719,0.088001341,ST
3.733333333,-2.829814434,-0.868503571,9.037940025,0.670735955,4.916189671,-1.028970003,-1073.100098,-8.700000763,-966.9000244,-2.672177682,-0.30213543,0.094149856,ST
3.766666667,-3.060099363,-0.640611112,8.874049187,-0.670735955,5.076251984,-0.594515979,-1063.5,-5.100000381,-978.9000244,-2.675461454,-0.332393882,0.077954052,ST
3.8,-3.838283539,-0.606516957,9.702477455,-1.493911982,3.932951927,-0.525918007,-1061.100098,2.700000048,-981.3000488,-2.678294667,-0.372667108,0.068116287,ST
3.833333333,-3.641494513,-0.309838057,8.766383171,-1.806414008,3.185995817,0.221037999,-1051.5,-3.900000095,-981.3000488,-2.688783406,-0.393782505,0.044467117,ST
3.866666667,-3.261075497,-0.559861839,7.884720802,-1.539644003,2.126538038,0.564027965,-1051.5,-1.5,-964.500061,-2.682254912,-0.394811447,0.067467597,ST
3.9,-3.541604519,-0.715379,7.683146477,-1.684461951,1.402447939,0.579271972,-1053.900024,-0.300000012,-981.3000488,-2.67591104,-0.425167821,0.089740025,ST
3.933333333,-4.114625454,-1.426571012,8.153286934,-2.439039946,0.007622,-0.030487999,-1056.300049,-3.900000095,-971.7000122,-2.648485215,-0.454266987,0.159571368,ST
3.966666667,-4.691833496,-2.065985918,8.685633659,-3.216483831,-0.40396598,-0.068598002,-1053.900024,-3.300000191,-962.1000366,-2.623362096,-0.477487804,0.222909648,ST
4.0,-4.905968666,-2.539116859,8.747242928,-3.315569878,0.42683199,-0.304879993,-1046.700073,-3.900000095,-976.500061,-2.601673555,-0.491297953,0.275343855,ST
4.033333333,-6.339119434,-2.676091671,7.99477911,-2.484771967,2.583858013,-0.091463998,-1044.300049,-0.300000012,-990.9000244,-2.581119052,-0.617077364,0.31710678,ST
4.066666667,-6.760211945,-2.700017452,7.460637093,-1.867389917,4.824726105,1.036592007,-1037.100098,3.300000191,-976.500061,-2.566159563,-0.694619196,0.344255602,ST
4.1,-6.73568821,-2.994901896,7.230950356,-1.112811923,5.274424076,1.577754021,-1020.300049,6.900000095,-976.500061,-2.540721312,-0.715130776,0.384970634,ST
4.133333333,-6.177620411,-3.018827677,7.216595173,-0.045731999,3.605206013,0.632625997,-1027.5,7.500000477,-974.1000366,-2.532695542,-0.681903613,0.395290736,ST
4.166666667,-6.27392149,-2.681474924,6.60828352,-0.152439997,2.103672028,0.129574001,-1022.700012,1.5,-988.500061,-2.536060769,-0.716307196,0.388557652,ST
4.2,-5.696115494,-2.582781315,6.369624615,-0.190549999,1.791170001,1.890255928,-1008.300049,9.300000191,-983.7000122,-2.54062088,-0.700212537,0.384880932,ST
4.233333333,-6.217098236,-2.809477568,7.443291187,-0.396344006,0.853663981,2.522881985,-1017.900024,0.300000012,-981.3000488,-2.558457556,-0.672758699,0.363580365,ST
4.266666667,-6.387568951,-2.702409983,7.648454189,-0.060975999,-1.051836014,2.827761889,-1008.300049,6.300000191,-969.3000488,-2.578258191,-0.668103317,0.340875517,ST
4.3,-5.626730919,-2.357879639,7.114910603,0.137196004,-3.185995817,3.902463913,-1025.100098,0.900000036,-978.9000244,-2.600062384,-0.646354285,0.318956912,ST
4.333333333,-5.505307674,-1.87099123,7.554545879,0.602137983,-3.117398024,4.718018055,-1003.500061,-2.700000048,-983.7000122,-2.649075031,-0.619639726,0.251626919,ST
4.366666667,-5.447288036,-1.491170406,7.72382021,0.899396002,-3.064043999,5.442107677,-1025.100098,5.700000286,-952.500061,-2.691211538,-0.606036812,0.195860377,ST
4.4,-5.291172504,-1.337447643,7.477385521,1.150921941,-3.201239824,5.518327713,-1032.300049,-2.700000048,-988.500061,-2.714346704,-0.604919658,0.173079364,ST
4.433333333,-4.492053509,-1.288399935,7.318279266,0.846041977,-3.955817938,5.068629742,-1017.900024,3.300000191,-988.500061,-2.727053924,-0.551831459,0.167872176,ST
4.466666667,-5.065672874,-0.565843225,8.392543793,1.539644003,-4.275941849,5.571681976,-1041.900024,-6.300000191,-974.1000366,-2.782514824,-0.539318451,0.080385262,ST
4.5,-4.139149189,-1.140658617,8.040836334,1.669217944,-4.504601955,6.242417812,-1039.5,6.900000095,-971.7000122,-2.773876517,-0.479954907,0.121711415,ST
4.533333333,-4.61706543,-1.037179947,9.082800865,1.173787951,-4.72563982,6.371991634,-1056.300049,3.300000191,-966.9000244,-2.792601078,-0.464612261,0.108819407,ST
4.566666667,-4.674487114,-0.707004964,7.84883213,1.509155989,-4.878079891,8.955849648,-1041.900024,-2.100000143,-971.7000122,-2.821510062,-0.515490855,0.084534972,ST
4.6,-4.457959652,-0.683079302,8.985303879,0.411587983,-2.027451992,11.24244976,-1049.100098,-4.5,-981.3000488,-2.85157005,-0.469056845,0.068719623,ST
4.633333333,-2.946452379,-0.939682603,8.909937859,0.243903995,-1.067080021,10.33543205,-1046.700073,0.900000036,-969.3000488,-2.864047581,-0.348133332,0.091943692,ST
4.666666667,-3.229972124,0.117236026,8.167642593,1.211897969,0.0,6.669250011,-1051.5,-0.900000036,-981.3000488,-2.909086636,-0.371465767,0.002083776,ST
4.7,-3.724636316,0.397166938,8.160464287,0.777444005,-0.289635986,3.140264034,-1056.300049,2.100000143,-974.1000366,-2.932108739,-0.416598325,-0.041775505,ST
4.733333333,-4.457959652,1.302157283,8.31418705,0.960371971,-1.211897969,0.846041977,-1056.300049,4.5,-971.7000122,-2.972187023,-0.471576608,-0.133519485,ST
4.766666667,-4.120606899,1.245931864,8.339309692,-0.068598002,-1.021348,0.099086002,-1053.900024,-2.100000143,-957.3000488,-2.977403917,-0.456571861,-0.145220718,ST
4.8,-4.466333389,1.196285963,9.318469048,-0.846041977,-0.518296003,-0.434453994,-1046.700073,-3.900000095,-964.500061,-2.970441143,-0.445726787,-0.129683391,ST
4.833333333,-3.746767521,1.263278008,9.874144554,-1.410069942,-1.280496001,-1.288118005,-1058.700073,2.100000143,-974.1000366,-2.966487156,-0.371877746,-0.124699108,ST
4.866666667,-3.926808596,1.145443797,8.503798485,-1.280496001,0.053353999,-1.242385983,-1056.300049,-2.700000048,-964.500061,-2.966850673,-0.417933153,-0.129479027,ST
4.9,-3.904079199,0.625059426,9.838255882,-1.455801964,1.44817996,-1.211897969,-1056.300049,3.300000191,-983.7000122,-2.944141816,-0.387617521,-0.07390083,ST
4.933333333,-4.181617737,0.455186814,9.238318443,-0.144817993,1.227141976,-2.728675842,-1041.900024,2.700000048,-986.1000366,-2.930242627,-0.419094486,-0.052465077,ST
4.966666667,-3.886134863,0.635825992,7.825504303,-0.182927996,2.035073996,-2.560992002,-1053.900024,-2.100000143,-966.9000244,-2.93418283,-0.45506859,-0.073670982,ST
5.0,-3.808376312,0.580198705,8.370412827,-0.007622,2.286599874,-2.355197906,-1056.300049,1.5,-981.3000488,-2.927480921,-0.435335723,-0.068642403,ST
5.033333333,-4.002174854,0.305052906,8.043228149,-0.320124,1.631107926,-2.957335949,-1046.700073,3.300000191,-988.500061,-2.910228296,-0.458680765,-0.041774182,ST
5.066666667,-4.303638458,0.088525161,9.552941322,-0.571649969,1.905499935,-2.370441914,-1039.5,6.900000095,-988.500061,-2.893743646,-0.433161277,-0.01338881,ST
5.1,-3.532632351,-0.144750595,8.428432465,-0.274392009,1.333850026,-2.850627899,-1037.100098,0.300000012,-969.3000488,-2.875890703,-0.404520687,0.014679158,ST
5.133333333,-4.101466179,-0.32957679,8.729298592,-1.753059983,1.486289978,-2.347575903,-1039.5,-1.5,-978.9000244,-2.863423885,-0.434010173,0.03699352,ST
5.166666667,-4.164271355,-0.798520863,8.961378098,-2.187514067,1.204275966,-1.402447939,-1034.700073,2.700000048,-974.1000366,-2.843330507,-0.435225668,0.082435802,ST
5.2,-3.768300772,-0.829624295,8.420657158,-2.682943821,-0.480185986,-1.219519973,-1032.300049,11.10000038,-962.1000366,-2.836154877,-0.421034994,0.100008325,ST
5.233333333,-4.658337593,-1.233370781,9.232336998,-2.012207985,-0.510674,-1.219519973,-1034.700073,5.700000286,-978.9000244,-2.823138444,-0.454255049,0.129661954,ST
5.266666667,-4.715759277,-1.842878461,9.043921471,-1.082324028,0.160062,-1.295740008,-1046.700073,-2.100000143,-969.3000488,-2.794260941,-0.469194778,0.19066789,ST
5.3,-4.891613007,-1.511507273,8.053995132,1.059458017,1.44817996,-1.737815976,-1025.100098,6.300000191,-959.7000122,-2.790622879,-0.528176762,0.186500761,ST
5.333333333,-4.990306854,-2.064789534,7.426543236,1.943609953,2.46952796,-1.440557957,-1041.900024,7.500000477,-978.9000244,-2.749904997,-0.568390854,0.252711863,ST
5.366666667,-5.551962852,-1.693342805,7.400224686,3.468009949,3.658559799,-3.056421995,-1029.900024,1.5,-966.9000244,-2.75106616,-0.622726492,0.229612272,ST
5.4,-5.997579575,-1.693940878,7.28897047,4.481735706,3.468009949,-2.644834042,-1032.300049,2.700000048,-969.3000488,-2.740881035,-0.668851095,0.225936084,ST
5.433333333,-6.067562103,-1.673604012,7.979825497,3.00306797,2.08842802,-1.76830399,-1020.300049,0.900000036,-978.9000244,-2.742942857,-0.647066767,0.20795322,ST
5.466666667,-6.093282223,-1.224398613,7.974442005,2.736297846,0.998481989,-1.059458017,-1022.700012,3.300000191,-974.1000366,-2.765653261,-0.648149347,0.159665913,ST
5.5,-5.44788599,-1.205856204,7.780045509,2.736297846,0.457319975,-0.099086002,-1010.700012,-0.900000036,-964.500061,-2.766393471,-0.613138343,0.150972387,ST
5.533333333,-5.170946121,-1.204659939,7.696305752,2.141782045,0.0,0.304879993,-1020.300049,-0.900000036,-974.1000366,-2.763998668,-0.591224713,0.15116391,ST
5.566666667,-5.164366245,-0.46595338,8.021695137,2.911603928,-1.272873998,0.411587983,-1027.5,-6.300000191,-983.7000122,-2.80592045,-0.57335168,0.06984199,ST
5.6,-5.598020077,-0.450401664,8.624025345,3.871975899,-2.050318003,0.861285985,-1015.500061,-3.900000095,-964.500061,-2.814222344,-0.57193432,0.048612388,ST
5.633333333,-3.839479685,-0.792539418,7.244707584,3.155508041,-3.376545906,-0.495429993,-1037.100098,-2.700000048,-969.3000488,-2.786913418,-0.496776584,0.093774599,ST
5.666666667,-4.149916172,-0.21652776,7.865580082,2.858249903,-3.887219906,-2.057940006,-1041.900024,-8.100000381,-995.7000122,-2.806280638,-0.482220166,0.03823122,ST
5.7,-4.974156857,0.121423021,9.320263863,3.51374197,-4.405515671,-1.920743942,-1039.5,-7.500000477,-986.1000366,-2.819466644,-0.482518216,-0.007424713,ST
5.733333333,-4.380799294,0.507823408,8.184390068,3.445143938,-4.733262062,-1.55488801,-1065.900024,-8.700000763,-969.3000488,-2.834128693,-0.482609492,-0.054425728,ST
5.766666667,-3.719253063,0.880466461,7.430730343,2.759163857,-2.096050024,-0.266770005,-1046.700073,-3.300000191,-981.3000488,-2.855927833,-0.461728439,-0.11171076,ST
5.8,-4.256385326,0.854148149,9.103735924,1.897877932,-1.120433927,-0.259148002,-1068.300049,-11.70000076,-990.9000244,-2.847500812,-0.438474667,-0.099055255,ST
5.833333333,-3.469827414,0.911569893,8.584547997,1.219519973,-1.55488801,-0.655492008,-1056.300049,-1.5,-964.500061,-2.847275291,-0.390770869,-0.105762254,ST
5.866666667,-3.737197399,0.764426708,9.222766876,0.381099999,-1.158543944,-0.42683199,-1056.300049,-12.30000019,-978.9000244,-2.838927448,-0.38367432,-0.08756395,ST
5.9,-4.386780739,0.954038024,10.16185093,-0.160062,0.365855992,-0.579271972,-1065.900024,-11.10000038,-981.3000488,-2.839547709,-0.402027194,-0.091841347,ST
5.933333333,-3.710879087,0.434251785,9.751524925,-1.021348,0.990859985,-0.731711984,-1063.5,-15.90000057,-978.9000244,-2.823585141,-0.371757562,-0.050986293,ST
5.966666667,-3.283804893,0.348119199,8.746046066,-1.737815976,1.196653962,-1.76830399,-1063.5,-9.300000191,-981.3000488,-2.816792265,-0.363151054,-0.03851335,ST
6.0,-3.390872478,0.227294326,8.696998596,-2.157026052,2.698187828,-1.493911982,-1049.100098,-8.700000763,-974.1000366,-2.810636372,-0.373756257,-0.02485512,ST
6.033333333,-3.188102007,-0.077758588,8.628211975,-2.621968031,2.019829988,-1.471045971,-1039.5,-2.100000143,-981.3000488,-2.797983296,-0.360392236,0.007569934,ST
6.066666667,-3.542202711,-0.165087461,8.142519951,-2.164648056,1.059458017,-1.463423967,-1046.700073,-2.100000143,-962.1000366,-2.791352963,-0.402256173,0.021759303,ST
6.1,-4.558447361,-0.185424328,8.060574532,-1.631107926,0.449698001,-1.143299937,-1041.900024,5.100000381,-976.500061,-2.788708175,-0.495082458,0.026006326,NLL
6.133333333,-4.684655666,-0.243444189,7.506096363,-1.935987949,0.29725799,-0.312501997,-1044.300049,-2.100000143,-962.1000366,-2.786269683,-0.545492836,0.034084703,NLL
6.166666667,-4.783947468,-0.907981038,8.268130302,-2.545747995,-0.053353999,1.204275966,-1041.900024,-2.700000048,-971.7000122,-2.758462465,-0.525902408,0.100364133,NLL
6.2,-6.134554386,-1.397860169,9.174915314,-3.246971846,-1.120433927,3.064043999,-1051.5,-6.900000095,-969.3000488,-2.746627344,-0.573335131,0.144223721,NLL
6.233333333,-6.163863182,-1.789045572,8.686232567,-4.13112402,-1.486289978,4.763750076,-1034.700073,-6.900000095,-971.7000122,-2.734861423,-0.599764079,0.192144398,NLL
6.266666667,-5.532822609,-2.134174109,8.044425011,-5.350644112,-1.798792005,5.983269691,-1051.5,3.300000191,-976.500061,-2.722787918,-0.588802014,0.248286865,NLL
6.3,-5.234349251,-1.918244481,8.371608734,-4.512223721,-1.310984015,6.791202068,-1051.5,9.900000572,-962.1000366,-2.753125635,-0.555207518,0.229438197,NLL
6.333333333,-4.135560513,-2.675493479,7.388261795,-3.711913824,-1.242385983,7.423827648,-1041.900024,2.100000143,-964.500061,-2.724784235,-0.500672913,0.323719188,NLL
6.366666667,-3.606802225,-2.97935009,7.503703594,-3.125020027,-0.221037999,5.571681976,-1056.300049,9.300000191,-974.1000366,-2.718854274,-0.438914468,0.368133922,NLL
6.4,-4.002174854,-2.640202999,8.117996216,-1.684461951,1.242385983,4.42838192,-1049.100098,6.900000095,-959.7000122,-2.746638798,-0.442301557,0.325112663,NLL
6.433333333,-4.315601349,-2.702409983,8.225064278,0.137196004,1.989341974,4.077769756,-1037.100098,10.5,-976.500061,-2.757202389,-0.463088306,0.316465169,NLL
6.466666667,-4.920323849,-2.219110489,8.992481232,1.493911982,2.820139885,3.018311977,-1039.5,9.900000572,-969.3000488,-2.788780201,-0.488355873,0.253464904,NLL
6.5,-5.401230812,-1.47801125,9.063062668,2.667700052,2.057940006,2.461905956,-1027.5,5.100000381,-964.500061,-2.827792103,-0.526765087,0.175236623,NLL
6.533333333,-5.400034904,-0.881064594,8.393740654,3.376545906,0.922261953,2.751541853,-1032.300049,5.700000286,-978.9000244,-2.861560068,-0.562596563,0.112180466,NLL
6.566666667,-5.634506702,-0.645994425,7.729203701,2.987823963,0.083841994,2.370441914,-1029.900024,1.5,-981.3000488,-2.879036162,-0.616984193,0.0820968,NLL
6.6,-5.242125034,-0.440831363,8.096463203,2.210379839,-0.388722003,1.318606019,-1029.900024,0.300000012,-966.9000244,-2.89370032,-0.582192401,0.055533948,NLL
6.633333333,-4.136158466,-0.331969351,7.186687946,1.112811923,-1.859767914,0.83079797,-1025.100098,-0.900000036,-971.7000122,-2.899357762,-0.531422582,0.045686825,NLL
6.666666667,-4.357471466,0.104675017,7.963077545,-0.350611985,-2.073184013,0.434453994,-1027.5,-1.5,-976.500061,-2.923974811,-0.5041276,-0.001313741,NLL
6.7,-4.563232899,0.247631192,8.552845955,-0.480185986,-2.050318003,1.364337921,-1022.700012,-0.300000012,-978.9000244,-2.937900019,-0.489942261,-0.02373417,NLL
6.733333333,-4.569214344,0.321202785,8.462526321,-0.030487999,-1.935987949,1.981719971,-1029.900024,-1.5,-966.9000244,-2.947830479,-0.49102809,-0.036450561,NLL
6.766666667,-4.393360138,0.06998273,9.171326637,-1.089946032,-1.608241916,1.806414008,-1034.700073,0.900000036,-966.9000244,-2.941957171,-0.453390514,-0.013061287,NLL
6.8,-3.961500883,-0.067590155,8.923694611,-1.608241916,-2.400929928,1.204275966,-1039.5,0.900000036,-974.1000366,-2.938397084,-0.421626218,0.004930113,NLL
6.833333333,-4.218104362,0.05443101,8.049209595,-2.942091942,-2.751541853,1.105189919,-1044.300049,4.5,-959.7000122,-2.946155067,-0.466547817,-0.000949269,NLL
6.866666667,-3.588259697,-0.793735743,9.703673363,-4.733262062,-0.716467977,2.218001842,-1049.100098,11.10000038,-974.1000366,-2.925983146,-0.37538372,0.070829882,NLL
6.9,-3.51827693,-1.012656093,8.499611855,-3.78813386,-0.594515979,0.907018006,-1037.100098,8.700000763,-981.3000488,-2.915353234,-0.386391676,0.113652612,NLL
6.933333333,-3.631924152,-1.247726202,8.35904789,-1.844523907,2.080806017,1.349093914,-1027.5,6.300000191,-971.7000122,-2.907763785,-0.405886557,0.144383302,NLL
6.966666667,-4.233057976,-1.313521981,8.557631493,-0.792688012,2.774407864,1.417691946,-1029.900024,9.300000191,-978.9000244,-2.907802514,-0.449015465,0.151158297,NLL
7.0,-4.511194229,-2.030695438,8.311794281,-1.158543944,1.196653962,1.74543798,-1027.5,11.10000038,-974.1000366,-2.880258936,-0.480300736,0.222096612,NLL
7.033333333,-5.380894184,-2.012751102,8.805860519,-1.04421401,0.838419974,1.44817996,-1032.300049,11.10000038,-969.3000488,-2.882842443,-0.528706944,0.224763663,NLL
7.066666667,-5.247508049,-1.744783044,8.37101078,0.228659987,0.876529992,1.562510014,-1027.5,11.70000076,-966.9000244,-2.893830012,-0.547711406,0.20797179,NLL
7.1,-4.609888077,-2.126996517,8.101248741,1.295740008,0.495429993,1.410069942,-1017.900024,8.700000763,-966.9000244,-2.875774642,-0.511901713,0.245865253,NLL
7.133333333,-4.880248547,-1.835102677,7.910440922,2.263733864,-0.251525998,-0.198172003,-1025.100098,12.90000057,-971.7000122,-2.881552707,-0.534851534,0.228563762,NLL
7.166666667,-5.178123474,-1.834504485,8.712550163,6.753091812,-0.190549999,0.731711984,-1020.300049,5.100000381,-971.7000122,-2.888767339,-0.528348681,0.201732815,NLL
7.2,-4.676281929,-2.378814697,7.612565517,8.033587456,-0.655492008,0.358233988,-1037.100098,6.900000095,-974.1000366,-2.845501331,-0.529707445,0.270831709,NLL
7.233333333,-5.037559986,-1.300961018,8.384768486,7.012239933,-0.228659987,-1.730193973,-1034.700073,1.5,-978.9000244,-2.885619401,-0.53422063,0.169183927,NLL
7.266666667,-5.011241913,-0.551487803,8.133547783,6.349125862,-1.059458017,-3.414655924,-1020.300049,8.700000763,-969.3000488,-2.917018917,-0.546581825,0.078573842,NLL
7.3,-4.895800114,-0.555076659,7.655632019,5.358265877,-1.036592007,-4.550333977,-1034.700073,-2.700000048,-978.9000244,-2.905074215,-0.562232034,0.069671913,NLL
7.333333333,-4.91434288,-0.538328648,7.891898155,4.169233799,0.42683199,-5.02289772,-1046.700073,-2.100000143,-988.500061,-2.890685589,-0.557153816,0.066927484,NLL
7.366666667,-4.87665987,-0.340941489,7.839859962,3.673803806,0.594515979,-4.977165699,-1022.700012,-7.500000477,-971.7000122,-2.886180241,-0.556723569,0.046841177,NLL
7.4,-4.89520216,0.075366013,7.593424797,3.170752048,-0.304879993,-4.550333977,-1039.5,-3.300000191,-986.1000366,-2.897782321,-0.568995413,0.001215838,NLL
7.433333333,-4.68106699,-0.125011876,7.076629639,2.378063917,-0.007622,-4.329296112,-1015.500061,-5.700000286,-971.7000122,-2.878962462,-0.581180323,0.014933585,NLL
7.466666667,-5.437119484,0.236864612,7.557536602,2.012207985,1.44817996,-4.268320084,-1032.300049,-6.900000095,-978.9000244,-2.888208555,-0.617069878,-0.020477311,NLL
7.5,-6.211116791,0.599937379,9.116296768,1.928365946,1.23476398,-1.966475964,-1032.300049,-8.100000381,-974.1000366,-2.903283803,-0.603032642,-0.057552698,NLL
7.533333333,-4.788134575,0.456383079,8.225064278,2.789651871,0.282013983,-0.29725799,-1029.900024,-10.5,-966.9000244,-2.90028368,-0.542364583,-0.059433233,NLL
7.566666667,-4.463941097,0.792539418,7.783634663,1.951231956,0.434453994,-0.129574001,-1027.5,-3.900000095,-976.500061,-2.916629234,-0.523445282,-0.096773367,NLL
7.6,-5.13984251,1.260287285,9.668981552,1.615863919,1.059458017,0.327746004,-1032.300049,-11.70000076,-988.500061,-2.930133782,-0.493444044,-0.12652416,NLL
7.633333333,-4.648766994,1.292586923,9.220972061,1.592997909,1.288118005,0.815553963,-1027.5,-2.700000048,-981.3000488,-2.936518238,-0.470817023,-0.139659207,NLL
7.666666667,-4.350892067,1.094003439,7.819522858,1.44817996,1.23476398,0.42683199,-1022.700012,-12.30000019,-974.1000366,-2.937089373,-0.499061191,-0.141640337,NLL
7.7,-3.862209082,1.080844402,7.59701395,0.701223969,1.288118005,-0.586893976,-1029.900024,-8.100000381,-969.3000488,-2.935722457,-0.474793688,-0.142070346,NLL
7.733333333,-4.636804104,1.211239576,7.600004673,0.846041977,1.379581928,-1.692083955,-1010.700012,-9.300000191,-976.500061,-2.937929063,-0.53091677,-0.15476414,ST
7.766666667,-5.212217808,1.233370781,7.899075985,-0.083841994,0.907018006,-1.524399996,-1027.5,-11.70000076,-971.7000122,-2.93470793,-0.569882963,-0.153558972,ST
7.8,-4.998680592,0.64001298,8.241811752,-1.089946032,0.564027965,-1.417691946,-1003.500061,-9.900000572,-976.500061,-2.89962647,-0.550331776,-0.089921115,ST
7.833333333,-4.684057713,0.077758588,8.009134293,-2.850627899,-0.762199998,-1.509155989,-1020.300049,-12.30000019,-966.9000244,-2.864152015,-0.532707006,-0.020462609,ST
7.866666667,-5.133263111,0.145348743,8.521144867,-3.567095995,-1.501533985,-1.707327962,-1013.100037,-7.500000477,-974.1000366,-2.860255577,-0.538173775,-0.011331384,ST
7.9,-4.664916992,-0.421092659,8.234634399,-3.628072023,-1.013725996,-0.731711984,-1025.100098,-5.700000286,-962.1000366,-2.834413103,-0.517663162,0.045842561,ST
7.933333333,-4.399939537,-0.824241042,7.929581165,-3.91770792,-0.93750596,-0.373477995,-1015.500061,-2.100000143,-981.3000488,-2.812828699,-0.505759992,0.097688183,ST
7.966666667,-4.535717964,-1.643098712,7.637089252,-4.504601955,-1.63872993,-0.167683989,-1010.700012,5.100000381,-969.3000488,-2.770338239,-0.520126648,0.194835266,ST
8.0,-4.568615913,-2.011554718,7.899674416,-4.397893906,-1.189031959,-0.312501997,-1017.900024,-3.900000095,-962.1000366,-2.750149371,-0.510681437,0.246635596,ST
8.033333333,-5.482578278,-1.549190283,8.307009697,-2.865871906,-1.089946032,0.236281991,-1013.100037,-2.700000048,-974.1000366,-2.778263132,-0.561977986,0.200365488,ST
8.066666667,-5.75892067,-1.741792321,8.758008957,-2.118916035,-1.432935953,2.378063917,-1017.900024,2.100000143,-964.500061,-2.787353211,-0.569317117,0.197775846,ST
8.1,-4.959801674,-1.818354607,8.336916924,-1.882633924,-2.248489857,3.51374197,-1029.900024,-1.5,-983.7000122,-2.790484987,-0.533100373,0.210734037,ST
8.133333333,-5.630319595,-1.429561734,8.293850899,-2.23324585,-2.858249903,5.53357172,-1020.300049,2.100000143,-986.1000366,-2.822737378,-0.575809112,0.176921448,ST
8.166666667,-5.78942585,-1.906879783,8.238223076,-2.484771967,-1.775925994,7.012239933,-1020.300049,9.900000572,-990.9000244,-2.820038106,-0.595862748,0.215422237,ST
8.2,-5.037559986,-1.43554318,8.120388985,-2.46952796,-0.960371971,7.446693897,-1032.300049,2.100000143,-981.3000488,-2.857081546,-0.558673572,0.179666951,ST
8.233333333,-4.819237709,-1.318307161,7.843448639,-1.737815976,-1.623485923,7.949745655,-1025.100098,6.900000095,-981.3000488,-2.8855697,-0.546565046,0.16382063,ST
8.266666667,-4.576990128,-1.623958111,7.970853329,-0.899396002,-2.164648056,7.522913933,-1027.5,3.300000191,-957.3000488,-2.889508512,-0.518361545,0.188562371,ST
8.3,-4.738488674,-1.257894635,8.094070435,-0.213415995,-2.355197906,5.868939877,-1029.900024,3.300000191,-981.3000488,-2.918044524,-0.521383875,0.156494483,ST
8.333333333,-4.962193966,-0.994711757,8.680849075,0.632625997,-1.783547997,4.504601955,-1034.700073,0.300000012,-966.9000244,-2.945803209,-0.515890159,0.118015398,ST
8.366666667,-3.731813908,-0.185424328,8.751429558,0.480185986,-1.996963978,2.446661949,-1044.300049,9.300000191,-969.3000488,-2.988837849,-0.41959694,0.034252305,ST
8.4,-4.167860031,0.549095273,8.935059547,1.196653962,-2.789651871,1.928365946,-1041.900024,1.5,-974.1000366,-3.02483898,-0.428982617,-0.045944765,ST
8.433333333,-3.092997313,0.68726629,9.286170006,0.655492008,-0.80793196,2.660078049,-1029.900024,6.300000191,-981.3000488,-3.039147124,-0.341233158,-0.070758469,ST
8.466666667,-2.892021179,0.64958328,9.386657715,0.487807989,-0.838419974,2.134160042,-1039.5,5.100000381,-978.9000244,-3.043399457,-0.305497632,-0.071051802,ST
8.5,-2.766411304,0.847568572,8.153884888,0.198172003,-0.762199998,1.394825935,-1029.900024,11.10000038,-971.7000122,-3.054829227,-0.320653042,-0.098632953,ST
8.533333333,-2.611492157,0.235668331,8.631202698,-0.289635986,0.495429993,0.83079797,-1046.700073,4.5,-957.3000488,-3.039497115,-0.299898641,-0.041547675,ST
8.566666667,-3.59364295,0.21174261,8.973340988,-0.72408998,0.007622,0.0,-1046.700073,2.100000143,-969.3000488,-3.034934104,-0.366382645,-0.025844492,ST
8.6,-3.752748966,-0.049645867,8.86268425,-0.83079797,-0.29725799,0.106707998,-1039.5,13.50000095,-976.500061,-3.025936448,-0.394039492,0.001048307,ST
8.633333333,-4.244422436,-0.25181818,9.375890732,-1.463423967,0.373477995,-0.640248001,-1034.700073,5.700000286,-976.500061,-3.01628784,-0.420633895,0.025311749,ST
8.666666667,-4.544690132,-0.643601835,9.028967857,-1.592997909,0.769822001,-0.160062,-1046.700073,3.900000095,-976.500061,-3.000936347,-0.457426259,0.064116821,ST
8.7,-4.671496391,-0.817063272,8.785524368,-1.905499935,1.349093914,-0.175305992,-1037.100098,5.700000286,-966.9000244,-2.990728831,-0.482855345,0.089767626,ST
8.733333333,-4.704992771,-0.997104347,7.970853329,-1.364337921,1.615863919,0.525918007,-1044.300049,4.5,-974.1000366,-2.978889198,-0.522730592,0.118955089,ST
8.766666667,-3.930397511,-1.265670538,7.016815186,-1.143299937,1.547266006,0.457319975,-1027.5,15.90000057,-976.500061,-2.956428065,-0.509982418,0.168013168,ST
8.8,-4.816246986,-1.427767277,7.593424797,-0.952749968,1.143299937,0.175305992,-1029.900024,9.900000572,-962.1000366,-2.949634262,-0.549465211,0.183548625,ST
8.833333333,-5.655441761,-1.543208838,8.272316933,-0.693601966,0.625003994,0.876529992,-1025.100098,14.70000076,-959.7000122,-2.951410824,-0.584289856,0.184557481,ST
8.866666667,-5.786435127,-1.507918477,7.930179596,-1.250007987,0.205793992,1.737815976,-1020.300049,8.700000763,-974.1000366,-2.955009887,-0.616374675,0.187475649,ST
8.9,-6.651350021,-1.034787297,8.701784134,-0.754577994,0.40396598,2.545747995,-1029.900024,8.100000381,-966.9000244,-2.994508248,-0.644315048,0.130259733,ST
8.933333333,-5.075242996,-1.22140789,7.813541412,-0.259148002,0.769822001,3.567095995,-1027.5,16.5,-983.7000122,-2.991553396,-0.585588128,0.147876458,ST
8.966666667,-5.058495045,-0.860129595,7.500712872,-0.663114011,-0.487807989,2.500015974,-1029.900024,14.10000038,-971.7000122,-3.014160916,-0.589321443,0.118347399,ST
9.0,-5.506504059,-0.643601835,7.571293831,0.060975999,0.030487999,2.87349391,-1013.100037,5.700000286,-957.3000488,-3.036282573,-0.619962023,0.088842705,ST
9.033333333,-5.014232635,-0.921140194,7.297344208,0.274392009,0.365855992,2.751541853,-1015.500061,8.700000763,-962.1000366,-3.025830588,-0.603695798,0.115274108,ST
9.066666667,-5.313303947,-0.681284845,8.32196331,0.304879993,-0.304879993,1.928365946,-1015.500061,12.90000057,-978.9000244,-3.045365434,-0.574041707,0.08610691,ST
9.1,-4.994493961,-0.701023579,8.101248741,1.082324028,-0.800309956,1.227141976,-1017.900024,8.700000763,-969.3000488,-3.047858985,-0.5545216,0.083647255,ST
9.133333333,-4.525549889,-0.836802006,7.723222256,1.12805593,-0.907018006,0.121951997,-998.7000122,6.900000095,-974.1000366,-3.037459222,-0.531071415,0.101865504,ST
9.166666667,-5.120103836,-0.602329969,8.820216179,0.655492008,-0.929883957,-1.265251994,-1029.900024,11.70000076,-969.3000488,-3.047884897,-0.524787586,0.075003531,ST
9.2,-4.863500595,-0.353502482,9.043921471,1.204275966,-1.55488801,-1.227141976,-1039.5,9.300000191,-986.1000366,-3.058722464,-0.497262681,0.045419445,ST
9.233333333,-3.870583057,-0.389391065,8.372207642,0.42683199,-2.454283953,-1.524399996,-1032.300049,5.100000381,-964.500061,-3.054401203,-0.439112996,0.046712423,ST
9.266666667,-4.320386887,-0.6848737,9.210205078,0.365855992,-2.042695999,-1.028970003,-1032.300049,11.10000038,-969.3000488,-3.042817602,-0.434967652,0.06875062,ST
9.3,-3.595437288,-0.611302137,8.627614021,0.594515979,-2.19513607,-0.853663981,-1032.300049,9.900000572,-966.9000244,-3.040108299,-0.397576171,0.06999109,ST
9.333333333,-3.94654727,-0.612498403,9.244299889,1.120433927,-1.943609953,0.083841994,-1037.100098,12.30000019,-974.1000366,-3.04143154,-0.399034095,0.065045817,ST
9.366666667,-3.410611153,-0.865512908,8.684437752,1.349093914,-1.8292799,-0.975615978,-1032.300049,6.300000191,-976.500061,-3.028005404,-0.374263399,0.092154302,ST
9.4,-3.605605841,-0.358287632,8.442788124,0.93750596,-0.701223969,-0.952749968,-1044.300049,11.70000076,-964.500061,-3.040747826,-0.397094395,0.050586687,ST
9.433333333,-4.681664944,-0.520982504,10.32155514,0.983237982,0.289635986,1.173787951,-1044.300049,8.100000381,-981.3000488,-3.043173698,-0.420139034,0.048383141,ST
9.466666667,-4.040455818,-0.627451956,8.601295471,0.190549999,-0.304879993,1.501533985,-1046.700073,8.700000763,-978.9000244,-3.038614461,-0.434234421,0.066622495,ST
9.5,-3.904079199,-0.295482635,8.059378624,-0.480185986,0.091463998,1.082324028,-1039.5,7.500000477,-966.9000244,-3.052012469,-0.448114973,0.041993029,ST
9.533333333,-4.021315098,-0.511412263,7.984012604,-0.198172003,1.74543798,1.051836014,-1037.100098,10.5,-971.7000122,-3.046650802,-0.464728109,0.059128614,ST
9.566666667,-4.15171051,-0.724351168,8.050406456,-0.236281991,2.385685921,0.990859985,-1034.700073,11.10000038,-964.500061,-3.037619344,-0.475985822,0.083307487,ST
9.6,-4.577588081,-0.900803328,8.078518867,-0.198172003,2.278977871,0.579271972,-1037.100098,6.900000095,-971.7000122,-3.028132061,-0.508712936,0.105382202,ST
9.633333333,-5.211021423,-1.419991374,8.624623299,0.137196004,2.187514067,0.609759986,-1029.900024,5.700000286,-964.500061,-3.00589643,-0.535053793,0.150944245,ST
9.666666667,-5.273228645,-1.039572477,7.725016594,1.013725996,2.06556201,0.121951997,-1022.700012,13.50000095,-964.500061,-3.012227473,-0.585635077,0.136082764,ST
9.7,-4.689440727,-0.976169348,7.338017941,1.333850026,2.23324585,0.625003994,-1013.100037,8.700000763,-959.7000122,-3.014019437,-0.572098387,0.130870618,ST
9.733333333,-4.899389267,-1.157406688,7.681352139,1.753059983,1.859767914,0.068598002,-1015.500061,12.90000057,-969.3000488,-3.004643181,-0.567189986,0.143546658,ST
9.766666667,-4.916735172,-1.286007404,7.743558884,1.989341974,1.394825935,-0.93750596,-1010.700012,14.10000038,-971.7000122,-2.991659933,-0.562794036,0.158816082,ST
9.8,-4.797106743,-1.159201026,8.170633316,2.934469938,0.457319975,-2.903981924,-996.3000488,6.900000095,-974.1000366,-2.990675295,-0.533894134,0.142873124,ST
9.833333333,-5.486765385,-0.635825992,7.550956726,4.062525749,0.190549999,-4.458869934,-1013.100037,5.700000286,-981.3000488,-3.002863017,-0.610806015,0.092868763,ST
9.866666667,-5.364146233,-0.592759669,7.552153111,3.056421995,-0.594515979,-4.176856041,-1017.900024,-4.5,-974.1000366,-2.997867052,-0.613753351,0.081038226,ST
9.9,-6.046627522,-0.117834166,8.19396019,2.126538038,-0.983237982,-3.51374197,-1032.300049,4.5,-971.7000122,-3.019465726,-0.630326632,0.027014764,ST
9.933333333,-6.021505356,0.219518468,8.651539803,1.463423967,-0.91463995,-1.753059983,-1017.900024,6.300000191,-966.9000244,-3.038808368,-0.611259479,-0.015243546,ST
9.966666667,-6.456953526,0.055029154,9.795787811,0.838419974,-0.045731999,0.114329994,-1025.100098,-0.900000036,-974.1000366,-3.034295438,-0.588457854,-0.008794184,ST
10.0,-5.240330696,-0.297277063,8.610866547,0.114329994,0.609759986,0.769822001,-1029.900024,0.900000036,-969.3000488,-3.017254652,-0.555856086,0.025161528,ST
10.03333333,-4.704394341,0.088525161,8.374599457,-0.129574001,-0.190549999,0.548784018,-1008.300049,2.100000143,-969.3000488,-3.03381273,-0.519441137,-0.004611931,ST
10.06666667,-4.571008682,0.190209463,8.308803558,-0.053353999,-0.815553963,1.105189919,-1015.500061,3.900000095,-974.1000366,-3.043964628,-0.504622332,-0.020447702,ST
10.1,-3.393265009,0.074767873,7.166350842,-0.259148002,-0.823175967,1.34147191,-1022.700012,12.90000057,-964.500061,-3.043507354,-0.453616505,-0.012976517,ST
10.13333333,-3.389676332,0.373241216,7.35656023,-0.282013983,-0.884151995,0.640248001,-1027.5,6.900000095,-978.9000244,-3.058265336,-0.434296338,-0.043604971,ST
10.16666667,-3.625942707,0.14116174,7.984610558,-0.625003994,-0.990859985,0.388722003,-1032.300049,2.100000143,-981.3000488,-3.050612605,-0.426352581,-0.021934424,ST
10.2,-5.096178055,-0.245836765,9.601988792,-0.876529992,-0.320124,0.312501997,-1025.100098,8.100000381,-976.500061,-3.034636904,-0.47709495,0.01844001,ST
10.23333333,-5.256480217,-0.689658821,10.00214672,-1.402447939,-0.40396598,0.518296003,-1027.5,0.300000012,-969.3000488,-3.017950241,-0.48128659,0.060220211,ST
10.26666667,-4.818639755,-0.706406832,8.57318306,-2.080806017,-1.227141976,0.243903995,-1022.700012,8.700000763,-981.3000488,-3.01130466,-0.503352764,0.080674072,ST
10.3,-5.167356968,-0.991721034,8.80945015,-1.943609953,-0.685979962,0.952749968,-1017.900024,13.50000095,-971.7000122,-3.002322823,-0.522038255,0.107602975,ST
10.33333333,-5.08361721,-1.326681137,8.857899666,-1.272873998,-0.259148002,1.600619912,-1015.500061,2.100000143,-964.500061,-2.990292661,-0.517266575,0.141856621,ST
10.36666667,-4.812060356,-1.648482084,7.928983212,-0.655492008,0.365855992,1.219519973,-1029.900024,8.700000763,-971.7000122,-2.968099867,-0.533292922,0.192136176,ST
10.4,-4.866491318,-1.525862694,8.159866333,-0.038109999,1.089946032,0.701223969,-1027.5,9.300000191,-976.500061,-2.972309759,-0.532516241,0.185887069,ST
10.43333333,-4.596130371,-1.527657151,8.140128136,2.035073996,0.564027965,-0.221037999,-1003.500061,5.100000381,-966.9000244,-2.970555449,-0.511717099,0.182897278,ST
10.46666667,-5.169151783,-1.607210159,7.909842491,3.025933981,0.129574001,-1.42531395,-1022.700012,11.70000076,-974.1000366,-2.958631258,-0.557759474,0.193773294,ST
10.5,-4.634411812,-1.454085588,6.971356392,2.926847935,0.190549999,-2.309465885,-1013.100037,0.300000012,-966.9000244,-2.946571747,-0.572691255,0.201175004,DLL
10.53333333,-4.917333603,-0.68726629,7.861392975,3.155508041,0.038109999,-2.57623601,-1017.900024,5.100000381,-962.1000366,-2.989426809,-0.559685364,0.102771031,DLL
10.56666667,-5.329453945,-0.447410941,7.387663841,3.025933981,0.083841994,-1.097568035,-1013.100037,8.100000381,-993.3000488,-3.003726241,-0.611156254,0.066136621,DLL
10.6,-5.557346344,-0.297277063,7.955899715,2.218001842,0.952749968,-0.503051996,-1020.300049,7.500000477,-974.1000366,-3.014671557,-0.611070149,0.039504422,DLL
10.63333333,-5.691928387,-0.346922934,8.49123764,1.684461951,0.762199998,0.076219998,-1005.900024,3.300000191,-971.7000122,-3.013306337,-0.59543097,0.038187688,DLL
10.66666667,-5.903671265,-0.431859225,8.286672592,1.105189919,0.365855992,0.693601966,-1022.700012,2.100000143,-976.500061,-3.008113553,-0.614318184,0.047028351,DLL
10.7,-5.590842247,-0.474925518,8.129361153,0.647870004,-0.548784018,1.089946032,-1015.500061,1.5,-974.1000366,-3.005299568,-0.603368253,0.054212135,DLL
10.73333333,-5.528635502,-0.335558206,8.317775726,0.632625997,-0.464941978,1.04421401,-1017.900024,0.900000036,-969.3000488,-3.013807671,-0.589124178,0.041215262,DLL
10.76666667,-4.001576424,-0.31761393,7.517460823,0.083841994,-1.219519973,0.693601966,-1027.5,5.700000286,-964.500061,-3.015116872,-0.507376889,0.041325989,DLL
10.8,-4.471118927,0.242247909,8.021695137,0.251525998,-1.04421401,0.099086002,-1034.700073,3.900000095,-974.1000366,-3.042994177,-0.506865812,-0.016178941,DLL
10.83333333,-4.56801796,0.476719946,8.317775726,0.83079797,-0.373477995,1.04421401,-1017.900024,-2.100000143,-969.3000488,-3.060949097,-0.502089308,-0.050937486,DLL
10.86666667,-3.839479685,0.496458679,7.978629112,0.846041977,-0.663114011,1.501533985,-1005.900024,0.900000036,-971.7000122,-3.068339722,-0.457014743,-0.062307054,DLL
10.9,-4.308423996,0.825437307,8.576173782,0.53354001,-0.586893976,1.836901903,-1015.500061,2.700000048,-976.500061,-3.085087117,-0.461538784,-0.092343974,DLL
10.93333333,-4.041053772,0.735715866,8.661708832,0.022865999,-1.326228023,2.408551931,-1022.700012,-0.300000012,-969.3000488,-3.087815535,-0.438330165,-0.087804886,DLL
10.96666667,-4.112831116,0.526963949,8.275307655,-0.983237982,-1.173787951,2.096050024,-1008.300049,2.100000143,-962.1000366,-3.084611842,-0.454154533,-0.068497195,DLL
11.0,-4.144532681,0.276342064,8.492433548,-2.218001842,-1.166165948,1.821658015,-1025.100098,-2.100000143,-976.500061,-3.077066461,-0.452066066,-0.036203339,DLL
11.03333333,-4.741479397,0.132189602,8.827393532,-2.500015974,-1.661595941,2.210379839,-1008.300049,0.900000036,-986.1000366,-3.075638799,-0.482263844,-0.017385346,DLL
11.06666667,-5.547776222,0.074169725,9.519445419,-2.187514067,-1.85214591,3.239349842,-1025.100098,14.10000038,-990.9000244,-3.081281537,-0.517289113,-0.008848359,DLL
11.1,-5.486167431,-0.175255895,8.882423401,-2.012207985,-1.806414008,4.42838192,-1013.100037,10.5,-974.1000366,-3.081390286,-0.543514287,0.012989421,DLL
11.13333333,-5.548374176,-0.594554126,9.142615318,-2.797273874,-1.928365946,6.600651741,-1032.300049,2.100000143,-969.3000488,-3.077961098,-0.542050805,0.054413832,DLL
11.16666667,-4.397547245,-1.193893313,8.402712822,-3.117398024,-2.530503988,7.393339634,-1027.5,2.100000143,-978.9000244,-3.063079056,-0.488802883,0.122615348,DLL
11.2,-3.218607426,-1.614986062,6.797296524,-3.254593849,-2.812517881,6.417723656,-1037.100098,8.100000381,-981.3000488,-3.040608654,-0.440758701,0.212593363,DLL
11.23333333,-3.723439932,-1.260287285,7.406804562,-2.248489857,-0.838419974,4.108257771,-1039.5,14.10000038,-966.9000244,-3.066647642,-0.456220044,0.177800267,DLL
11.26666667,-3.874171972,-1.297970295,8.084500313,-0.731711984,0.518296003,2.843005896,-1017.900024,11.70000076,-962.1000366,-3.079848564,-0.446200587,0.162109508,DLL
11.3,-4.443603992,-1.021628141,8.312991142,0.411587983,1.089946032,0.922261953,-1044.300049,10.5,-978.9000244,-3.095644383,-0.481149495,0.129343803,DLL
11.33333333,-4.546484947,-0.425279647,8.448171616,1.310984015,1.250007987,-0.236281991,-1037.100098,7.500000477,-964.500061,-3.124134992,-0.492862711,0.063775896,DLL
11.36666667,-5.373716354,0.090319589,8.777748108,1.303362012,-0.121951997,-0.868907988,-1025.100098,9.900000572,-971.7000122,3.132745705,-0.537955574,0.003956938,DLL
11.4,-5.341416836,-0.07117901,8.579762459,1.143299937,-0.167683989,-0.342989981,-1017.900024,15.30000019,-976.500061,3.135980899,-0.553007974,0.006137985,DLL
11.43333333,-4.94424963,-0.410924226,9.075623512,0.541162014,0.152439997,-0.701223969,-1022.700012,5.100000381,-966.9000244,-3.12853705,-0.507818119,0.038680764,DLL
11.46666667,-4.411902428,-0.086132586,8.449367523,0.335367978,-0.129574001,-1.394825935,-1034.700073,10.5,-966.9000244,-3.135958184,-0.4863671,0.016439262,DLL
11.5,-4.47829628,0.142956167,7.938553333,0.282013983,0.091463998,-1.486289978,-1032.300049,12.90000057,-964.500061,3.137820701,-0.508251287,-0.010229563,DLL
11.53333333,-4.370630741,0.177050322,9.389648438,-0.419209987,0.525918007,-1.775925994,-1022.700012,10.5,-966.9000244,3.138624941,-0.451006008,-0.015348533,DLL
11.56666667,-4.239039421,0.494664252,9.443481445,-0.472563982,-0.685979962,-2.46952796,-1034.700073,6.900000095,-969.3000488,3.131731083,-0.426596792,-0.04270014,DLL
11.6,-3.688149452,0.558067381,8.418862343,0.213415995,0.304879993,-1.333850026,-1025.100098,8.700000763,-966.9000244,3.127233552,-0.415563067,-0.060966171,DLL
11.63333333,-2.54868722,0.080749303,7.713651657,0.457319975,0.891773999,-1.371959925,-1022.700012,0.900000036,-974.1000366,-3.137692852,-0.339962093,-0.020254155,DLL
11.66666667,-3.146830082,0.015551717,7.751933098,1.051836014,1.295740008,-2.317087889,-1029.900024,9.300000191,-969.3000488,-3.126856628,-0.378267138,-0.005982867,DLL
11.7,-3.98423028,0.205163032,8.988892555,2.210379839,2.126538038,-2.042695999,-1017.900024,4.5,-959.7000122,-3.126506198,-0.412304412,-0.021287835,DLL
11.73333333,-4.028492928,-0.25421077,9.247290611,3.018311977,1.592997909,-1.791170001,-1010.700012,7.500000477,-962.1000366,-3.105562701,-0.413347148,0.014562424,DLL
11.76666667,-4.01234293,-0.714780867,8.680251122,1.890255928,0.525918007,-2.621968031,-1017.900024,5.100000381,-966.9000244,-3.076592853,-0.428728125,0.067460393,DLL
11.8,-4.71875,-0.606516957,8.774757385,0.205793992,-0.091463998,-3.323191881,-1020.300049,9.300000191,-974.1000366,-3.067859393,-0.479860413,0.070769573,DLL
11.83333333,-4.93288517,-0.393578082,8.887207985,-0.121951997,0.449698001,-2.820139885,-1003.500061,6.300000191,-966.9000244,-3.070945369,-0.502311803,0.05117766,DLL
11.86666667,-4.453174591,-0.829624295,8.814234734,-0.434453994,-0.647870004,-0.952749968,-1022.700012,6.900000095,-981.3000488,-3.052426332,-0.471557532,0.087649814,DLL
11.9,-4.456165314,-0.935495615,8.211904526,-0.754577994,-0.663114011,-0.541162014,-1027.5,8.100000381,-954.9000244,-3.042128609,-0.488888565,0.109577064,DLL
11.93333333,-5.130870342,-1.003683925,8.161062241,-0.388722003,0.160062,0.076219998,-1020.300049,0.300000012,-964.500061,-3.037434556,-0.544205005,0.120213832,DLL
11.96666667,-5.689536095,-1.112545967,8.828590393,0.464941978,1.661595941,1.013725996,-1020.300049,14.10000038,-957.3000488,-3.037018433,-0.567017128,0.123036463,DLL
12.0,-4.97774601,-1.274642706,7.118499279,0.823175967,2.324709892,0.693601966,-1008.300049,18.90000153,-983.7000122,-3.013381736,-0.599571536,0.165232566,DLL
12.03333333,-5.550766945,-1.065890789,7.669987202,1.257629991,3.353679895,0.685979962,-1005.900024,11.70000076,-962.1000366,-3.025870216,-0.622858418,0.140988916,DLL
12.06666667,-5.400632858,-1.418795109,7.052703857,1.516777992,3.338435888,0.434453994,-1017.900024,7.500000477,-983.7000122,-2.997607297,-0.644554478,0.184841375,DLL
12.1,-6.0340662,-1.143051267,7.885318756,0.990859985,2.012207985,-0.190549999,-1008.300049,3.300000191,-962.1000366,-3.01546092,-0.650234921,0.151357156,DLL
12.13333333,-5.819333076,-0.942075193,7.4648242,1.04421401,0.152439997,-0.182927996,-998.7000122,8.700000763,-966.9000244,-3.026901304,-0.656902033,0.129528092,DLL
12.16666667,-5.394053459,-0.922934592,7.591630459,0.609759986,-1.288118005,-0.213415995,-1008.300049,5.100000381,-971.7000122,-3.030607722,-0.620034415,0.121659285,DLL
12.2,-5.339622498,-1.08503139,8.426638603,0.114329994,-2.134160042,-0.83079797,-1001.100037,-0.300000012,-964.500061,-3.026157544,-0.568435534,0.12732837,DLL
12.23333333,-5.452671528,-1.100583076,9.022388458,0.144817993,-2.23324585,-0.891773999,-1010.700012,2.100000143,-964.500061,-3.027139302,-0.542766832,0.122888721,DLL
12.26666667,-4.670898438,-1.092209101,8.366226196,0.182927996,-2.911603928,-0.846041977,-1003.500061,8.700000763,-964.500061,-3.023136778,-0.508925321,0.128569328,DLL
12.3,-4.789928913,-0.409129798,8.240615845,0.42683199,-2.606724024,-0.708845973,-1003.500061,8.100000381,-966.9000244,-3.05395968,-0.51949897,0.062810838,DLL
12.33333333,-4.72592783,-0.28471604,8.196950912,0.190549999,-2.004585981,0.068598002,-1029.900024,3.900000095,-971.7000122,-3.065405115,-0.519329403,0.040005285,DLL
12.36666667,-4.669104099,-0.438438803,8.774159431,0.304879993,-1.135677934,0.876529992,-1008.300049,8.100000381,-959.7000122,-3.063620572,-0.493202262,0.046827379,DLL
12.4,-3.738393545,-0.334960073,8.275906563,0.152439997,-1.669217944,1.189031959,-1020.300049,3.900000095,-964.500061,-3.068828667,-0.435683429,0.040642378,DLL
12.43333333,-4.265955448,-0.231481329,8.365029335,-0.205793992,-1.676839948,2.012207985,-1027.5,5.100000381,-964.500061,-3.078719912,-0.462752928,0.028871013,DLL
12.46666667,-3.714467764,-0.349913627,7.989993572,-0.777444005,-1.676839948,1.760681987,-1020.300049,6.900000095,-976.500061,-3.0782679,-0.437489975,0.041001849,DLL
12.5,-4.051820278,-0.337352633,7.891898155,-2.134160042,-0.038109999,1.737815976,-1017.900024,8.700000763,-969.3000488,-3.082794676,-0.467082459,0.04421042,DLL
12.53333333,-4.447193146,-0.61668539,8.228652954,-1.509155989,1.547266006,2.042695999,-1025.100098,8.100000381,-959.7000122,-3.076833903,-0.491536587,0.069628514,DLL
12.56666667,-4.573999405,-1.211239576,8.668886185,-1.310984015,2.019829988,1.577754021,-1017.900024,5.700000286,-964.500061,-3.054650498,-0.486767131,0.125789932,DLL
12.6,-5.412595749,-1.296175838,9.145008087,-0.746955991,0.678357959,1.028970003,-1027.5,5.100000381,-971.7000122,-3.051425855,-0.523982138,0.138560521,DLL
12.63333333,-5.25947094,-1.388289809,8.256765366,-0.350611985,-0.228659987,0.678357959,-1022.700012,10.5,-971.7000122,-3.041631668,-0.554142559,0.161370131,DLL
12.66666667,-5.589645863,-1.132882833,8.371608734,0.060975999,-0.114329994,0.556405962,-1015.500061,3.300000191,-966.9000244,-3.054440078,-0.578392353,0.13942463,DLL
12.7,-4.834789753,-1.252511382,7.380486012,0.038109999,-0.205793992,0.785066009,-1022.700012,5.700000286,-974.1000366,-3.043888097,-0.574367346,0.161557648,DLL
12.73333333,-5.308518887,-0.870896161,8.232839584,0.449698001,-0.823175967,1.006103992,-1020.300049,6.900000095,-978.9000244,-3.071459343,-0.570061004,0.113742424,DLL
12.76666667,-5.37251997,-1.266866803,8.513967514,1.036592007,-1.486289978,1.8292799,-1010.700012,11.10000038,-969.3000488,-3.060969408,-0.558279054,0.138708442,DLL
12.8,-4.698412895,-1.55576992,7.31887722,0.487807989,-2.317087889,0.205793992,-1034.700073,9.900000572,-976.500061,-3.0314742,-0.557262569,0.195519883,DLL
12.83333333,-5.704489708,-1.086227655,9.033753395,0.685979962,-1.935987949,0.640248001,-1027.5,9.900000572,-976.500061,-3.065422091,-0.557156352,0.133246925,DLL
12.86666667,-4.373621464,-1.241146684,7.831485748,1.592997909,-2.317087889,1.280496001,-1029.900024,4.5,-974.1000366,-3.058631362,-0.51118944,0.149214622,DLL
12.9,-4.801891804,-1.280025959,8.233437538,1.463423967,-2.06556201,1.021348,-1032.300049,11.10000038,-966.9000244,-3.059236746,-0.518116257,0.150164674,DLL
12.93333333,-4.59852314,-1.302157283,8.036050797,1.143299937,-1.463423967,0.678357959,-1046.700073,12.30000019,-964.500061,-3.056707948,-0.513042549,0.156323775,DLL
12.96666667,-4.8312006,-1.171163917,8.426039696,0.891773999,-1.097568035,0.411587983,-1039.5,5.700000286,-971.7000122,-3.064812932,-0.514373577,0.140099545,DLL
13.0,-4.434033871,-0.961813927,8.394936562,0.777444005,-1.250007987,0.457319975,-1032.300049,7.500000477,-964.500061,-3.075946362,-0.487894984,0.117711666,DLL
13.03333333,-4.91852951,-0.593357801,9.02358532,1.089946032,-0.594515979,0.670735955,-1049.100098,12.30000019,-964.500061,-3.096801245,-0.49544096,0.074148442,DLL
13.06666667,-3.911854982,-0.441429526,8.115005493,0.632625997,-0.381099999,0.228659987,-1027.5,6.300000191,-954.9000244,-3.104421877,-0.457551844,0.057202878,DLL
13.1,-4.53512001,0.188415036,8.531312943,0.754577994,0.579271972,0.663114011,-1027.5,4.5,-954.9000244,-3.134735994,-0.483683133,-0.008365681,DLL
13.13333333,-3.322086096,0.033496007,8.696400642,0.983237982,1.486289978,1.135677934,-1039.5,13.50000095,-978.9000244,-3.135496131,-0.390947426,-0.006786008,DLL
13.16666667,-2.993107319,-0.012561003,8.150296211,1.036592007,0.350611985,0.091463998,-1032.300049,5.100000381,-969.3000488,-3.132918519,-0.360301022,-0.001603364,DLL
13.2,-3.895705223,0.461766362,8.631202698,1.577754021,0.670735955,-0.785066009,-1034.700073,7.500000477,-978.9000244,3.137103945,-0.41175793,-0.044521345,DLL
13.23333333,-3.846059322,0.333763778,9.066053391,1.349093914,0.388722003,-0.678357959,-1037.100098,6.900000095,-971.7000122,-3.141589901,-0.403729031,-0.039828645,DLL
13.26666667,-3.794020891,0.259594053,9.540380478,-0.152439997,-0.960371971,-1.600619912,-1029.900024,3.300000191,-974.1000366,-3.13378383,-0.381908513,-0.028419015,DLL
13.3,-3.455471992,0.086132586,8.632997513,-0.91463995,-1.562510014,-1.55488801,-1029.900024,9.300000191,-969.3000488,-3.124907607,-0.378825913,-0.011540223,DLL
13.33333333,-4.03866148,-0.075366013,9.095960617,-1.105189919,-0.381099999,-0.815553963,-1027.5,8.100000381,-971.7000122,-3.117308982,-0.409460324,0.006256809,DLL
13.36666667,-3.972865582,-0.206359327,9.12586689,-1.196653962,0.106707998,-0.099086002,-1037.100098,1.5,-971.7000122,-3.112302556,-0.410447072,0.021041414,DLL
13.4,-3.181522369,-0.695042133,8.053397179,-1.371959925,0.038109999,0.045731999,-1032.300049,8.700000763,-971.7000122,-3.092773659,-0.382317914,0.075025468,DLL
13.43333333,-4.65474844,-0.177050322,8.758607864,-1.036592007,2.347575903,0.160062,-1037.100098,6.300000191,-978.9000244,-3.111171169,-0.470391604,0.033206354,DLL
13.46666667,-5.231358528,-0.918149471,9.206616402,-0.93750596,3.963439941,2.400929928,-1029.900024,8.700000763,-974.1000366,-3.091900625,-0.511596254,0.085521384,DLL
13.5,-4.704992771,-1.907477975,8.275307655,-2.57623601,3.68142581,2.225623846,-1029.900024,13.50000095,-964.500061,-3.041687016,-0.513424108,0.200594549,DLL
13.53333333,-4.97056818,-1.878767014,7.610173225,-2.76678586,3.094532013,2.324709892,-998.7000122,9.900000572,-974.1000366,-3.029993734,-0.559674328,0.236045077,DLL
13.56666667,-5.627927303,-1.810578823,7.336223602,-1.059458017,2.957335949,2.36281991,-1003.500061,6.900000095,-969.3000488,-3.031836399,-0.628709058,0.240703098,DLL
13.6,-5.579477787,-1.919440746,7.324858665,0.129574001,2.294221878,1.646351933,-991.500061,8.700000763,-957.3000488,-3.026872652,-0.637678351,0.252226138,DLL
13.63333333,-6.099862099,-1.388888001,7.44628191,0.983237982,0.990859985,0.647870004,-1013.100037,11.70000076,-954.9000244,-3.061586815,-0.672990819,0.194185721,DLL
13.66666667,-6.412092686,-1.446907878,8.01391983,1.440557957,0.396344006,0.838419974,-1008.300049,11.70000076,-959.7000122,-3.070373028,-0.668973705,0.178911402,DLL
13.7,-6.431233406,-1.189108253,8.432620049,1.074702024,-0.571649969,0.602137983,-996.3000488,5.700000286,-964.500061,-3.090529919,-0.650682655,0.145580521,DLL
13.73333333,-6.095674992,-0.717173398,7.354765892,0.899396002,-1.166165948,0.556405962,-1003.500061,14.70000076,-969.3000488,-3.116561271,-0.681684489,0.103459063,DLL
13.76666667,-5.707480431,-0.504234552,7.628715515,0.907018006,-1.394825935,0.472563982,-1003.500061,13.50000095,-969.3000488,-3.136061925,-0.64759286,0.071480902,DLL
13.8,-5.327061176,-0.024523862,8.004947662,0.83079797,-2.57623601,0.746955991,-998.7000122,12.90000057,-966.9000244,3.113425121,-0.595998871,0.014439108,DLL
13.83333333,-5.228367805,0.493467957,7.345793724,1.105189919,-3.033555984,1.471045971,-1017.900024,9.300000191,-964.500061,3.072606686,-0.609503632,-0.055216717,DLL
13.86666667,-5.20324564,0.012561003,8.575575829,-0.076219998,-2.46952796,2.736297846,-1010.700012,3.900000095,-957.3000488,3.089952244,-0.554892236,-0.014226421,DLL
13.9,-4.383191586,-0.268566191,8.49123764,-1.455801964,-3.765267849,1.753059983,-1008.300049,10.5,-974.1000366,3.103428894,-0.487032143,0.023310687,DLL
13.93333333,-4.054811001,-0.310436189,8.491835594,-2.675322056,-5.23631382,1.844523907,-1020.300049,11.10000038,-971.7000122,3.101972009,-0.444726535,0.036783674,DLL
13.96666667,-3.720449209,-0.389989227,8.645558357,-2.743919849,-4.512223721,1.63872993,-1039.5,10.5,-966.9000244,3.099385815,-0.407627425,0.046098793,DLL
14.0,-3.372928143,-0.541917503,8.897377014,-1.692083955,-2.934469938,1.935987949,-1029.900024,9.900000572,-950.1000366,3.098369281,-0.367059378,0.059088714,DLL
14.03333333,-2.946452379,-0.441429526,8.24659729,0.274392009,-1.791170001,1.600619912,-1034.700073,12.30000019,-969.3000488,3.092922474,-0.345243684,0.053349438,DLL
14.06666667,-3.124698877,-0.712388277,8.490639687,0.838419974,-0.495429993,1.432935953,-1037.100098,16.5,-974.1000366,3.098013342,-0.349718172,0.07566494,DLL
14.1,-3.463247776,-0.949252903,8.532509804,0.685979962,-0.121951997,0.541162014,-1039.5,8.700000763,-962.1000366,3.107249039,-0.377711442,0.103519097,DLL
14.13333333,-4.416687489,-0.631639004,9.476977348,0.457319975,-0.419209987,0.579271972,-1044.300049,20.70000076,-966.9000244,3.094510722,-0.423197672,0.073168155,DLL
14.16666667,-4.564428806,-0.715977132,9.502099037,0.449698001,-0.381099999,1.905499935,-1034.700073,9.300000191,-957.3000488,3.090801657,-0.441635248,0.072912111,DLL
14.2,-4.001576424,-0.943271458,8.887805939,-1.371959925,-0.548784018,1.204275966,-1041.900024,14.70000076,-976.500061,3.098399573,-0.424297297,0.1006837,DLL
14.23333333,-4.686450005,-0.663938701,8.504396439,-1.303362012,-0.190549999,1.631107926,-1034.700073,19.5,-969.3000488,3.086036068,-0.486590924,0.083357183,DLL
14.26666667,-4.017127991,-1.32727921,7.81114912,-1.478667974,0.335367978,1.806414008,-1032.300049,14.10000038,-962.1000366,3.113749772,-0.473059402,0.15588488,DLL
14.3,-4.382593632,-1.22380054,8.303421021,-1.181409955,-0.106707998,1.326228023,-1029.900024,12.90000057,-974.1000366,3.106437926,-0.479810757,0.148851633,DLL
14.33333333,-4.892809391,-1.171762109,8.873451233,0.312501997,-0.137196004,1.42531395,-1037.100098,11.70000076,-959.7000122,3.096049776,-0.496934368,0.13270008,DLL
14.36666667,-4.354480743,-1.557564259,8.1754179,0.625003994,-0.266770005,0.929883957,-1029.900024,12.30000019,-962.1000366,3.115710644,-0.484507357,0.177357698,DLL
14.4,-5.028587818,-1.308138728,8.731093407,1.394825935,0.282013983,-0.457319975,-1034.700073,11.10000038,-969.3000488,3.106342452,-0.512501238,0.151973286,DLL
14.43333333,-4.331153393,-1.633528471,8.343496323,1.981719971,0.464941978,-1.288118005,-1046.700073,16.5,-966.9000244,3.12725219,-0.478518545,0.184721247,DLL
14.46666667,-3.041557074,-2.452984333,8.752626419,3.521363974,-0.259148002,-5.312533855,-1034.700073,15.90000057,-969.3000488,-3.113680493,-0.352690058,0.254543885,DLL
14.5,-4.033277988,-1.734614611,8.723317146,5.160093784,-0.030487999,-9.321705818,-1034.700073,7.500000477,-976.500061,-3.10732097,-0.409020613,0.205652561,DLL
14.53333333,-4.014735699,-1.503731489,8.328542709,6.783579826,-0.312501997,-11.91318607,-1041.900024,9.300000191,-966.9000244,-3.084537043,-0.433230567,0.181343113,DLL
14.56666667,-5.223582745,-0.662742436,7.652641296,7.157057762,2.134160042,-13.09459591,-1041.900024,14.70000076,-974.1000366,-3.085014995,-0.564908401,0.107907345,DLL
14.6,-4.780956745,-0.741697311,8.194559097,6.371991634,2.454283953,-11.45586586,-1039.5,8.100000381,-974.1000366,-3.061392569,-0.535952821,0.094723927,DLL
14.63333333,-4.877257824,-0.21772404,8.21609211,5.990891933,2.25611186,-9.870490074,-1049.100098,1.5,-974.1000366,-3.060748649,-0.538282685,0.037154577,DLL
14.66666667,-5.007054806,0.105273165,8.041434288,5.396375656,2.59910202,-7.713463783,-1034.700073,-2.700000048,-971.7000122,-3.060333729,-0.556729249,-0.003798408,DLL
14.7,-5.066869259,0.269164324,9.879527092,4.679907799,1.471045971,-6.486321926,-1044.300049,3.300000191,-976.500061,-3.052241191,-0.492692232,-0.024105262,DLL
14.73333333,-4.292871952,0.568833947,8.262148857,4.382649899,1.150921941,-5.838451862,-1034.700073,-6.300000191,-976.500061,-3.052850842,-0.482931908,-0.062741604,DLL
14.76666667,-4.621252537,0.704612434,8.337514877,3.300325871,1.684461951,-4.268320084,-1029.900024,-2.100000143,-978.9000244,-3.049461657,-0.503336714,-0.081693981,DLL
14.8,-4.061390877,0.330773056,8.443984032,2.507637978,1.34147191,-3.391789913,-1020.300049,-4.5,-976.500061,-3.023266701,-0.459600848,-0.047261959,DLL
14.83333333,-3.892116308,-0.092114016,8.289663315,1.615863919,0.647870004,-3.864353895,-1025.100098,-3.300000191,-990.9000244,-2.993117773,-0.444225077,-0.000201125,DLL
14.86666667,-4.153504848,-0.491075367,8.065360069,1.265251994,0.990859985,-3.68142581,-1032.300049,-2.100000143,-974.1000366,-2.962358925,-0.470001623,0.049166645,DLL
14.9,-4.766601563,-0.477318078,8.478078842,1.250007987,1.333850026,-3.125020027,-1022.700012,-2.100000143,-976.500061,-2.951569491,-0.504766779,0.055438543,DLL
14.93333333,-5.100963116,-0.432457358,8.597108841,1.577754021,1.524399996,-1.463423967,-1020.300049,-4.5,-976.500061,-2.949200366,-0.530882993,0.050351165,DLL
14.96666667,-4.911950111,-0.814670742,8.447572708,1.067080021,1.105189919,-0.91463995,-1017.900024,0.300000012,-976.500061,-2.927855488,-0.527455436,0.086276448,DLL
15.0,-5.027989864,-0.906784773,8.29145813,0.785066009,1.082324028,-0.967993975,-1027.5,-7.500000477,-974.1000366,-2.91572836,-0.540846977,0.104126176,DLL
15.03333333,-4.632019043,-1.35778451,8.135940552,1.204275966,1.371959925,-1.089946032,-1015.500061,-6.300000191,-974.1000366,-2.886858735,-0.519084289,0.153278269,DLL
15.06666667,-5.209825516,-1.157406688,7.904459476,2.454283953,1.189031959,-1.859767914,-1010.700012,-5.100000381,-962.1000366,-2.883773035,-0.568676806,0.145104489,DLL
15.1,-6.061580658,-1.601826906,8.324356079,2.606724024,1.387203932,-1.04421401,-1015.500061,-8.100000381,-966.9000244,-2.859523105,-0.612021789,0.178312734,DLL
15.13333333,-5.325266838,-1.829719305,7.400224686,1.250007987,0.853663981,-1.196653962,-1008.300049,0.300000012,-969.3000488,-2.826162678,-0.611222243,0.229083696,DLL
15.16666667,-5.668601036,-1.320699692,8.295046806,0.80793196,0.007622,-0.182927996,-1003.500061,-5.700000286,-974.1000366,-2.857671374,-0.597377083,0.171148878,DLL
15.2,-5.092589378,-1.108957052,8.089883804,1.44817996,-0.548784018,0.72408998,-1010.700012,-4.5,-978.9000244,-2.874260501,-0.565085487,0.140400154,DLL
15.23333333,-5.395847797,-0.71298641,7.554545879,1.455801964,-0.289635986,1.089946032,-1010.700012,-4.5,-966.9000244,-2.897887787,-0.609596407,0.098382954,ST
15.26666667,-5.550766945,-0.693247676,7.917020321,1.074702024,0.396344006,1.722571969,-1008.300049,-15.30000019,-974.1000366,-2.906485435,-0.610434449,0.086431555,ST
15.3,-5.822921753,-0.235070184,8.113211632,0.510674,-0.007622,1.989341974,-1001.100037,-8.700000763,-969.3000488,-2.937527647,-0.620194846,0.037956164,ST
15.33333333,-5.810360909,-0.183629885,8.238223076,0.335367978,-0.571649969,2.347575903,-1003.500061,-3.900000095,-981.3000488,-2.950387744,-0.614671907,0.022636004,ST
15.36666667,-5.496933937,-0.280529052,8.538491249,0.365855992,-0.670735955,2.187514067,-1017.900024,-8.100000381,-976.500061,-2.950937088,-0.579553225,0.028281498,ST
15.4,-4.866491318,0.245238617,8.296841621,0.007622,-2.027451992,1.089946032,-996.3000488,-8.700000763,-978.9000244,-2.97817342,-0.537523368,-0.019102681,ST
15.43333333,-4.142738342,0.697434723,7.407402515,-0.495429993,-2.408551931,1.303362012,-1010.700012,-5.700000286,-976.500061,-3.01218748,-0.509977273,-0.080921621,ST
15.46666667,-4.409510136,1.189108253,8.140726089,-0.457319975,-1.295740008,2.820139885,-1022.700012,-5.100000381,-971.7000122,-3.044469354,-0.493052556,-0.135083547,ST
15.5,-4.131971836,0.994711757,8.33272934,-0.342989981,-1.097568035,3.178373814,-1025.100098,-5.700000286,-969.3000488,-3.046007229,-0.461744413,-0.123385896,ST
15.53333333,-4.350293636,1.037179947,8.716737747,-0.434453994,-0.754577994,2.416173935,-1017.900024,-10.5,-966.9000244,-3.049892581,-0.458983351,-0.120416501,ST
15.56666667,-4.42924881,1.093405366,8.820216179,-0.388722003,-0.442075998,2.507637978,-1022.700012,-7.500000477,-969.3000488,-3.057415913,-0.460685368,-0.124033957,ST
15.6,-4.252198219,0.939682603,9.40340519,-0.701223969,-1.539644003,1.806414008,-1020.300049,-11.70000076,-978.9000244,-3.053097732,-0.428059155,-0.10454532,ST
15.63333333,-3.922023535,0.643601835,8.5588274,-1.676839948,-1.951231956,1.196653962,-1022.700012,-5.700000286,-981.3000488,-3.046375531,-0.425679497,-0.079318691,ST
15.66666667,-4.143336296,0.392381787,8.304018974,-2.964957952,-1.074702024,0.716467977,-1027.5,-2.700000048,-974.1000366,-3.038119197,-0.453853549,-0.04964065,ST
15.7,-4.386780739,0.06041244,9.278393745,-3.117398024,-0.198172003,0.457319975,-1032.300049,-2.100000143,-964.500061,-3.025458678,-0.443864927,-0.011124128,ST
15.73333333,-3.712673426,-0.437840641,7.957694054,-2.804895878,0.083841994,0.457319975,-1022.700012,0.300000012,-969.3000488,-3.00508754,-0.437825229,0.045295138,ST
15.76666667,-4.075148106,-0.904990315,7.516862869,-2.317087889,1.242385983,0.40396598,-1032.300049,0.900000036,-981.3000488,-2.979419232,-0.486394155,0.110166575,ST
15.8,-4.700207233,-1.35778451,8.044425011,-1.981719971,2.08842802,0.091463998,-1022.700012,0.300000012,-964.500061,-2.95796232,-0.518379388,0.158469484,ST
15.83333333,-4.758227348,-1.806989908,8.172427177,-1.303362012,2.103672028,-0.327746004,-1008.300049,-0.300000012,-974.1000366,-2.932351276,-0.520198898,0.210211144,ST
15.86666667,-5.008849144,-2.027106524,7.700492382,-1.051836014,0.80793196,-1.097568035,-1020.300049,-4.5,-971.7000122,-2.909596633,-0.555387919,0.251964009,ST
15.9,-5.666208267,-1.729829431,8.210110664,-0.495429993,0.746955991,-0.769822001,-1020.300049,1.5,-978.9000244,-2.926622929,-0.587062645,0.218325819,ST
15.93333333,-5.08301878,-1.649080157,7.469609261,0.0,0.495429993,-0.053353999,-1017.900024,3.900000095,-978.9000244,-2.926695612,-0.587268031,0.217643344,ST
15.96666667,-5.532822609,-1.611397147,9.009827614,1.036592007,1.76830399,0.152439997,-1005.900024,0.900000036,-966.9000244,-2.943354034,-0.555016228,0.183710256,ST
16.0,-5.94015789,-0.737510264,8.755617142,2.324709892,1.570132017,0.365855992,-1015.500061,6.300000191,-969.3000488,-2.986640897,-0.590099185,0.098732402,ST
16.03333333,-6.202742577,0.029309006,8.869263649,2.835383892,0.647870004,1.836901903,-991.500061,-8.100000381,-962.1000366,-3.037507739,-0.608297775,0.008089971,ST
16.06666667,-4.61766386,-0.337352633,6.519160271,1.250007987,-0.632625997,2.248489857,-1008.300049,-3.900000095,-964.500061,-3.022265144,-0.61356253,0.039359398,ST
16.1,-5.172740459,0.001794429,7.75492382,-0.967993975,-1.303362012,1.806414008,-1010.700012,-2.700000048,-969.3000488,-3.046374572,-0.590710231,0.005917667,ST
16.13333333,-4.785741806,0.360680223,7.546770096,-2.248489857,-1.875011921,2.530503988,-1008.300049,3.300000191,-969.3000488,-3.077065872,-0.567332923,-0.036194904,ST
16.16666667,-4.996886253,0.375633776,8.54686451,-2.675322056,-2.073184013,3.567095995,-1001.100037,-1.5,-988.500061,-3.089952268,-0.533350334,-0.041615668,ST
16.2,-4.924510956,0.013757288,8.691615105,-3.155508041,-2.36281991,4.672286034,-1013.100037,3.900000095,-969.3000488,-3.087082847,-0.514752019,-0.007116007,ST
16.23333333,-4.288086891,0.019140575,8.263344765,-2.804895878,-1.547266006,4.21496582,-1005.900024,-0.300000012,-974.1000366,-3.097118527,-0.48287157,-0.002390426,ST
16.26666667,-4.621252537,0.014953574,9.375292778,-1.730193973,-0.335367978,3.932951927,-1022.700012,4.5,-969.3000488,-3.106872099,-0.462503884,-0.00212421,ST
16.3,-2.98652792,-0.553880394,7.473198414,-0.61738199,0.167683989,1.707327962,-1010.700012,7.500000477,-978.9000244,-3.085390453,-0.395607629,0.059801995,ST
16.33333333,-3.995594978,-0.489879102,8.147903442,-0.358233988,0.304879993,0.076219998,-1020.300049,8.700000763,-962.1000366,-3.085598886,-0.445008818,0.060490237,ST
16.36666667,-4.742077351,-0.611302137,8.531910896,0.121951997,-0.342989981,-0.61738199,-1010.700012,5.700000286,-971.7000122,-3.080173688,-0.493334091,0.069501748,ST
16.4,-4.582373142,-0.596348524,8.39732933,0.602137983,-0.228659987,-0.586893976,-1020.300049,5.700000286,-964.500061,-3.077786938,-0.497268972,0.070244283,ST
16.43333333,-4.622448921,-0.781174719,8.828590393,1.143299937,-0.228659987,-0.259148002,-998.7000122,-0.300000012,-976.500061,-3.069660287,-0.483341843,0.083610287,ST
16.46666667,-4.094288826,-1.158602953,8.698195457,3.323191881,1.562510014,-1.714949965,-1022.700012,-0.900000036,-966.9000244,-3.046284535,-0.448013129,0.11948138,ST
16.5,-5.111131668,-0.832615018,8.942835808,4.771371841,2.896359921,-2.096050024,-1017.900024,0.300000012,-969.3000488,-3.048073792,-0.508822557,0.092681929,ST
16.53333333,-4.95142746,-0.963608325,7.655632019,4.527467728,3.231727839,-1.935987949,-1015.500061,-3.300000191,-964.500061,-3.027359259,-0.562333096,0.114025135,ST
16.56666667,-5.802585125,-0.601133704,8.011527061,2.888737917,2.637212038,-1.646351933,-996.3000488,-3.300000191,-969.3000488,-3.038636303,-0.617826881,0.079822926,ST
16.6,-6.712360382,-0.704014301,8.400320053,2.263733864,1.463423967,-0.228659987,-1001.100037,-2.100000143,-969.3000488,-3.034532833,-0.664772355,0.080018915,ST
16.63333333,-6.260164261,-0.776987731,7.760905266,0.998481989,0.205793992,0.586893976,-1003.500061,-5.700000286,-978.9000244,-3.02560649,-0.674385315,0.093747384,ST
16.66666667,-6.085506439,-0.707603157,7.738175392,-0.099086002,-0.868907988,0.388722003,-996.3000488,-5.100000381,-969.3000488,-3.02829529,-0.664742744,0.091195315,ST
16.7,-5.860604763,-0.689060688,7.583256721,-0.274392009,-1.600619912,0.42683199,-1008.300049,-0.900000036,-971.7000122,-3.030146109,-0.655568376,0.09050114,ST
16.73333333,-5.290574551,-0.443223953,7.252483368,-0.289635986,-2.57623601,0.464941978,-993.9000244,-3.900000095,-978.9000244,-3.046092856,-0.631143493,0.066620555,ST
16.76666667,-6.062777042,-0.412120521,8.106033325,0.274392009,-2.553369999,0.93750596,-1015.500061,-4.5,-974.1000366,-3.056086487,-0.635991211,0.05252187,ST
16.8,-5.541794777,-0.598142982,8.11859417,-0.205793992,-2.721053839,1.326228023,-1003.500061,-2.100000143,-981.3000488,-3.050048639,-0.601769899,0.06822149,ST
16.83333333,-4.555456638,-0.467149675,7.986404896,-0.945127964,-3.208861828,1.028970003,-1003.500061,-0.300000012,-962.1000366,-3.057708847,-0.530238769,0.060583513,ST
16.86666667,-4.975951195,-0.360680223,8.853712082,0.053353999,-2.416173935,0.137196004,-1013.100037,-9.300000191,-983.7000122,-3.06622358,-0.51207402,0.044413478,ST
16.9,-4.580578804,0.056225438,9.473986626,1.120433927,-1.63872993,-0.099086002,-1025.100098,-8.700000763,-978.9000244,-3.085141274,-0.458409736,0.000729367,ST
16.93333333,-3.843666792,0.377428204,8.489442825,1.760681987,-1.42531395,-1.097568035,-1020.300049,-4.5,-974.1000366,-3.097532706,-0.428841958,-0.038225829,ST
16.96666667,-3.283206701,0.538328648,7.93137598,1.974097967,-1.280496001,-1.532021999,-1029.900024,-2.100000143,-993.3000488,-3.102525079,-0.396616348,-0.064399147,ST
17.0,-3.482388496,0.513804793,7.939151764,2.385685921,-0.960371971,-1.890255928,-1027.5,-3.300000191,-966.9000244,-3.096803719,-0.408546501,-0.066815537,ST
17.03333333,-3.592446804,-0.015551717,7.96846056,1.295740008,-0.823175967,-2.23324585,-1037.100098,-9.300000191,-966.9000244,-3.068929404,-0.419650979,-0.012418956,ST
17.06666667,-4.051820278,-0.117834166,9.24190712,0.93750596,-0.609759986,-2.240867853,-1017.900024,-3.300000191,-978.9000244,-3.054316632,-0.413370481,0.008609467,ST
17.1,-4.747460842,0.001196286,9.65163517,1.943609953,-0.480185986,-2.225623846,-1022.700012,-3.900000095,-974.1000366,-3.050922291,-0.448620985,0.000159868,ST
17.13333333,-5.640488148,-0.191405743,10.27071285,2.309465885,0.411587983,-1.257629991,-1034.700073,-5.100000381,-974.1000366,-3.039607277,-0.493756845,0.013033225,ST
17.16666667,-4.11821413,-0.242846042,8.688026428,0.960371971,0.40396598,-1.44817996,-1034.700073,-5.700000286,-971.7000122,-3.030107259,-0.452758188,0.024866031,ST
17.2,-3.594839334,-0.18482618,7.865580082,0.907018006,0.251525998,-2.012207985,-1017.900024,-4.5,-978.9000244,-3.025458648,-0.43373749,0.023829925,ST
17.23333333,-4.301246166,-0.319408357,7.991788387,1.577754021,1.318606019,-2.347575903,-1041.900024,-6.900000095,-981.3000488,-3.012912781,-0.484545567,0.036455756,ST
17.26666667,-4.085316658,-0.699827254,7.775260448,0.586893976,1.150921941,-2.728675842,-1034.700073,0.300000012,-986.1000366,-2.986182737,-0.484071986,0.080276783,ST
17.3,-4.131373405,-0.713584542,7.52882576,-0.114329994,0.373477995,-2.515259981,-1020.300049,-12.90000057,-981.3000488,-2.974833578,-0.49699636,0.093673255,ST
17.33333333,-4.94424963,-0.72016412,7.945731163,0.106707998,0.381099999,-1.577754021,-1032.300049,-7.500000477,-976.500061,-2.972211661,-0.543462606,0.092243658,ST
17.36666667,-5.979635239,-0.890036762,9.459033012,0.785066009,1.509155989,0.373477995,-1020.300049,0.900000036,-978.9000244,-2.971743555,-0.560202332,0.09220076,ST
17.4,-4.456763268,-0.871494293,7.610771179,0.42683199,0.83079797,0.586893976,-1034.700073,-5.700000286,-969.3000488,-2.963527802,-0.534512158,0.108930014,NLL
17.43333333,-5.528635502,-0.403746516,9.481163979,1.067080021,-0.29725799,0.678357959,-1015.500061,-11.10000038,-966.9000244,-2.991597378,-0.528757418,0.053839587,NLL
17.46666667,-4.335340023,-0.46595338,7.545573711,1.524399996,-0.442075998,0.815553963,-1020.300049,-8.700000763,-983.7000122,-2.989771574,-0.521759741,0.057303508,NLL
17.5,-4.908361435,-0.425279647,7.614958286,0.922261953,-0.038109999,0.83079797,-1032.300049,-2.100000143,-971.7000122,-2.992056593,-0.56290658,0.054005114,NLL
17.53333333,-4.771386623,-0.404942781,7.708268642,-0.685979962,0.411587983,0.678357959,-1025.100098,-0.300000012,-986.1000366,-2.994825956,-0.555855736,0.053140147,NLL
17.56666667,-5.407810688,0.167480037,7.789017677,-1.692083955,-0.472563982,1.089946032,-1010.700012,-7.500000477,-983.7000122,-3.032382694,-0.597791466,-0.00713473,NLL
17.6,-6.202742577,0.032897864,9.662401199,-2.400929928,-0.83079797,2.949713945,-1013.100037,-6.300000191,-976.500061,-3.039083894,-0.574973767,-0.003510519,NLL
17.63333333,-5.403623581,-0.252416342,8.928480148,-3.27745986,-2.713431835,3.856731892,-1015.500061,-6.300000191,-964.500061,-3.036500431,-0.546627042,0.023132827,NLL
17.66666667,-4.514184952,-0.105273165,8.32196331,-4.13112402,-3.765267849,4.474113941,-1022.700012,-4.5,-959.7000122,-3.053916151,-0.501211322,0.016770713,NLL
17.7,-4.329957008,0.122619309,7.375102997,-4.367405891,-3.833865881,4.916189671,-1029.900024,-5.700000286,-964.500061,-3.080633529,-0.519570589,-0.007528388,NLL
17.73333333,-4.264759541,0.176452175,8.583950043,-4.283564091,-3.193617821,6.425345898,-1032.300049,-1.5,-983.7000122,-3.103189866,-0.467501544,-0.016859691,NLL
17.76666667,-3.107950926,-0.366063505,6.789520741,-4.32167387,-3.346057892,6.981751919,-1017.900024,-6.900000095,-969.3000488,-3.096859457,-0.432268307,0.041126288,NLL
17.8,-4.573400974,-0.130395174,9.293347359,-5.099117756,-2.736297846,8.056453705,-1039.5,6.900000095,-981.3000488,-3.127293199,-0.44877334,0.021300585,NLL
17.83333333,-4.538708687,-0.915158749,10.46989441,-5.30491209,-3.422277927,9.969575882,-1046.700073,0.300000012,-981.3000488,-3.131134481,-0.412111436,0.075070877,NLL
17.86666667,-3.057108641,-1.135275364,8.783131599,-6.646383762,-5.114361763,8.483285904,-1051.5,8.100000381,-976.500061,-3.140587229,-0.338904321,0.125055318,NLL
17.9,-3.576894999,-1.031198502,9.711449623,-5.472595692,-3.51374197,8.757678032,-1051.5,9.900000572,-971.7000122,3.114473126,-0.345204853,0.112788331,NLL
17.93333333,-2.634221554,-1.798615932,8.62582016,-2.789651871,-0.853663981,7.682975769,-1058.700073,6.900000095,-978.9000244,3.119336465,-0.302335252,0.187494532,NLL
17.96666667,-2.786149979,-1.763923645,8.625221252,-1.867389917,0.40396598,5.274424076,-1056.300049,13.50000095,-966.9000244,3.110357623,-0.307640814,0.199217733,NLL
18.0,-3.820937395,-1.417598844,9.028967857,-0.929883957,1.036592007,3.559473991,-1049.100098,3.900000095,-978.9000244,3.090655165,-0.38052809,0.164368861,NLL
18.03333333,-4.237843037,-1.577303052,9.599596977,0.137196004,1.112811923,1.95885396,-1061.100098,13.50000095,-959.7000122,3.086114983,-0.406697019,0.161946293,NLL
18.06666667,-4.553064346,-1.702913046,8.912330627,0.884151995,0.739333987,0.655492008,-1041.900024,9.300000191,-983.7000122,3.094119209,-0.45451087,0.181686592,NLL
18.1,-4.051222324,-1.808784366,8.306411743,0.685979962,0.221037999,0.030487999,-1037.100098,11.70000076,-957.3000488,3.105819157,-0.447045443,0.206898491,NLL
18.13333333,-4.378406525,-1.481600165,8.327944756,2.179892063,0.693601966,-1.23476398,-1046.700073,6.900000095,-978.9000244,3.098935888,-0.473514964,0.178771933,NLL
18.16666667,-4.03148365,-1.28720367,7.317681313,3.079288006,2.210379839,-1.699705958,-1034.700073,12.30000019,-978.9000244,3.103421772,-0.49499976,0.172289829,NLL
18.2,-4.109242439,-1.145443797,7.674772263,3.422277927,2.210379839,-2.629590034,-1041.900024,9.300000191,-964.500061,3.102934636,-0.491045503,0.150106702,NLL
18.23333333,-5.068663597,-0.71298641,8.315981865,4.451247692,2.149404049,-3.185995817,-1032.300049,9.900000572,-964.500061,3.087797429,-0.539292798,0.093035885,NLL
18.26666667,-5.609982967,-0.441429526,9.481761932,4.679907799,2.530503988,-2.530503988,-1032.300049,-2.100000143,-974.1000366,3.077407381,-0.538255164,0.051572885,NLL
18.3,-5.559140682,-0.200976044,9.058875084,3.932951927,1.585376024,-2.522881985,-1041.900024,6.900000095,-974.1000366,3.073341545,-0.549985234,0.02482738,NLL
18.33333333,-4.42207098,0.294884473,7.854215145,2.606724024,1.211897969,-2.477149963,-1032.300049,11.10000038,-976.500061,3.054689547,-0.521096961,-0.02828125,NLL
18.36666667,-4.074550152,0.466551512,8.181399345,2.286599874,1.196653962,-2.705809832,-1034.700073,0.900000036,-966.9000244,3.050981982,-0.475315612,-0.052548928,NLL
18.4,-4.02430582,0.388194799,8.412282944,2.553369999,1.204275966,-2.919225931,-1029.900024,5.100000381,-969.3000488,3.061096347,-0.453624711,-0.048966065,NLL
18.43333333,-3.400442839,0.54131937,7.845242977,2.934469938,0.647870004,-3.62045002,-1025.100098,-1.5,-983.7000122,3.063909908,-0.418519876,-0.066739475,NLL
18.46666667,-4.40293026,0.810483754,8.867469788,3.582340002,0.663114011,-4.260697842,-1029.900024,-1.5,-981.3000488,3.067259274,-0.452920375,-0.088720897,NLL
18.5,-3.886733055,0.719565988,8.472097397,3.201239824,0.647870004,-4.542711735,-1029.900024,-5.100000381,-981.3000488,3.081212275,-0.434568284,-0.086996126,NLL
18.53333333,-4.521960735,0.715977132,9.169531822,2.522881985,1.265251994,-4.557955742,-1032.300049,0.900000036,-969.3000488,3.095818669,-0.454722192,-0.080317748,NLL
18.56666667,-4.044044495,0.104076877,8.548061371,1.570132017,0.739333987,-4.436003685,-1032.300049,7.500000477,-978.9000244,3.130547742,-0.44593377,-0.025060578,NLL
18.6,-4.600317478,-0.03229972,8.462526321,0.91463995,0.800309956,-4.489357948,-1013.100037,-3.900000095,-976.500061,-3.12981753,-0.49043175,0.000888702,NLL
18.63333333,-4.565027237,-0.244042337,8.283083916,0.769822001,1.310984015,-3.948195934,-1020.300049,0.900000036,-974.1000366,-3.10915793,-0.502647292,0.025608422,NLL
18.66666667,-4.399939537,-0.341539651,8.007938385,1.067080021,1.463423967,-3.658559799,-1008.300049,2.700000048,-983.7000122,-3.093282125,-0.504025685,0.04056003,NLL
18.7,-4.911352158,-0.766221166,8.148501396,0.365855992,1.85214591,-3.391789913,-1022.700012,2.100000143,-976.500061,-3.063671931,-0.535484897,0.085184906,NLL
18.73333333,-5.425755024,-0.924729049,8.717335701,0.015244,2.057940006,-3.041177988,-998.7000122,6.900000095,-959.7000122,-3.047428192,-0.552903978,0.104242881,NLL
18.76666667,-5.101561546,-1.492366672,9.320861816,2.035073996,2.423795938,-2.797273874,-998.7000122,-5.100000381,-959.7000122,-3.015773914,-0.508763782,0.148998282,NLL
18.8,-5.541196346,-1.811176896,8.797487259,3.033555984,1.44817996,-2.957335949,-1010.700012,-2.100000143,-978.9000244,-2.985177429,-0.545292681,0.190269869,NLL
18.83333333,-5.870773315,-1.555171728,7.988199234,3.612828016,0.960371971,-3.064043999,-1020.300049,-2.700000048,-988.500061,-2.974742684,-0.609380841,0.189774896,NLL
18.86666667,-5.721835613,-1.257894635,6.489253044,3.544229984,1.326228023,-1.867389917,-998.7000122,-5.100000381,-983.7000122,-2.966538959,-0.69505615,0.188424023,NLL
18.9,-5.534018993,-0.970786035,6.366633892,2.751541853,1.135677934,-0.899396002,-986.7000122,-2.100000143,-978.9000244,-2.981285839,-0.708285671,0.156296543,NLL
18.93333333,-6.081319809,-0.910971761,6.893597603,2.370441914,0.548784018,0.320124,-1001.100037,-9.300000191,-978.9000244,-2.993469625,-0.717349047,0.132840667,NLL
18.96666667,-6.710566044,-0.487486511,8.432620049,1.913121939,-0.007622,1.585376024,-1003.500061,-5.700000286,-959.7000122,-3.036304711,-0.679957529,0.06612946,NLL
19.0,-6.423457146,-0.624461234,8.40390873,1.303362012,-0.670735955,1.867389917,-984.3000488,-4.5,-974.1000366,-3.036301145,-0.656318451,0.068702973,NLL
19.03333333,-5.491550446,-0.714780867,7.186089516,0.571649969,-0.327746004,1.23476398,-996.3000488,-4.5,-966.9000244,-3.024302264,-0.651130912,0.090896013,ST
19.06666667,-6.008944511,0.052038439,8.552248001,0.868907988,-0.160062,1.074702024,-993.9000244,-8.700000763,-964.500061,-3.072723975,-0.620503894,0.010707361,ST
19.1,-5.522056103,0.379820794,7.670585632,1.166165948,-1.295740008,1.387203932,-1003.500061,-1.5,-981.3000488,-3.104731085,-0.621090246,-0.042439544,ST
19.13333333,-5.086009502,0.380418926,7.458842754,-0.236281991,-1.714949965,2.027451992,-991.500061,-14.10000038,-983.7000122,-3.114065734,-0.599124088,-0.051154998,ST
19.16666667,-5.246910095,1.071872234,8.549855232,-0.396344006,-0.685979962,2.530503988,-986.7000122,-8.700000763,-978.9000244,3.128892844,-0.554577168,-0.11442749,ST
19.2,-5.158983231,0.959421337,9.089979172,0.434453994,-1.089946032,2.660078049,-1001.100037,-6.900000095,-971.7000122,3.126864266,-0.520135412,-0.109655721,ST
19.23333333,-3.901088476,0.735117733,7.662211418,0.251525998,-1.966475964,1.714949965,-998.7000122,-7.500000477,-978.9000244,3.128782916,-0.476406882,-0.099880571,ST
19.26666667,-4.09488678,0.775791407,7.978629112,0.007622,-2.865871906,0.251525998,-1005.900024,-5.700000286,-971.7000122,3.129934839,-0.469093507,-0.097512896,ST
19.3,-4.356275082,0.399559498,8.203531265,-0.53354001,-2.484771967,-0.655492008,-1008.300049,-2.700000048,-971.7000122,-3.133676305,-0.480625541,-0.057274212,ST
19.33333333,-4.010548592,0.287706763,8.139529228,-1.196653962,-2.606724024,-0.846041977,-1010.700012,-8.100000381,-978.9000244,-3.123935377,-0.458648026,-0.037383159,ST
19.36666667,-4.45975399,0.297277063,8.708961487,-1.288118005,-2.751541853,-0.739333987,-1025.100098,-13.50000095,-974.1000366,-3.121315446,-0.46633861,-0.03240318,ST
19.4,-4.344312191,-0.047253296,8.976331711,-1.310984015,-1.920743942,0.198172003,-1017.900024,0.300000012,-971.7000122,-3.108906667,-0.451252504,-0.000584632,ST
19.43333333,-4.078138828,-0.511412263,8.953003883,-1.493911982,-1.501533985,0.358233988,-1032.300049,-2.100000143,-976.500061,-3.090751784,-0.429776182,0.047356618,ST
19.46666667,-4.593139648,-0.841587186,8.874647141,-1.150921941,-0.594515979,0.007622,-1022.700012,-5.700000286,-971.7000122,-3.0746359,-0.466776091,0.087565412,ST
19.5,-4.824023247,-1.156808496,8.781336784,-0.708845973,0.106707998,0.182927996,-1025.100098,-6.300000191,-964.500061,-3.059391754,-0.492527747,0.122969699,ST
19.53333333,-5.169749737,-1.296773911,8.762196541,-0.266770005,0.564027965,0.381099999,-1025.100098,-6.300000191,-974.1000366,-3.050976934,-0.521969551,0.142158428,ST
19.56666667,-4.753442287,-1.391878724,7.478581429,-0.205793992,1.181409955,0.167683989,-1022.700012,-4.5,-957.3000488,-3.033717474,-0.553328528,0.176241881,ST
19.6,-4.530932903,-1.169967651,6.66510725,-0.129574001,1.387203932,0.152439997,-1022.700012,0.900000036,-974.1000366,-3.034645179,-0.585453,0.174495919,ST
19.63333333,-5.541196346,-0.869699895,7.807559967,0.289635986,1.516777992,1.04421401,-1017.900024,-1.5,-978.9000244,-3.065907196,-0.61168659,0.121235623,ST
19.66666667,-5.280405998,-1.123910666,8.015115738,0.007622,0.884151995,1.76830399,-1020.300049,-6.300000191,-976.500061,-3.061709877,-0.586410238,0.134203088,ST
19.7,-5.502915382,-0.887644172,8.70537281,-0.282013983,-0.259148002,1.74543798,-1025.100098,-9.900000572,-969.3000488,-3.080343369,-0.566386201,0.106901563,ST
19.73333333,-5.243919373,-0.613096535,8.056985855,0.106707998,-0.907018006,2.393307924,-1013.100037,-6.900000095,-969.3000488,-3.099937297,-0.572953246,0.07946671,ST
19.76666667,-5.493943214,-0.824241042,9.051099777,0.388722003,-0.80793196,2.378063917,-1015.500061,-3.300000191,-969.3000488,-3.100863131,-0.54841561,0.08601223,ST
19.8,-4.613476753,-0.568833947,7.833878517,0.381099999,-0.61738199,1.562510014,-1020.300049,-3.300000191,-976.500061,-3.110634469,-0.533272462,0.07279339,ST
19.83333333,-4.562036514,-0.160900459,7.652641296,1.006103992,-0.342989981,0.868907988,-1008.300049,-7.500000477,-978.9000244,-3.133351807,-0.536310931,0.02934977,ST
19.86666667,-5.331846237,-0.028710863,9.359741211,1.196653962,-0.678357959,0.602137983,-1020.300049,3.300000191,-964.500061,3.138312212,-0.520627125,0.006160693,ST
19.9,-4.577588081,0.623863101,8.290860176,0.785066009,-2.301843882,0.015244,-1027.5,-8.100000381,-981.3000488,3.106929215,-0.503838112,-0.059861101,ST
19.93333333,-4.358069897,0.64001298,7.664604187,0.609759986,-2.416173935,0.625003994,-1022.700012,-5.700000286,-978.9000244,3.096891905,-0.509847926,-0.08003856,ST
19.96666667,-4.285096169,0.182433605,8.784925461,-0.038109999,-1.775925994,0.838419974,-1032.300049,0.300000012,-981.3000488,3.117363582,-0.462663069,-0.032924186,ST
20.0,-3.465042114,-0.07058087,8.930274963,-1.028970003,-2.522881985,-0.060975999,-1029.900024,-6.300000191,-964.500061,3.130722426,-0.3853317,0.00140919,ST
20.03333333,-2.801701784,-0.049645867,8.226260185,-1.349093914,-3.483253956,-0.411587983,-1037.100098,-2.700000048,-964.500061,3.132559934,-0.333449683,0.007353572,ST
20.06666667,-3.021818399,0.001196286,8.567799568,-1.250007987,-3.033555984,-0.015244,-1037.100098,-1.5,-986.1000366,3.130085853,-0.333726353,0.002941321,ST
20.1,-3.373526335,-0.39297992,9.213794708,-1.379581928,-1.913121939,0.464941978,-1039.5,-0.300000012,-981.3000488,3.139121137,-0.344821219,0.036739323,ST
20.13333333,-3.544595242,-0.504832685,9.146203995,-1.417691946,-0.800309956,0.396344006,-1041.900024,-0.300000012,-978.9000244,-3.140437879,-0.363218055,0.053154942,ST
20.16666667,-4.515381336,-0.233275756,9.661205292,-1.890255928,0.0,1.204275966,-1046.700073,1.5,-983.7000122,3.130445043,-0.422297931,0.032104494,ST
20.2,-4.700805664,-0.669920146,9.476379395,-2.012207985,0.282013983,3.025933981,-1037.100098,-9.300000191,-983.7000122,3.135516004,-0.452660233,0.06353028,ST
20.23333333,-4.956212521,-0.791343153,9.491930962,-1.775925994,0.472563982,4.039659977,-1034.700073,4.5,-976.500061,3.13189188,-0.47606259,0.079280658,ST
20.26666667,-4.419080257,-1.055124164,8.127566338,-1.890255928,0.266770005,4.93905592,-1039.5,1.5,-974.1000366,3.137918836,-0.491974801,0.118011988,ST
20.3,-3.917238235,-1.129293919,6.909149647,-2.324709892,0.525918007,4.969543934,-1044.300049,3.300000191,-969.3000488,-3.141059417,-0.508247297,0.152607838,ST
20.33333333,-5.202049255,-1.024618864,8.539089203,-2.416173935,0.640248001,5.922293663,-1034.700073,-2.100000143,-983.7000122,3.113935949,-0.538821315,0.124887569,ST
20.36666667,-4.680468559,-1.25191319,7.852420807,-3.025933981,-0.564027965,6.074733734,-1041.900024,-0.300000012,-974.1000366,3.111447476,-0.533844116,0.150609576,ST
20.4,-5.119505882,-1.141256809,8.914722443,-3.292703867,-1.935987949,6.356747627,-1027.5,3.900000095,-964.500061,3.083557299,-0.519164138,0.130733079,ST
20.43333333,-5.393455029,-1.004281998,8.88122654,-2.957335949,-2.972579956,6.875043869,-1034.700073,6.900000095,-983.7000122,3.056354053,-0.535651717,0.114086183,ST
20.46666667,-4.399341583,-1.019833803,8.280691147,-2.400929928,-2.309465885,6.791202068,-1032.300049,10.5,-983.7000122,3.040471584,-0.491524497,0.119011636,ST
20.5,-4.337134838,-0.699229121,7.899674416,-1.867389917,-1.250007987,5.792719841,-1046.700073,2.100000143,-978.9000244,3.013969564,-0.497772885,0.092666486,ST
20.53333333,-4.217505932,-0.880466461,7.515666485,-1.402447939,0.434453994,5.221069813,-1046.700073,1.5,-974.1000366,3.010250346,-0.507694885,0.109766328,ST
20.56666667,-4.159486294,-0.772202551,8.265737534,-1.23476398,0.838419974,3.643316031,-1037.100098,9.900000572,-966.9000244,2.995021618,-0.474867754,0.09554616,ST
20.6,-4.194776535,-0.880466461,8.655727386,-1.692083955,-0.350611985,2.439039946,-1034.700073,7.500000477,-983.7000122,2.990588093,-0.454266201,0.100860534,ST
20.63333333,-4.057801723,-0.736912131,9.063660622,-2.096050024,-0.891773999,1.737815976,-1037.100098,11.10000038,-964.500061,2.978761543,-0.42567698,0.086787007,ST
20.66666667,-3.68515873,-0.591563404,9.194653511,-1.821658015,-1.532021999,1.219519973,-1034.700073,6.900000095,-978.9000244,2.967600218,-0.387046321,0.070229082,ST
20.7,-3.401638985,-0.543113828,9.457238197,-1.562510014,-1.105189919,1.303362012,-1044.300049,9.900000572,-974.1000366,2.959981309,-0.351345215,0.061238673,ST
20.73333333,-3.584670782,-0.245238617,9.765880585,-0.647870004,-1.112811923,2.042695999,-1039.5,10.5,-969.3000488,2.944381326,-0.350194395,0.031395683,ST
20.76666667,-2.933293104,-0.491075367,8.66709137,-0.190549999,-1.295740008,2.278977871,-1039.5,16.5,-978.9000244,2.94560038,-0.329114693,0.05068312,ST
20.8,-3.26645875,-0.439036936,8.889600754,-0.312501997,-1.021348,2.012207985,-1039.5,12.90000057,-981.3000488,2.940335492,-0.34589697,0.049038167,ST
20.83333333,-2.92312479,-0.79792273,8.222073555,-0.182927996,-0.61738199,1.760681987,-1044.300049,12.90000057,-971.7000122,2.948903072,-0.340669955,0.086501668,ST
20.86666667,-3.467434883,-1.062301874,8.548659325,-0.678357959,-0.221037999,0.853663981,-1044.300049,24.90000153,-974.1000366,2.957072518,-0.37455687,0.116974942,ST
20.9,-3.95611763,-1.244735479,9.244299889,-0.983237982,0.434453994,0.388722003,-1039.5,11.70000076,-976.500061,2.961109919,-0.397374137,0.132221199,ST
20.93333333,-3.176139116,-1.280624151,8.333926201,-0.495429993,0.190549999,-0.510674,-1051.5,18.90000153,-971.7000122,2.968354614,-0.367473582,0.149677631,ST
20.96666667,-4.127784729,-1.305148005,8.873451233,1.158543944,1.478667974,-0.388722003,-1039.5,16.5,-971.7000122,2.96920476,-0.422653237,0.145355019,ST
21.0,-3.733608484,-1.792036295,8.424843788,1.44817996,2.294221878,-1.623485923,-1032.300049,17.70000076,-964.500061,2.995790327,-0.414545495,0.196685427,ST
21.03333333,-5.235545635,-1.443318963,8.816029549,2.378063917,3.559473991,-2.888737917,-1039.5,15.30000019,-964.500061,2.992948425,-0.510996303,0.168796119,ST
21.06666667,-4.523755074,-1.444515228,8.363235474,2.972579956,5.144849777,-3.582340002,-1034.700073,13.50000095,-974.1000366,3.005625936,-0.500224476,0.169832024,ST
21.1,-5.354576111,-0.729136288,8.219680786,3.871975899,3.734779835,-3.551851988,-1025.100098,12.90000057,-962.1000366,2.984395677,-0.565196859,0.103443635,ST
21.13333333,-5.811557293,-0.666331291,7.817130566,4.275941849,2.949713945,-1.981719971,-1025.100098,11.10000038,-964.500061,2.983896245,-0.626811682,0.085058086,ST
21.16666667,-5.47360611,-0.714780867,7.424748898,2.538125992,1.417691946,-0.609759986,-1015.500061,9.300000191,-969.3000488,2.992392903,-0.633806674,0.091065142,ST
21.2,-6.15429306,-0.349315494,7.746549606,0.975615978,-0.137196004,0.594515979,-1015.500061,11.10000038,-971.7000122,2.968357898,-0.664574289,0.050884253,ST
21.23333333,-5.199656963,-0.464757085,6.996478558,-0.015244,-1.295740008,2.385685921,-1017.900024,3.300000191,-978.9000244,2.969812903,-0.641814321,0.060698991,ST
21.26666667,-5.981429577,-0.593357801,8.286672592,0.083841994,-1.402447939,2.515259981,-1020.300049,0.900000036,-976.500061,2.968196592,-0.62499932,0.066894306,ST
21.3,-4.602111816,-0.748875022,7.654435635,-0.42683199,-2.187514067,2.141782045,-1017.900024,11.10000038,-969.3000488,2.976187484,-0.551728968,0.090787922,ST
21.33333333,-4.878454208,-0.547898948,8.534303665,-0.152439997,-2.23324585,0.769822001,-1013.100037,5.100000381,-974.1000366,2.962491108,-0.521275745,0.068232577,ST
21.36666667,-4.974755287,-0.346922934,9.408190727,0.685979962,-2.157026052,0.61738199,-1025.100098,6.300000191,-952.500061,2.948869693,-0.490279115,0.041582614,ST
21.4,-3.936977148,-0.602928102,8.990088463,1.173787951,-2.804895878,-0.228659987,-1032.300049,9.900000572,-966.9000244,2.95898057,-0.421040558,0.061200001,ST
21.43333333,-3.965089798,0.163293034,7.994180679,0.72408998,-3.094532013,-1.417691946,-1032.300049,9.900000572,-983.7000122,2.935075799,-0.44833026,-0.003767938,ST
21.46666667,-3.990809917,0.196789041,8.890198708,0.121951997,-2.911603928,-0.442075998,-1027.5,2.100000143,-971.7000122,2.930041786,-0.423148311,-0.018324907,ST
21.5,-3.566128492,0.116039738,8.725709915,-0.190549999,-2.919225931,0.175305992,-1039.5,9.300000191,-976.500061,2.931265233,-0.390969739,-0.014113891,ST
21.53333333,-2.966191053,0.029907148,8.345291138,-0.777444005,-2.06556201,0.434453994,-1053.900024,11.10000038,-976.500061,2.93308719,-0.348594573,-0.004819209,ST
21.56666667,-3.021818399,-0.220116615,9.085791588,-0.945127964,-1.570132017,0.495429993,-1039.5,17.10000038,-981.3000488,2.939288411,-0.32439724,0.019479093,ST
21.6,-2.564239025,-0.354100645,8.350075722,-1.112811923,-1.097568035,0.045731999,-1056.300049,7.500000477,-962.1000366,2.944432999,-0.301565466,0.039308929,ST
21.63333333,-3.417788982,-0.458775669,9.645653725,-0.990859985,-0.29725799,0.091463998,-1056.300049,8.100000381,-952.500061,2.945965263,-0.332862881,0.047417565,ST
21.66666667,-3.401638985,-1.073666692,9.560717583,-0.274392009,-0.571649969,-0.327746004,-1046.700073,15.90000057,-966.9000244,2.964461772,-0.337979542,0.102193934,ST
21.7,-2.890825033,-1.317110777,9.031360626,-0.213415995,-0.381099999,-1.623485923,-1056.300049,6.900000095,-969.3000488,2.978943159,-0.312283874,0.137321661,ST
21.73333333,-3.532034159,-1.436739445,9.886107445,0.586893976,-0.114329994,-3.445143938,-1044.300049,8.700000763,-966.9000244,2.988810534,-0.333452517,0.143679216,ST
21.76666667,-3.713271618,-1.762129188,9.226355553,2.218001842,0.838419974,-5.442107677,-1063.5,12.90000057,-971.7000122,3.014720234,-0.367747072,0.179260001,ST
21.8,-3.406424284,-1.69453907,8.481667519,3.414655924,1.653973937,-6.928397655,-1049.100098,6.300000191,-964.500061,3.038955349,-0.374331856,0.193064623,ST
21.83333333,-4.502820492,-1.504927754,9.014613152,5.068629742,2.218001842,-7.522913933,-1058.700073,3.900000095,-971.7000122,3.05051105,-0.442155138,0.168933738,ST
21.86666667,-4.060792446,-1.758540392,7.959488392,6.029001713,2.187514067,-7.774439812,-1053.900024,2.700000048,-971.7000122,3.088816593,-0.45916648,0.204631942,ST
21.9,-4.374817848,-1.290792584,7.485759258,5.556437969,2.385685921,-8.437553406,-1049.100098,2.100000143,-983.7000122,3.099518742,-0.51087308,0.176573067,ST
21.93333333,-4.69960928,-1.177145362,7.505497932,5.030519962,2.667700052,-6.936019897,-1046.700073,5.100000381,-974.1000366,3.111907716,-0.548435495,0.158380726,ST
21.96666667,-4.727722168,-1.129293919,7.981021881,4.954299927,2.050318003,-6.265284061,-1037.100098,-1.5,-966.9000244,3.12386037,-0.535082308,0.141979632,ST
22.0,-5.023802757,-0.783567309,8.873451233,4.634175777,0.754577994,-5.160093784,-1041.900024,-2.700000048,-986.1000366,3.116927136,-0.517943356,0.095906637,ST
22.03333333,-4.134962559,-1.074862957,8.251381874,3.483253956,0.076219998,-5.282045841,-1029.900024,-2.700000048,-976.500061,-3.139422176,-0.471954051,0.121984634,ST
22.06666667,-5.081224442,-0.361876488,8.927284241,2.027451992,0.030487999,-6.128087997,-1039.5,0.300000012,-993.3000488,3.128774623,-0.507625084,0.059097649,ST
22.1,-4.428650379,0.098693587,8.159268379,1.76830399,0.525918007,-4.733262062,-1022.700012,-4.5,-981.3000488,3.113330188,-0.499911428,0.001749029,ST
22.13333333,-5.054307938,0.39297992,8.949415207,1.989341974,0.716467977,-3.27745986,-1049.100098,-3.300000191,-978.9000244,3.104414332,-0.512609591,-0.036429888,ST
22.16666667,-3.842470407,-0.006579573,8.10005188,2.23324585,0.792688012,-1.814036012,-1039.5,-5.700000286,-981.3000488,3.123606428,-0.45820147,-0.008256813,ST
22.2,-4.041652203,0.332567483,8.296242714,2.385685921,0.83079797,-2.278977871,-1032.300049,-8.100000381,-983.7000122,3.118708944,-0.455330265,-0.035453169,ST
22.23333333,-4.733105183,0.533543527,9.088184357,2.301843882,0.289635986,-1.783547997,-1039.5,-9.300000191,-971.7000122,3.115561838,-0.475122537,-0.055888061,ST
22.26666667,-3.926808596,0.236266479,8.053397179,1.592997909,-0.548784018,-1.493911982,-1032.300049,-6.300000191,-981.3000488,3.129362072,-0.457218002,-0.035793582,ST
22.3,-3.769496918,0.446214646,8.339309692,1.028970003,-1.059458017,-1.089946032,-1039.5,-5.100000381,-978.9000244,3.126405885,-0.428488974,-0.051053897,ST
22.33333333,-3.793422699,0.159704179,8.587538719,0.739333987,-1.036592007,-0.358233988,-1039.5,-9.300000191,-978.9000244,3.138645404,-0.416714444,-0.025172163,ST
22.36666667,-3.514090061,-0.525169551,8.884217262,0.236281991,-0.693601966,0.060975999,-1041.900024,-3.300000191,-966.9000244,-3.118328533,-0.383548659,0.041931142,ST
22.4,-3.563735723,-1.025815248,9.038537979,-0.929883957,-0.266770005,-0.335367978,-1046.700073,-11.10000038,-976.500061,-3.096862865,-0.375193613,0.100195184,NLL
22.43333333,-4.060194492,-0.534739792,9.184485435,0.175305992,0.457319975,0.320124,-1044.300049,-7.500000477,-981.3000488,-3.110236735,-0.408200287,0.066348986,NLL
22.46666667,-4.040455818,-0.650181413,8.522938728,0.609759986,1.051836014,0.777444005,-1037.100098,-6.900000095,-971.7000122,-3.108475701,-0.436384191,0.072844114,NLL
22.5,-4.444202423,-0.866709173,9.035547256,0.320124,0.91463995,1.097568035,-1041.900024,-5.700000286,-974.1000366,-3.102951632,-0.452908716,0.089877396,NLL
22.53333333,-4.899987221,-1.053927898,9.273608208,0.167683989,0.548784018,0.289635986,-1015.500061,-9.900000572,-978.9000244,-3.095117912,-0.478115066,0.108009995,NLL
22.56666667,-4.867687702,-0.96719718,8.447572708,0.083841994,0.571649969,0.411587983,-1046.700073,-3.900000095,-986.1000366,-3.09364861,-0.512366602,0.112389273,NLL
22.6,-4.278516769,-1.003683925,8.226858139,0.381099999,0.464941978,0.61738199,-1017.900024,-3.300000191,-976.500061,-3.091288836,-0.482986337,0.119014401,NLL
22.63333333,-4.608093262,-1.174752831,8.195755005,0.693601966,0.083841994,0.701223969,-1022.700012,-7.500000477,-983.7000122,-3.083824594,-0.503122066,0.13611899,NLL
22.66666667,-4.312012672,-1.230380058,7.257866859,0.42683199,0.609759986,0.663114011,-1027.5,-1.5,-976.500061,-3.072531112,-0.525511959,0.160391224,NLL
22.7,-4.821032524,-1.315316439,8.36682415,0.038109999,1.021348,0.983237982,-1027.5,-2.100000143,-981.3000488,-3.076236252,-0.520717912,0.156121743,NLL
22.73333333,-4.484876156,-1.323092222,8.135940552,-0.015244,0.594515979,1.059458017,-1017.900024,1.5,-964.500061,-3.076555278,-0.503620761,0.159530453,NLL
22.76666667,-4.323377609,-1.425972819,8.581557274,0.442075998,0.243903995,1.371959925,-1032.300049,-9.300000191,-974.1000366,-3.077560572,-0.470420965,0.162088379,NLL
22.8,-5.1021595,-1.268063068,9.057679176,1.074702024,-0.396344006,1.356715918,-1022.700012,-5.100000381,-971.7000122,-3.08898717,-0.500860488,0.141267687,NLL
22.83333333,-4.42924881,-1.032992959,8.264541626,0.960371971,-0.40396598,1.105189919,-1017.900024,-11.10000038,-969.3000488,-3.097744063,-0.490849203,0.125540147,NLL
22.86666667,-4.971764565,-0.413316786,8.606081009,-0.312501997,-0.754577994,1.608241916,-1025.100098,-2.100000143,-971.7000122,-3.133827041,-0.517535357,0.059528911,NLL
22.9,-5.196666241,-0.254808903,9.136035919,-0.785066009,-1.04421401,2.705809832,-1017.900024,-12.30000019,-976.500061,3.129939629,-0.515854329,0.03318396,NLL
22.93333333,-4.545288563,-0.025122005,8.463125229,-1.173787951,-1.806414008,3.399411917,-1025.100098,-5.100000381,-974.1000366,3.109523333,-0.49509037,0.008011527,NLL
22.96666667,-4.505212784,0.740500987,7.75432539,-1.432935953,-1.135677934,4.481735706,-1029.900024,-14.10000038,-969.3000488,3.058433778,-0.517016518,-0.075511213,NLL
23.0,-4.276124001,0.773398876,8.789710999,-1.600619912,-1.349093914,6.272905827,-1022.700012,-7.500000477,-976.500061,3.037055911,-0.459586057,-0.088062647,NLL
23.03333333,-4.139149189,0.85893333,7.628117085,-2.309465885,-0.91463995,6.661627769,-1032.300049,-9.900000572,-986.1000366,3.011816732,-0.48528941,-0.108678763,NLL
23.06666667,-4.133766174,0.953439891,8.616847992,-3.506119967,-0.327746004,8.262248039,-1037.100098,-4.5,-971.7000122,2.990462592,-0.451338095,-0.110709271,NLL
23.1,-4.791125298,0.802109718,7.881131649,-4.306429863,-0.945127964,8.551883698,-1034.700073,-3.300000191,-978.9000244,2.971932698,-0.522686176,-0.103762752,NLL
23.13333333,-4.203748703,0.098095447,8.757411003,-5.952781677,1.608241916,10.94519138,-1034.700073,-10.5,-981.3000488,2.978502958,-0.46438775,-0.029044397,NLL
23.16666667,-4.492651939,-0.633433402,9.545763969,-6.189064026,1.051836014,11.60830593,-1027.5,2.700000048,-974.1000366,2.982143869,-0.446275421,0.048035356,NLL
23.2,-3.736599207,-0.982748926,8.857899666,-6.798823833,-0.335367978,11.11287594,-1032.300049,-0.300000012,-978.9000244,2.97417837,-0.40785332,0.100668915,NLL
23.23333333,-3.79820776,-0.809885561,8.615651131,-6.600651741,-1.295740008,9.527500153,-1020.300049,10.5,-978.9000244,2.946938933,-0.411953811,0.098500442,NLL
23.26666667,-4.248011589,-1.013254166,9.006836891,-4.062525749,-2.324709892,7.652487755,-1027.5,5.700000286,-966.9000244,2.931288133,-0.430884618,0.109992974,NLL
23.3,-4.288086891,-1.333260655,8.557631493,-2.538125992,-1.867389917,5.030519962,-1025.100098,9.300000191,-978.9000244,2.933081181,-0.452334722,0.145518015,NLL
23.33333333,-4.75643301,-1.21423018,9.490136147,-1.189031959,-1.23476398,1.74543798,-1041.900024,8.700000763,-969.3000488,2.921206743,-0.458347308,0.130901671,NLL
23.36666667,-4.934679508,-1.089816451,8.807655334,-0.167683989,-0.762199998,0.274392009,-1041.900024,7.500000477,-978.9000244,2.917267084,-0.497660562,0.124501262,NLL
23.4,-4.099671841,-1.034189224,7.658622742,0.091463998,0.282013983,-0.373477995,-1032.300049,8.700000763,-966.9000244,2.921959391,-0.490064298,0.132451055,NLL
23.43333333,-4.712768555,-0.738108456,7.870365143,0.72408998,0.632625997,0.304879993,-1022.700012,9.900000572,-966.9000244,2.906635968,-0.529010205,0.100344168,NLL
23.46666667,-4.797106743,-0.778183997,7.247100353,1.143299937,0.769822001,0.769822001,-1037.100098,8.700000763,-966.9000244,2.908257642,-0.572565203,0.103388694,NLL
23.5,-5.075841427,-0.742295444,7.954105377,0.746955991,1.082324028,1.013725996,-1020.300049,9.300000191,-969.3000488,2.901975729,-0.568986793,0.093278282,NLL
23.53333333,-6.299043655,-0.471934795,8.981116295,1.219519973,0.342989981,2.08842802,-1032.300049,4.5,-976.500061,2.879260157,-0.603768309,0.056720622,NLL
23.56666667,-5.915634155,-0.662742436,8.323159218,1.204275966,0.480185986,2.835383892,-1015.500061,10.5,-978.9000244,2.88341013,-0.615142533,0.07082347,NLL
23.6,-6.233846188,-0.602329969,9.575671196,-0.091463998,-1.204275966,2.278977871,-1017.900024,5.100000381,-976.500061,2.874027312,-0.582565987,0.062322199,NLL
23.63333333,-4.142139912,-0.791343153,7.3523736,-0.823175967,-2.423795938,1.455801964,-1022.700012,5.100000381,-969.3000488,2.888643462,-0.522008895,0.098235238,NLL
23.66666667,-4.520764351,-0.525169551,7.546171665,-1.006103992,-2.355197906,0.457319975,-1032.300049,9.900000572,-966.9000244,2.875080479,-0.532140532,0.076213312,NLL
23.7,-4.531531334,0.066393867,8.482265472,-0.792688012,-2.393307924,1.089946032,-1022.700012,11.70000076,-969.3000488,2.837657121,-0.49494608,0.007106838,NLL
23.73333333,-3.768300772,0.159704179,8.193362236,-1.112811923,-3.10977602,1.951231956,-1034.700073,9.900000572,-962.1000366,2.821906335,-0.436505631,-0.015169714,NLL
23.76666667,-4.227674484,0.306249201,9.569689751,-0.983237982,-2.096050024,2.843005896,-1041.900024,11.10000038,-981.3000488,2.809378749,-0.416969662,-0.029010842,NLL
23.8,-2.630632877,-0.333763778,8.948817253,-1.272873998,-2.042695999,2.644834042,-1029.900024,7.500000477,-974.1000366,2.821802843,-0.309548296,0.024812749,NLL
23.83333333,-3.393863201,-0.01016843,9.8209095,-1.173787951,-1.150921941,1.196653962,-1039.5,10.5,-974.1000366,2.812707209,-0.326493688,0.00694063,NLL
23.86666667,-3.457864523,0.043066293,9.466210365,-0.160062,-0.731711984,0.91463995,-1041.900024,6.300000191,-959.7000122,2.807502002,-0.344426423,-0.0024419,NLL
23.9,-3.052921772,0.023327576,8.767580032,0.213415995,0.076219998,1.067080021,-1034.700073,11.10000038,-974.1000366,2.805015816,-0.337060379,-0.003439242,NLL
23.93333333,-2.486480236,-0.122619309,8.511574745,0.106707998,0.030487999,0.655492008,-1049.100098,17.70000076,-971.7000122,2.807964685,-0.294906931,0.010418718,NLL
23.96666667,-2.693437815,-0.310436189,8.143118858,0.228659987,0.129574001,-0.42683199,-1051.5,9.900000572,-959.7000122,2.815650261,-0.314506277,0.032355757,NLL
24.0,-3.050529242,-0.403746516,8.591127396,-0.099086002,0.457319975,-1.440557957,-1037.100098,12.30000019,-969.3000488,2.822746056,-0.336097005,0.044825823,NLL
24.03333333,-4.024904251,-0.627451956,10.20671177,0.251525998,0.289635986,-1.676839948,-1037.100098,15.90000057,-974.1000366,2.831330144,-0.367421677,0.058540361,NLL
24.06666667,-3.459658861,-0.873288751,9.363329887,1.189031959,-0.038109999,-3.597584009,-1034.700073,6.300000191,-964.500061,2.849834055,-0.355131608,0.086303535,NLL
24.1,-3.683962584,-1.104770064,9.904649734,2.141782045,0.434453994,-5.091495991,-1034.700073,14.10000038,-971.7000122,2.869333293,-0.354207556,0.105737944,NLL
24.13333333,-3.517678738,-1.469039083,9.706066132,3.932951927,0.800309956,-7.149435997,-1041.900024,9.300000191,-971.7000122,2.899562455,-0.346033897,0.139438935,NLL
24.16666667,-4.060194492,-1.723249912,8.73169136,4.931433678,1.349093914,-10.23634624,-1051.5,6.900000095,-971.7000122,2.943885478,-0.412867935,0.183628004,NLL
24.2,-4.210328579,-1.512105465,8.082705498,5.93753767,1.600619912,-11.09000969,-1051.5,5.700000286,-976.500061,2.974928488,-0.461771718,0.183838553,NLL
24.23333333,-4.845556259,-0.835605741,6.809259415,5.503083706,1.714949965,-10.63268948,-1061.100098,3.300000191,-981.3000488,2.980793696,-0.589429889,0.135065912,NLL
24.26666667,-5.24092865,-0.699229121,8.454751015,4.283564091,2.583858013,-8.612859726,-1056.300049,9.300000191,-981.3000488,2.98207949,-0.562292618,0.093685488,NLL
24.3,-5.440110207,-0.511412263,8.883021355,3.38416791,1.394825935,-6.55491972,-1058.700073,2.700000048,-983.7000122,2.984422825,-0.552793152,0.065775465,NLL
24.33333333,-4.631421089,-1.015646815,9.061865807,3.094532013,0.640248001,-4.451247692,-1046.700073,0.300000012,-974.1000366,3.014876865,-0.487098994,0.101947152,NLL
24.36666667,-4.237244606,-0.959421337,8.411086082,2.98020196,0.129574001,-4.222588062,-1046.700073,3.900000095,-976.500061,3.03040346,-0.468263283,0.110125701,NLL
24.4,-4.630822659,-0.593955994,8.726307869,2.949713945,0.579271972,-3.475631952,-1041.900024,-3.900000095,-978.9000244,3.024596796,-0.48361058,0.074952428,NLL
24.43333333,-4.315601349,-0.756650865,8.638978958,3.041177988,1.143299937,-2.987823963,-1051.5,0.300000012,-990.9000244,3.037698349,-0.467428254,0.082847494,NLL
24.46666667,-4.34670496,-0.194994614,8.223867416,3.163130045,1.55488801,-2.926847935,-1039.5,-4.5,-990.9000244,3.024579079,-0.484424175,0.033471222,NLL
24.5,-5.222984314,0.113647163,9.02777195,3.490875959,1.55488801,-2.118916035,-1037.100098,-8.100000381,-981.3000488,3.013607973,-0.518604831,-0.00637093,NLL
24.53333333,-4.46693182,-0.065795727,8.211904526,3.528985977,1.356715918,-1.356715918,-1034.700073,-7.500000477,-995.7000122,3.024054156,-0.504203838,0.001295623,NLL
24.56666667,-4.518970013,0.086132586,9.027173996,2.698187828,-0.434453994,-1.402447939,-1022.700012,-8.100000381,-976.500061,3.024572548,-0.471116934,-0.010282122,NLL
24.6,-4.264759541,0.407335371,8.609071732,2.06556201,-1.836901903,-2.012207985,-1037.100098,-9.900000572,-974.1000366,3.017035674,-0.459415699,-0.041286142,NLL
24.63333333,-3.125895262,0.419298232,7.861991405,1.608241916,-2.278977871,-1.806414008,-1022.700012,-12.30000019,-983.7000122,3.018596853,-0.387580629,-0.052586973,NLL
24.66666667,-3.936378956,0.366063505,9.142017365,1.478667974,-2.111294031,-1.623485923,-1039.5,-6.300000191,-981.3000488,3.027004051,-0.39969875,-0.04363804,NLL
24.7,-3.706093788,0.268566191,8.719130516,1.501533985,-1.600619912,-1.577754021,-1034.700073,-9.900000572,-976.500061,3.03537557,-0.399193545,-0.034516218,NLL
