seconds,sensor_accX_m_s_,sensor_accY_m_s_,sensor_accZ_m_s_,sensor_gyroX___s_,sensor_gyroY___s_,sensor_gyroZ___s_,sensor_magX__T_,sensor_magY__T_,sensor_magZ__T_,sensor_yaw___,sensor_pitch___,sensor_roll___,label4
0.0,-0.345128506422043,-0.705808699131012,9.63129806518555,0.190549999475479,-0.381099998950958,0.0990860015153885,-1101.90002441406,1.5,-866.100036621094,-2.75357804612747,-0.0351180309080352,0.0727785208537983,ST
0.0333333333333333,-0.317613929510117,-0.660947978496552,9.51346397399902,0.3125019967556,-0.480185985565186,0.221037998795509,-1113.90002441406,-0.300000011920929,-863.700012207031,-2.7554453154767,-0.0325016387336207,0.0688308434666197,ST
0.0666666666666667,-0.196789041161537,-0.702219843864441,9.6283073425293,0.327746003866196,-0.228659987449646,0.274392008781433,-1121.10009765625,2.10000014305115,-858.900024414062,-2.75730820077541,-0.0201202220429363,0.0721937451055826,ST
0.1,-0.163293033838272,-0.624461233615875,9.75152492523193,0.335367977619171,-0.434453994035721,0.205793991684914,-1111.5,-0.300000011920929,-846.900024414062,-2.75918628350403,-0.015995287191952,0.063399815382075,ST
0.133333333333333,-0.117236025631428,-0.631040811538696,9.63488674163818,0.297257989645004,-0.434453994035721,0.282013982534409,-1111.5,7.50000047683716,-873.300048828125,-2.76140701432215,-0.0114425168651068,0.0648685155308953,ST
0.166666666666667,-0.0968991592526436,-0.607713282108307,9.5864372253418,0.167683988809586,-0.243903994560242,0.282013982534409,-1121.10009765625,5.10000038146973,-861.300048828125,-2.76365228617343,-0.0097017881370975,0.0630193710861527,ST
0.2,-0.122619308531284,-0.625657558441162,9.61335372924805,0.121951997280121,-0.144817993044853,0.259148001670837,-1111.5,5.10000038146973,-866.100036621094,-2.76553042515348,-0.0124853542795096,0.0647598605988411,ST
0.233333333333333,-0.149535745382309,-0.654966533184052,9.62531661987305,0.0914639979600906,-0.0457319989800453,0.221037998795509,-1111.5,-0.900000035762787,-856.500061035156,-2.76702465905757,-0.0154208024664715,0.0677512081887713,ST
0.266666666666667,-0.189013183116913,-0.672312676906586,9.65701866149902,0.0609759986400604,-0.160062000155449,0.0914639979600906,-1116.30004882812,6.30000019073486,-858.900024414062,-2.76769545982236,-0.0192238703512942,0.0693836216998001,ST
0.3,-0.169872596859932,-0.695042133331299,9.60258769989014,0.129574000835419,-0.114329993724823,0.160062000155449,-1106.70007324219,6.30000019073486,-866.100036621094,-2.76879098789235,-0.0174777527942634,0.0720018143169465,ST
0.333333333333333,-0.19798532128334,-0.690257012844086,9.71085071563721,0.152439996600151,-0.182927995920181,0.114329993724823,-1111.5,3.90000009536743,-856.500061035156,-2.7696726654397,-0.0200086921531325,0.0707019062342968,ST
0.366666666666667,-0.18482618033886,-0.697434723377228,9.65402793884277,0.198172003030777,-0.198172003030777,0.182927995920181,-1121.10009765625,3.30000019073486,-858.900024414062,-2.7709847451351,-0.0187809175897991,0.0717565431729378,ST
0.4,-0.171667039394379,-0.681882977485657,9.68572902679443,0.221037998795509,-0.190549999475479,0.228659987449646,-1121.10009765625,2.70000004768372,-849.300048828125,-2.77265988422333,-0.0173857671538734,0.0699069500029637,ST
0.433333333333333,-0.167480036616325,-0.65137767791748,9.64326095581055,0.205793991684914,-0.190549999475479,0.213415995240211,-1101.90002441406,-0.300000011920929,-861.300048828125,-2.7742443903387,-0.0170225466268427,0.0671022449241624,ST
0.466666666666667,-0.19798532128334,-0.659751713275909,9.63309288024902,0.175305992364883,-0.114329993724823,0.25152599811554,-1118.70007324219,6.30000019073486,-868.500061035156,-2.77620416692297,-0.0203195408847265,0.0680623838470245,ST
0.5,-0.200377896428108,-0.665733098983765,9.6223258972168,0.167683988809586,-0.0609759986400604,0.289635986089706,-1099.5,0.900000035762787,-863.700012207031,-2.77819137753629,-0.0206970533946132,0.0687671568930888,ST
0.533333333333333,-0.22011661529541,-0.668723821640015,9.65283107757568,0.160062000155449,-0.0838419944047928,0.266770005226135,-1121.10009765625,0.900000035762787,-846.900024414062,-2.78004331588968,-0.0226151058519107,0.0688760108428163,ST
0.566666666666667,-0.245836764574051,-0.634031534194946,9.66718673706055,0.144817993044853,-0.144817993044853,0.25152599811554,-1113.90002441406,6.90000009536743,-866.100036621094,-2.78201310259914,-0.0251321178564712,0.0652487478175739,ST
0.6,-0.224303618073463,-0.653172135353088,9.64744758605957,0.160062000155449,-0.198172003030777,0.304879993200302,-1099.5,4.5,-861.300048828125,-2.78413136516166,-0.0229018291728159,0.0672920086397483,ST
0.633333333333333,-0.196190893650055,-0.628648281097412,9.6761589050293,0.144817993044853,-0.190549999475479,0.266770005226135,-1104.30004882812,-2.70000004768372,-870.900024414062,-2.78609289045534,-0.0199528632473781,0.0646369945978274,ST
0.666666666666667,-0.206359326839447,-0.646592557430267,9.5152587890625,0.121951997280121,-0.236281991004944,0.274392008781433,-1113.90002441406,3.30000019073486,-866.100036621094,-2.78801510240843,-0.0212441140940707,0.0676008997166043,ST
0.7,-0.198583468794823,-0.668125689029694,9.73956203460693,0.129574000835419,-0.167683988809586,0.266770005226135,-1104.30004882812,2.70000004768372,-849.300048828125,-2.78990137759741,-0.0200880492414882,0.0682505802369726,ST
0.733333333333333,-0.112450875341892,-0.645396292209625,9.65761661529541,0.137196004390717,-0.419209986925125,0.243903994560242,-1109.10009765625,2.10000014305115,-861.300048828125,-2.79184813813407,-0.0109782544350185,0.0664957514806735,ST
0.766666666666667,-0.0789548754692078,-0.672910869121552,9.55832481384277,0.0609759986400604,-0.342989981174469,0.304879993200302,-1113.90002441406,0.900000035762787,-861.300048828125,-2.79407653548856,-0.0077067896188459,0.0701435278720925,ST
0.8,-0.116039738059044,-0.690855145454407,9.62711143493652,-0.0304879993200302,-0.129574000835419,0.213415995240211,-1111.5,8.10000038146973,-873.300048828125,-2.79569200824354,-0.0117996102470567,0.0716785157381063,ST
0.833333333333333,-0.189013183116913,-0.70162171125412,9.67496299743652,0.0228659994900227,-0.0609759986400604,0.289635986089706,-1109.10009765625,0.900000035762787,-861.300048828125,-2.79770564278396,-0.0193507573830675,0.0723374955295899,ST
0.866666666666667,-0.185424327850342,-0.719565987586975,9.64744758605957,0.0990860015153885,-0.0457319989800453,0.304879993200302,-1106.70007324219,2.70000004768372,-861.300048828125,-2.79978006111776,-0.0191261418345633,0.0742493188597463,ST
0.9,-0.174059599637985,-0.683677434921265,9.6701774597168,0.0990860015153885,-0.129574000835419,0.25152599811554,-1111.5,3.90000009536743,-870.900024414062,-2.80163560146956,-0.0177694522918209,0.0704325923322227,ST
0.933333333333333,-0.147741317749023,-0.732725143432617,9.59600734710693,0.137196004390717,-0.114329993724823,0.289635986089706,-1109.10009765625,10.5,-856.500061035156,-2.80370852350376,-0.0152041988897341,0.0759305678477121,ST
0.966666666666667,-0.17525589466095,-0.715378999710083,9.72580432891846,0.160062000155449,-0.106707997620106,0.205793991684914,-1113.90002441406,-0.900000035762787,-863.700012207031,-2.80529604847679,-0.0177949186281874,0.0731524611586859,ST
1.0,-0.15312460064888,-0.715378999710083,9.72161769866943,0.236281991004944,-0.106707997620106,0.236281991004944,-1106.70007324219,4.5,-861.300048828125,-2.80710461724131,-0.0155621192944402,0.0730355476932179,ST
1.03333333333333,-0.160302311182022,-0.721360445022583,9.60139083862305,0.236281991004944,-0.0152439996600151,0.205793991684914,-1113.90002441406,12.9000005722046,-858.900024414062,-2.80856410660971,-0.0166413136675024,0.0745628320776523,ST
1.06666666666667,-0.169872596859932,-0.684275567531586,9.62890529632568,0.106707997620106,0.0685980021953583,0.175305992364883,-1106.70007324219,2.70000004768372,-873.300048828125,-2.80979049383571,-0.017727894890753,0.0707851424247721,ST
1.1,-0.244042336940765,-0.651975810527802,9.6582145690918,0.205793991684914,-0.0457319989800453,0.289635986089706,-1121.10009765625,-0.900000035762787,-868.500061035156,-2.81185517028748,-0.0250986385928498,0.0670614457449138,ST
1.13333333333333,-0.24224790930748,-0.693247675895691,9.63787746429443,0.0838419944047928,-0.213415995240211,0.236281991004944,-1118.70007324219,6.90000009536743,-866.100036621094,-2.81345982930954,-0.024725941234267,0.0716111184275868,ST
1.16666666666667,-0.170470744371414,-0.745884299278259,9.63907432556152,0.0609759986400604,-0.25152599811554,0.236281991004944,-1111.5,2.10000014305115,-863.700012207031,-2.81509674407124,-0.0172861954234377,0.0770681577207264,ST
1.2,-0.128002598881721,-0.757847130298615,9.6402702331543,0.0533539988100529,-0.3125019967556,0.182927995920181,-1111.5,-0.300000011920929,-870.900024414062,-2.81650116462541,-0.0127549022796884,0.0783429925084671,ST
1.23333333333333,-0.155517175793648,-0.753062009811401,9.69948673248291,0.175305992364883,-0.182927995920181,0.205793991684914,-1118.70007324219,4.5,-878.100036621094,-2.8180152827689,-0.015669425895,0.0771815902687475,ST
1.26666666666667,-0.138171032071114,-0.716575264930725,9.54038047790527,0.259148001670837,-0.0685980021953583,0.259148001670837,-1106.70007324219,0.300000011920929,-851.700012207031,-2.82006799897879,-0.0143605229665841,0.0745204727245113,ST
1.3,-0.160900458693504,-0.765024840831757,9.7299919128418,0.205793991684914,0.0457319989800453,0.182927995920181,-1109.10009765625,5.70000028610229,-868.500061035156,-2.82126295322194,-0.016573390471789,0.0780752321940345,ST
1.33333333333333,-0.202770471572876,-0.723752975463867,9.7180290222168,0.167683988809586,-0.25152599811554,0.0762199983000755,-1111.5,1.5,-866.100036621094,-2.82196981029619,-0.0203457209356416,0.0740750513051492,ST
1.36666666666667,-0.162096738815308,-0.720762252807617,9.55353927612305,0.175305992364883,-0.259148001670837,0.243903994560242,-1118.70007324219,3.90000009536743,-868.500061035156,-2.82374647365686,-0.0165298252095429,0.0749807841859879,ST
1.4,-0.154919028282166,-0.758445262908936,9.63070011138916,0.0914639979600906,-0.152439996600151,0.213415995240211,-1121.10009765625,8.10000038146973,-873.300048828125,-2.82523317190671,-0.0158047904202219,0.0783966336134565,ST
1.43333333333333,-0.267968058586121,-0.760239720344543,9.69470119476318,0.282013982534409,-0.198172003030777,0.289635986089706,-1106.70007324219,7.50000047683716,-861.300048828125,-2.82934951219972,-0.027243513356343,0.0777512363919776,ST
1.46666666666667,-0.301464051008224,-0.721958577632904,9.7359733581543,0.335367977619171,-0.327746003866196,0.365855991840363,-1111.5,1.5,-861.300048828125,-2.8320937906064,-0.0303204541514001,0.073447908280521,ST
1.5,-0.296678900718689,-0.714780867099762,9.65163516998291,0.442075997591019,-0.510673999786377,0.518296003341675,-1116.30004882812,2.10000014305115,-863.700012207031,-2.83584095498924,-0.0298264466067023,0.0731252482782622,ST
1.53333333333333,-0.229088753461838,-0.742295444011688,9.52482891082764,0.266770005226135,-0.602137982845306,0.525918006896973,-1109.10009765625,3.90000009536743,-856.500061035156,-2.83962634012988,-0.0230532159436237,0.0772525696907243,ST
1.56666666666667,-0.131591454148293,-0.83560574054718,9.74853420257568,0.0762199983000755,-0.586893975734711,0.396344006061554,-1111.5,-1.5,-868.500061035156,-2.84254215758114,-0.0125730266629335,0.0852975458021674,ST
1.6,-0.115441590547562,-0.919345736503601,9.6283073425293,0.0457319989800453,-0.67835795879364,0.236281991004944,-1123.5,2.10000014305115,-866.100036621094,-2.84448454790619,-0.010809820743969,0.0950292233881547,ST
1.63333333333333,-0.331969350576401,-0.836203873157501,9.67795372009277,0.0076219998300075,-0.457319974899292,0.259148001670837,-1123.5,2.70000004768372,-861.300048828125,-2.846739025569,-0.0332200137876843,0.0862315084577719,ST
1.66666666666667,-0.701023578643799,-0.691453278064728,9.66479396820068,0.236281991004944,-0.106707997620106,0.960371971130371,-1111.5,3.90000009536743,-863.700012207031,-2.85469573558524,-0.0719728135216064,0.0709624192556784,ST
1.7,-0.738706588745117,-0.637620389461517,9.57985782623291,0.182927995920181,-0.0228659994900227,1.38720393180847,-1116.30004882812,2.70000004768372,-858.900024414062,-2.86451808319828,-0.0768687838771213,0.0659963179716946,ST
1.73333333333333,-0.454588651657104,-0.735117733478546,9.46142578125,0.144817993044853,-0.304879993200302,1.52439999580383,-1109.10009765625,8.70000076293945,-854.100036621094,-2.87442056880964,-0.0477787989830459,0.0770646237887856,ST
1.76666666666667,-0.355895072221756,-1.13527536392212,9.17790603637695,-0.388722002506256,-0.67835795879364,0.92988395690918,-1123.5,4.5,-868.500061035156,-2.88009565090056,-0.0375366642375669,0.123463202071465,ST
1.8,-0.892429292201996,-0.97557121515274,9.82330226898193,-0.449698001146317,-0.137196004390717,0.282013982534409,-1111.5,9.30000019073486,-866.100036621094,-2.88415059897193,-0.0897645720553568,0.0998201822642315,ST
1.83333333333333,-0.832016885280609,-0.932504892349243,10.0248765945435,0.495429992675781,-0.335367977619171,0.510673999786377,-1106.70007324219,-0.300000011920929,-856.500061035156,-2.8882630365264,-0.0820143175521959,0.0918753322712485,ST
1.86666666666667,-0.57660984992981,-0.74648243188858,9.6821403503418,1.17378795146942,-1.15092194080353,0.586893975734711,-1123.5,-0.300000011920929,-866.100036621094,-2.89358951691056,-0.057584214351929,0.0749685428416421,ST
1.9,-0.476121813058853,-0.524571359157562,9.79100227355957,1.34147191047668,-1.37195992469788,0.914639949798584,-1118.70007324219,3.30000019073486,-858.900024414062,-2.90140156760728,-0.0462904572127049,0.0512669340441514,ST
1.93333333333333,-0.0735715851187706,-0.448607236146927,9.77664661407471,1.31860601902008,-1.44817996025085,1.12805593013763,-1113.90002441406,-1.5,-858.900024414062,-2.90994937315359,-0.0053600570939616,0.0435906838170409,ST
1.96666666666667,0.0640012994408607,-0.365465342998505,9.47637939453125,1.07470202445984,-0.830797970294952,1.21951997280121,-1116.30004882812,2.10000014305115,-866.100036621094,-2.91861809220043,0.008008582374524,0.0367438894383606,ST
2.0,0.0137572884559631,-0.43724250793457,9.91721057891846,0.716467976570129,0.0685980021953583,1.06708002090454,-1116.30004882812,3.30000019073486,-854.100036621094,-2.92600931800893,0.0012429182665285,0.0427633944150949,ST
2.03333333333333,-0.0346922911703587,-0.476121813058853,10.2312355041504,0.67835795879364,0.0304879993200302,0.83841997385025,-1118.70007324219,-0.900000035762787,-854.100036621094,-2.93177504881053,-0.0034675391947785,0.0452929337047272,ST
2.06666666666667,-0.269762486219406,-0.483897656202316,9.87234973907471,0.701223969459534,0.114329993724823,0.525918006896973,-1130.70007324219,1.5,-856.500061035156,-2.93522647886584,-0.0273316168044059,0.0477085182458058,ST
2.1,-1.14723825454712,-0.290697485208511,10.3502655029297,1.09756803512573,1.63110792636871,0.945127964019775,-1121.10009765625,5.10000038146973,-858.900024414062,-2.94218866334597,-0.112534526122346,0.0261699411008712,ST
2.13333333333333,-1.4540855884552,-0.228490620851517,10.1002426147461,1.28049600124359,2.23324584960938,1.51677799224854,-1128.30004882812,0.300000011920929,-866.100036621094,-2.95181013333693,-0.146616711528512,0.0200594390863101,ST
2.16666666666667,-1.73939979076385,-0.430662930011749,9.29932880401611,0.754577994346619,2.97257995605469,1.85214591026306,-1106.70007324219,-1.5,-854.100036621094,-2.95961167850436,-0.189835291450299,0.0442740068932619,ST
2.2,-1.96789038181305,-0.498253107070923,9.25626277923584,-0.0228659994900227,3.15550804138184,1.57013201713562,-1106.70007324219,6.30000019073486,-866.100036621094,-2.96736426396904,-0.214627863533603,0.0532130582471607,ST
2.23333333333333,-2.06538772583008,-0.647788822650909,9.2407112121582,-0.396344006061554,2.4923939704895,0.868907988071442,-1106.70007324219,3.30000019073486,-873.300048828125,-2.96930468874938,-0.223767265932748,0.0703061885355881,ST
2.26666666666667,-2.24303603172302,-0.629844546318054,9.39981651306152,-0.144817993044853,1.61586391925812,0.358233988285065,-1101.90002441406,-0.300000011920929,-868.500061035156,-2.97205607531455,-0.236522620812594,0.0670726428235011,ST
2.3,-2.48528409004211,-0.525767683982849,9.38007831573486,0.708845973014832,0.411587983369827,0.411587983369827,-1109.10009765625,2.10000014305115,-863.700012207031,-2.9765912174445,-0.259263256073306,0.0546358118349974,ST
2.33333333333333,-2.78854250907898,-0.236266478896141,9.5266227722168,1.47866797447205,-0.0381099991500378,0.746955990791321,-1104.30004882812,-0.300000011920929,-866.100036621094,-2.98749088453668,-0.28443068493262,0.0221043643776776,ST
2.36666666666667,-2.96320033073425,-0.0107665732502937,9.41656494140625,2.08842802047729,-0.114329993724823,1.60824191570282,-1104.30004882812,0.300000011920929,-870.900024414062,-3.00119143152809,-0.304500109958165,-0.0031726769335594,ST
2.4,-2.9261155128479,0.116637878119946,9.48654747009277,1.76068198680878,0.266770005226135,2.01220798492432,-1101.90002441406,-4.5,-882.900024414062,-3.01480874887298,-0.299620756547237,-0.0163460034211266,ST
2.43333333333333,-2.91295623779297,0.292491912841797,9.4315185546875,1.14329993724823,0.495429992675781,1.84452390670776,-1116.30004882812,-2.70000004768372,-868.500061035156,-3.02991663460383,-0.300177495554309,-0.0338573915530488,ST
2.46666666666667,-2.99609804153442,0.388194799423218,9.80057239532471,0.701223969459534,0.945127964019775,1.89787793159485,-1099.5,0.300000011920929,-868.500061035156,-3.0436021129705,-0.2979939439712,-0.0417840931921508,ST
2.5,-2.71377468109131,0.559861838817596,9.47817325592041,0.777444005012512,0.975615978240967,1.70732796192169,-1097.10009765625,5.70000028610229,-863.700012207031,-3.0592667776617,-0.280066015525349,-0.0610848842878878,ST
2.53333333333333,-2.52715396881104,0.677695989608765,9.57925987243652,0.853663980960846,0.647870004177094,1.37958192825317,-1101.90002441406,1.5,-875.700012207031,-3.07029690687693,-0.258456037774484,-0.0726811759096699,ST
2.56666666666667,-2.143146276474,0.913962483406067,9.73657131195068,1.17378795146942,-0.259148001670837,0.685979962348938,-1094.70007324219,-2.70000004768372,-868.500061035156,-3.078329318851,-0.215530449813143,-0.0957084059348702,ST
2.6,-1.85603761672974,1.1418548822403,9.58344650268555,1.18903195858002,-0.884151995182037,-0.266770005226135,-1104.30004882812,4.5,-873.300048828125,-3.07919881465307,-0.18873636557011,-0.120338506434253,ST
2.63333333333333,-1.32847559452057,1.27464270591736,8.89797496795654,0.716467976570129,-0.960371971130371,-1.02897000312805,-1094.70007324219,-3.30000019073486,-875.700012207031,-3.07435090549406,-0.145680850114872,-0.143048004157643,ST
2.66666666666667,-1.31890523433685,1.63053774833679,8.94403171539307,0.564027965068817,-0.6250039935112,-1.6615959405899,-1099.5,2.10000014305115,-861.300048828125,-3.06726827862908,-0.143527596955454,-0.180558299782839,ST
2.7,-1.52586269378662,1.49475932121277,8.72690582275391,0.426831990480423,0.129574000835419,-1.50915598869324,-1106.70007324219,2.10000014305115,-873.300048828125,-3.05514893278648,-0.171102054895677,-0.170028927256293,ST
2.73333333333333,-1.92302966117859,1.68676316738129,8.417067527771,0.243903994560242,1.08994603157043,-1.28049600124359,-1097.10009765625,2.70000004768372,-875.700012207031,-3.05307518828299,-0.222256012831961,-0.197567545410934,ST
2.76666666666667,-1.62156558036804,1.14484560489655,8.65871810913086,-0.0228659994900227,1.73781597614288,-0.685979962348938,-1092.30004882812,-2.10000014305115,-873.300048828125,-3.03687346317456,-0.187030421239355,-0.131804796453701,ST
2.8,-1.20944511890411,0.57062840461731,9.17730808258057,-0.655492007732391,0.983237981796265,-1.83690190315247,-1080.30004882812,-4.5,-866.100036621094,-3.0142639194897,-0.133147045064827,-0.0611120467251165,ST
2.83333333333333,-1.89013183116913,0.696836590766907,9.38127422332764,-0.503051996231079,0.617381989955902,-2.9116039276123,-1094.70007324219,-0.900000035762787,-851.700012207031,-2.99614356484636,-0.199346489986413,-0.0722033172961104,ST
2.86666666666667,-1.66044485569,-0.0113647161051631,10.1157941818237,0.0152439996600151,0.335367977619171,-2.58385801315308,-1092.30004882812,-4.5,-868.500061035156,-2.96530936726708,-0.163585239900397,0.0012461281534552,ST
2.9,-1.53483486175537,-0.400755792856216,9.6821403503418,-0.769822001457214,-0.99848198890686,-3.17837381362915,-1099.5,-7.50000047683716,-873.300048828125,-2.93612466912503,-0.155146933013863,0.0433685275033431,ST
2.93333333333333,-1.96430146694183,-0.199779748916626,9.8197135925293,-1.2347639799118,-2.11891603469849,-2.40855193138123,-1085.10009765625,4.5,-878.100036621094,-2.92518276935669,-0.193278651077421,0.0234649058548279,ST
2.96666666666667,-1.8267285823822,-0.435448080301285,10.7145347595215,-1.08994603157043,-1.88263392448425,-0.884151995182037,-1097.10009765625,5.10000038146973,-861.300048828125,-2.91753006920527,-0.165611538561638,0.0426004454533293,ST
3.0,-1.37034559249878,-0.628648281097412,9.48116397857666,-1.03659200668335,-1.59299790859222,-0.0990860015153885,-1094.70007324219,2.10000014305115,-863.700012207031,-2.914783206937,-0.140587160387111,0.0678714723892908,ST
3.03333333333333,-1.18910825252533,-1.00846910476685,10.0057353973389,-1.89025592803955,-1.15092194080353,-0.0762199983000755,-1092.30004882812,-0.300000011920929,-858.900024414062,-2.91204823705012,-0.115889886951991,0.103447941218887,ST
3.06666666666667,-0.910971760749817,-1.18133234977722,9.07263278961182,-2.23324584960938,-1.01372599601746,-0.121951997280121,-1087.5,1.5,-880.500061035156,-2.91050118324045,-0.0976107830791933,0.13313120886857,ST
3.1,-1.09280717372894,-1.39486944675446,9.83047962188721,-2.02745199203491,-0.6250039935112,-0.0152439996600151,-1092.30004882812,6.90000009536743,-861.300048828125,-2.91138634180005,-0.108464015792907,0.14439877707634,ST
3.13333333333333,-0.940878868103027,-1.40264523029327,9.6103630065918,-1.69970595836639,-1.00610399246216,-0.335367977619171,-1097.10009765625,-3.30000019073486,-880.500061035156,-2.91090515304526,-0.0948301399440061,0.147905542122042,ST
3.16666666666667,-1.29557764530182,-0.936691880226135,9.12347507476807,-0.495429992675781,-0.518296003341675,0.358233988285065,-1104.30004882812,2.70000004768372,-861.300048828125,-2.91959430762406,-0.139246418227988,0.103332620999915,ST
3.2,-1.01145970821381,-0.517991840839386,9.3717041015625,0.685979962348938,-0.198172003030777,1.19665396213531,-1097.10009765625,6.30000019073486,-868.500061035156,-2.93338196036333,-0.107384258188173,0.0541930976942221,ST
3.23333333333333,-0.879270195960999,-0.212340757250786,9.5086784362793,1.02897000312805,-0.701223969459534,1.35671591758728,-1077.90002441406,0.300000011920929,-873.300048828125,-2.94550586080203,-0.0911480094472726,0.0205881780717114,ST
3.26666666666667,-0.482701390981674,0.0155517170205712,9.3597412109375,1.08232402801514,-1.21189796924591,1.02897000312805,-1101.90002441406,0.900000035762787,-873.300048828125,-2.95386906866371,-0.0497486233831557,-0.0034448425947507,ST
3.3,-1.52526462078094,0.0693845823407173,11.1637401580811,0.289635986089706,-1.10518991947174,0.655492007732391,-1106.70007324219,-1.5,-866.100036621094,-2.95841172275551,-0.133157739274372,-0.006840303381172,ST
3.33333333333333,-1.42776727676392,0.519188106060028,8.97932243347168,0.853663980960846,0.289635986089706,1.04421401023865,-1101.90002441406,0.900000035762787,-870.900024414062,-2.97311476811709,-0.157730627211514,-0.0593321149824034,ST
3.36666666666667,-1.55277919769287,-0.366063505411148,11.1368236541748,0.579271972179413,1.51677799224854,1.95885396003723,-1104.30004882812,6.90000009536743,-870.900024414062,-2.97242926594479,-0.141341416950998,0.0306294625330206,ST
3.4,-1.26327800750732,-0.445616513490677,10.4866428375244,-0.0076219998300075,0.213415995240211,0.571649968624115,-1111.5,-3.90000009536743,-858.900024414062,-2.97477649888721,-0.120367669448491,0.0422662719270946,ST
3.43333333333333,-1.13946235179901,-0.378624498844147,9.52781963348389,-0.434453994035721,-1.21189796924591,0.297257989645004,-1109.10009765625,5.10000038146973,-858.900024414062,-2.97772599639136,-0.116871337838198,0.0404206022478601,ST
3.46666666666667,-0.559861838817596,-0.633433401584625,8.36084270477295,-0.6250039935112,-2.28659987449646,0.46494197845459,-1104.30004882812,3.90000009536743,-870.900024414062,-2.97908541252234,-0.063196726677969,0.0763405598704176,ST
3.5,-0.401952087879181,-1.05691862106323,8.71793365478516,-1.46342396736145,-1.92074394226074,0.609759986400604,-1109.10009765625,10.5,-863.700012207031,-2.98276871020005,-0.042709344036586,0.122754048644153,ST
3.53333333333333,-0.596348524093628,-1.1837249994278,9.30291748046875,-1.52439999580383,-1.53202199935913,0.282013982534409,-1099.5,-1.5,-875.700012207031,-2.98630826454295,-0.0607678281298089,0.129120763277419,ST
3.56666666666667,-0.60352623462677,-1.57311606407166,9.68034553527832,-1.76068198680878,-1.2347639799118,-0.289635986089706,-1118.70007324219,2.70000004768372,-868.500061035156,-2.984291761915,-0.0592650445427326,0.163893119234309,ST
3.6,-0.800315320491791,-1.37094366550446,10.7851161956787,-1.20427596569061,-1.58537602424622,-0.92988395690918,-1109.10009765625,5.70000028610229,-868.500061035156,-2.98226810376025,-0.0704349010282133,0.128915586974205,ST
3.63333333333333,-0.931906759738922,-0.86790543794632,10.9250812530518,1.43293595314026,-1.98171997070312,-0.426831990480423,-1113.90002441406,6.90000009536743,-868.500061035156,-2.9837024620253,-0.0812326489195859,0.0772388951353576,ST
3.66666666666667,-0.321202784776688,-0.709397554397583,10.0123147964478,2.30946588516235,-1.78354799747467,-0.0990860015153885,-1113.90002441406,4.5,-861.300048828125,-2.98376161966906,-0.0291702551907267,0.0667622587395244,ST
3.7,-0.0005981429712846,-0.476719945669174,9.56191349029541,1.32622802257538,-1.50153398513794,-0.663114011287689,-1123.5,6.90000009536743,-854.100036621094,-2.97968854386417,0.0024301689055861,0.047608275275586,ST
3.73333333333333,-0.739304721355438,0.150133892893791,9.51286602020264,0.716467976570129,-0.762199997901917,-0.205793991684914,-1116.30004882812,6.30000019073486,-858.900024414062,-2.98017701894513,-0.0758544417989084,-0.0166964252839031,ST
3.76666666666667,-0.834409415721893,-0.0346922911703587,8.76997184753418,0.426831990480423,0.25152599811554,0.907018005847931,-1113.90002441406,2.10000014305115,-868.500061035156,-2.9844837878258,-0.0951410665141707,0.0028990811385642,ST
3.8,-0.810483753681183,-0.523973226547241,9.35076904296875,-0.472563982009888,0.419209986925125,1.09756803512573,-1128.30004882812,1.5,-858.900024414062,-2.98734461042502,-0.0872253202578,0.0561976235133181,ST
3.83333333333333,-0.920542061328888,-0.732725143432617,9.76767444610596,-0.884151995182037,-0.541162014007568,0.525918006896973,-1116.30004882812,0.900000035762787,-868.500061035156,-2.99024941563669,-0.0928001703888535,0.076212068653955,ST
3.86666666666667,-1.07127404212952,-0.887046039104462,9.67735481262207,-0.792688012123108,-0.983237981796265,0.236281991004944,-1121.10009765625,7.50000047683716,-861.300048828125,-2.99139366363348,-0.107997334812487,0.0925936749218656,ST
3.9,-1.43374872207642,-1.12271440029144,9.64086818695068,-0.830797970294952,-0.342989981174469,0.259148001670837,-1130.70007324219,-5.10000038146973,-868.500061035156,-2.99117950723818,-0.145854437557658,0.117136648440886,ST
3.93333333333333,-1.89372062683105,-0.806296706199646,10.0894756317139,-0.0914639979600906,0.0609759986400604,0.46494197845459,-1123.5,0.300000011920929,-868.500061035156,-3.00050866807361,-0.184809784080006,0.0800649888697794,ST
3.96666666666667,-1.47920751571655,-1.03179657459259,9.22934627532959,0.426831990480423,-0.243903994560242,0.891773998737335,-1121.10009765625,-0.300000011920929,-854.100036621094,-3.00112424224236,-0.157922044917189,0.110086083350382,ST
4.0,-1.44989860057831,-0.925925314426422,9.42972373962402,0.213415995240211,-0.0838419944047928,0.327746003866196,-1121.10009765625,0.300000011920929,-878.100036621094,-3.00512195556597,-0.1518054332386,0.0975201145881407,ST
4.03333333333333,-1.68676316738129,-0.702219843864441,9.83406829833984,0.411587983369827,0.0533539988100529,0.198172003030777,-1113.90002441406,-0.300000011920929,-868.500061035156,-3.01025788964329,-0.169419104565697,0.0707315615218097,ST
4.06666666666667,-1.18851006031036,-0.803305983543396,9.7778434753418,0.533540010452271,-0.937505960464478,0.121951997280121,-1116.30004882812,1.5,-856.500061035156,-3.00964529465585,-0.119355318399924,0.0809153504571656,ST
4.1,-0.843979716300964,-0.976767480373383,9.33641338348389,-0.0609759986400604,-1.08232402801514,-0.160062000155449,-1121.10009765625,-2.10000014305115,-863.700012207031,-3.00691545648047,-0.0880160113387772,0.104162568075265,ST
4.13333333333333,-0.787156164646149,-0.812278151512146,9.4434814453125,-0.304879993200302,-0.640248000621796,-0.236281991004944,-1125.90002441406,6.30000019073486,-863.700012207031,-3.0073669859729,-0.0817603240978896,0.0865070921297169,ST
4.16666666666667,-0.632835268974304,-0.592759668827057,9.53559494018555,0.586893975734711,-0.221037998795509,0.647870004177094,-1125.90002441406,7.50000047683716,-868.500061035156,-3.0136434288145,-0.0659351980757387,0.0611561244346538,ST
4.2,-0.434849947690964,-0.645994424819946,9.401611328125,0.990859985351562,0.640248000621796,1.28811800479889,-1125.90002441406,3.90000009536743,-863.700012207031,-3.02205412298032,-0.047481378888068,0.0667377813264142,ST
4.23333333333333,-0.294884473085403,-0.643601834774017,9.16594314575195,0.160062000155449,1.13567793369293,0.807931959629059,-1121.10009765625,8.10000038146973,-861.300048828125,-3.02736787818975,-0.0342201595599644,0.0697640191064312,ST
4.26666666666667,-0.406139075756073,-0.500645637512207,9.4375,0.0533539988100529,1.265251994133,0.731711983680725,-1128.30004882812,-0.900000035762787,-868.500061035156,-3.03298097215944,-0.0451691231895794,0.052933640793765,ST
4.3,-0.519786238670349,-0.650181412696838,9.10014724731445,0.0838419944047928,1.22714197635651,0.708845973014832,-1118.70007324219,8.70000076293945,-861.300048828125,-3.03632735261887,-0.0590207752256943,0.0709676049354652,ST
4.33333333333333,-1.09998488426208,-0.821848452091217,10.3359107971191,0.0076219998300075,1.6844619512558,0.602137982845306,-1113.90002441406,3.90000009536743,-873.300048828125,-3.03887349457641,-0.108300288729233,0.0791787975900089,ST
4.36666666666667,-0.976767480373383,-0.739304721355438,9.80475997924805,0.632625997066498,0.693601965904236,0.0838419944047928,-1106.70007324219,0.300000011920929,-866.100036621094,-3.03914400803652,-0.100271143705197,0.0741742951366684,ST
4.4,-1.06170380115509,-0.914560616016388,9.97822093963623,0.945127964019775,0.495429992675781,0.602137982845306,-1111.5,3.30000019073486,-856.500061035156,-3.04070802852951,-0.106467951492651,0.0895208057734654,ST
4.43333333333333,-0.797922730445862,-1.01564681529999,9.45125675201416,0.754577994346619,0.564027965068817,0.556405961513519,-1116.30004882812,3.30000019073486,-863.700012207031,-3.04212411186063,-0.085003534287923,0.105528067827598,ST
4.46666666666667,-0.562254369258881,-0.735715866088867,9.70546817779541,0.769822001457214,0.190549999475479,0.106707997620106,-1111.5,1.5,-870.900024414062,-3.04462205057511,-0.0582683831073622,0.0745616310164177,ST
4.5,-0.07656230032444,-0.684275567531586,9.33641338348389,1.08232402801514,-1.31860601902008,0.160062000155449,-1109.10009765625,-0.300000011920929,-858.900024414062,-3.04634490777067,-0.0063313238027043,0.0712946465976542,ST
4.53333333333333,-0.21712589263916,-0.744089841842651,9.48894023895264,0.983237981796265,-1.99696397781372,0.289635986089706,-1118.70007324219,8.10000038146973,-887.700012207031,-3.04920205414125,-0.0192646086321703,0.0764829264233113,ST
4.56666666666667,-0.671714544296265,-0.431261092424393,10.1253643035889,0.548784017562866,-1.19665396213531,0.724089980125427,-1109.10009765625,6.90000009536743,-870.900024414062,-3.05600559549257,-0.0638440473929439,0.0417639368373549,ST
4.6,-0.436046212911606,-0.465355217456818,9.68752384185791,0.3125019967556,-0.571649968624115,1.52439999580383,-1111.5,-2.70000004768372,-851.700012207031,-3.06629460970053,-0.0442194909315543,0.0472868515063119,ST
4.63333333333333,-0.515599250793457,-0.1722651720047,10.5542325973511,-0.0304879993200302,-0.0609759986400604,1.89025592803955,-1113.90002441406,2.10000014305115,-861.300048828125,-3.08119019894994,-0.0487276411057801,0.0164255997431224,ST
4.66666666666667,-0.270360618829727,-0.0807493031024933,9.66778469085693,0.571649968624115,-0.518296003341675,2.4847719669342,-1116.30004882812,-1.5,-873.300048828125,-3.10015937239992,-0.0271870861938662,0.0072771752564695,ST
4.7,-0.242846041917801,0.0490477234125137,9.72101974487305,0.609759986400604,-0.152439996600151,2.86587190628052,-1121.10009765625,-3.30000019073486,-870.900024414062,-3.12198931160427,-0.0246927538928953,-0.0061697690358106,ST
4.73333333333333,-0.19798532128334,0.189611315727234,9.57268047332764,0.487807989120483,0.137196004390717,2.67532205581665,-1118.70007324219,3.90000009536743,-866.100036621094,-3.14074488651647,-0.020852804046094,-0.0206351903197673,ST
4.76666666666667,-0.393578082323074,0.358885794878006,9.68513107299805,0.342989981174469,0.365855991840363,1.89025592803955,-1118.70007324219,6.90000009536743,-866.100036621094,3.12807477786161,-0.0409875930087206,-0.0376735471832826,ST
4.8,-0.689060688018799,0.357689499855042,9.83945178985596,-0.0990860015153885,1.14329993724823,1.05945801734924,-1109.10009765625,-2.70000004768372,-873.300048828125,3.12051589400823,-0.0715449927428534,-0.0363101543317393,ST
4.83333333333333,-0.826035439968109,0.458775669336319,9.96685600280762,0.274392008781433,1.60061991214752,0.327746003866196,-1125.90002441406,8.70000076293945,-866.100036621094,3.11705639596203,-0.0852720687562244,-0.0464661290594439,ST
4.86666666666667,-0.767417430877686,0.191405743360519,9.73537540435791,0.518296003341675,1.34147191047668,-0.411587983369827,-1113.90002441406,7.50000047683716,-873.300048828125,3.12207316117519,-0.0810416028454915,-0.0207205453872302,ST
4.9,-1.27464270591736,0.0735715851187706,9.96865081787109,-0.106707997620106,0.907018005847931,-1.52439999580383,-1111.5,-0.300000011920929,-873.300048828125,3.13445521664504,-0.1285026297647,-0.0069349366639543,ST
4.93333333333333,-1.4660484790802,0.216527760028839,9.60497951507568,-0.182927995920181,0.685979962348938,-1.46342396736145,-1106.70007324219,3.30000019073486,-870.900024414062,-3.14106407689287,-0.152480563325175,-0.0217119419816757,ST
4.96666666666667,-1.46903908252716,-0.0221312902867794,9.58464336395264,-0.144817993044853,0.37347799539566,-0.78506600856781,-1113.90002441406,4.5,-873.300048828125,-3.13217018614831,-0.152734080363458,0.0025725528851041,ST
5.0,-1.43673944473267,-0.200377896428108,9.46022891998291,-0.213415995240211,0.358233988285065,-0.891773998737335,-1116.30004882812,0.300000011920929,-868.500061035156,-3.12337321514365,-0.1512912449885,0.021632525844322,ST
5.03333333333333,-1.43793570995331,-0.189013183116913,9.96147346496582,-0.0990860015153885,0.67835795879364,-1.2423859834671,-1111.5,5.10000038146973,-870.900024414062,-3.1152037226369,-0.14453104987644,0.0194821989855378,ST
5.06666666666667,-1.03658175468445,-0.25839775800705,9.57507228851318,0.594515979290009,-0.0304879993200302,-1.97409796714783,-1101.90002441406,5.10000038146973,-870.900024414062,-3.10032955769344,-0.107958437712394,0.0262651252130439,ST
5.1,-0.91874760389328,-0.0980954468250275,9.5266227722168,1.09756803512573,-0.289635986089706,-2.47714996337891,-1089.90002441406,-2.70000004768372,-866.100036621094,-3.08433357434583,-0.0956915747712313,0.0089404167780375,ST
5.13333333333333,-0.783567309379578,0.0149535741657019,8.11081886291504,0.945127964019775,-0.129574000835419,-2.43903994560242,-1089.90002441406,6.30000019073486,-861.300048828125,-3.06806895008047,-0.0960897506156454,-0.0029845816039986,ST
5.16666666666667,-1.07426476478577,0.273949474096298,9.92378997802734,0.396344006061554,0.579271972179413,-2.09605002403259,-1104.30004882812,2.70000004768372,-873.300048828125,-3.05598938118588,-0.108794440584672,-0.0276914789638521,ST
5.2,-0.751865744590759,0.286510497331619,9.04631423950195,0.358233988285065,-0.205793991684914,-1.37958192825317,-1109.10009765625,-2.10000014305115,-873.300048828125,-3.04664926626267,-0.0828130195703766,-0.0320470073072948,ST
5.23333333333333,-0.699229121208191,0.034094151109457,9.42792987823486,-0.213415995240211,0.25152599811554,-0.83841997385025,-1116.30004882812,-3.90000009536743,-866.100036621094,-3.03857403403622,-0.0745322523008745,-0.0033316070976424,ST
5.26666666666667,-0.858335137367249,-0.218322187662125,9.82210540771484,-0.716467976570129,0.670735955238342,-0.663114011287689,-1097.10009765625,0.900000035762787,-880.500061035156,-3.03204896312195,-0.0881958434111523,0.0233944676624406,ST
5.3,-1.06409633159637,-0.309838056564331,10.8174152374268,-0.503051996231079,0.914639949798584,-0.320124000310898,-1097.10009765625,2.70000004768372,-875.700012207031,-3.0294328463748,-0.0994995063079067,0.0295221595587408,ST
5.33333333333333,-1.05392789840698,-0.0873288735747337,10.3616304397583,0.480185985565186,0.0533539988100529,-0.182927995920181,-1106.70007324219,0.900000035762787,-868.500061035156,-3.03001438232469,-0.101436844658945,0.0078016108606092,ST
5.36666666666667,-1.29438138008118,0.227294325828552,9.68453311920166,0.967993974685669,-0.0838419944047928,-0.129574000835419,-1087.5,-2.10000014305115,-870.900024414062,-3.03209395550606,-0.132434633319981,-0.0248543825664982,ST
5.4,-0.995309889316559,0.196789041161537,9.23054218292236,0.777444005012512,0.0457319989800453,0.411587983369827,-1097.10009765625,-2.70000004768372,-868.500061035156,-3.03413526654542,-0.107622875759117,-0.0227655942702239,ST
5.43333333333333,-0.507823407649994,0.122619308531284,9.28975868225098,0.160062000155449,-0.960371971130371,0.129574000835419,-1097.10009765625,2.10000014305115,-868.500061035156,-3.03411024612291,-0.0533744028515494,-0.013564945974778,ST
5.46666666666667,-0.317015767097473,-0.403746515512466,8.93805027008057,-0.78506600856781,-1.76830399036407,-0.411587983369827,-1097.10009765625,0.900000035762787,-863.700012207031,-3.02929844672654,-0.0324757156644303,0.0460389034955871,ST
5.5,-0.234472051262856,-0.79074501991272,9.09296989440918,-1.33385002613068,-1.18140995502472,-1.05945801734924,-1094.70007324219,6.30000019073486,-875.700012207031,-3.02148548586935,-0.0235299323613564,0.0888174667272414,ST
5.53333333333333,-0.460570096969604,-1.15680849552155,9.69171047210693,-1.62348592281342,-0.868907988071442,-1.47866797447205,-1104.30004882812,-0.900000035762787,-868.500061035156,-3.01134401852847,-0.0451589064070493,0.121468162183371,ST
5.56666666666667,-0.323595345020294,-1.5180869102478,10.2007303237915,-0.945127964019775,-1.07470202445984,-1.06708002090454,-1104.30004882812,3.30000019073486,-870.900024414062,-3.00428412808765,-0.0293674038446259,0.149204934264552,ST
5.6,-0.402550220489502,-1.49715185165405,9.77066516876221,0.137196004390717,-0.937505960464478,0.266770005226135,-1101.90002441406,-0.300000011920929,-866.100036621094,-3.00712565557282,-0.0390992769211644,0.151765061278209,ST
5.63333333333333,-0.66334056854248,-1.06290006637573,10.1893653869629,0.830797970294952,0.198172003030777,1.57775402069092,-1094.70007324219,-0.300000011920929,-868.500061035156,-3.01999908040238,-0.0650777044024827,0.102720837035732,ST
5.66666666666667,-0.77878212928772,-0.545506417751312,10.8556966781616,1.28049600124359,0.495429992675781,1.62348592281342,-1099.5,1.5,-878.100036621094,-3.03408069689221,-0.0724730765512859,0.0482221299928772,ST
5.7,-0.88285905122757,-0.235070183873177,10.4645109176636,1.79117000102997,0.152439996600151,1.28049600124359,-1099.5,2.10000014305115,-878.100036621094,-3.04412240216362,-0.0843607848599897,0.0193843060732017,ST
5.73333333333333,-1.12690138816833,0.0807493031024933,8.83337497711182,1.42531394958496,0.0076219998300075,0.602137982845306,-1099.5,-0.900000035762787,-861.300048828125,-3.0503666987305,-0.126537420492217,-0.0115049677724603,ST
5.76666666666667,-1.48997414112091,0.0837400183081627,8.51157474517822,0.266770005226135,0.853663980960846,0.0914639979600906,-1106.70007324219,-1.5,-870.900024414062,-3.05062272663717,-0.174588151310401,-0.0103389258261755,ST
5.8,-1.70410931110382,-0.403746515512466,9.05109977722168,-0.945127964019775,1.52439999580383,-0.0228659994900227,-1094.70007324219,-4.5,-873.300048828125,-3.04120049602609,-0.188461425593573,0.0457931916043299,ST
5.83333333333333,-1.62216377258301,-0.649583280086517,9.31787109375,-1.37195992469788,0.907018005847931,-0.403965979814529,-1089.90002441406,2.10000014305115,-866.100036621094,-3.03502082713214,-0.173607396134437,0.0719235261274571,ST
5.86666666666667,-1.83091568946838,-0.83560574054718,10.2103004455566,-1.49391198158264,0.0990860015153885,-0.503051996231079,-1087.5,5.70000028610229,-873.300048828125,-3.0310958778462,-0.176935865414467,0.084352682988475,ST
5.9,-1.44690787792206,-0.951047301292419,10.2772922515869,-0.983237981796265,-1.09756803512573,-0.350611984729767,-1099.5,-2.70000004768372,-870.900024414062,-3.02888585898514,-0.137640274133432,0.0939734524460166,ST
5.93333333333333,-0.71059387922287,-0.869699895381927,8.84414196014404,-0.304879993200302,-1.27287399768829,-0.289635986089706,-1104.30004882812,-6.30000019073486,-868.500061035156,-3.02745814190876,-0.0780224556527258,0.0985390725438652,ST
5.96666666666667,-0.407335370779037,-1.00906717777252,9.64565372467041,-0.144817993044853,-0.739333987236023,-0.121951997280121,-1092.30004882812,8.70000076293945,-870.900024414062,-3.026844584263,-0.0409762631384875,0.104442093374395,ST
6.0,-0.413914948701859,-1.08383500576019,10.2563571929932,-0.0838419944047928,-0.701223969459534,0.282013982534409,-1101.90002441406,6.30000019073486,-870.900024414062,-3.02927444211217,-0.0389632143153673,0.105398012092529,ST
6.03333333333333,-0.769810020923615,-0.77878212928772,9.07741737365723,0.708845973014832,-0.25152599811554,0.647870004177094,-1092.30004882812,2.10000014305115,-858.900024414062,-3.03480686770174,-0.0835851580270804,0.0844248915192531,ST
6.06666666666667,-0.809885561466217,-0.765622973442078,9.11749362945557,0.990859985351562,1.08232402801514,1.14329993724823,-1089.90002441406,2.70000004768372,-863.700012207031,-3.04164949570384,-0.0902770512799214,0.0819026035362047,ST
6.1,-0.720164120197296,-0.599937379360199,9.92079925537109,0.472563982009888,0.594515979290009,1.02134799957275,-1085.10009765625,0.900000035762787,-868.500061035156,-3.04997534470519,-0.07361374712362,0.0596301509611887,ST
6.13333333333333,-0.808091163635254,-0.51440292596817,9.86756420135498,0.503051996231079,-0.87652999162674,0.731711983680725,-1104.30004882812,5.10000038146973,-875.700012207031,-3.05617111203214,-0.080107994960978,0.0511373143185393,ST
6.16666666666667,-0.449803501367569,-0.449205368757248,8.94104099273682,0.594515979290009,-1.30336201190948,0.320124000310898,-1094.70007324219,2.10000014305115,-870.900024414062,-3.05872142342684,-0.0482207260356716,0.0491442365697151,ST
6.2,-0.144750595092773,-0.742893576622009,9.15517616271973,0.243903994560242,-1.31098401546478,-0.175305992364883,-1104.30004882812,1.5,-878.100036621094,-3.05713704840789,-0.0136505180518049,0.0803649354518293,ST
6.23333333333333,0.269164323806763,-0.964206457138062,9.61754035949707,-0.243903994560242,-1.74543797969818,-0.647870004177094,-1097.10009765625,-2.10000014305115,-875.700012207031,-3.05396246786818,0.0306181494443066,0.100159878950745,ST
6.26666666666667,0.735715866088867,-1.1615936756134,9.23233699798584,0.0609759986400604,-2.43141794204712,-0.83841997385025,-1113.90002441406,3.90000009536743,-875.700012207031,-3.05120403951417,0.0830878548496912,0.124880941803202,ST
6.3,0.0101684303954244,-1.26507234573364,9.77006721496582,0.327746003866196,-1.52439999580383,-0.381099998950958,-1111.5,-0.900000035762787,-866.100036621094,-3.05012726572512,0.0044058701270308,0.128167329310727,ST
6.33333333333333,-1.20705246925354,-1.04675018787384,10.7899007797241,0.640248000621796,0.754577994346619,1.12805593013763,-1109.10009765625,-3.30000019073486,-882.900024414062,-3.05869677354126,-0.111433509876485,0.0956677163942691,ST
6.36666666666667,-1.52526462078094,-0.613694667816162,11.0602617263794,1.59299790859222,0.846041977405548,2.30184388160706,-1109.10009765625,0.900000035762787,-866.100036621094,-3.07800719939178,-0.138304151555503,0.052464066825085,ST
6.4,-1.13467717170715,-0.281725347042084,9.3118896484375,2.38568592071533,-0.327746003866196,3.99392795562744,-1097.10009765625,6.30000019073486,-875.700012207031,-3.10920914438999,-0.120893286260726,0.0253578578417675,ST
6.43333333333333,-1.08622765541077,-0.0083740018308162,10.1355323791504,2.27135586738586,-0.746955990791321,3.97106194496155,-1123.5,-4.5,-856.500061035156,-3.14041030324592,-0.105512189474426,-0.0037371937583687,ST
6.46666666666667,-0.537132382392883,0.192003890872002,9.28138446807861,1.32622802257538,-0.92988395690918,2.4923939704895,-1109.10009765625,2.10000014305115,-866.100036621094,3.1247711948029,-0.0564803340368793,-0.0230920001778828,ST
6.5,-0.294286340475082,0.211742609739304,8.37340354919434,0.160062000155449,-0.739333987236023,1.40244793891907,-1121.10009765625,-2.70000004768372,-863.700012207031,3.11514565495932,-0.033953102333806,-0.0256248384526134,ST
6.53333333333333,-0.469542235136032,0.128002598881721,9.93934154510498,-0.457319974899292,-0.594515979290009,1.265251994133,-1123.5,-4.5,-870.900024414062,3.10687077618143,-0.0460362192682534,-0.0122895723894434,ST
6.56666666666667,0.435448080301285,-0.122619308531284,9.56789493560791,-0.3125019967556,-1.45580196380615,1.36433792114258,-1116.30004882812,2.70000004768372,-875.700012207031,3.09712160695857,0.0473443295213795,0.0132903214612349,ST
6.6,-0.526963949203491,-0.182433605194092,9.29932880401611,-0.289635986089706,-0.350611984729767,1.41006994247437,-1125.90002441406,-0.300000011920929,-856.500061035156,3.08730038589504,-0.0551847712943342,0.0199399334822356,ST
6.63333333333333,-0.134582161903381,0.268566191196442,9.4853515625,1.07470202445984,0.152439996600151,1.05945801734924,-1113.90002441406,-1.5,-861.300048828125,3.07840582914421,-0.0147306457246974,-0.0298022234515243,ST
6.66666666666667,-0.473729223012924,0.206359326839447,10.0368394851685,1.29574000835419,1.37195992469788,0.914639949798584,-1113.90002441406,-1.5,-856.500061035156,3.07244218358354,-0.0492264282934927,-0.022954304144321,ST
6.7,-0.523973226547241,0.175854027271271,9.92737865447998,0.960371971130371,1.58537602424622,0.617381989955902,-1111.5,1.5,-880.500061035156,3.06800236335858,-0.0554445404398822,-0.0194644282842448,ST
6.73333333333333,-0.711192011833191,0.533543527126312,9.497314453125,-0.0533539988100529,0.129574000835419,-0.335367977619171,-1116.30004882812,-1.5,-861.300048828125,3.0678884104563,-0.0747256063394054,-0.0556845536876736,ST
6.76666666666667,-0.362474650144577,0.30923992395401,9.37708759307861,-0.533540010452271,-1.02134799957275,-0.701223969459534,-1106.70007324219,-3.90000009536743,-858.900024414062,3.07443825707311,-0.0370891465257317,-0.0321206542967133,ST
6.8,0.0317015759646893,0.034094151109457,9.93395805358887,-0.967993974685669,-1.47104597091675,-1.02897000312805,-1113.90002441406,2.10000014305115,-863.700012207031,3.08208873855861,0.0054021333477058,-0.001997722701478,ST
6.83333333333333,0.257799625396729,-0.042468149214983,8.97932243347168,-0.899396002292633,-1.82165801525116,-1.10518991947174,-1118.70007324219,-2.70000004768372,-863.700012207031,3.08967769804053,0.0316759963029733,0.0061732696369993,ST
6.86666666666667,0.104076877236366,0.009570287540555,9.42852783203125,-0.777444005012512,-1.19665396213531,-0.891773998737335,-1123.5,-1.5,-858.900024414062,3.09605145218118,0.0132793657742477,0.0003678622154871,ST
6.9,-0.0406737215816975,0.0538328662514687,9.18388748168945,-0.594515979290009,-0.83841997385025,0.807931959629059,-1133.10009765625,-6.90000009536743,-851.700012207031,3.09051928639428,-0.0028260783130926,-0.0047844968138667,ST
6.93333333333333,-0.445616513490677,-0.068188302218914,9.61155986785889,-0.358233988285065,-0.442075997591019,2.56099200248718,-1111.5,1.5,-868.500061035156,3.07302178266086,-0.0452376586875523,0.0074238779727929,ST
6.96666666666667,-0.0777585878968239,-0.474925518035889,10.1720190048218,-0.846041977405548,-0.236281991004944,3.33843588829041,-1121.10009765625,-0.300000011920929,-863.700012207031,3.04876896434287,-0.0076746964211358,0.0478894025531871,ST
7.0,0.695042133331299,-0.222509190440178,9.81672286987305,-0.685979962348938,-1.47866797447205,2.46190595626831,-1135.5,0.900000035762787,-854.100036621094,3.03248830242249,0.0724755394972493,0.0243570963100315,ST
7.03333333333333,0.942075192928314,-0.456981241703033,10.051194190979,-0.320124000310898,-1.37958192825317,1.74543797969818,-1121.10009765625,2.10000014305115,-866.100036621094,3.01846883687232,0.0954370913472056,0.0461118259175894,ST
7.06666666666667,0.896018147468567,-0.729136288166046,9.52542686462402,0.289635986089706,-0.0990860015153885,0.0152439996600151,-1116.30004882812,2.70000004768372,-870.900024414062,3.01531180241539,0.0936987474237038,0.0757261590323443,ST
7.1,0.534739792346954,-0.824241042137146,9.21259784698486,-0.121951997280121,0.617381989955902,-1.50153398513794,-1125.90002441406,6.90000009536743,-858.900024414062,3.02568497053495,0.057117651530917,0.0892094017701487,ST
7.13333333333333,-0.176452174782753,-1.04734838008881,9.37290000915527,-0.99848198890686,1.85214591026306,-2.28659987449646,-1116.30004882812,-5.10000038146973,-868.500061035156,3.04438761941076,-0.0211638764904128,0.11301349968482,ST
7.16666666666667,-0.581993103027344,-0.903794050216675,10.1959447860718,-0.92988395690918,1.30336201190948,-2.01982998847961,-1125.90002441406,2.70000004768372,-870.900024414062,3.05791304730663,-0.0584332164860756,0.090432808095227,ST
7.2,-0.77579140663147,-1.01624488830566,9.59002590179443,0.0152439996600151,0.236281991004944,-1.04421401023865,-1121.10009765625,4.5,-858.900024414062,3.06629586300753,-0.0803110757272555,0.105570915017,DLL
7.23333333333333,-0.628648281097412,-1.31471824645996,9.64385890960693,-0.152439996600151,0.381099998950958,-0.426831990480423,-1121.10009765625,11.7000007629395,-885.300048828125,3.07165911033308,-0.0651839157010062,0.135565145375107,DLL
7.26666666666667,-0.851755619049072,-1.31531643867493,10.5769624710083,-0.442075997591019,0.609759986400604,-0.175305992364883,-1118.70007324219,-0.300000011920929,-868.500061035156,3.07244593655188,-0.0806736055454869,0.124591014524866,DLL
7.3,-0.948654770851135,-1.10716259479523,10.1893653869629,-0.205793991684914,0.960371971130371,0.381099998950958,-1123.5,4.5,-875.700012207031,3.06906582350728,-0.0939242567462216,0.108679704987351,DLL
7.33333333333333,-0.682481110095978,-0.782370984554291,9.5445671081543,0.304879993200302,0.426831990480423,1.02134799957275,-1101.90002441406,5.10000038146973,-854.100036621094,3.06020980561102,-0.0722139585934575,0.0813547707004621,DLL
7.36666666666667,-0.684275567531586,-0.729734420776367,9.41477012634277,0.746955990791321,0.487807989120483,1.50915598869324,-1109.10009765625,3.30000019073486,-863.700012207031,3.0497826709478,-0.0733784698151771,0.0759005536185948,DLL
7.4,-0.634031534194946,-0.559263706207275,9.29514217376709,0.945127964019775,0.983237981796265,1.28811800479889,-1106.70007324219,-2.70000004768372,-868.500061035156,3.04055647036753,-0.0698581164395011,0.0584391836175047,DLL
7.43333333333333,-0.799717128276825,0.0233275759965181,9.00564098358154,1.2347639799118,0.426831990480423,1.11281192302704,-1099.5,0.300000011920929,-870.900024414062,3.0286519693858,-0.0891526347153554,-0.0043982565251419,DLL
7.46666666666667,-1.34881234169006,0.185424327850342,9.03255653381348,0.907018005847931,-0.304879993200302,3.20886182785034,-1099.5,2.10000014305115,-866.100036621094,3.00536981888379,-0.147068665439417,-0.0227710790349976,DLL
7.5,-1.98463833332062,-0.0107665732502937,9.88849925994873,-0.518296003341675,-1.33385002613068,8.15553951263428,-1106.70007324219,5.10000038146973,-861.300048828125,2.95304522081743,-0.195316401353314,-0.0009758721729549,DLL
7.53333333333333,-1.58627510070801,-0.139367312192917,9.40101337432861,-1.21189796924591,-2.46190595626831,11.3415355682373,-1116.30004882812,12.3000001907349,-863.700012207031,2.87677972020884,-0.163358618776419,0.0135218560341106,DLL
7.56666666666667,-2.97635936737061,-0.223107323050499,9.78442287445068,-0.609759986400604,-2.21800184249878,16.9208393096924,-1118.70007324219,4.5,-858.900024414062,2.75226901899642,-0.291190573117724,0.0150844339576278,DLL
7.6,-3.02421092987061,-0.984543323516846,9.51346397399902,-1.31098401546478,-1.72257196903229,23.4147834777832,-1123.5,3.30000019073486,-868.500061035156,2.60753267417573,-0.306817886517036,0.0920191136487234,DLL
7.63333333333333,-2.16886639595032,-2.17783856391907,8.393141746521,-3.59758400917053,-2.27897787094116,29.4666519165039,-1130.70007324219,17.1000003814697,-846.900024414062,2.42943853139709,-0.253776146461305,0.246191593403085,DLL
7.66666666666667,-0.894223749637604,-3.2066445350647,7.97444200515747,-5.55643796920776,-3.25459384918213,31.806604385376,-1125.90002441406,16.5,-858.900024414062,2.23687379310283,-0.119949472563538,0.384147962009897,DLL
7.7,0.399559497833252,-3.54758596420288,9.42314434051514,-6.46345567703247,-3.97106194496155,28.9636001586914,-1121.10009765625,26.7000007629395,-849.300048828125,2.02707025968961,0.0269312410075464,0.372483714603576,DLL
7.73333333333333,1.45468366146088,-3.66183137893677,10.6403656005859,-4.81710386276245,-3.51374197006226,24.5657062530518,-1118.70007324219,29.7000007629395,-854.100036621094,1.84995904784127,0.119406469639695,0.344952689990224,DLL
7.76666666666667,3.09538984298706,-3.39266681671143,9.8137321472168,-2.76678586006165,-3.72715783119202,14.6723499298096,-1113.90002441406,31.5000019073486,-846.900024414062,1.75048432207869,0.286052785604438,0.345273362911586,DLL
7.8,1.9086742401123,-2.54150938987732,11.3007154464722,-0.304879993200302,-3.04879999160767,7.47718191146851,-1104.30004882812,36.3000030517578,-844.500061035156,1.71878554443019,0.166124825312253,0.224673381627301,DLL
7.83333333333333,1.78844749927521,-1.82553231716156,9.57088565826416,1.95885396003723,-2.25611186027527,1.59299790859222,-1106.70007324219,37.5,-837.300048828125,1.70949825199511,0.184731680611597,0.186019942094218,DLL
7.86666666666667,0.106469452381134,-0.87388688325882,10.5769624710083,3.27745985984802,-1.21189796924591,-0.0762199983000755,-1106.70007324219,38.7000007629395,-839.700012207031,1.71865338670686,0.0131358260616723,0.0773358337886263,DLL
7.9,-0.1722651720047,-0.547300815582275,9.87713527679443,2.86587190628052,-0.891773998737335,0.510673999786377,-1109.10009765625,44.1000022888184,-842.100036621094,1.7145924347514,-0.0157666133063431,0.0504651040670425,DLL
7.93333333333333,-0.334960073232651,-0.174059599637985,10.3107881546021,1.70732796192169,-0.87652999162674,0.967993974685669,-1121.10009765625,39.3000030517578,-849.300048828125,1.7072398874381,-0.030842767621056,0.0141473859076903,DLL
7.96666666666667,0.285314202308655,-0.126208171248436,9.76468372344971,0.967993974685669,-1.11281192302704,1.13567793369293,-1121.10009765625,41.1000022888184,-851.700012207031,1.69919347436891,0.0306208836699321,0.0113149095697685,DLL
8.0,0.967197179794312,-0.244640469551086,9.03554725646973,0.457319974899292,-1.95885396003723,0.830797970294952,-1111.5,36.3000030517578,-851.700012207031,1.69183644090406,0.109329599997785,0.0263106428313793,DLL
8.03333333333333,1.44032824039459,-0.404942780733109,8.98231315612793,-0.556405961513519,-2.03507399559021,0.0609759986400604,-1113.90002441406,34.5,-844.500061035156,1.68877021754224,0.161948564856654,0.0459033840526513,DLL
8.06666666666667,1.52705895900726,-0.339745193719864,8.97992038726807,-0.899396002292633,-1.6844619512558,-0.815553963184357,-1123.5,32.7000007629395,-839.700012207031,1.69600690826029,0.171240464514493,0.0392147071601716,DLL
8.1,1.51928317546844,-0.476121813058853,8.90754508972168,-0.0762199983000755,-0.304879993200302,-1.50915598869324,-1123.5,39.9000015258789,-842.100036621094,1.70423403378677,0.169382082209079,0.0529936795300047,DLL
8.13333333333333,0.883457183837891,-0.583189368247986,10.0434188842773,-0.144817993044853,0.518296003341675,-2.15702605247498,-1128.30004882812,33.9000015258789,-844.500061035156,1.72008727006081,0.0872958025182234,0.0578903704305661,DLL
8.16666666666667,0.686069965362549,-0.910971760749817,9.78143215179443,-1.2500079870224,0.701223969459534,-2.36281991004944,-1123.5,37.5,-842.100036621094,1.73554149275111,0.0689962877837521,0.0945426679426857,DLL
8.2,0.204564899206161,-0.834409415721893,10.3323221206665,-1.01372599601746,0.472563982009888,-1.78354799747467,-1121.10009765625,36.3000030517578,-851.700012207031,1.74923865355233,0.019508128797131,0.0823683747372081,DLL
8.23333333333333,0.374437510967255,-0.97258049249649,9.70367336273193,0.0838419944047928,0.282013982534409,-1.14329993724823,-1125.90002441406,29.1000003814697,-834.900024414062,1.75677224503261,0.0379310138458972,0.0995304819434611,DLL
8.26666666666667,0.913962483406067,-1.28421294689178,9.1749153137207,0.0838419944047928,0.632625997066498,-1.01372599601746,-1121.10009765625,35.1000022888184,-842.100036621094,1.76158671020969,0.0969950294725306,0.138416275626954,DLL
8.3,0.252416342496872,-1.04914271831512,9.09536170959473,-0.144817993044853,0.434453994035721,-1.27287399768829,-1116.30004882812,36.9000015258789,-849.300048828125,1.77216344053574,0.0276393313681792,0.115216453260583,DLL
8.33333333333333,0.429466664791107,-1.31172752380371,8.93027496337891,-0.144817993044853,0.724089980125427,-0.442075997591019,-1130.70007324219,39.3000030517578,-854.100036621094,1.77512830968049,0.0463170934037714,0.145906003485286,DLL
8.36666666666667,0.500047504901886,-1.47023546695709,9.28916072845459,-1.06708002090454,0.548784017562866,-1.04421401023865,-1116.30004882812,36.3000030517578,-844.500061035156,1.78258222091205,0.0524103278585419,0.158627651170105,DLL
8.4,0.447410941123962,-1.65805232524872,9.02059459686279,-1.12805593013763,0.487807989120483,-0.975615978240967,-1121.10009765625,32.1000022888184,-839.700012207031,1.78893988924922,0.048249280073398,0.183453610637043,DLL
8.43333333333333,-0.412718653678894,-1.46365582942963,10.7294883728027,0.190549999475479,0.3125019967556,-0.457319974899292,-1113.90002441406,37.5,-849.300048828125,1.79265343214131,-0.0378154336609663,0.135670669858215,DLL
8.46666666666667,-0.323595345020294,-1.66223931312561,10.5045871734619,1.10518991947174,0.556405961513519,0.0152439996600151,-1121.10009765625,34.5,-839.700012207031,1.79404051267678,-0.0314337431782984,0.154854893010145,DLL
8.5,0.2105463296175,-1.84048593044281,9.41118144989014,-0.327746003866196,0.579271972179413,-1.50915598869324,-1113.90002441406,45.9000015258789,-844.500061035156,1.80557638754949,0.0211003062358574,0.193379041554447,DLL
8.53333333333333,-0.327184200286865,-1.52526462078094,8.75561714172363,-0.236281991004944,0.617381989955902,-1.47104597091675,-1123.5,33.9000015258789,-846.900024414062,1.81613754580113,-0.0369353425012199,0.17314780323424,DLL
8.56666666666667,-0.581993103027344,-1.86082279682159,10.3562469482422,-0.160062000155449,1.16616594791412,-1.31860601902008,-1106.70007324219,30.9000015258789,-849.300048828125,1.82762841838903,-0.0567565040159627,0.178187323390066,DLL
8.6,-0.386998504400253,-1.60780835151672,9.70247745513916,-0.0990860015153885,-0.388722002506256,-1.51677799224854,-1125.90002441406,30.9000015258789,-842.100036621094,1.83712634872131,-0.0383522539255884,0.164582802142725,DLL
8.63333333333333,-0.378026366233826,-1.21004319190979,9.38725566864014,1.18903195858002,0.0304879993200302,-0.571649968624115,-1116.30004882812,36.9000015258789,-839.700012207031,1.84028413590393,-0.0398377712714089,0.126341797283774,DLL
8.66666666666667,-0.825437307357788,-0.87986832857132,9.12825965881348,2.10367202758789,0.990859985351562,-0.0762199983000755,-1128.30004882812,30.9000015258789,-842.100036621094,1.84043555765175,-0.0910547390017943,0.0927256915349415,DLL
8.7,-1.0216281414032,-0.625059425830841,9.65582180023193,1.93598794937134,1.57775402069092,0.365855991840363,-1123.5,29.7000007629395,-837.300048828125,1.83695782925414,-0.107844048288869,0.0614733640319407,DLL
8.73333333333333,-0.677097856998444,-0.712388277053833,9.55772686004639,1.2423859834671,0.87652999162674,0.541162014007568,-1109.10009765625,25.5000019073486,-846.900024414062,1.83530837633658,-0.0724159950028418,0.0720812202909999,DLL
8.76666666666667,-0.215929612517357,-0.863718450069427,9.62471866607666,-0.411587983369827,-0.815553963184357,0.37347799539566,-1118.70007324219,40.5,-851.700012207031,1.83300246117783,-0.021402910345228,0.0900521766206728,DLL
8.8,0.228490620851517,-0.971384167671204,9.25087928771973,-0.724089980125427,-1.79879200458527,0.358233988285065,-1116.30004882812,35.7000007629395,-842.100036621094,1.82930562051243,0.0272146032391709,0.105779404356123,DLL
8.83333333333333,0.367857933044434,-0.970786035060883,9.57088565826416,-0.144817993044853,-1.33385002613068,0.358233988285065,-1113.90002441406,36.3000030517578,-849.300048828125,1.82608665287686,0.0403644417692922,0.101408460802585,DLL
8.86666666666667,-0.257799625396729,-0.635227859020233,10.0165023803711,1.6692179441452,0.0533539988100529,0.762199997901917,-1125.90002441406,30.9000015258789,-849.300048828125,1.82126948999814,-0.0253144778527985,0.0607256237581712,DLL
8.9,0.765622973442078,-0.993515491485596,9.43391132354736,1.31860601902008,0.0152439996600151,0.381099998950958,-1121.10009765625,31.5000019073486,-846.900024414062,1.81703892663101,0.0795752392573198,0.102329219384437,DLL
8.93333333333333,0.215331465005875,-0.687864422798157,8.89677810668945,-0.0,-0.739333987236023,-0.617381989955902,-1116.30004882812,30.3000011444092,-839.700012207031,1.82218085437303,0.02594006818782,0.0773414075876304,DLL
8.96666666666667,0.459971934556961,-1.10835897922516,9.00444412231445,-0.297257989645004,0.175305992364883,-0.137196004390717,-1118.70007324219,24.9000015258789,-844.500061035156,1.82162558435932,0.0501819110280369,0.122605367639689,DLL
9.0,-0.38939106464386,-1.1938933134079,10.1720190048218,-0.716467976570129,-0.0228659994900227,-0.243903994560242,-1121.10009765625,35.7000007629395,-851.700012207031,1.82322933338381,-0.0371901627663303,0.118138155432294,DLL
9.03333333333333,-0.386400371789932,-1.58926582336426,10.0685405731201,-1.08994603157043,0.396344006061554,0.457319974899292,-1123.5,38.7000007629395,-846.900024414062,1.82173753804315,-0.0386852719378202,0.158099307343346,DLL
9.06666666666667,-0.0741697251796722,-1.6664263010025,9.94173431396484,-1.40244793891907,-0.0990860015153885,0.6250039935112,-1121.10009765625,30.3000011444092,-846.900024414062,1.81745599633152,-0.0076258904296199,0.168428316907889,DLL
9.1,-0.206957474350929,-1.51748871803284,9.14680194854736,-0.388722002506256,-0.0533539988100529,1.20427596569061,-1121.10009765625,33.3000030517578,-844.500061035156,1.80908442571248,-0.0224490179645938,0.165066714724159,DLL
9.13333333333333,0.0550291538238525,-1.75734400749207,8.9894905090332,0.541162014007568,0.815553963184357,1.59299790859222,-1111.5,35.7000007629395,-842.100036621094,1.7986725027681,0.0039563375662892,0.191990003132058,DLL
9.16666666666667,-0.663938701152802,-1.32428848743439,9.89866828918457,0.403965979814529,0.106707997620106,1.19665396213531,-1121.10009765625,36.3000030517578,-851.700012207031,1.78840018121106,-0.0664461722234052,0.132499301406372,DLL
9.2,0.138171032071114,-1.20824885368347,9.61215782165527,0.907018005847931,-0.99848198890686,1.86738991737366,-1125.90002441406,35.1000022888184,-844.500061035156,1.77327811235966,0.0152013215892789,0.123549089504766,DLL
9.23333333333333,0.419298231601715,-0.849961161613464,9.73358058929443,0.769822001457214,-1.85214591026306,1.57013201713562,-1106.70007324219,38.1000022888184,-842.100036621094,1.76219620440729,0.0456178490033818,0.0862000350473031,DLL
9.26666666666667,0.0771604403853416,-0.407933503389359,10.3873510360718,1.39482593536377,-1.44055795669556,2.01982998847961,-1123.5,29.1000003814697,-846.900024414062,1.74894301731398,0.0100896606932429,0.0372618314789175,DLL
9.3,0.750669419765472,-0.693845868110657,9.45484638214111,0.480185985565186,-0.175305992364883,1.2423859834671,-1125.90002441406,31.5000019073486,-854.100036621094,1.73855183425045,0.0786037212177168,0.0722921357798853,DLL
9.33333333333333,0.341539651155472,-0.407335370779037,9.71444034576416,-0.152439996600151,-0.129574000835419,0.853663980960846,-1128.30004882812,29.1000003814697,-856.500061035156,1.73437119251929,0.0356281202643513,0.042473663359588,DLL
9.36666666666667,0.301464051008224,-0.515001118183136,9.47817325592041,0.205793991684914,0.426831990480423,1.2423859834671,-1113.90002441406,36.9000015258789,-844.500061035156,1.72552343217999,0.030927603819071,0.0538949087390519,DLL
9.4,0.643601834774017,-0.997104346752167,8.85849761962891,-0.701223969459534,0.480185985565186,0.144817993044853,-1123.5,36.3000030517578,-842.100036621094,1.72215090942909,0.0708822545061917,0.112834457697909,DLL
9.43333333333333,-0.226098045706749,-0.486290246248245,9.5326042175293,0.274392008781433,0.350611984729767,0.388722002506256,-1113.90002441406,28.5000019073486,-844.500061035156,1.72109467088869,-0.0235509726245982,0.050988351744765,DLL
9.46666666666667,0.333165645599365,-0.720762252807617,9.73716926574707,1.05945801734924,0.579271972179413,1.05183601379395,-1118.70007324219,34.5,-842.100036621094,1.71387688111973,0.0325078950789748,0.0719184810470246,DLL
9.5,0.41750380396843,-0.811081886291504,9.93814563751221,0.259148001670837,-0.426831990480423,0.426831990480423,-1109.10009765625,30.3000011444092,-844.500061035156,1.70990071202419,0.042489846408811,0.0809786330574966,DLL
9.53333333333333,0.782370984554291,-1.10177934169769,9.10493278503418,-0.46494197845459,-0.266770005226135,-0.182927995920181,-1118.70007324219,33.3000030517578,-851.700012207031,1.70864287366747,0.0852472883053768,0.120882843263287,DLL
9.56666666666667,-0.0903195887804031,-0.788352429866791,10.4118747711182,0.426831990480423,0.160062000155449,-0.137196004390717,-1118.70007324219,33.9000015258789,-851.700012207031,1.71149603053131,-0.0084651367385462,0.0750468588669054,DLL
9.6,0.381615221500397,-0.940280735492706,9.74255275726318,0.586893975734711,0.0533539988100529,-0.0990860015153885,-1111.5,33.9000015258789,-834.900024414062,1.7118013584085,0.0385047932001458,0.0950187721543717,DLL
9.63333333333333,0.732725143432617,-1.06170380115509,9.11689472198486,-0.274392008781433,-0.533540010452271,-0.792688012123108,-1116.30004882812,39.9000015258789,-844.500061035156,1.71570311343726,0.0803997410137687,0.116136465766036,DLL
9.66666666666667,0.338548928499222,-0.946860313415527,8.88541412353516,-0.160062000155449,-0.564027965068817,-0.823175966739655,-1106.70007324219,29.1000003814697,-854.100036621094,1.72156225974622,0.0393399365272942,0.106467776260086,DLL
9.7,0.634031534194946,-1.41042113304138,9.36213397979736,-0.518296003341675,-0.0990860015153885,-0.78506600856781,-1121.10009765625,27.9000015258789,-849.300048828125,1.72473347551996,0.0670125700527072,0.149984027684104,DLL
9.73333333333333,-0.360680222511292,-0.943271458148956,9.84184455871582,-0.274392008781433,0.0304879993200302,-1.29574000835419,-1106.70007324219,33.3000030517578,-842.100036621094,1.73448287522399,-0.0354483544930826,0.0965444377396112,DLL
9.76666666666667,0.150133892893791,-1.41939330101013,10.0703353881836,0.25152599811554,0.868907988071442,-0.731711983680725,-1116.30004882812,39.3000030517578,-854.100036621094,1.7407453721011,0.0130335071254372,0.139217533219834,DLL
9.8,0.0604124404489994,-1.37931764125824,9.07382869720459,-0.205793991684914,0.0533539988100529,-1.50915598869324,-1118.70007324219,35.1000022888184,-851.700012207031,1.75100715227498,0.0069358265462758,0.151097900438968,DLL
9.83333333333333,-0.736313998699188,-1.37931764125824,10.2360210418701,-0.160062000155449,0.891773998737335,-1.2347639799118,-1130.70007324219,33.3000030517578,-846.900024414062,1.7597013172026,-0.0717707274473898,0.134523475421162,DLL
9.86666666666667,-0.352306216955185,-1.61259341239929,9.83765697479248,-0.884151995182037,0.403965979814529,-1.81403601169586,-1113.90002441406,35.1000022888184,-846.900024414062,1.77381083159108,-0.0358058357834777,0.163896607772942,DLL
9.9,-0.977963745594025,-1.66523003578186,10.0535869598389,-0.495429992675781,0.419209986925125,-0.945127964019775,-1113.90002441406,33.3000030517578,-849.300048828125,1.78051295111917,-0.095631136514757,0.165163398692297,DLL
9.93333333333333,0.584983825683594,-2.13656663894653,8.92548942565918,-0.861285984516144,-0.685979962348938,-1.39482593536377,-1113.90002441406,34.5,-846.900024414062,1.79015844013507,0.0640514461928346,0.235755110515106,DLL
9.96666666666667,-0.851755619049072,-1.54261076450348,10.5560274124146,0.381099998950958,-0.228659987449646,-0.685979962348938,-1109.10009765625,36.9000015258789,-851.700012207031,1.79403992064296,-0.0779289195236325,0.145280437206015,DLL
10.0,-1.24294114112854,-1.42956173419952,9.82150745391846,1.87501192092896,0.297257989645004,0.282013982534409,-1128.30004882812,28.5000019073486,-846.900024414062,1.79346894632021,-0.124781788287245,0.141248370759547,DLL
10.0333333333333,0.0011962859425693,-1.50971281528473,9.25387001037598,0.960371971130371,0.0990860015153885,-0.3125019967556,-1116.30004882812,31.5000019073486,-846.900024414062,1.79708629262919,-0.0009821422227104,0.159893918152654,DLL
10.0666666666667,-0.691453278064728,-0.967795312404633,9.60497951507568,1.51677799224854,-0.403965979814529,1.37958192825317,-1113.90002441406,32.7000007629395,-849.300048828125,1.7856558695065,-0.0704725124380376,0.0981169932841342,DLL
10.1,0.0980954468250275,-0.99889874458313,9.24250507354736,0.83841997385025,-0.0076219998300075,1.34909391403198,-1111.5,29.1000003814697,-846.900024414062,1.77667711518994,0.0096548670273483,0.106145097023707,DLL
10.1333333333333,-1.00667464733124,-0.528160214424133,10.4405851364136,1.79879200458527,0.213415995240211,2.17989206314087,-1118.70007324219,32.7000007629395,-854.100036621094,1.76009817424066,-0.0956936635515689,0.0475426206176495,DLL
10.1666666666667,-0.169872596859932,-0.631040811538696,10.0081281661987,1.28811800479889,0.342989981174469,1.74543797969818,-1111.5,30.9000015258789,-842.100036621094,1.74926907717503,-0.0183565529016001,0.0605507561931527,DLL
10.2,-1.15740668773651,-0.0735715851187706,11.2331247329712,1.6920839548111,-0.533540010452271,2.11129403114319,-1116.30004882812,28.5000019073486,-846.900024414062,1.7322008598553,-0.101079712075885,0.0037041573597111,DLL
10.2333333333333,0.459971934556961,-0.599339246749878,9.30770301818848,0.853663980960846,-1.08994603157043,2.14940404891968,-1106.70007324219,34.5,-858.900024414062,1.71700346161839,0.0502261976284381,0.0627120600164462,DLL
10.2666666666667,1.48459088802338,-1.06050753593445,7.62991189956665,-0.487807989120483,-1.37195992469788,1.265251994133,-1118.70007324219,29.1000003814697,-856.500061035156,1.69864530990124,0.191294477128819,0.138793740790691,DLL
10.3,0.502440094947815,-0.760239720344543,9.33043193817139,-1.32622802257538,-1.14329993724823,-0.335367977619171,-1113.90002441406,37.5,-846.900024414062,1.70793360383165,0.0564321893350524,0.0839007592546331,DLL
10.3333333333333,0.14056359231472,-0.909177303314209,9.98898792266846,0.0533539988100529,-0.0914639979600906,0.419209986925125,-1111.5,33.3000030517578,-844.500061035156,1.70456504247313,0.0143465668122548,0.0906478550863861,DLL
10.3666666666667,0.169872596859932,-0.889438569545746,9.44407939910889,0.160062000155449,-0.609759986400604,0.419209986925125,-1118.70007324219,33.9000015258789,-839.700012207031,1.70112062114824,0.0188662290374756,0.0936182258772819,DLL
10.4,0.757847130298615,-1.22200608253479,8.63539028167725,-0.228659987449646,-0.670735955238342,0.632625997066498,-1118.70007324219,27.3000011444092,-837.300048828125,1.69351358599133,0.0872911252158673,0.140813557742303,DLL
10.4333333333333,0.324791640043259,-1.287801861763,9.21857929229736,-0.663114011287689,-0.350611984729767,0.3125019967556,-1128.30004882812,35.7000007629395,-849.300048828125,1.69131068902373,0.0358335001185099,0.139986061386064,DLL
10.4666666666667,-0.185424327850342,-0.990524768829346,10.0763168334961,-0.304879993200302,-0.0152439996600151,0.87652999162674,-1109.10009765625,32.7000007629395,-842.100036621094,1.68563167368604,-0.0179949777461491,0.0988347971087365,DLL
10.5,0.318810194730759,-1.12211620807648,9.76109504699707,-0.670735955238342,0.213415995240211,1.09756803512573,-1113.90002441406,29.7000007629395,-846.900024414062,1.67823487905384,0.0314386964524638,0.11554363000384,DLL
10.5333333333333,0.283519774675369,-1.19090270996094,9.70307540893555,-0.670735955238342,-0.0457319989800453,1.43293595314026,-1116.30004882812,36.9000015258789,-844.500061035156,1.66827078128196,0.028788047662744,0.123302480197228,DLL
10.5666666666667,0.372044920921326,-0.57062840461731,9.47996807098389,0.0304879993200302,-0.381099998950958,0.937505960464478,-1121.10009765625,31.5000019073486,-856.500061035156,1.66374954150997,0.0396264070124599,0.0606498922563699,DLL
10.6,-0.0508421510457993,-0.540721237659454,9.84543323516846,1.05183601379395,0.342989981174469,1.20427596569061,-1116.30004882812,29.1000003814697,-846.900024414062,1.65491475742475,-0.0056513012333101,0.053056757344304,DLL
10.6333333333333,0.228490620851517,-0.331969350576401,9.31966590881348,0.655492007732391,-0.167683988809586,-0.0838419944047928,-1116.30004882812,38.1000022888184,-844.500061035156,1.65558534574257,0.0246504040471794,0.0345458409735569,DLL
10.6666666666667,-0.583189368247986,-0.166283741593361,11.1619462966919,1.20427596569061,0.335367977619171,0.365855991840363,-1121.10009765625,41.7000007629395,-866.100036621094,1.65308058913537,-0.0521548934225513,0.0129418203732199,DLL
10.7,0.925327181816101,-0.707004964351654,9.4853515625,0.3125019967556,-0.830797970294952,-0.0228659994900227,-1113.90002441406,35.7000007629395,-842.100036621094,1.65140808710855,0.0971903020577118,0.073355907197481,DLL
10.7333333333333,0.778183996677399,-0.592759668827057,9.33521747589111,-0.739333987236023,-1.50915598869324,-0.716467976570129,-1109.10009765625,36.3000030517578,-858.900024414062,1.65716645557245,0.08577633281766,0.0646587827118802,DLL
10.7666666666667,0.64838695526123,-0.692051410675049,9.60797023773193,-0.3125019967556,-0.236281991004944,-0.632625997066498,-1125.90002441406,32.1000022888184,-839.700012207031,1.66110218352063,0.0678229285132969,0.072324013274093,DLL
10.8,-0.178246602416039,-0.716575264930725,9.96924877166748,0.182927995920181,1.22714197635651,-0.525918006896973,-1118.70007324219,33.3000030517578,-851.700012207031,1.66535316692096,-0.0191838871155705,0.0714604779453635,DLL
10.8333333333333,0.773997008800507,-1.32608294487,8.620436668396,-0.647870004177094,0.518296003341675,-0.861285984516144,-1109.10009765625,34.5,-856.500061035156,1.66922616089896,0.0869609956853831,0.152951486761171,DLL
10.8666666666667,0.82065212726593,-1.43494498729706,9.09416580200195,-2.55336999893188,-0.495429992675781,-2.15702605247498,-1116.30004882812,27.3000011444092,-827.700012207031,1.6842474892218,0.0903289603052083,0.160566416120129,DLL
10.9,0.574217259883881,-1.50791847705841,9.19046688079834,-0.99848198890686,-0.617381989955902,-0.769822001457214,-1106.70007324219,34.5,-849.300048828125,1.68929058337075,0.0630163729081871,0.16427312923526,DLL
10.9333333333333,-0.133385881781578,-1.22439861297607,10.4597263336182,-0.167683988809586,0.411587983369827,-0.990859985351562,-1135.5,39.3000030517578,-846.900024414062,1.69807239114396,-0.0127405238659255,0.117110180113846,DLL
10.9666666666667,-0.311034351587296,-1.18611752986908,10.09485912323,1.13567793369293,1.05183601379395,0.25152599811554,-1113.90002441406,30.9000015258789,-856.500061035156,1.69735187557042,-0.0323038616099579,0.11498925031318,DLL
11.0,-0.16568560898304,-0.940280735492706,9.70128059387207,0.228659987449646,0.190549999475479,-0.221037998795509,-1123.5,38.1000022888184,-844.500061035156,1.69877644039612,-0.017349931325494,0.0963031535479117,DLL
11.0333333333333,0.11484345048666,-1.15680849552155,9.26882362365723,-0.533540010452271,-0.25152599811554,0.442075997591019,-1125.90002441406,33.3000030517578,-837.300048828125,1.69562753735141,0.01238914648053,0.124869185450337,DLL
11.0666666666667,0.339147061109543,-1.55876052379608,10.1289529800415,-1.08232402801514,-0.289635986089706,-0.0457319989800453,-1118.70007324219,42.9000015258789,-842.100036621094,1.69521012170923,0.0335101098035989,0.154466421499632,DLL
11.1,0.101086162030697,-1.90807604789734,9.60198879241943,-0.342989981174469,-0.175305992364883,-0.137196004390717,-1116.30004882812,32.7000007629395,-832.500061035156,1.69502603042452,0.0108589673753134,0.196411834684689,DLL
11.1333333333333,-0.272753208875656,-1.75196075439453,9.87474250793457,-0.457319974899292,-0.221037998795509,-1.02134799957275,-1116.30004882812,36.9000015258789,-844.500061035156,1.70148620197328,-0.0261900159940384,0.176595153035775,DLL
11.1666666666667,0.187218755483627,-1.89551508426666,8.74724292755127,-0.289635986089706,0.205793991684914,-0.266770005226135,-1113.90002441406,30.3000011444092,-854.100036621094,1.70370749800777,0.0202772398553183,0.2135893835858,DLL
11.2,-0.867307305335999,-1.53184413909912,10.0912704467773,0.510673999786377,1.2576299905777,0.327746003866196,-1118.70007324219,34.5,-842.100036621094,1.70102411629054,-0.0861490437861155,0.150265014011591,DLL
11.2333333333333,-0.292491912841797,-1.76870882511139,9.29095458984375,0.457319974899292,0.724089980125427,0.952749967575073,-1116.30004882812,37.5,-851.700012207031,1.6971108624869,-0.0326764352345111,0.187128351559604,DLL
11.2666666666667,0.203368604183197,-1.69932413101196,8.98111629486084,-0.655492007732391,-0.609759986400604,0.403965979814529,-1121.10009765625,32.7000007629395,-849.300048828125,1.69362683376856,0.0227020238173367,0.188154444355643,DLL
11.3,-0.291893780231476,-1.40743041038513,9.35794639587402,0.350611984729767,-0.495429992675781,0.67835795879364,-1121.10009765625,35.1000022888184,-844.500061035156,1.68835791514315,-0.0297261009871501,0.148956330249019,DLL
11.3333333333333,-1.07785367965698,-1.04615211486816,10.2569561004639,1.6920839548111,0.853663980960846,0.670735955238342,-1116.30004882812,32.1000022888184,-846.900024414062,1.68206009078944,-0.105143529523147,0.0989998045775587,DLL
11.3666666666667,-0.727341830730438,-0.617881715297699,9.49372482299805,2.04269599914551,1.20427596569061,0.25152599811554,-1123.5,31.5000019073486,-858.900024414062,1.67868323687384,-0.078580480168974,0.0616158752321353,DLL
11.4,-1.33266258239746,-0.261986613273621,9.85081672668457,2.66770005226135,1.37958192825317,0.907018005847931,-1116.30004882812,37.5,-849.300048828125,1.67076594832462,-0.13638989945016,0.0220550851486035,DLL
11.4333333333333,0.195592746138573,-0.731528878211975,9.29454326629639,1.38720393180847,-0.266770005226135,0.815553963184357,-1113.90002441406,33.9000015258789,-846.900024414062,1.66832787720451,0.0200393689778429,0.0757008864965191,DLL
11.4666666666667,-0.455186814069748,-0.53234726190567,10.1145973205566,-0.205793991684914,-2.17989206314087,0.221037998795509,-1116.30004882812,33.3000030517578,-851.700012207031,1.66550345385463,-0.0407841625210428,0.0530493367588747,DLL
11.5,-0.0604124404489994,-0.866709172725677,10.2085056304932,-0.937505960464478,-1.79117000102997,0.335367977619171,-1104.30004882812,30.9000015258789,-851.700012207031,1.66256511242383,-0.0030110047721051,0.086173453534407,DLL
11.5333333333333,0.595152258872986,-1.12809765338898,9.7299919128418,-1.08994603157043,-1.53202199935913,0.0457319989800453,-1118.70007324219,39.9000015258789,-849.300048828125,1.66045244173569,0.0629538832473993,0.117173389903308,DLL
11.5666666666667,1.14065861701965,-1.56593835353851,8.55882740020752,-0.846041977405548,-0.99848198890686,0.0152439996600151,-1121.10009765625,27.9000015258789,-849.300048828125,1.65359643812321,0.131497158486074,0.181942637985373,DLL
11.6,1.06708705425262,-1.62096750736237,8.75202751159668,-1.2576299905777,-1.12043392658234,-1.74543797969818,-1113.90002441406,39.9000015258789,-854.100036621094,1.66568346732482,0.121844615656703,0.184991818150955,DLL
11.6333333333333,0.487486511468887,-1.32967185974121,8.70477485656738,0.754577994346619,-0.0381099991500378,-1.44817996025085,-1133.10009765625,35.7000007629395,-839.700012207031,1.67907640974431,0.0560623286397222,0.150284161182124,DLL
11.6666666666667,0.449205368757248,-0.963010191917419,9.44407939910889,1.19665396213531,0.243903994560242,-1.89787793159485,-1130.70007324219,36.9000015258789,-842.100036621094,1.69604295230724,0.0472283799479264,0.0995707992870125,DLL
11.7,-0.10826388001442,-0.789548695087433,9.53021240234375,2.27135586738586,0.6250039935112,-0.533540010452271,-1137.90002441406,32.7000007629395,-839.700012207031,1.70065907130296,-0.0119954513337512,0.0788232222121747,DLL
11.7333333333333,0.16269488632679,-0.854746282100677,11.2851638793945,0.99848198890686,0.0838419944047928,-1.43293595314026,-1118.70007324219,30.3000011444092,-839.700012207031,1.7105273961051,0.0141972750063982,0.0738615532809471,DLL
11.7666666666667,0.884653449058533,-1.15262150764465,10.5685882568359,-0.289635986089706,-1.30336201190948,-3.23934984207153,-1128.30004882812,35.1000022888184,-842.100036621094,1.73026475941695,0.0852986176613251,0.108405048778521,DLL
11.8,1.58268630504608,-1.59883618354797,10.6002893447876,-1.20427596569061,-1.32622802257538,-5.80796384811401,-1135.5,31.5000019073486,-846.900024414062,1.76459396253932,0.149830615047061,0.150017383280048,DLL
11.8333333333333,2.56543517112732,-2.03727507591248,9.42792987823486,-1.63110792636871,-0.693601965904236,-10.3735418319702,-1130.70007324219,30.9000015258789,-844.500061035156,1.82219468173267,0.263930525430858,0.210507514022813,DLL
11.8666666666667,1.79622340202332,-1.8105788230896,9.05947303771973,-0.167683988809586,0.975615978240967,-13.9330158233643,-1135.5,28.5000019073486,-849.300048828125,1.91992429165352,0.195600901832931,0.192830124076288,DLL
11.9,1.65326714515686,-1.92362785339355,9.0014533996582,1.05183601379395,1.91312193870544,-16.0595531463623,-1147.5,31.5000019073486,-846.900024414062,2.02592463807395,0.180228464225656,0.203459458694083,DLL
11.9333333333333,1.08443319797516,-1.91046869754791,8.69998931884766,1.72257196903229,2.29422187805176,-18.2318229675293,-1152.30004882812,27.9000015258789,-844.500061035156,2.15605518503745,0.12415708041614,0.20906843651769,DLL
11.9666666666667,0.448009073734283,-1.88355219364166,9.67197227478027,1.41769194602966,2.65245604515076,-20.472692489624,-1147.5,21.3000011444092,-856.500061035156,2.30753402615779,0.0480324894803202,0.188150984535622,DLL
12.0,-0.330174922943115,-1.52885341644287,10.6188325881958,1.84452390670776,2.68294382095337,-21.4940395355225,-1154.70007324219,12.9000005722046,-861.300048828125,2.45746187730607,-0.0294081026599032,0.141143303476236,DLL
12.0333333333333,-0.38939106464386,-1.13587355613708,10.2114963531494,2.30184388160706,2.88111591339111,-20.7242183685303,-1142.70007324219,12.9000005722046,-849.300048828125,2.60115495612541,-0.0388330206630365,0.108425423950909,DLL
12.0666666666667,-0.934897482395172,-0.515599250793457,9.51884746551514,2.31708788871765,3.12502002716064,-18.8492050170898,-1137.90002441406,8.70000076293945,-851.700012207031,2.7295177069697,-0.100844518260158,0.0537878527506551,DLL
12.1,-1.34821426868439,-0.383409649133682,9.00444412231445,1.31098401546478,3.20123982429504,-14.8247900009155,-1157.10009765625,7.50000047683716,-851.700012207031,2.83189152046928,-0.152483539083852,0.0442976806075555,DLL
12.1333333333333,-1.32369041442871,-0.454588651657104,9.40938663482666,-0.0076219998300075,2.85824990272522,-9.12353420257568,-1130.70007324219,6.90000009536743,-868.500061035156,2.8979752262969,-0.143837015504873,0.0505876673473869,DLL
12.1666666666667,-1.12809765338898,-0.524571359157562,9.20183181762695,-0.503051996231079,2.21800184249878,-5.9222936630249,-1133.10009765625,3.90000009536743,-873.300048828125,2.94004430893845,-0.125200925747142,0.0590877523966262,DLL
12.2,-0.84158718585968,-0.77579140663147,9.1808967590332,-0.83841997385025,1.60061991214752,-2.85824990272522,-1121.10009765625,3.90000009536743,-870.900024414062,2.96286528383309,-0.0937093438528332,0.0860376944296887,DLL
12.2333333333333,-0.556871116161346,-0.607713282108307,9.17551326751709,-0.6250039935112,-0.0914639979600906,-0.228659987449646,-1123.5,7.50000047683716,-861.300048828125,2.96273385040041,-0.0604883441261514,0.0673567752168955,DLL
12.2666666666667,-0.451597929000854,-0.811081886291504,9.58882999420166,-0.274392008781433,-0.548784017562866,1.63110792636871,-1116.30004882812,3.30000019073486,-868.500061035156,2.95132826225963,-0.046260325408868,0.0846290389272135,DLL
12.3,0.0167480036616325,-0.596348524093628,10.1696271896362,0.548784017562866,-0.46494197845459,2.4923939704895,-1113.90002441406,-1.5,-863.700012207031,2.93231878886242,0.0019237595304589,0.0577705811896421,DLL
12.3333333333333,0.722556710243225,-0.43425178527832,9.57088565826416,1.40244793891907,-1.09756803512573,2.69818782806396,-1130.70007324219,3.90000009536743,-868.500061035156,2.9133641205691,0.0763678235562822,0.0433643485801072,DLL
12.3666666666667,0.365465342998505,-0.482103228569031,10.4974088668823,1.85976791381836,-0.815553963184357,2.43141794204712,-1121.10009765625,-2.70000004768372,-870.900024414062,2.89578768518923,0.0363347723803476,0.042816029560283,DLL
12.4,0.38939106464386,-0.1722651720047,9.56191349029541,1.78354799747467,-0.746955990791321,1.44817996025085,-1111.5,1.5,-863.700012207031,2.88625458744551,0.0419103756129224,0.0152348056279246,DLL
12.4333333333333,0.653172135353088,-0.165087461471558,9.26523494720459,1.02897000312805,-0.396344006061554,0.960371971130371,-1125.90002441406,3.30000019073486,-858.900024414062,2.87886647766817,0.0708353455422957,0.0161318863604809,DLL
12.4666666666667,0.160302311182022,-0.168078169226646,9.305908203125,0.0609759986400604,-0.0990860015153885,0.647870004177094,-1118.70007324219,3.90000009536743,-861.300048828125,2.87428530902146,0.0178116194325263,0.0179607174862003,DLL
12.5,0.425279647111893,-0.352904349565506,9.43271446228027,-0.403965979814529,-0.182927995920181,0.800309956073761,-1113.90002441406,0.300000011920929,-866.100036621094,2.86819615702191,0.0450659472435773,0.0379969235498506,DLL
12.5333333333333,-0.0968991592526436,-0.41152235865593,9.65462589263916,-0.236281991004944,-0.190549999475479,0.899396002292633,-1130.70007324219,-3.30000019073486,-866.100036621094,2.86146687858971,-0.0094500984282683,0.0429703758456348,ST
12.5666666666667,-0.222509190440178,-0.797922730445862,10.1122055053711,-0.487807989120483,0.640248000621796,0.685979962348938,-1123.5,5.70000028610229,-868.500061035156,2.85757221155054,-0.0230274764893509,0.0792707008149866,ST
12.6,0.242846041917801,-0.584385693073273,10.0410261154175,-0.403965979814529,0.266770005226135,-0.0762199983000755,-1123.5,-1.5,-856.500061035156,2.8582519181929,0.0233006981791976,0.0590033784544362,ST
12.6333333333333,-0.330174922943115,-0.971384167671204,9.60737228393555,-0.114329993724823,1.01372599601746,-0.129574000835419,-1121.10009765625,1.5,-870.900024414062,2.86001199827748,-0.0354324824100463,0.100634853728626,ST
12.6666666666667,-0.771604418754578,-0.923532724380493,10.1983375549316,-0.121951997280121,1.265251994133,-0.655492007732391,-1116.30004882812,-0.900000035762787,-868.500061035156,2.86471014591255,-0.0769617254777022,0.0907070063674412,ST
12.7,-0.571226537227631,-0.66034984588623,9.86876106262207,0.320124000310898,0.25152599811554,-0.663114011287689,-1109.10009765625,1.5,-858.900024414062,2.8679030723478,-0.0582039243849198,0.0665240690688183,ST
12.7333333333333,-0.224303618073463,-0.811680018901825,9.55892276763916,-0.0685980021953583,-0.137196004390717,-0.388722002506256,-1111.5,0.300000011920929,-873.300048828125,2.87122974865715,-0.0233690714250666,0.084696426534992,ST
12.7666666666667,0.084936298429966,-0.74648243188858,9.28078651428223,-0.121951997280121,-0.442075997591019,-0.106707997620106,-1125.90002441406,6.30000019073486,-868.500061035156,2.87173385503877,0.0097490196480971,0.0804920788850089,ST
12.8,-0.440831363201141,-0.706406831741333,9.15637302398682,-0.0304879993200302,-0.228659987449646,0.320124000310898,-1118.70007324219,2.10000014305115,-863.700012207031,2.86933434202899,-0.0471409663590591,0.0770522213822216,ST
12.8333333333333,-0.398961365222931,-0.940280735492706,9.80954456329346,0.0914639979600906,0.6250039935112,0.67835795879364,-1121.10009765625,2.70000004768372,-858.900024414062,2.86551236775689,-0.0416869828468968,0.0952706715202666,ST
12.8666666666667,0.0346922911703587,-0.939682602882385,9.59062480926514,-0.266770005226135,-0.602137982845306,0.114329993724823,-1118.70007324219,5.10000038146973,-875.700012207031,2.8643614473669,0.0042473129954331,0.098110641841055,ST
12.9,0.0568235814571381,-0.776987731456757,10.0051374435425,-0.167683988809586,-1.77592599391937,0.3125019967556,-1123.5,-1.5,-861.300048828125,2.86105063403378,0.0086885713826494,0.0778985981411698,ST
12.9333333333333,-0.0406737215816975,-0.747080564498901,9.85141468048096,0.388722002506256,-1.39482593536377,1.12805593013763,-1116.30004882812,3.90000009536743,-863.700012207031,2.85229695730531,-0.001765203284896,0.0750282549690033,ST
12.9666666666667,0.589170813560486,-0.79672646522522,9.49252891540527,0.350611984729767,-0.975615978240967,1.50153398513794,-1118.70007324219,-2.70000004768372,-861.300048828125,2.84105331844376,0.0627184157258313,0.08322185457889,ST
13.0,0.583787560462952,-0.637620389461517,9.46262168884277,0.442075997591019,-0.92988395690918,1.88263392448425,-1125.90002441406,3.90000009536743,-868.500061035156,2.82806978514938,0.0628737469533997,0.066835601969754,ST
13.0333333333333,0.348717361688614,-0.24882747232914,9.77126312255859,0.937505960464478,-0.609759986400604,1.63872992992401,-1123.5,3.30000019073486,-851.700012207031,2.81845611973091,0.0368656219809104,0.0242836273151369,ST
13.0666666666667,0.28411790728569,0.120824880897999,9.521240234375,1.77592599391937,-0.320124000310898,2.080806016922,-1121.10009765625,5.10000038146973,-873.300048828125,2.80414585088158,0.0304761124583941,-0.0154505809223658,ST
13.1,0.137572884559631,0.277538329362869,9.55952072143555,1.63110792636871,0.25152599811554,2.24848985671997,-1123.5,1.5,-849.300048828125,2.78776769285146,0.0141610978078332,-0.0317205751955839,ST
13.1333333333333,-0.180041030049324,0.347521066665649,9.31488037109375,1.22714197635651,1.14329993724823,1.76068198680878,-1116.30004882812,0.300000011920929,-854.100036621094,2.77538900919173,-0.0208971307459024,-0.0394303636240896,ST
13.1666666666667,-0.558067381381989,0.161498606204987,10.2126932144165,1.10518991947174,1.53964400291443,1.53964400291443,-1128.30004882812,8.10000038146973,-861.300048828125,2.7657128305683,-0.0569223834330088,-0.0180693612076991,ST
13.2,-0.558067381381989,0.112450875341892,10.0697364807129,0.548784017562866,0.617381989955902,0.846041977405548,-1118.70007324219,5.70000028610229,-856.500061035156,2.76036040865688,-0.0564233459922823,-0.0122566039760678,ST
13.2333333333333,-0.574815392494202,0.355895072221756,9.62770938873291,0.167683988809586,-0.0457319989800453,0.640248000621796,-1118.70007324219,-1.5,-861.300048828125,2.75458377772034,-0.0594479920006154,-0.0371026995291037,ST
13.2666666666667,-0.180639177560806,0.111852735280991,9.99796009063721,-0.213415995240211,-0.144817993044853,1.02134799957275,-1116.30004882812,4.5,-851.700012207031,2.74851399372286,-0.0181311014026308,-0.0110644303520867,ST
13.3,0.601731836795807,0.0334960073232651,8.82021617889404,-0.78506600856781,-0.853663980960846,0.594515979290009,-1123.5,4.5,-858.900024414062,2.74447448410723,0.0688900985903346,-0.0024311147409695,ST
13.3333333333333,-0.0221312902867794,0.0472532957792282,9.94412708282471,-0.663114011287689,-0.0914639979600906,0.434453994035721,-1128.30004882812,6.30000019073486,-851.700012207031,2.74131149472277,-0.0017279117318251,-0.0035888549289713,ST
13.3666666666667,0.232677608728409,-0.0974973067641258,9.7778434753418,-0.198172003030777,0.495429992675781,0.3125019967556,-1118.70007324219,0.900000035762787,-863.700012207031,2.73905336712735,0.022719135198392,0.0102145378066883,ST
13.4,0.280529052019119,-0.275145769119263,9.63309288024902,0.0457319989800453,0.243903994560242,-0.243903994560242,-1121.10009765625,5.70000028610229,-856.500061035156,2.74030496007283,0.0286387065971801,0.0283131787070566,ST
13.4333333333333,-0.113049022853374,-0.347521066665649,9.91003227233887,-0.0,0.190549999475479,-0.777444005012512,-1116.30004882812,0.900000035762787,-861.300048828125,2.74566129207646,-0.0113551515448321,0.035011315260278,ST
13.4666666666667,-0.248229339718819,-0.0837400183081627,9.57985782623291,-0.0228659994900227,0.0457319989800453,-0.952749967575073,-1125.90002441406,3.90000009536743,-858.900024414062,2.75176176633778,-0.0258482916501189,0.0090374302887426,ST
13.5,0.0795530155301094,-0.170470744371414,8.91113376617432,-0.121951997280121,-0.25152599811554,-0.571649968624115,-1118.70007324219,9.30000019073486,-868.500061035156,2.75588781279533,0.0091424802999452,0.0192624491062188,ST
13.5333333333333,0.0556272976100445,-0.538926839828491,9.37529277801514,-0.777444005012512,0.0762199983000755,-0.350611984729767,-1125.90002441406,1.5,-868.500061035156,2.75807586472592,0.0058526965116561,0.0584503290521048,ST
13.5666666666667,0.166283741593361,-0.721958577632904,10.3700046539307,-1.2576299905777,-0.426831990480423,-0.518296003341675,-1111.5,3.30000019073486,-868.500061035156,2.76163382358121,0.0167401409906089,0.0716134496410766,ST
13.6,0.406737208366394,-0.860727727413177,9.60258769989014,-0.907018005847931,-0.647870004177094,-0.411587983369827,-1128.30004882812,2.70000004768372,-861.300048828125,2.76397925906294,0.0432281372620072,0.0908616222376667,ST
13.6333333333333,0.301464051008224,-0.999496877193451,10.2695169448853,-0.472563982009888,-0.388722002506256,-0.0685980021953583,-1130.70007324219,3.30000019073486,-868.500061035156,2.764075502202,0.0299587333403645,0.0978112004285683,ST
13.6666666666667,0.174059599637985,-0.846970438957214,9.30830097198486,0.0838419944047928,-0.0685980021953583,0.434453994035721,-1123.5,1.5,-861.300048828125,2.76120403872027,0.018763017354543,0.0906683054828266,ST
13.7,-0.363670915365219,-0.901401460170746,9.51705265045166,0.358233988285065,1.22714197635651,1.15092194080353,-1123.5,3.30000019073486,-873.300048828125,2.75416724291063,-0.039860423766102,0.0937150470026553,ST
13.7333333333333,-0.625059425830841,-0.943271458148956,10.2258520126343,0.0457319989800453,1.65397393703461,1.18903195858002,-1111.5,9.30000019073486,-873.300048828125,2.74696821335496,-0.0636606736873776,0.0918063736605268,ST
13.7666666666667,-0.83859646320343,-0.711790144443512,10.0571756362915,0.3125019967556,0.78506600856781,1.15854394435883,-1123.5,-2.10000014305115,-875.700012207031,2.73798408493962,-0.0843237845512061,0.0701294870416763,ST
13.8,-0.623264968395233,-0.510814070701599,10.3933324813843,0.846041977405548,-0.350611984729767,0.975615978240967,-1109.10009765625,3.90000009536743,-861.300048828125,2.7293140838466,-0.0594131407374411,0.047634557134493,ST
13.8333333333333,-0.638816714286804,-0.489879101514816,9.67436408996582,0.99848198890686,-0.236281991004944,0.129574000835419,-1118.70007324219,-4.5,-878.100036621094,2.72885752462788,-0.0654018862036278,0.0488249765529545,ST
13.8666666666667,-0.443822085857391,-0.337352633476257,9.10971736907959,1.02134799957275,0.342989981174469,-0.503051996231079,-1113.90002441406,6.90000009536743,-870.900024414062,2.73202349710165,-0.0493470949310784,0.035388526151133,ST
13.9,-0.772202551364899,-0.717173397541046,9.473388671875,0.503051996231079,0.609759986400604,-0.777444005012512,-1109.10009765625,5.70000028610229,-875.700012207031,2.74083043150482,-0.0818780865518832,0.0745730702585602,ST
13.9333333333333,-0.185424327850342,-0.312828779220581,11.1900587081909,0.365855991840363,-1.33385002613068,-1.18140995502472,-1111.5,5.70000028610229,-858.900024414062,2.74715910009258,-0.0144963203923058,0.0275655325403405,ST
13.9666666666667,0.452794224023819,-0.381017059087753,8.20592308044434,0.777444005012512,-3.41465592384338,-0.327746003866196,-1121.10009765625,0.300000011920929,-861.300048828125,2.747863808483,0.0605266480096817,0.0449049355948176,ST
14.0,0.131591454148293,-0.556871116161346,9.73956203460693,0.0381099991500378,-0.617381989955902,0.0,-1116.30004882812,0.900000035762787,-870.900024414062,2.74717210988943,0.0149402643671801,0.056949403757485,ST
14.0333333333333,-0.550291538238525,-0.473131090402603,9.46321964263916,-0.0914639979600906,0.556405961513519,0.701223969459534,-1121.10009765625,5.70000028610229,-866.100036621094,2.74235901498293,-0.0584387083832155,0.0501066310791256,ST
14.0666666666667,-0.668125689029694,-0.460570096969604,9.37888145446777,0.152439996600151,0.472563982009888,1.34147191047668,-1109.10009765625,7.50000047683716,-858.900024414062,2.73325638723493,-0.0718589067914662,0.0486495088840972,ST
14.1,0.245238617062569,-0.529954671859741,9.48714542388916,0.0533539988100529,-1.06708002090454,1.14329993724823,-1116.30004882812,-4.5,-875.700012207031,2.7251249903859,0.0267382413501696,0.0556990876728606,ST
14.1333333333333,1.35957896709442,-0.71059387922287,8.04203224182129,-0.457319974899292,-2.54574799537659,0.480185985565186,-1128.30004882812,7.50000047683716,-866.100036621094,2.71760533119885,0.170004982335178,0.0888556950897291,ST
14.1666666666667,-0.69264954328537,-0.643601834774017,10.4322118759155,-0.556405961513519,-0.609759986400604,0.663114011287689,-1125.90002441406,9.90000057220459,-854.100036621094,2.71410696089299,-0.0632444442125256,0.0627427163440159,ST
14.2,-1.44930040836334,-0.763230443000793,11.8228940963745,0.0762199983000755,1.93598794937134,1.50153398513794,-1128.30004882812,7.50000047683716,-873.300048828125,2.7048345181101,-0.124756923687762,0.0640275320596568,ST
14.2333333333333,0.271556913852692,-0.539524972438812,10.246787071228,0.335367977619171,-1.30336201190948,1.08232402801514,-1123.5,1.5,-863.700012207031,2.69631116667536,0.0273720007256617,0.0521603826307385,ST
14.2666666666667,0.709397554397583,-0.368456065654755,9.55353927612305,0.495429992675781,-3.55185198783875,1.02897000312805,-1125.90002441406,4.5,-878.100036621094,2.68848809189532,0.0798288801226174,0.0379406814674834,ST
14.3,0.86192399263382,-0.0251220054924488,9.80475997924805,0.449698001146317,-3.25459384918213,0.769822001457214,-1133.10009765625,2.10000014305115,-851.700012207031,2.68575431315331,0.0932482086058884,0.0021988335985045,ST
14.3333333333333,1.61139714717865,0.213537037372589,8.26693439483643,0.640248000621796,-1.48628997802734,0.960371971130371,-1130.70007324219,12.9000005722046,-856.500061035156,2.68276212315507,0.194245987121728,-0.0263923728297469,ST
14.3666666666667,-0.0436644367873669,0.503636360168457,9.95190238952637,1.08994603157043,1.05945801734924,1.38720393180847,-1128.30004882812,13.5000009536743,-866.100036621094,2.67498104343031,-0.0044557106584417,-0.0522458861630825,ST
14.4,0.446812808513641,0.279930919408798,9.2347297668457,0.609759986400604,1.15854394435883,1.80641400814056,-1140.30004882812,6.30000019073486,-856.500061035156,2.66164119510736,0.0459888280740544,-0.0313989250084802,ST
14.4333333333333,-0.0861325860023499,0.346922934055328,9.98599720001221,-0.152439996600151,0.716467976570129,1.47866797447205,-1130.70007324219,9.30000019073486,-861.300048828125,2.65131953660847,-0.0093248019390253,-0.0344543786524883,ST
14.4666666666667,-0.610105812549591,0.187218755483627,10.7552089691162,-0.342989981174469,0.868907988071442,1.63110792636871,-1130.70007324219,-5.70000028610229,-856.500061035156,2.64040342562972,-0.0577236981583328,-0.0171106003012358,ST
14.5,0.0897214487195015,0.0047851437702775,10.0051374435425,-0.426831990480423,0.297257989645004,1.07470202445984,-1125.90002441406,5.10000038146973,-868.500061035156,2.63337213286161,0.0079079203463422,0.0001343253685992,ST
14.5333333333333,-0.208153754472733,0.118432305753231,9.96566009521484,-0.335367977619171,0.0762199983000755,0.289635986089706,-1130.70007324219,0.300000011920929,-858.900024414062,2.6311359524448,-0.0208456279023591,-0.0112431553159035,ST
14.5666666666667,-0.585581958293915,0.0125610027462244,10.3849582672119,0.365855991840363,1.28811800479889,0.129574000835419,-1135.5,11.1000003814697,-861.300048828125,2.63069622859175,-0.0582667506049515,-0.0019380882038041,ST
14.6,-0.336754500865936,0.166283741593361,9.11569881439209,0.426831990480423,1.17378795146942,-0.655492007732391,-1128.30004882812,1.5,-858.900024414062,2.63441084463473,-0.0391462313802665,-0.0188011544912974,ST
14.6333333333333,-0.321202784776688,0.150133892893791,8.9655647277832,0.342989981174469,1.34909391403198,-0.6250039935112,-1106.70007324219,3.90000009536743,-868.500061035156,2.63871033274429,-0.0381870761768179,-0.017314739807235,ST
14.6666666666667,0.0358885787427425,0.0167480036616325,9.68572902679443,0.114329993724823,0.198172003030777,-0.586893975734711,-1116.30004882812,6.30000019073486,-861.300048828125,2.64303248508961,0.0030165420696096,-0.0020559843018212,ST
14.7,0.630442678928375,0.0233275759965181,9.21259784698486,0.228659987449646,-1.48628997802734,-0.46494197845459,-1113.90002441406,3.90000009536743,-868.500061035156,2.64621851022756,0.0703615401846199,-0.0029790571892967,ST
14.7333333333333,1.38828980922699,-0.0974973067641258,9.71563625335693,-0.0076219998300075,-2.67532205581665,-0.510673999786377,-1123.5,7.50000047683716,-861.300048828125,2.64822169078304,0.145977521868634,0.0098198993520993,ST
14.7666666666667,1.93020737171173,-0.147143170237541,8.06177139282227,-0.350611984729767,-2.59148001670837,-0.937505960464478,-1130.70007324219,-0.900000035762787,-856.500061035156,2.65314312730572,0.238750754680713,0.0184180894605522,ST
14.8,1.16518247127533,-0.433653652667999,9.36392784118652,-0.541162014007568,0.175305992364883,-0.602137982845306,-1133.10009765625,6.30000019073486,-856.500061035156,2.65272934404307,0.124354486503641,0.0468547859419265,ST
14.8333333333333,1.12271440029144,-0.477916240692139,8.98291110992432,0.0304879993200302,0.739333987236023,-0.487807989120483,-1128.30004882812,-3.30000019073486,-856.500061035156,2.6555556497544,0.122932812793127,0.0529357583516639,ST
14.8666666666667,0.256603330373764,-0.584983825683594,10.254563331604,0.396344006061554,0.823175966739655,-0.762199997901917,-1133.10009765625,6.30000019073486,-854.100036621094,2.66091617304318,0.0242972725706512,0.0562316291148603,ST
14.9,-0.224901750683784,-0.901999592781067,10.3466768264771,0.365855991840363,1.55488801002502,-0.731711983680725,-1123.5,9.30000019073486,-868.500061035156,2.66682722908303,-0.023849286273693,0.0861057454251137,ST
14.9333333333333,-0.656760990619659,-0.70760315656662,10.042820930481,0.0457319989800453,1.41006994247437,-1.16616594791412,-1140.30004882812,-0.300000011920929,-868.500061035156,2.67488447858537,-0.0670951992743109,0.070535695022974,ST
14.9666666666667,-1.04914271831512,-0.686069965362549,10.6092615127563,-0.342989981174469,1.06708002090454,-0.78506600856781,-1125.90002441406,6.30000019073486,-858.900024414062,2.68011599923116,-0.0998629444427011,0.06536581509732,ST
15.0,-1.19449150562286,-0.69564026594162,10.2384128570557,-0.121951997280121,0.708845973014832,-0.403965979814529,-1116.30004882812,3.30000019073486,-858.900024414062,2.68368925447839,-0.116982930975192,0.0681317551169925,ST
15.0333333333333,-0.453990519046783,-0.864316582679749,9.82748889923096,-0.518296003341675,-0.0228659994900227,-0.945127964019775,-1116.30004882812,3.30000019073486,-861.300048828125,2.6916099328891,-0.0463850566039314,0.088541022507369,ST
15.0666666666667,-0.245836764574051,-1.13647162914276,8.86268424987793,-0.541162014007568,-0.175305992364883,-0.975615978240967,-1118.70007324219,1.5,-858.900024414062,2.69949833525893,-0.0271468541872968,0.128198522269412,ST
15.1,-0.0771604403853416,-1.1496307849884,8.93745231628418,-1.10518991947174,-0.503051996231079,-1.51677799224854,-1101.90002441406,-4.5,-863.700012207031,2.70937798490208,-0.0075114605846884,0.129864252093321,ST
15.1333333333333,0.239855334162712,-1.14544379711151,8.93864822387695,-1.02897000312805,-1.20427596569061,-0.868907988071442,-1118.70007324219,4.5,-856.500061035156,2.71440551749064,0.028591411092389,0.12921836146591,ST
15.1666666666667,0.0179442893713713,-1.02820777893066,9.32744121551514,-0.716467976570129,-1.36433792114258,-0.198172003030777,-1113.90002441406,6.30000019073486,-861.300048828125,2.71502849951335,0.0045158153343136,0.11119023588595,ST
15.2,0.0454588644206524,-0.836203873157501,9.95130443572998,-0.236281991004944,-0.746955990791321,0.685979962348938,-1123.5,5.70000028610229,-863.700012207031,2.70998373140848,0.0057385880120226,0.0844728075449958,ST
15.2333333333333,-0.499449372291565,-0.774595141410828,10.8873987197876,0.640248000621796,0.655492007732391,1.91312193870544,-1123.5,5.10000038146973,-868.500061035156,2.69544775612162,-0.046895437811592,0.0698180055120306,ST
15.2666666666667,-0.145348742604256,-0.638816714286804,10.342490196228,1.28811800479889,-0.304879993200302,1.86738991737366,-1125.90002441406,-0.300000011920929,-854.100036621094,2.681928000943,-0.0139163158081207,0.0594612797977771,ST
15.3,-0.142358019948006,-0.786558032035828,9.0193977355957,1.2576299905777,-0.0838419944047928,1.12805593013763,-1125.90002441406,0.900000035762787,-866.100036621094,2.67415017789565,-0.0157313325649907,0.084617491297169,ST
15.3333333333333,0.272155046463013,-0.626853823661804,9.68513107299805,0.807931959629059,-0.236281991004944,0.0990860015153885,-1121.10009765625,1.5,-868.500061035156,2.67338903051578,0.0280732524781679,0.0634035494638751,ST
15.3666666666667,0.347521066665649,-0.297875195741653,9.78621673583984,0.937505960464478,-1.40244793891907,-0.190549999475479,-1125.90002441406,-2.10000014305115,-854.100036621094,2.6752435076341,0.0378560904296682,0.0290663485527333,ST
15.4,0.0562254376709461,-0.175854027271271,9.94651985168457,1.29574000835419,-0.609759986400604,0.815553963184357,-1133.10009765625,2.10000014305115,-861.300048828125,2.66970180622306,0.0069479893923149,0.0155400082896496,ST
15.4333333333333,0.0215331465005875,0.0879270136356354,10.1600561141968,1.2576299905777,-0.518296003341675,1.31098401546478,-1116.30004882812,1.5,-861.300048828125,2.66075164274877,0.0030776793653477,-0.0106258053855511,ST
15.4666666666667,0.503636360168457,0.231481328606606,9.31129169464111,1.36433792114258,-0.541162014007568,1.98934197425842,-1130.70007324219,0.300000011920929,-858.900024414062,2.64717457763721,0.0546297487414742,-0.0269206978042914,ST
15.5,0.432457357645035,0.26437920331955,9.82330226898193,0.868907988071442,-0.297257989645004,1.95123195648193,-1125.90002441406,3.90000009536743,-861.300048828125,2.63354804673254,0.0446759965012406,-0.028259504752427,ST
15.5333333333333,1.16936945915222,0.0131591456010938,9.05767917633057,0.175305992364883,-0.960371971130371,1.21189796924591,-1121.10009765625,-0.900000035762787,-866.100036621094,2.62230974196457,0.129587837022623,-0.0016429119505708,ST
15.5666666666667,0.773997008800507,-0.0322997197508812,8.85371208190918,-0.87652999162674,-0.975615978240967,0.144817993044853,-1121.10009765625,5.10000038146973,-868.500061035156,2.62114840492134,0.0892329879413076,0.0051455794084851,ST
15.6,-0.262584775686264,-0.0251220054924488,9.5266227722168,-0.769822001457214,0.350611984729767,0.663114011287689,-1125.90002441406,2.70000004768372,-861.300048828125,2.61633165290173,-0.0275037434536358,0.0039600382190672,ST
15.6333333333333,-0.285314202308655,-0.323595345020294,9.93156623840332,-0.289635986089706,1.41006994247437,1.51677799224854,-1135.5,3.90000009536743,-861.300048828125,2.60689081447398,-0.0312177958329458,0.0327592506219367,ST
15.6666666666667,-0.302660346031189,-0.298473328351974,10.3801727294922,-0.0914639979600906,0.358233988285065,1.2500079870224,-1135.5,4.5,-849.300048828125,2.59793429832224,-0.0298349896019331,0.028867979689432,ST
15.7,0.10527316480875,-0.244042336940765,10.6272058486938,0.510673999786377,-0.228659987449646,1.35671591758728,-1123.5,3.30000019073486,-856.500061035156,2.58845362114355,0.0099211237316751,0.0221438174773412,ST
15.7333333333333,0.233275756239891,-0.159106031060219,10.0888776779175,0.708845973014832,-1.00610399246216,0.724089980125427,-1147.5,9.30000019073486,-861.300048828125,2.58336297169527,0.0247298783237072,0.0146251423011589,ST
15.7666666666667,0.356493204832077,-0.0269164331257343,9.71922492980957,0.457319974899292,-0.693601965904236,0.228659987449646,-1128.30004882812,-0.900000035762787,-866.100036621094,2.58204120130288,0.0377646172824129,0.0020896613791061,ST
15.8,0.753062009811401,-0.0711790099740028,9.16534519195557,-0.0152439996600151,-0.388722002506256,-0.342989981174469,-1130.70007324219,8.10000038146973,-858.900024414062,2.58413050241719,0.0823535156161125,0.0077057708716217,ST
15.8333333333333,0.741697311401367,-0.154320880770683,9.32325458526611,-0.419209986925125,-0.457319974899292,-0.739333987236023,-1123.5,9.30000019073486,-866.100036621094,2.58864704248493,0.080212786178466,0.0171020985564869,ST
15.8666666666667,0.48150509595871,-0.120226740837097,9.50808048248291,-0.388722002506256,-0.182927995920181,-0.564027965068817,-1135.5,9.30000019073486,-863.700012207031,2.5929260580338,0.0511666362007435,0.0133023875878304,ST
15.9,-0.339147061109543,-0.136376604437828,10.09485912323,0.0762199983000755,1.15092194080353,0.0762199983000755,-1130.70007324219,3.30000019073486,-858.900024414062,2.59251211790535,-0.0348800504132349,0.0133718725651893,ST
15.9333333333333,0.134582161903381,-0.16568560898304,9.63189601898193,-0.0381099991500378,0.396344006061554,0.0685980021953583,-1123.5,6.90000009536743,-868.500061035156,2.59212550959903,0.0128816808518631,0.0172359036723056,ST
15.9666666666667,0.267369896173477,-0.318810194730759,9.60378360748291,-0.175305992364883,-0.3125019967556,-0.0838419944047928,-1130.70007324219,6.90000009536743,-856.500061035156,2.5923393457067,0.0282407512597181,0.0333535251323779,ST
16.0,0.605320692062378,-0.39238178730011,9.77724456787109,-0.106707997620106,-0.937505960464478,-0.388722002506256,-1133.10009765625,3.30000019073486,-861.300048828125,2.59449823809883,0.0631565087377053,0.0402024386997533,ST
16.0333333333333,1.14484560489655,-0.592161536216736,9.59361553192139,-0.144817993044853,-1.40244793891907,-0.853663980960846,-1121.10009765625,3.90000009536743,-856.500061035156,2.59860027114853,0.120856491211841,0.0616539475514549,ST
16.0666666666667,0.279332756996155,-0.500645637512207,10.0458116531372,0.129574000835419,-0.907018005847931,-0.914639949798584,-1125.90002441406,5.70000028610229,-858.900024414062,2.60543857016746,0.0301746063937109,0.0496171321541984,ST
16.1,0.382811486721039,-0.464158952236176,9.6522331237793,0.274392008781433,0.129574000835419,-0.175305992364883,-1118.70007324219,0.300000011920929,-856.500061035156,2.60669153312831,0.0393072593845804,0.047576831266697,NLR
16.1333333333333,0.704014301300049,-0.623863101005554,9.31966590881348,0.0304879993200302,0.381099998950958,0.259148001670837,-1137.90002441406,0.300000011920929,-851.700012207031,2.60397359799572,0.0742480461808607,0.0666594877522041,NLR
16.1666666666667,0.665134966373444,-0.66633129119873,9.23353290557861,-0.487807989120483,-0.0533539988100529,-0.167683988809586,-1133.10009765625,0.900000035762787,-854.100036621094,2.60489477359789,0.0718584682777339,0.0728194110901772,NLR
16.2,0.409727931022644,-0.708799421787262,9.93395805358887,-0.579271972179413,0.396344006061554,-0.320124000310898,-1130.70007324219,0.900000035762787,-854.100036621094,2.60752387897754,0.0407247254853424,0.0722209307058147,NLR
16.2333333333333,0.136376604437828,-0.775193274021149,9.75152492523193,-0.335367977619171,1.02897000312805,-0.495429992675781,-1137.90002441406,0.900000035762787,-866.100036621094,2.61133317981774,0.0124520946350366,0.0798366635833501,NLR
16.2666666666667,0.531150937080383,-0.897214472293854,10.1756086349487,0.129574000835419,0.815553963184357,-1.28049600124359,-1121.10009765625,4.5,-856.500061035156,2.62034594178748,0.0504131405657429,0.0875407771997891,NLR
16.3,1.12929391860962,-1.02880585193634,9.96207141876221,0.716467976570129,0.0990860015153885,-3.01831197738647,-1121.10009765625,0.900000035762787,-866.100036621094,2.63950618166971,0.112131439870805,0.100966161416561,NLR
16.3333333333333,1.37333631515503,-1.20286548137665,9.93455696105957,1.36433792114258,0.457319974899292,-6.97412967681885,-1130.70007324219,3.30000019073486,-880.500061035156,2.6884131106628,0.136881949352981,0.116366219266819,NLR
16.3666666666667,1.54261076450348,-1.12151801586151,10.278489112854,1.88263392448425,0.106707997620106,-10.9223260879517,-1118.70007324219,3.30000019073486,-866.100036621094,2.7627629673197,0.149774827659673,0.102653900033994,NLR
16.4,0.585581958293915,-1.00667464733124,10.1074199676514,2.22562384605408,1.05183601379395,-16.2882137298584,-1121.10009765625,-7.50000047683716,-861.300048828125,2.87813983620444,0.0590467314604958,0.0936665041350846,NLR
16.4333333333333,0.684275567531586,-0.865512907505035,9.94532299041748,2.37044191360474,0.670735955238342,-19.29128074646,-1109.10009765625,-3.30000019073486,-861.300048828125,3.01077016094215,0.0699008029649449,0.0804307623231402,NLR
16.4666666666667,0.761435985565186,-0.848764896392822,9.60557842254639,2.64483404159546,0.503051996231079,-21.4483070373535,-1094.70007324219,-6.90000009536743,-861.300048828125,-3.11300096894331,0.0808749793704798,0.0804888134936267,NLR
16.5,0.366661638021469,-0.668125689029694,9.77664661407471,3.04879999160767,0.762199997901917,-22.8126449584961,-1092.30004882812,-14.7000007629395,-846.900024414062,-2.95060843133791,0.0388207074765117,0.0614264153759865,NLR
16.5333333333333,0.219518467783928,-0.566441416740417,8.83277702331543,3.19361782073975,1.14329993724823,-23.391918182373,-1075.5,-20.1000003814697,-863.700012207031,-2.78917427217216,0.025260016496299,0.0574379455832677,NLR
16.5666666666667,-0.433055520057678,-0.132189601659775,9.19704627990723,2.4847719669342,1.36433792114258,-23.4071617126465,-1070.70007324219,-17.7000007629395,-858.900024414062,-2.6270482301042,-0.0482563253297028,0.0122496446399645,NLR
16.6,-0.934299349784851,0.117236025631428,9.35136699676514,2.17227005958557,0.937505960464478,-21.9437370300293,-1058.70007324219,-15.9000005722046,-870.900024414062,-2.47624498703887,-0.101205855646813,-0.0123254693681891,NLR
16.6333333333333,-1.0856294631958,0.822446584701538,9.59182071685791,1.6692179441452,0.137196004390717,-14.8171672821045,-1032.30004882812,-26.7000007629395,-858.900024414062,-2.27814884343293,-0.11472693867384,-0.0854787298956858,NLR
16.6666666666667,-0.721360445022583,0.818259596824646,9.90464973449707,0.960371971130371,-0.190549999475479,-12.6753854751587,-1015.50006103516,-19.5,-846.900024414062,-2.19008026306867,-0.0742748682002376,-0.0824481795360886,NLR
16.7,-1.04675018787384,1.10536825656891,9.90405178070068,0.922261953353882,-0.701223969459534,-10.7927513122559,-1001.10003662109,-21.3000011444092,-856.500061035156,-2.11753414439992,-0.105238502750646,-0.110557094003767,NLR
16.7333333333333,-0.924130916595459,1.27284824848175,9.80715179443359,0.853663980960846,-1.08994603157043,-8.17078399658203,-1005.90002441406,-25.5000019073486,-858.900024414062,-2.05856129084663,-0.0931837266966737,-0.12910057070987,NLR
16.7666666666667,-0.634629666805267,1.05213344097137,8.60309028625488,0.457319974899292,-0.830797970294952,-5.7850980758667,-996.300048828125,-18.3000011444092,-844.500061035156,-2.01741633044418,-0.073046306384157,-0.121796173487128,NLR
16.8,-0.979758203029633,0.532945394515991,9.54695987701416,-1.32622802257538,-0.335367977619171,-3.40703392028809,-984.300048828125,-24.3000011444092,-854.100036621094,-1.98736563804186,-0.101691060821576,-0.0532387239480802,NLR
16.8333333333333,-1.26866126060486,0.797324597835541,10.4555387496948,-0.655492007732391,-1.14329993724823,-0.914639949798584,-1005.90002441406,-20.7000007629395,-846.900024414062,-1.98341672978266,-0.11839258938251,-0.0745844277535387,NLR
16.8666666666667,-0.808689296245575,0.428270369768143,10.030858039856,-0.381099998950958,-1.02897000312805,1.85214591026306,-1008.30004882812,-14.7000007629395,-856.500061035156,-1.99286887148267,-0.0787654930986041,-0.0425217908543923,NLR
16.9,0.381615221500397,0.702219843864441,9.29454326629639,1.34147191047668,-0.632625997066498,2.59148001670837,-1001.10003662109,-23.1000003814697,-856.500061035156,-2.02959595043642,0.0423696342933498,-0.0775619163203782,NLR
16.9333333333333,0.421690791845322,0.82065212726593,10.732479095459,-0.144817993044853,-0.487807989120483,-1.08232402801514,-1008.30004882812,-17.1000003814697,-851.700012207031,-1.95321977742577,0.272102926877719,-0.19703943092181,NLR
16.9666666666667,0.632237136363983,1.13407909870148,9.38546180725098,0.46494197845459,0.0,-1.61586391925812,-1005.90002441406,-21.3000011444092,-849.300048828125,-1.93215476008745,0.0664365076496061,-0.121248150388271,NLR
17.0,0.776389598846436,0.941477060317993,9.19644832611084,0.0685980021953583,0.335367977619171,-0.914639949798584,-1010.70001220703,-27.9000015258789,-851.700012207031,-1.92703797923714,0.082962819461574,-0.102354465676283,NLR
17.0333333333333,-0.391783654689789,0.637620389461517,10.1714210510254,-0.777444005012512,0.182927995920181,-0.815553963184357,-1003.50006103516,-19.5,-861.300048828125,-1.91678813421177,-0.0388293093133779,-0.0611942573934645,NLR
17.0666666666667,0.756052732467651,1.25310957431793,9.67855167388916,1.37958192825317,-1.09756803512573,0.426831990480423,-998.700012207031,-25.5000019073486,-856.500061035156,-1.92507327896344,0.0793120637394059,-0.131125215451651,NLR
17.1,1.36556041240692,0.827829897403717,8.61266040802002,0.945127964019775,-0.472563982009888,1.02897000312805,-1008.30004882812,-19.5,-851.700012207031,-1.93659954491939,0.156891571750019,-0.0974906031577816,NLR
17.1333333333333,0.384605944156647,0.593955993652344,9.46202373504639,-0.868907988071442,0.777444005012512,0.342989981174469,-1008.30004882812,-18.9000015258789,-856.500061035156,-1.94247697045672,0.0401928299582025,-0.0614402224148148,NLR
17.1666666666667,0.110058307647705,0.678294122219086,9.3717041015625,-0.449698001146317,0.685979962348938,1.17378795146942,-1003.50006103516,-24.9000015258789,-856.500061035156,-1.95109343803505,0.0108319643678805,-0.0713841704483458,NLR
17.2,0.759043455123901,0.0687864422798157,9.41776084899902,0.335367977619171,-0.0914639979600906,0.510673999786377,-991.500061035156,-27.3000011444092,-849.300048828125,-1.96941792254019,0.0805870034429061,-0.0078177486495833,NLR
17.2333333333333,-0.0687864422798157,0.578404247760773,10.8335657119751,0.243903994560242,-0.0304879993200302,0.106707997620106,-1008.30004882812,-25.5000019073486,-849.300048828125,-1.96846044128354,-0.0055654521061556,-0.0533901467392228,NLR
17.2666666666667,0.523973226547241,1.25550210475922,9.86756420135498,1.33385002613068,-0.449698001146317,0.861285984516144,-1017.90002441406,-21.9000015258789,-858.900024414062,-1.97261151748581,0.0531086847313246,-0.128193166721135,NLR
17.3,1.06529259681702,1.31232571601868,9.31488037109375,1.39482593536377,-0.503051996231079,1.16616594791412,-1001.10003662109,-24.9000015258789,-856.500061035156,-1.97987121284673,0.113423564990809,-0.14207264035704,NLR
17.3333333333333,0.87388688325882,1.80818617343903,8.22805500030518,2.04269599914551,-0.899396002292633,2.19513607025146,-1013.10003662109,-24.9000015258789,-856.500061035156,-1.98741804875482,0.105765786753103,-0.219081351714373,NLR
17.3666666666667,-0.0891233012080193,1.33445692062378,8.96436882019043,-1.01372599601746,0.708845973014832,0.716467976570129,-1010.70001220703,-22.5,-844.500061035156,-1.99645514111955,-0.0099155087004092,-0.1466150446585,NLR
