seconds,sensor_accX_m_s_,sensor_accY_m_s_,sensor_accZ_m_s_,sensor_gyroX___s_,sensor_gyroY___s_,sensor_gyroZ___s_,sensor_magX__T_,sensor_magY__T_,sensor_magZ__T_,sensor_yaw___,sensor_pitch___,sensor_roll___,label1
0.0,1.40443968772888,-0.352306216955185,9.5152587890625,0.289635986089706,-0.167683988809586,0.449698001146317,-1188.30004882812,2.10000014305115,-866.100036621094,-2.91079231485514,0.14684782793955,0.0366001502649943,ST
0.0333333333333333,1.45707631111145,-0.366661638021469,9.5385856628418,0.259148001670837,-0.198172003030777,0.503051996231079,-1178.70007324219,1.5,-854.100036621094,-2.91197954132279,0.150492265590778,0.0377080651876711,ST
0.0666666666666667,1.4540855884552,-0.334361910820007,9.54337120056152,0.282013982534409,-0.198172003030777,0.480185985565186,-1176.30004882812,3.30000019073486,-858.900024414062,-2.91256456079145,0.151145816964808,0.0355758979579383,ST
0.1,1.4821982383728,-0.381615221500397,9.51824951171875,0.198172003030777,-0.198172003030777,0.350611984729767,-1178.70007324219,7.50000047683716,-861.300048828125,-2.913677913501,0.153618755283202,0.0385441063947456,ST
0.133333333333333,1.42477655410767,-0.358885794878006,9.51226806640625,0.190549999475479,-0.175305992364883,0.243903994560242,-1183.5,-0.300000011920929,-863.700012207031,-2.91403918194866,0.15029346887517,0.0377755859469865,ST
0.166666666666667,1.39187872409821,-0.394176214933395,9.5326042175293,0.182927995920181,-0.106707997620106,0.221037998795509,-1190.70007324219,5.10000038146973,-870.900024414062,-2.91481092118269,0.14661816231153,0.0400772394447438,ST
0.2,1.38828980922699,-0.384007781744003,9.52183818817139,0.205793991684914,-0.152439996600151,0.221037998795509,-1178.70007324219,-2.70000004768372,-858.900024414062,-2.91524346975117,0.145427181371503,0.0400277363625181,ST
0.233333333333333,1.37154185771942,-0.369054228067398,9.50628662109375,0.213415995240211,-0.266770005226135,0.25152599811554,-1173.90002441406,6.30000019073486,-854.100036621094,-2.91558998843947,0.144170625784069,0.0389571565071002,ST
0.266666666666667,1.42118775844574,-0.368456065654755,9.53619384765625,0.221037998795509,-0.304879993200302,0.304879993200302,-1181.10009765625,3.30000019073486,-854.100036621094,-2.91613792546915,0.14714448907209,0.0384987249622528,ST
0.3,1.47442245483398,-0.401353925466537,9.53798770904541,0.221037998795509,-0.3125019967556,0.327746003866196,-1171.5,2.70000004768372,-858.900024414062,-2.91711460996631,0.151769842092252,0.0407771765223645,ST
0.333333333333333,1.4941611289978,-0.412120521068573,9.54636192321777,0.243903994560242,-0.350611984729767,0.243903994560242,-1193.10009765625,2.70000004768372,-861.300048828125,-2.91783414673269,0.154523826431064,0.0421826190851246,ST
0.366666666666667,1.48279643058777,-0.37324121594429,9.50628662109375,0.266770005226135,-0.259148001670837,0.243903994560242,-1183.5,4.5,-870.900024414062,-2.91799707237671,0.15490639481539,0.0397623215899755,ST
0.4,1.45528185367584,-0.388194799423218,9.51824951171875,0.25152599811554,-0.144817993044853,0.297257989645004,-1185.90002441406,6.90000009536743,-858.900024414062,-2.91864957008828,0.152752948454603,0.0402115916847532,ST
0.433333333333333,1.42298209667206,-0.375633776187897,9.53738975524902,0.243903994560242,-0.114329993724823,0.350611984729767,-1197.90002441406,3.90000009536743,-870.900024414062,-2.91923122241001,0.1494284905214,0.03935701150583,ST
0.466666666666667,1.44391715526581,-0.372044920921326,9.50030517578125,0.243903994560242,-0.167683988809586,0.350611984729767,-1188.30004882812,2.70000004768372,-866.100036621094,-2.91990477376547,0.150578269817695,0.038953284067217,ST
0.5,1.40743041038513,-0.377428203821182,9.54157638549805,0.274392008781433,-0.167683988809586,0.327746003866196,-1200.30004882812,3.90000009536743,-849.300048828125,-2.92056592954331,0.147800951981435,0.0390869601911653,ST
0.533333333333333,1.42118775844574,-0.392979919910431,9.51824951171875,0.297257989645004,-0.129574000835419,0.350611984729767,-1173.90002441406,3.90000009536743,-868.500061035156,-2.92142956518865,0.148145987391454,0.0403107930617561,ST
0.566666666666667,1.4080286026001,-0.385802209377289,9.55294132232666,0.304879993200302,-0.137196004390717,0.365855991840363,-1181.10009765625,6.30000019073486,-866.100036621094,-2.92212269216392,0.146926648528739,0.0400379947167631,ST
0.6,1.40862667560577,-0.361278355121613,9.50508975982666,0.327746003866196,-0.167683988809586,0.419209986925125,-1185.90002441406,5.10000038146973,-856.500061035156,-2.92273521607107,0.147191476667737,0.0381864419855216,ST
0.633333333333333,1.36735486984253,-0.358885794878006,9.54815578460693,0.381099998950958,-0.175305992364883,0.419209986925125,-1188.30004882812,6.30000019073486,-866.100036621094,-2.92346200350902,0.143790531326876,0.0373502403545619,ST
0.666666666666667,1.41819703578949,-0.32239904999733,9.51406192779541,0.350611984729767,-0.182927995920181,0.396344006061554,-1185.90002441406,-5.70000028610229,-866.100036621094,-2.92383457934132,0.146862966378378,0.0345637625419486,ST
0.7,1.45707631111145,-0.342735916376114,9.55593204498291,0.358233988285065,-0.274392008781433,0.396344006061554,-1188.30004882812,6.90000009536743,-863.700012207031,-2.92469870082605,0.15022563096714,0.0351004913181684,ST
0.733333333333333,1.45946884155273,-0.335558205842972,9.5032958984375,0.297257989645004,-0.259148001670837,0.320124000310898,-1181.10009765625,4.5,-854.100036621094,-2.92538873643502,0.152098884033636,0.0349228845330959,ST
0.766666666666667,1.46963727474213,-0.302062213420868,9.49970626831055,0.282013982534409,-0.205793991684914,0.274392008781433,-1195.5,-1.5,-863.700012207031,-2.92558459969539,0.153299091852067,0.0323455428937663,ST
0.8,1.40743041038513,-0.270958751440048,9.53200626373291,0.327746003866196,-0.205793991684914,0.342989981174469,-1183.5,0.300000011920929,-856.500061035156,-2.92580271304013,0.148808236538586,0.0292636325846215,ST
0.833333333333333,1.44092643260956,-0.26437920331955,9.53559494018555,0.282013982534409,-0.259148001670837,0.403965979814529,-1176.30004882812,9.90000057220459,-866.100036621094,-2.92637710340095,0.149886909424154,0.0279145445155574,ST
0.866666666666667,1.4540855884552,-0.275743901729584,9.53499698638916,0.198172003030777,-0.274392008781433,0.403965979814529,-1193.10009765625,1.5,-861.300048828125,-2.92725983016726,0.151224160703701,0.0284655395414877,ST
0.9,1.48100197315216,-0.320604622364044,9.45963096618652,0.221037998795509,-0.152439996600151,0.350611984729767,-1185.90002441406,11.1000003814697,-866.100036621094,-2.9284689563562,0.154186057606185,0.0320469108557488,ST
0.933333333333333,1.4421226978302,-0.328978627920151,9.55772686004639,0.160062000155449,-0.121951997280121,0.236281991004944,-1176.30004882812,-2.70000004768372,-854.100036621094,-2.92914929510342,0.15116669389425,0.0335470500434695,ST
0.966666666666667,1.40025269985199,-0.347521066665649,9.54396915435791,0.190549999475479,-0.129574000835419,0.221037998795509,-1176.30004882812,-0.300000011920929,-866.100036621094,-2.92988753641115,0.147269842276676,0.0354162254971251,ST
1.0,1.41700065135956,-0.343334078788757,9.53978252410889,0.213415995240211,-0.144817993044853,0.236281991004944,-1190.70007324219,5.10000038146973,-856.500061035156,-2.9303795155613,0.147501920206086,0.0355896401346693,ST
1.03333333333333,1.41042113304138,-0.319408357143402,9.51166915893555,0.190549999475479,-0.182927995920181,0.282013982534409,-1176.30004882812,0.300000011920929,-858.900024414062,-2.9307348645134,0.147448664160653,0.0338801460943929,ST
1.06666666666667,1.40862667560577,-0.355296939611435,9.53200626373291,0.205793991684914,-0.198172003030777,0.327746003866196,-1176.30004882812,0.900000035762787,-858.900024414062,-2.93172688743535,0.147081355650965,0.0361319116384753,ST
1.1,1.45887064933777,-0.385802209377289,9.5272216796875,0.198172003030777,-0.236281991004944,0.304879993200302,-1185.90002441406,2.70000004768372,-866.100036621094,-2.93276196516648,0.150740019294263,0.0390360622937537,ST
1.13333333333333,1.45767438411713,-0.373839348554611,9.54337120056152,0.236281991004944,-0.198172003030777,0.274392008781433,-1171.5,-1.5,-858.900024414062,-2.9333137415077,0.151496697172062,0.0388758476429221,ST
1.16666666666667,1.44092643260956,-0.338548928499222,9.54157638549805,0.274392008781433,-0.205793991684914,0.274392008781433,-1183.5,-1.5,-870.900024414062,-2.93346556311915,0.15054203439263,0.0362092239719068,ST
1.2,1.44331896305084,-0.362474650144577,9.54875469207764,0.289635986089706,-0.190549999475479,0.297257989645004,-1183.5,3.90000009536743,-861.300048828125,-2.93419702069687,0.150319688161369,0.0371238082079798,ST
1.23333333333333,1.42836546897888,-0.358885794878006,9.51226806640625,0.282013982534409,-0.167683988809586,0.327746003866196,-1181.10009765625,-6.30000019073486,-854.100036621094,-2.93485913310893,0.149546249617451,0.0372516903717165,ST
1.26666666666667,1.41879510879517,-0.320604622364044,9.50508975982666,0.289635986089706,-0.144817993044853,0.388722002506256,-1183.5,-3.90000009536743,-851.700012207031,-2.93519719361311,0.148687753392147,0.0344986280572016,ST
1.3,1.40743041038513,-0.355895072221756,9.51765060424805,0.297257989645004,-0.167683988809586,0.426831990480423,-1176.30004882812,6.30000019073486,-861.300048828125,-2.9362670329065,0.147491668716463,0.0362266013906346,ST
1.33333333333333,1.38529908657074,-0.32538977265358,9.52482891082764,0.320124000310898,-0.205793991684914,0.434453994035721,-1188.30004882812,3.90000009536743,-866.100036621094,-2.93684493867287,0.145523828628185,0.0344624669664732,ST
1.36666666666667,1.3960657119751,-0.339147061109543,9.52243614196777,0.289635986089706,-0.228659987449646,0.434453994035721,-1188.30004882812,2.70000004768372,-846.900024414062,-2.93774907160242,0.145753718301416,0.0349839284036416,ST
1.4,1.40503787994385,-0.320604622364044,9.54097843170166,0.297257989645004,-0.274392008781433,0.411587983369827,-1190.70007324219,4.5,-858.900024414062,-2.93840076201573,0.146356930995776,0.0336750434442189,ST
1.43333333333333,1.43075799942017,-0.30923992395401,9.53738975524902,0.335367977619171,-0.259148001670837,0.37347799539566,-1193.10009765625,6.30000019073486,-873.300048828125,-2.93895889518528,0.148385984396129,0.0324522824207242,ST
1.46666666666667,1.36914920806885,-0.285314202308655,9.54217529296875,0.365855991840363,-0.190549999475479,0.419209986925125,-1183.5,6.30000019073486,-861.300048828125,-2.93946245336184,0.144450796623785,0.0302911625125294,ST
1.5,1.38649535179138,-0.271556913852692,9.48355674743652,0.388722002506256,-0.205793991684914,0.434453994035721,-1190.70007324219,6.30000019073486,-873.300048828125,-2.94013024690133,0.145175256810642,0.0286729906948684,ST
1.53333333333333,1.41221559047699,-0.253612607717514,9.5391845703125,0.297257989645004,-0.335367977619171,0.449698001146317,-1176.30004882812,2.10000014305115,-866.100036621094,-2.94079973928239,0.14688199097413,0.0268329826267661,ST
1.56666666666667,1.49954438209534,-0.270360618829727,9.52303409576416,0.205793991684914,-0.396344006061554,0.411587983369827,-1183.5,-0.300000011920929,-863.700012207031,-2.94171054054006,0.153811768870304,0.0277429623167899,ST
1.6,1.54320883750916,-0.293688207864761,9.5086784362793,0.152439996600151,-0.289635986089706,0.304879993200302,-1173.90002441406,5.70000028610229,-868.500061035156,-2.94260748669522,0.159052543319729,0.0298075188507225,ST
1.63333333333333,1.49475932121277,-0.299669623374939,9.5625114440918,0.167683988809586,-0.198172003030777,0.152439996600151,-1185.90002441406,5.10000038146973,-870.900024414062,-2.94306296300835,0.156444438868912,0.0306968643175738,ST
1.66666666666667,1.46066510677338,-0.298473328351974,9.54935264587402,0.213415995240211,-0.190549999475479,0.213415995240211,-1181.10009765625,-0.300000011920929,-856.500061035156,-2.94351957510604,0.153358532500382,0.0308620804477906,ST
1.7,1.48877787590027,-0.338548928499222,9.49611759185791,0.0990860015153885,-0.0914639979600906,0.37347799539566,-1188.30004882812,5.10000038146973,-858.900024414062,-2.94625014074766,0.15555084440292,0.0355663083433281,ST
1.73333333333333,1.3841028213501,-0.364269077777863,9.5625114440918,0.243903994560242,-0.129574000835419,0.213415995240211,-1173.90002441406,1.5,-856.500061035156,-2.94758037162828,0.14399601199657,0.0376792306721237,ST
1.76666666666667,1.36017715930939,-0.347521066665649,9.49432373046875,0.25152599811554,-0.137196004390717,0.3125019967556,-1176.30004882812,4.5,-856.500061035156,-2.94804020506201,0.142893332754383,0.0366642194145278,ST
1.8,1.39666378498077,-0.37025049328804,9.50090312957764,0.25152599811554,-0.121951997280121,0.426831990480423,-1185.90002441406,0.900000035762787,-856.500061035156,-2.94903591034963,0.145089205321109,0.0380318375170795,ST
1.83333333333333,1.39427125453949,-0.364867210388184,9.56071758270264,0.304879993200302,-0.190549999475479,0.426831990480423,-1173.90002441406,6.30000019073486,-851.700012207031,-2.94984663500324,0.14503470108799,0.0378118891831267,ST
1.86666666666667,1.41879510879517,-0.343334078788757,9.50927734375,0.266770005226135,-0.198172003030777,0.396344006061554,-1185.90002441406,1.5,-854.100036621094,-2.95044809790856,0.147468842261306,0.0362741767664915,ST
1.9,1.39546751976013,-0.328978627920151,9.57985782623291,0.304879993200302,-0.213415995240211,0.457319974899292,-1185.90002441406,1.5,-866.100036621094,-2.95112209979468,0.145612385647937,0.0345625002174796,ST
1.93333333333333,1.43374872207642,-0.337352633476257,9.54815578460693,0.342989981174469,-0.144817993044853,0.503051996231079,-1193.10009765625,2.10000014305115,-863.700012207031,-2.95222394066132,0.148285489519583,0.0347777543331405,ST
1.96666666666667,1.43195426464081,-0.318810194730759,9.52901554107666,0.350611984729767,-0.152439996600151,0.487807989120483,-1183.5,-1.5,-866.100036621094,-2.95296752077024,0.149003038238291,0.0335075557805207,ST
2.0,1.43135607242584,-0.310436189174652,9.51286602020264,0.37347799539566,-0.121951997280121,0.46494197845459,-1173.90002441406,5.70000028610229,-873.300048828125,-2.95376614145454,0.149329184353015,0.0324813539758639,ST
2.03333333333333,1.43554317951202,-0.276342064142227,9.54875469207764,0.342989981174469,-0.0762199983000755,0.480185985565186,-1181.10009765625,-1.5,-851.700012207031,-2.95431998449774,0.149282980292568,0.0295141919808155,ST
2.06666666666667,1.41400992870331,-0.272753208875656,9.49312686920166,0.297257989645004,-0.0304879993200302,0.495429992675781,-1185.90002441406,5.10000038146973,-866.100036621094,-2.95512161636056,0.148268215247681,0.0286894265004047,ST
2.1,1.275838971138,-0.285314202308655,9.4674072265625,0.0838419944047928,-0.0304879993200302,0.518296003341675,-1183.5,4.5,-858.900024414062,-2.95617175440863,0.13823629903502,0.0296845135263413,ST
2.13333333333333,1.23038005828857,-0.36725977063179,9.46621036529541,-0.129574000835419,0.0152439996600151,0.541162014007568,-1183.5,12.3000001907349,-866.100036621094,-2.95808546589298,0.131494342836017,0.0366570973739607,ST
2.16666666666667,1.07486295700073,-0.509019672870636,9.61873722076416,-0.0685980021953583,0.0838419944047928,0.426831990480423,-1190.70007324219,5.10000038146973,-863.700012207031,-2.96022076987439,0.117136132626714,0.0481509378486511,ST
2.2,0.805100440979004,-0.536534249782562,9.55413722991943,0.114329993724823,0.266770005226135,0.243903994560242,-1185.90002441406,3.30000019073486,-861.300048828125,-2.96125463780177,0.0927041764509675,0.0538081861048615,ST
2.23333333333333,0.591563403606415,-0.436644375324249,9.72879505157471,0.419209986925125,0.411587983369827,0.152439996600151,-1183.5,5.70000028610229,-878.100036621094,-2.9609916570422,0.0697954575039347,0.0470437010725105,ST
2.26666666666667,0.491673529148102,-0.266173630952835,9.72939395904541,0.952749967575073,0.0457319989800453,0.640248000621796,-1188.30004882812,-4.5,-856.500061035156,-2.96134450464717,0.0552155254547634,0.0310762081238633,ST
2.3,0.519188106060028,-0.0711790099740028,9.20183181762695,0.724089980125427,-0.0304879993200302,0.769822001457214,-1185.90002441406,9.90000057220459,-866.100036621094,-2.96178935521408,0.0560364791744408,0.0139249707635872,ST
2.33333333333333,0.638218522071838,-0.160900458693504,9.29753398895264,0.259148001670837,-0.0228659994900227,0.891773998737335,-1178.70007324219,5.10000038146973,-861.300048828125,-2.96348215836893,0.0647811078662656,0.0160367930852865,ST
2.36666666666667,0.744089841842651,-0.260192185640335,9.31129169464111,-0.137196004390717,-0.472563982009888,0.670735955238342,-1188.30004882812,0.900000035762787,-870.900024414062,-2.96523771370891,0.0757821409211852,0.0245805109324194,ST
2.4,0.720164120197296,-0.378026366233826,9.32803916931152,-0.403965979814529,-0.716467976570129,0.434453994035721,-1185.90002441406,5.70000028610229,-870.900024414062,-2.96694077059612,0.0775489115729296,0.0366863296884278,ST
2.43333333333333,0.685471832752228,-0.539524972438812,9.4847526550293,-0.480185985565186,-0.670735955238342,0.221037998795509,-1171.5,-2.70000004768372,-866.100036621094,-2.96845542051949,0.0744411780417284,0.0516557737636537,ST
2.46666666666667,0.659751713275909,-0.643003702163696,9.60737228393555,-0.221037998795509,-0.922261953353882,-0.0838419944047928,-1171.5,1.5,-870.900024414062,-2.96920079455969,0.0711860107874923,0.063134474061461,ST
2.5,0.643601834774017,-0.715977132320404,9.38187217712402,0.0457319989800453,-0.92988395690918,-0.0381099991500378,-1178.70007324219,5.70000028610229,-861.300048828125,-2.96988849529422,0.0703017241862544,0.0721946752619544,ST
2.53333333333333,0.538328647613525,-0.724351167678833,9.34000205993652,0.0457319989800453,-0.632625997066498,0.0,-1190.70007324219,0.300000011920929,-866.100036621094,-2.97021134647627,0.0620516347013716,0.075782782636164,ST
2.56666666666667,0.472532957792282,-0.662144243717194,9.41716289520264,0.228659987449646,-0.449698001146317,0.198172003030777,-1181.10009765625,7.50000047683716,-866.100036621094,-2.97039063955962,0.0541632139813981,0.0716136452883308,ST
2.6,0.55866551399231,-0.576011657714844,9.48415470123291,0.411587983369827,-0.884151995182037,0.266770005226135,-1181.10009765625,-0.300000011920929,-861.300048828125,-2.97056380136449,0.0586461912899036,0.0630253594131704,ST
2.63333333333333,0.568235814571381,-0.448009073734283,9.42254638671875,0.564027965068817,-1.31098401546478,0.640248000621796,-1188.30004882812,2.10000014305115,-854.100036621094,-2.97124553837716,0.0614077962410321,0.0509068466095017,ST
2.66666666666667,0.521580696105957,-0.398961365222931,9.14141941070557,0.533540010452271,-1.08232402801514,1.03659200668335,-1195.5,4.5,-875.700012207031,-2.97283488170749,0.0595435154685515,0.0452372238280418,ST
2.7,0.903195858001709,-0.464757084846497,9.78860950469971,0.0685980021953583,-0.861285984516144,1.34909391403198,-1185.90002441406,6.90000009536743,-854.100036621094,-2.97557287454691,0.0844487886564494,0.0469077711540463,ST
2.73333333333333,1.43135607242584,-0.416905641555786,9.69111251831055,-0.0838419944047928,-1.47866797447205,1.12043392658234,-1195.5,3.90000009536743,-861.300048828125,-2.97750096020021,0.132063658433048,0.0443080579818692,ST
2.76666666666667,1.94456279277802,-0.358287632465363,10.0595684051514,-0.213415995240211,-1.57775402069092,0.67835795879364,-1197.90002441406,3.90000009536743,-868.500061035156,-2.97785066917683,0.17503936748171,0.0386464288423061,ST
2.8,2.50083565711975,-0.370848655700684,9.72460842132568,0.0685980021953583,-1.14329993724823,0.46494197845459,-1190.70007324219,2.70000004768372,-854.100036621094,-2.9786714970477,0.229882177196719,0.0383265481813365,ST
2.83333333333333,2.96379852294922,-0.804502308368683,9.281982421875,-0.274392008781433,-0.114329993724823,-0.182927995920181,-1190.70007324219,4.5,-851.700012207031,-2.98683432318544,0.284695664725318,0.0720015728409732,ST
2.86666666666667,2.2053530216217,-0.66034984588623,9.67376613616943,-0.335367977619171,0.983237981796265,-1.38720393180847,-1193.10009765625,6.30000019073486,-873.300048828125,-2.98354282982976,0.240933794181802,0.0692389861535525,ST
2.9,1.34462535381317,-0.538926839828491,10.5733728408813,0.632625997066498,1.08232402801514,-0.868907988071442,-1183.5,0.900000035762787,-870.900024414062,-2.97942583635867,0.159614951002331,0.0553764970241553,ST
2.93333333333333,1.15621042251587,-0.397765070199966,10.5494480133057,1.20427596569061,1.18903195858002,-0.381099998950958,-1171.5,9.90000057220459,-861.300048828125,-2.97701186256818,0.122865874742995,0.0414426200719593,ST
2.96666666666667,1.22559499740601,-0.388792932033539,9.72101974487305,0.823175966739655,1.12805593013763,0.160062000155449,-1183.5,3.90000009536743,-866.100036621094,-2.97713491726359,0.123195603830264,0.0394282855591978,ST
3.0,1.02641332149506,-0.613096535205841,9.71324348449707,0.0304879993200302,1.21189796924591,0.106707997620106,-1183.5,2.70000004768372,-868.500061035156,-2.97913777251923,0.109049803338601,0.0559150611041384,ST
3.03333333333333,0.88285905122757,-0.847568571567535,9.79877853393555,-0.419209986925125,1.53964400291443,-0.160062000155449,-1188.30004882812,3.30000019073486,-861.300048828125,-2.98081406382173,0.0935486893544316,0.0776391455438163,ST
3.06666666666667,0.418700069189072,-0.77579140663147,9.69649600982666,-0.0838419944047928,1.50153398513794,-0.670735955238342,-1164.30004882812,3.30000019073486,-866.100036621094,-2.97956650016286,0.0564576648538479,0.0792138210757391,ST
3.1,0.0741697251796722,-0.761435985565186,9.38127422332764,0.365855991840363,1.32622802257538,-0.731711983680725,-1169.10009765625,6.30000019073486,-861.300048828125,-2.97818102828746,0.020952931712096,0.0799748966363016,ST
3.13333333333333,-0.269762486219406,-0.702219843864441,9.36213397979736,0.480185985565186,1.29574000835419,-0.640248000621796,-1173.90002441406,3.90000009536743,-858.900024414062,-2.97689614700897,-0.0152953422455736,0.075820962435241,ST
3.16666666666667,-0.548497080802917,-0.600535571575165,9.50209903717041,0.37347799539566,1.21951997280121,-0.617381989955902,-1164.30004882812,7.50000047683716,-856.500061035156,-2.97594929209071,-0.0462675519475752,0.06651769585628,ST
3.2,-0.329576790332794,-0.483299523591995,9.62651252746582,0.472563982009888,0.87652999162674,-0.518296003341675,-1185.90002441406,1.5,-873.300048828125,-2.97537160623466,-0.0384366730954982,0.0538710251232746,ST
3.23333333333333,-0.530552804470062,-0.219518467783928,10.0194931030273,0.746955990791321,0.190549999475479,-0.304879993200302,-1171.5,1.5,-866.100036621094,-2.97578909515433,-0.0487652947816113,0.0306314415902252,ST
3.26666666666667,-0.459971934556961,-0.193798318505287,9.51286602020264,0.495429992675781,0.37347799539566,0.282013982534409,-1164.30004882812,3.30000019073486,-854.100036621094,-2.97659679863622,-0.0489087781322,0.0228349719674772,ST
3.3,-0.385802209377289,-0.0311034340411425,9.69051456451416,0.152439996600151,0.556405961513519,0.655492007732391,-1152.30004882812,0.300000011920929,-870.900024414062,-2.97843131017172,-0.0430141513545882,0.0083674357138249,ST
3.33333333333333,-0.22968690097332,-0.253014475107193,9.15637302398682,-0.282013982534409,0.907018005847931,1.15092194080353,-1169.10009765625,-0.900000035762787,-863.700012207031,-2.97990146609691,-0.0315980657503391,0.0221284159110887,ST
3.36666666666667,-0.302660346031189,-0.391185492277145,9.39682579040527,-0.922261953353882,1.35671591758728,0.853663980960846,-1171.5,3.90000009536743,-875.700012207031,-2.98088044181504,-0.0336852016692391,0.0368403988299845,ST
3.4,-0.577806115150452,-0.358885794878006,9.5744743347168,-0.663114011287689,1.44055795669556,0.739333987236023,-1161.90002441406,7.50000047683716,-880.500061035156,-2.98205842593755,-0.0540381462024599,0.0380510608737717,ST
3.43333333333333,-0.596348524093628,-0.290697485208511,9.5032958984375,-0.121951997280121,1.36433792114258,0.922261953353882,-1159.5,6.90000009536743,-878.100036621094,-2.98387317732331,-0.0617572792987368,0.0329144968607757,ST
3.46666666666667,-0.433653652667999,-0.330174922943115,9.22097206115723,-0.274392008781433,1.12805593013763,0.967993974685669,-1166.70007324219,2.10000014305115,-880.500061035156,-2.98537279526562,-0.0528300396922962,0.0351970251195257,ST
3.5,-0.708201289176941,-0.388194799423218,9.56011867523193,-0.411587983369827,1.10518991947174,1.265251994133,-1157.10009765625,-3.30000019073486,-892.500061035156,-2.98727159112713,-0.0689559031344772,0.0393730805728063,ST
3.53333333333333,-0.582591235637665,-0.41750380396843,9.57567119598389,-0.114329993724823,1.07470202445984,1.17378795146942,-1145.10009765625,0.300000011920929,-863.700012207031,-2.98914377327873,-0.064393989375348,0.042469661574642,ST
3.56666666666667,-0.462962657213211,-0.403148353099823,9.81552600860596,0.411587983369827,0.685979962348938,1.22714197635651,-1140.30004882812,6.90000009536743,-878.100036621094,-2.99125938120933,-0.0531947813654963,0.0408888002219542,ST
3.6,-0.409727931022644,-0.24224790930748,9.66898155212402,0.754577994346619,0.0685980021953583,0.945127964019775,-1154.70007324219,3.90000009536743,-875.700012207031,-2.99341574377828,-0.045727528882013,0.028834052457873,ST
3.63333333333333,0.0957028716802597,-0.122021168470383,9.63249397277832,0.899396002292633,-0.564027965068817,0.480185985565186,-1154.70007324219,2.70000004768372,-878.100036621094,-2.99464914260466,-0.0032665944741482,0.0155197665710269,ST
3.66666666666667,0.616087257862091,-0.32838049530983,9.24549579620361,0.746955990791321,-1.57775402069092,-0.259148001670837,-1142.70007324219,6.30000019073486,-882.900024414062,-2.99457541479848,0.050233914110072,0.0292827986281202,ST
3.7,0.74947315454483,-0.500645637512207,9.29813289642334,0.525918006896973,-1.28811800479889,-1.21189796924591,-1164.30004882812,-2.70000004768372,-873.300048828125,-2.99362959113897,0.0728978457818648,0.0456786442654419,ST
3.73333333333333,0.427074074745178,-0.48449581861496,9.69709396362305,0.571649968624115,-0.67835795879364,-1.73019397258759,-1161.90002441406,-0.900000035762787,-875.700012207031,-2.99090341447524,0.0535889234900283,0.047820351721821,ST
3.76666666666667,0.394176214933395,-0.418101936578751,9.65761661529541,0.807931959629059,-0.434453994035721,-1.61586391925812,-1157.10009765625,-2.70000004768372,-870.900024414062,-2.9877566083613,0.0447719683156868,0.0433183869947234,ST
3.8,0.216527760028839,-0.537132382392883,10.1086158752441,0.411587983369827,-0.198172003030777,-0.685979962348938,-1152.30004882812,-5.10000038146973,-880.500061035156,-2.98675340529222,0.0278145748144299,0.0499667712186905,ST
3.83333333333333,-0.119628593325615,-0.291893780231476,10.2599468231201,0.198172003030777,-0.350611984729767,0.0228659994900227,-1145.10009765625,-3.30000019073486,-873.300048828125,-2.98660721939082,0.0006457945078712,0.0346769065290763,ST
3.86666666666667,0.0293090064078569,-0.448009073734283,9.48834228515625,-0.548784017562866,0.106707997620106,1.63872992992401,-1157.10009765625,-0.900000035762787,-885.300048828125,-2.98969885689991,0.0022240436762329,0.0446132303822373,ST
3.9,0.0263182912021875,-0.649583280086517,9.74853420257568,-1.08994603157043,0.160062000155449,2.21037983894348,-1142.70007324219,3.90000009536743,-880.500061035156,-2.99364731044013,0.0022128601867098,0.0615934871978975,ST
3.93333333333333,0.159704178571701,-0.899607002735138,9.17730808258057,-1.07470202445984,-0.0685980021953583,2.53812599182129,-1152.30004882812,2.70000004768372,-868.500061035156,-2.9986308323986,0.0131942051896788,0.0896511631316161,ST
3.96666666666667,-0.0544310100376606,-1.03000223636627,9.50030517578125,-0.754577994346619,0.480185985565186,2.9116039276123,-1154.70007324219,3.30000019073486,-882.900024414062,-3.0036348183447,-0.0009390770942025,0.103419721062548,ST
4.0,0.312230616807938,-1.16398620605469,9.41058349609375,-0.571649968624115,0.0685980021953583,2.25611186027527,-1152.30004882812,7.50000047683716,-870.900024414062,-3.00764311356331,0.0223416583836345,0.117882721166719,ST
4.03333333333333,-0.0173461455851793,-1.10058307647705,9.41118144989014,-0.0914639979600906,-0.0152439996600151,1.71494996547699,-1164.30004882812,3.30000019073486,-870.900024414062,-3.01057381224618,0.0052137193981128,0.116997915519002,ST
4.06666666666667,-0.0945065915584564,-1.1436493396759,9.3956298828125,-0.137196004390717,0.228659987449646,1.45580196380615,-1161.90002441406,10.5,-866.100036621094,-3.01302388432558,-0.0059001747401192,0.120051108996376,ST
4.1,0.360082060098648,-1.15142524242401,9.56490421295166,-0.304879993200302,-0.0228659994900227,0.823175966739655,-1166.70007324219,11.1000003814697,-882.900024414062,-3.01443910028569,0.0242520362351046,0.120265955084007,ST
4.13333333333333,0.380418926477432,-0.959421336650848,9.62471866607666,0.510673999786377,-0.975615978240967,0.525918006896973,-1161.90002441406,5.10000038146973,-870.900024414062,-3.0151481077804,0.0363302805654827,0.10447905488471,ST
4.16666666666667,0.793137550354004,-1.0054783821106,9.2520751953125,0.92988395690918,-0.419209986925125,0.274392008781433,-1171.5,8.10000038146973,-878.100036621094,-3.01585805890709,0.0708434369725735,0.106005179572689,ST
4.2,0.643003702163696,-0.439036935567856,9.27301025390625,1.12043392658234,0.121951997280121,-0.320124000310898,-1157.10009765625,5.70000028610229,-875.700012207031,-3.0124494624602,0.0695766203638266,0.0635743561798743,ST
4.23333333333333,0.132189601659775,-0.102282449603081,9.33701133728027,1.41006994247437,0.754577994346619,0.884151995182037,-1145.10009765625,5.70000028610229,-878.100036621094,-3.01218062504201,0.0283978396490749,0.0236630289106512,ST
4.26666666666667,0.0011962859425693,0.0233275759965181,9.15457820892334,1.28811800479889,1.32622802257538,1.17378795146942,-1152.30004882812,5.10000038146973,-892.500061035156,-3.01386441088442,0.0069978035740553,0.0037876339714843,ST
4.3,0.0807493031024933,-0.245238617062569,9.70965480804443,0.914639949798584,0.800309956073761,0.335367977619171,-1154.70007324219,1.5,-902.100036621094,-3.0145383757393,0.0069371459107647,0.0176821305002749,ST
4.33333333333333,0.581394970417023,-0.516795516014099,9.7898063659668,0.221037998795509,-0.0228659994900227,-0.907018005847931,-1145.10009765625,2.10000014305115,-890.100036621094,-3.01351106366686,0.0455882546286656,0.043214658889632,ST
4.36666666666667,-0.200377896428108,-0.467149674892426,10.4770727157593,-0.114329993724823,-0.853663980960846,-1.52439999580383,-1157.10009765625,5.10000038146973,-875.700012207031,-3.01096401722779,0.0014866042070244,0.044257001578126,ST
4.4,-0.270360618829727,-0.321800917387009,9.50209903717041,-0.304879993200302,-0.381099998950958,-0.243903994560242,-1157.10009765625,6.90000009536743,-875.700012207031,-3.01063415478996,-0.0189537145217879,0.0373595210585037,ST
4.43333333333333,0.07656230032444,-0.386400371789932,9.11689472198486,-0.167683988809586,0.724089980125427,0.990859985351562,-1147.5,1.5,-882.900024414062,-3.01226307461843,-0.0007656308681556,0.0410484749920805,ST
4.46666666666667,0.371446788311005,-0.69863098859787,9.06425857543945,-0.381099998950958,0.853663980960846,1.15092194080353,-1157.10009765625,9.30000019073486,-878.100036621094,-3.01450351715043,0.0272025399181797,0.0666065279216784,ST
4.5,0.401353925466537,-0.851157426834106,9.49492168426514,-0.358233988285065,-0.403965979814529,0.182927995920181,-1145.10009765625,3.90000009536743,-875.700012207031,-3.01538488587866,0.0380791365427233,0.0829904492876403,ST
4.53333333333333,0.195592746138573,-0.682481110095978,10.0553817749023,0.289635986089706,-1.56251001358032,0.144817993044853,-1152.30004882812,4.5,-880.500061035156,-3.01550510598837,0.0269095878963805,0.0720023480839924,ST
4.56666666666667,0.595152258872986,-0.771006286144257,9.4853515625,0.442075997591019,-2.0655620098114,1.12043392658234,-1157.10009765625,3.90000009536743,-870.900024414062,-3.0181156305842,0.0551933117381265,0.0781128075313208,ST
4.6,0.982748925685883,-0.61249840259552,9.59002590179443,0.442075997591019,-1.6692179441452,1.29574000835419,-1154.70007324219,8.10000038146973,-880.500061035156,-3.01985388476036,0.0897771875039303,0.0676965541798689,ST
4.63333333333333,0.866709172725677,-0.715378999710083,10.0105209350586,0.815553963184357,-0.0838419944047928,1.65397393703461,-1159.5,0.900000035762787,-882.900024414062,-3.02298155023131,0.0872019875558719,0.0694293559779318,ST
4.66666666666667,0.409727931022644,-0.0735715851187706,10.5171480178833,1.57775402069092,-0.0609759986400604,1.15092194080353,-1152.30004882812,10.5,-878.100036621094,-3.02196658246586,0.0535035197171908,0.0239228337478149,ST
4.7,0.55866551399231,0.381615221500397,9.98659515380859,1.71494996547699,-1.02134799957275,1.21951997280121,-1147.5,7.50000047683716,-870.900024414062,-3.02178547648891,0.0565198047055607,-0.02321090614006,ST
4.73333333333333,0.546702682971954,0.693247675895691,9.75092697143555,1.38720393180847,-0.830797970294952,1.21189796924591,-1152.30004882812,3.30000019073486,-875.700012207031,-3.02196772620558,0.0571534817995032,-0.0582178155135909,ST
4.76666666666667,1.05452609062195,0.803305983543396,9.46800518035889,0.708845973014832,-0.46494197845459,0.487807989120483,-1140.30004882812,2.10000014305115,-882.900024414062,-3.02135016924433,0.0978281434186559,-0.0788921607354472,ST
4.8,0.830222427845001,0.750669419765472,9.5266227722168,0.67835795879364,0.243903994560242,-0.0304879993200302,-1157.10009765625,8.10000038146973,-868.500061035156,-3.02138082714119,0.0897198752061401,-0.0795411427472145,ST
4.83333333333333,-0.13099330663681,0.69564026594162,10.1624488830566,0.853663980960846,1.40244793891907,-0.594515979290009,-1145.10009765625,-3.90000009536743,-873.300048828125,-3.02094410138145,0.0135260688139337,-0.0725498855620553,ST
4.86666666666667,-0.193798318505287,0.751865744590759,10.3640232086182,0.792688012123108,0.99848198890686,-0.632625997066498,-1145.10009765625,-1.5,-868.500061035156,-3.01998295792644,-0.0102416428826836,-0.0734286742937855,ST
4.9,-0.356493204832077,0.541917502880096,9.90225696563721,0.121951997280121,0.594515979290009,-0.594515979290009,-1147.5,0.300000011920929,-880.500061035156,-3.01876977730796,-0.0289786214779095,-0.060453304382967,ST
4.93333333333333,-0.593955993652344,0.542515695095062,9.52781963348389,-0.0838419944047928,1.30336201190948,-0.647870004177094,-1152.30004882812,5.70000028610229,-873.300048828125,-3.01768342178754,-0.0538125348354828,-0.0578255116464258,ST
4.96666666666667,0.168078169226646,0.179442897439003,9.41357421875,-0.114329993724823,0.792688012123108,-1.20427596569061,-1145.10009765625,2.70000004768372,-868.500061035156,-3.01468758649263,-0.002040696705238,-0.0290429360150889,ST
5.0,-0.158507883548737,0.119030453264713,9.43450927734375,-0.472563982009888,0.0609759986400604,-1.99696397781372,-1145.10009765625,1.5,-868.500061035156,-3.01115803957279,-0.0124897601665416,-0.0169622257055657,ST
5.03333333333333,-0.22011661529541,-0.425279647111893,8.87823581695557,-0.663114011287689,0.533540010452271,-1.49391198158264,-1135.5,1.5,-878.100036621094,-3.00780373005757,-0.0217152189148101,0.0291938472477861,ST
5.06666666666667,-0.426475942134857,-0.410326063632965,9.26942157745361,-0.518296003341675,0.480185985565186,-2.22562384605408,-1140.30004882812,3.30000019073486,-897.300048828125,-3.00361758086719,-0.0391388065559923,0.0404275553820959,ST
5.1,-0.884653449058533,-0.373839348554611,9.34897422790527,1.15854394435883,0.609759986400604,-1.16616594791412,-1140.30004882812,-0.300000011920929,-875.700012207031,-3.00155066155628,-0.0783691781195478,0.0387799304683983,ST
5.13333333333333,-0.681882977485657,-0.493467956781387,8.87524509429932,0.922261953353882,0.175305992364883,-1.00610399246216,-1142.70007324219,5.70000028610229,-885.300048828125,-2.99885061653907,-0.0772675349051201,0.0494729473037245,ST
5.16666666666667,-0.724949300289154,-0.334361910820007,8.73049449920654,-0.0838419944047928,-0.182927995920181,-0.67835795879364,-1137.90002441406,5.10000038146973,-880.500061035156,-2.99831425535693,-0.0808669770661124,0.0418144767443824,ST
5.2,-0.525767683982849,-0.784165441989899,9.07861423492432,-0.701223969459534,-0.0685980021953583,0.434453994035721,-1154.70007324219,11.1000003814697,-873.300048828125,-2.9968183809363,-0.0639806144243373,0.074842205834009,ST
5.23333333333333,-0.129797026515007,-1.14664006233215,9.65582180023193,-0.975615978240967,-0.3125019967556,0.297257989645004,-1142.70007324219,1.5,-878.100036621094,-2.99600864934478,-0.0275743120772883,0.106944379443598,ST
5.26666666666667,-0.211742609739304,-1.23038005828857,9.98599720001221,-0.960371971130371,-0.83841997385025,-0.663114011287689,-1137.90002441406,5.10000038146973,-880.500061035156,-2.99477389781974,-0.0218993742472549,0.119075740069114,ST
5.3,-0.401353925466537,-1.41759884357452,10.134934425354,-0.609759986400604,-0.533540010452271,-0.807931959629059,-1142.70007324219,1.5,-885.300048828125,-2.99312785644238,-0.0332252689479652,0.133754122834031,ST
5.33333333333333,-0.250621914863586,-1.33684957027435,9.99616527557373,-0.327746003866196,-0.190549999475479,-0.67835795879364,-1130.70007324219,5.10000038146973,-880.500061035156,-2.99203216864653,-0.0270249221139409,0.13361386970571,ST
5.36666666666667,0.0550291538238525,-1.40264523029327,10.0380353927612,-0.411587983369827,-0.937505960464478,-0.0533539988100529,-1137.90002441406,3.30000019073486,-875.700012207031,-2.99210865737033,-0.003191252049597,0.137769209795953,ST
5.4,-0.0113647161051631,-1.29617583751678,10.3293313980103,-0.106707997620106,-0.952749967575073,0.358233988285065,-1137.90002441406,-1.5,-897.300048828125,-2.99295942099119,-0.000628592026449,0.12885268947634,ST
5.43333333333333,0.291893780231476,-0.872690618038177,9.27241230010986,0.693601965904236,-0.510673999786377,0.46494197845459,-1135.5,0.900000035762787,-885.300048828125,-2.9935982120106,0.0222757460663877,0.1035424174095,ST
5.46666666666667,0.125610023736954,-0.604722559452057,9.24310302734375,1.10518991947174,0.609759986400604,1.06708002090454,-1130.70007324219,3.90000009536743,-885.300048828125,-2.99493885609111,0.0150687924377138,0.0744510329388382,ST
5.5,-0.403148353099823,-0.0227294322103262,9.28916072845459,0.92988395690918,1.37958192825317,1.05945801734924,-1140.30004882812,9.30000019073486,-885.300048828125,-2.99695680497923,-0.0275319953720311,0.0230064920550617,ST
5.53333333333333,-0.395970642566681,0.345726639032364,9.48894023895264,1.15092194080353,1.30336201190948,1.34147191047668,-1140.30004882812,0.900000035762787,-875.700012207031,-3.00092881159943,-0.039657338600149,-0.0223667469568851,ST
5.56666666666667,-0.358287632465363,0.200377896428108,9.49970626831055,0.78506600856781,0.602137982845306,1.41769194602966,-1125.90002441406,1.5,-885.300048828125,-3.00335100056394,-0.0389771619961282,-0.0225006446535093,ST
5.6,-0.641209244728088,0.24224790930748,9.7359733581543,0.655492007732391,0.518296003341675,0.891773998737335,-1135.5,-3.30000019073486,-890.100036621094,-3.00497990268243,-0.0582992874474206,-0.0250160149745033,ST
5.63333333333333,-0.512608528137207,0.237462759017944,10.0625591278076,1.09756803512573,0.304879993200302,0.358233988285065,-1128.30004882812,-2.10000014305115,-878.100036621094,-3.00555767190323,-0.0532949564813338,-0.0253997558073455,ST
5.66666666666667,0.0598142966628075,0.110656447708607,10.0242776870728,0.990859985351562,-0.823175966739655,-0.586893975734711,-1128.30004882812,-1.5,-897.300048828125,-3.00416877401553,-0.0108770656186761,-0.0165433816173274,ST
5.7,0.627451956272125,0.139965459704399,9.17730808258057,0.693601965904236,-1.90549993515015,-1.71494996547699,-1135.5,6.30000019073486,-899.700012207031,-3.00116737083666,0.046726449086374,-0.0165311549033108,ST
5.73333333333333,0.391783654689789,-0.0807493031024933,9.37648963928223,0.213415995240211,-0.922261953353882,-1.94360995292664,-1140.30004882812,-0.300000011920929,-885.300048828125,-2.99859841012774,0.0443635608289302,0.0006821953021023,ST
5.76666666666667,0.205163031816483,-0.254210770130157,9.32624530792236,-0.190549999475479,0.190549999475479,-1.86738991737366,-1135.5,-2.70000004768372,-870.900024414062,-2.99604133200595,0.0285120505169192,0.0194137296059867,ST
5.8,0.0251220054924488,-0.369054228067398,9.12287616729736,-0.205793991684914,0.701223969459534,-1.2500079870224,-1130.70007324219,6.90000009536743,-880.500061035156,-2.99412909962785,0.0096875083532299,0.0343339533299308,ST
5.83333333333333,-0.0269164331257343,-0.730930685997009,8.51815414428711,-0.731711983680725,0.975615978240967,-0.777444005012512,-1133.10009765625,-0.300000011920929,-875.700012207031,-2.99286667519567,-0.0004223100642472,0.0710638004210547,ST
5.86666666666667,-0.501841962337494,-0.989926636219025,9.97822093963623,-1.52439999580383,0.647870004177094,-0.274392008781433,-1135.5,4.5,-897.300048828125,-2.99195854198219,-0.0358457051665431,0.0923792580347255,ST
5.9,-0.194994613528252,-0.956430613994598,9.57327842712402,-1.31860601902008,-1.10518991947174,0.114329993724823,-1125.90002441406,3.90000009536743,-880.500061035156,-2.99220918360989,-0.0236225176522812,0.0990138400600829,ST
5.93333333333333,-0.136974737048149,-1.19329524040222,9.54097843170166,-1.10518991947174,-1.44055795669556,0.884151995182037,-1123.5,4.5,-873.300048828125,-2.9937095719406,-0.0152824038490151,0.118468721790657,ST
5.96666666666667,0.0747678726911545,-1.26208162307739,9.89029407501221,-0.92988395690918,-0.769822001457214,1.08994603157043,-1135.5,5.70000028610229,-868.500061035156,-2.99570459316774,0.0014160120333,0.125506661511136,ST
6.0,0.129797026515007,-1.30036282539368,10.2461891174316,-0.449698001146317,-0.426831990480423,0.960371971130371,-1140.30004882812,5.10000038146973,-882.900024414062,-2.99749829173031,0.009736889429055,0.126593948231327,ST
6.03333333333333,0.215929612517357,-1.10058307647705,9.79219818115234,0.114329993724823,-0.884151995182037,0.815553963184357,-1135.5,11.7000007629395,-897.300048828125,-2.99893553761754,0.0192002464127061,0.1162146886371,ST
6.06666666666667,0.634031534194946,-1.03658175468445,9.1868782043457,0.548784017562866,-1.2423859834671,1.14329993724823,-1133.10009765625,12.9000005722046,-873.300048828125,-3.00105284797736,0.054995808218092,0.112916698838569,ST
6.1,0.367857933044434,-1.08383500576019,10.4824552536011,0.724089980125427,-1.40244793891907,1.2576299905777,-1137.90002441406,-1.5,-878.100036621094,-3.00316095938617,0.0424741008447083,0.10520132448633,ST
6.13333333333333,0.649583280086517,-0.741697311401367,9.94293022155762,1.07470202445984,-1.61586391925812,1.53964400291443,-1133.10009765625,8.70000076293945,-878.100036621094,-3.00500173906478,0.0600607156398407,0.0825101151496417,ST
6.16666666666667,0.467149674892426,-0.811081886291504,9.3717041015625,1.07470202445984,-0.701223969459534,2.0731840133667,-1145.10009765625,9.30000019073486,-882.900024414062,-3.00885767482143,0.0534031785716016,0.0840177110247845,ST
6.2,0.167480036616325,-0.848166704177856,9.62172794342041,0.236281991004944,0.594515979290009,2.01982998847961,-1147.5,-2.70000004768372,-875.700012207031,-3.01257255264211,0.0262769983931187,0.0866524032140932,ST
6.23333333333333,-0.342137783765793,-0.736912131309509,9.32803916931152,0.152439996600151,0.381099998950958,1.74543797969818,-1142.70007324219,6.30000019073486,-880.500061035156,-3.01550141246863,-0.0182833435397751,0.081018042147566,ST
6.26666666666667,-0.501841962337494,-0.818259596824646,9.76887130737305,0.564027965068817,0.25152599811554,2.01220798492432,-1159.5,4.5,-873.300048828125,-3.01917809652745,-0.0430642894231147,0.0820925264659176,ST
6.3,-0.18482618033886,-0.662742435932159,9.90405178070068,0.708845973014832,-0.6250039935112,1.76068198680878,-1142.70007324219,4.5,-875.700012207031,-3.02264623710651,-0.0253741405999885,0.0704712119621937,ST
6.33333333333333,0.267369896173477,-0.413316786289215,9.40220928192139,0.868907988071442,-1.60061991214752,1.40244793891907,-1137.90002441406,-3.90000009536743,-873.300048828125,-3.02540715331826,0.0148185127243342,0.0504837013130586,ST
6.36666666666667,0.547898948192596,-0.102880589663982,9.11390399932861,0.731711983680725,-1.19665396213531,0.701223969459534,-1135.5,6.90000009536743,-873.300048828125,-3.02584808972213,0.0478708207883414,0.0222360570185133,ST
6.4,0.507823407649994,-0.110058307647705,9.30949687957764,0.426831990480423,-0.0304879993200302,0.594515979290009,-1140.30004882812,12.3000001907349,-873.300048828125,-3.02652195710639,0.0525246377995884,0.0144704430075217,ST
6.43333333333333,0.0789548754692078,-0.206359326839447,9.40819072723389,0.259148001670837,0.632625997066498,0.0914639979600906,-1142.70007324219,-2.70000004768372,-878.100036621094,-3.02685940234161,0.0208943560986936,0.0193764781151829,ST
6.46666666666667,-0.611302137374878,-0.286510497331619,9.69051456451416,1.05945801734924,1.05945801734924,-0.0533539988100529,-1152.30004882812,1.5,-885.300048828125,-3.02666675836466,-0.0390134122533544,0.0251988111537365,ST
6.5,-0.622068703174591,-0.32538977265358,9.41776084899902,1.18903195858002,0.762199997901917,-0.320124000310898,-1140.30004882812,1.5,-880.500061035156,-3.02573230626768,-0.0587446022418362,0.0302944761348591,ST
6.53333333333333,-0.894223749637604,-0.153722748160362,9.74015998840332,0.830797970294952,0.198172003030777,-0.106707997620106,-1130.70007324219,0.300000011920929,-873.300048828125,-3.02624062223164,-0.0827813828586446,0.0187341307868844,ST
6.56666666666667,-0.626853823661804,-0.205163031816483,9.86218166351318,0.830797970294952,-0.442075997591019,0.266770005226135,-1147.5,3.90000009536743,-878.100036621094,-3.02657347785444,-0.0687399296016055,0.0191406770776893,ST
6.6,-0.305651068687439,-0.442625790834427,9.69290637969971,0.525918006896973,-0.701223969459534,0.0762199983000755,-1130.70007324219,-1.5,-875.700012207031,-3.02569640036126,-0.0418494728734909,0.0370272020949339,ST
6.63333333333333,-0.174059599637985,-0.591563403606415,9.87175178527832,0.182927995920181,-0.503051996231079,-0.198172003030777,-1142.70007324219,3.90000009536743,-882.900024414062,-3.02486091587825,-0.0242719114621262,0.05277520894467,ST
6.66666666666667,-0.273949474096298,-0.584385693073273,9.59899806976318,-0.106707997620106,0.0,-0.381099998950958,-1135.5,5.70000028610229,-870.900024414062,-3.02403747185395,-0.0272431182750223,0.0586410837802891,ST
6.7,-0.315221339464188,-0.697434723377228,9.75571155548096,-0.0609759986400604,0.160062000155449,-0.0457319989800453,-1137.90002441406,-3.30000019073486,-887.700012207031,-3.02368346838731,-0.030913657715521,0.0676164764758698,ST
6.73333333333333,-0.2613884806633,-0.578404247760773,9.50688457489014,0.190549999475479,0.274392008781433,0.289635986089706,-1145.10009765625,-1.5,-875.700012207031,-3.02430871792924,-0.0288005366696416,0.0624881078866113,ST
6.76666666666667,-0.0209350045770407,-0.539524972438812,9.11569881439209,0.228659987449646,0.205793991684914,0.472563982009888,-1130.70007324219,0.900000035762787,-880.500061035156,-3.02519419191592,-0.0098695379455939,0.0597437329746713,ST
6.8,-0.193798318505287,-0.483299523591995,9.26104736328125,-0.0762199983000755,0.152439996600151,0.205793991684914,-1137.90002441406,7.50000047683716,-885.300048828125,-3.02560799763593,-0.01777891522243,0.0545164324296116,ST
6.83333333333333,-0.352904349565506,-0.323595345020294,9.1210823059082,-0.297257989645004,0.304879993200302,0.457319974899292,-1140.30004882812,4.5,-882.900024414062,-3.02671130238496,-0.0327703472802805,0.0415464616825889,ST
6.86666666666667,-0.574217259883881,-0.409129798412323,9.75690841674805,-0.198172003030777,0.594515979290009,1.11281192302704,-1135.5,-0.300000011920929,-882.900024414062,-3.02858356595887,-0.0517050660070821,0.0419851109120015,ST
6.9,-0.635825991630554,-0.407335370779037,10.1205787658691,-0.213415995240211,0.403965979814529,1.04421401023865,-1135.5,2.70000004768372,-868.500061035156,-3.03048843750006,-0.0600888681316872,0.0409262059739859,ST
6.93333333333333,-0.731528878211975,-0.500047504901886,9.7957878112793,-0.175305992364883,0.487807989120483,0.815553963184357,-1125.90002441406,7.50000047683716,-882.900024414062,-3.03147059048923,-0.0711646505824457,0.0483892530034926,ST
6.96666666666667,-0.501243829727173,-0.449205368757248,10.0242776870728,-0.0381099991500378,0.0304879993200302,0.426831990480423,-1130.70007324219,5.70000028610229,-880.500061035156,-3.0323673822008,-0.0563657153180168,0.0458799239936715,ST
7.0,-0.107067592442036,-0.391185492277145,9.39503192901611,0.0304879993200302,-1.21951997280121,0.3125019967556,-1128.30004882812,-7.50000047683716,-878.100036621094,-3.03311914054265,-0.0234478093275761,0.0428436032207812,ST
7.03333333333333,0.22011661529541,-0.486888378858566,9.54815578460693,-0.175305992364883,-1.44055795669556,0.701223969459534,-1140.30004882812,-3.30000019073486,-885.300048828125,-3.03440770090519,0.0107557831229245,0.0487216827050111,ST
7.06666666666667,0.652574002742767,-0.53234726190567,9.25985145568848,-0.0914639979600906,-1.19665396213531,0.67835795879364,-1145.10009765625,8.70000076293945,-878.100036621094,-3.03588024288462,0.0537564427215815,0.0549486433512763,ST
7.1,0.927121579647064,-0.672910869121552,9.12885761260986,0.160062000155449,-0.602137982845306,0.457319974899292,-1130.70007324219,6.30000019073486,-882.900024414062,-3.03765596927507,0.0874453759304167,0.0678086405812806,ST
7.13333333333333,0.634629666805267,-0.65137767791748,9.50628662109375,0.358233988285065,0.137196004390717,0.137196004390717,-1149.90002441406,5.10000038146973,-873.300048828125,-3.03794193159444,0.0720708203942217,0.0678080656949633,ST
7.16666666666667,0.35410064458847,-0.641209244728088,9.85620021820068,0.510673999786377,0.182927995920181,-0.182927995920181,-1140.30004882812,11.1000003814697,-875.700012207031,-3.03750462579633,0.0465277696632598,0.0651842318108525,ST
7.2,0.247033044695854,-0.523973226547241,10.16663646698,0.655492007732391,-0.426831990480423,0.0228659994900227,-1142.70007324219,0.900000035762787,-909.300048828125,-3.03722985231298,0.031477621270887,0.0548118108321649,ST
7.23333333333333,0.386400371789932,-0.213537037372589,9.82330226898193,0.853663980960846,-1.10518991947174,0.335367977619171,-1137.90002441406,2.10000014305115,-880.500061035156,-3.03710196582207,0.0382863268933634,0.0306607142047729,ST
7.26666666666667,0.325987905263901,-0.116637878119946,10.0278673171997,0.975615978240967,-0.647870004177094,1.14329993724823,-1142.70007324219,0.300000011920929,-882.900024414062,-3.03884841698959,0.0347588642031994,0.015166832432061,ST
7.3,0.468944102525711,0.0406737215816975,8.98709774017334,0.670735955238342,-0.160062000155449,1.07470202445984,-1142.70007324219,6.30000019073486,-880.500061035156,-3.04015812328126,0.0470936107508354,0.0006366855076119,ST
7.33333333333333,-0.0137572884559631,-0.130395174026489,9.18448543548584,0.243903994560242,1.36433792114258,1.10518991947174,-1133.10009765625,4.5,-885.300048828125,-3.04251729864349,0.0094807425495498,0.0103670246113627,ST
7.36666666666667,0.0239257179200649,-0.519188106060028,9.78083419799805,-0.160062000155449,1.38720393180847,0.579271972179413,-1140.30004882812,3.90000009536743,-890.100036621094,-3.04367563424928,0.0027247818925845,0.0409661407721955,ST
7.4,0.167480036616325,-0.60950767993927,9.401611328125,-0.243903994560242,0.327746003866196,-0.571649968624115,-1130.70007324219,-1.5,-885.300048828125,-3.04279078403781,0.0128834351062488,0.057879895254234,ST
7.43333333333333,-0.431859225034714,-0.415111213922501,9.92498588562012,-0.121951997280121,-0.213415995240211,-1.17378795146942,-1147.5,8.70000076293945,-873.300048828125,-3.04085932173701,-0.026163758223117,0.0468063509764468,ST
7.46666666666667,-0.326586067676544,-0.285912334918976,9.63608360290527,0.449698001146317,-0.419209986925125,-0.564027965068817,-1135.5,6.30000019073486,-866.100036621094,-3.04016258434,-0.0313623333607456,0.0333824462002817,ST
7.5,-0.304454773664474,-0.38939106464386,9.79758167266846,1.02897000312805,-0.221037998795509,0.358233988285065,-1135.5,-0.900000035762787,-899.700012207031,-3.04064030687752,-0.0308829031154235,0.0365461086443444,ST
7.53333333333333,-0.218322187662125,-0.138769164681435,10.2443943023682,1.55488801002502,0.78506600856781,0.327746003866196,-1135.5,9.90000057220459,-887.700012207031,-3.04159438612437,-0.0251567055797514,0.0185542262123469,ST
7.56666666666667,0.0723752975463867,-0.0771604403853416,9.27241230010986,1.43293595314026,0.0685980021953583,0.304879993200302,-1128.30004882812,2.10000014305115,-887.700012207031,-3.04220274088631,-0.0021991626009703,0.0096458497268613,ST
7.6,-0.142956167459488,-0.0275145769119263,9.07382869720459,0.899396002292633,0.190549999475479,0.0381099991500378,-1118.70007324219,-0.300000011920929,-897.300048828125,-3.0422968135282,-0.0119095634828046,0.0039237105622404,ST
7.63333333333333,-0.116039738059044,-0.0526365824043751,9.210205078125,0.0609759986400604,0.182927995920181,-0.365855991840363,-1121.10009765625,-0.900000035762787,-873.300048828125,-3.04164751392277,-0.0126122834308897,0.0051073029252532,ST
7.66666666666667,-0.524571359157562,-0.175854027271271,9.89089202880859,-0.419209986925125,-0.724089980125427,-0.106707997620106,-1125.90002441406,9.30000019073486,-882.900024414062,-3.04121160867292,-0.0414597895708188,0.0149952581689916,ST
7.7,-0.0759641602635384,-0.364867210388184,9.41895771026611,-0.228659987449646,-1.03659200668335,0.152439996600151,-1128.30004882812,-0.300000011920929,-890.100036621094,-3.04103500893586,-0.0168488896988444,0.0318593028976872,ST
7.73333333333333,-0.0939084440469742,-0.590367138385773,9.4375,-0.762199997901917,-0.297257989645004,-0.457319974899292,-1130.70007324219,0.300000011920929,-868.500061035156,-3.03991291214184,-0.0114310397232454,0.055038774406246,ST
7.76666666666667,-0.329576790332794,-0.620872378349304,9.79638576507568,-0.952749967575073,-0.327746003866196,-0.411587983369827,-1133.10009765625,-3.90000009536743,-875.700012207031,-3.03913344275305,-0.0264768905046497,0.0619821030640832,ST
7.8,-0.277538329362869,-0.725547432899475,8.80286979675293,-1.12043392658234,-0.487807989120483,-0.0838419944047928,-1140.30004882812,5.70000028610229,-873.300048828125,-3.03866692387358,-0.0293272320864817,0.0775122677413464,ST
7.83333333333333,-0.589768946170807,-0.796128273010254,9.60797023773193,-1.2423859834671,0.0609759986400604,0.548784017562866,-1142.70007324219,0.300000011920929,-882.900024414062,-3.03955959145671,-0.0529021388717471,0.082891237025602,ST
7.86666666666667,-0.474327385425568,-0.967795312404633,9.8077507019043,-0.769822001457214,-0.228659987449646,1.03659200668335,-1140.30004882812,0.900000035762787,-880.500061035156,-3.04084696811027,-0.0493745822099189,0.0945806801598743,ST
7.9,-0.231481328606606,-1.17236018180847,10.063157081604,-0.335367977619171,0.0533539988100529,0.472563982009888,-1125.90002441406,3.30000019073486,-885.300048828125,-3.04107284228591,-0.0306028196495277,0.110225510452657,ST
7.93333333333333,-0.2613884806633,-0.933103024959564,9.49551963806152,0.434453994035721,-0.442075997591019,0.0304879993200302,-1135.5,-2.10000014305115,-894.900024414062,-3.0414504039995,-0.0278232077156107,0.101111269285887,ST
7.96666666666667,-0.489879101514816,-0.894223749637604,9.66778469085693,0.868907988071442,0.0457319989800453,0.259148001670837,-1133.10009765625,1.5,-882.900024414062,-3.04209642649151,-0.0437054487462312,0.0938346629305343,ST
8.0,0.0705808699131012,-0.569432079792023,9.20661640167236,1.27287399768829,-0.792688012123108,0.632625997066498,-1142.70007324219,5.70000028610229,-899.700012207031,-3.04384481521125,-0.006899181706062,0.0698462131589988,ST
8.03333333333333,0.107067592442036,-0.418101936578751,9.13244724273682,1.30336201190948,-0.87652999162674,0.945127964019775,-1140.30004882812,5.10000038146973,-868.500061035156,-3.04566374437567,0.0076369963690646,0.0507204882250352,ST
8.06666666666667,-0.26437920331955,-0.35709136724472,9.56550216674805,0.762199997901917,0.221037998795509,1.09756803512573,-1128.30004882812,0.300000011920929,-878.100036621094,-3.04776615190564,-0.0187182675501095,0.039840924838033,ST
8.1,-0.40853163599968,-0.246434897184372,9.89208889007568,0.861285984516144,0.121951997280121,1.34147191047668,-1140.30004882812,0.300000011920929,-880.500061035156,-3.05034462369489,-0.034686387267233,0.02830670253913,ST
8.13333333333333,-0.361278355121613,-0.208153754472733,9.81612396240234,1.07470202445984,-0.121951997280121,1.53202199935913,-1145.10009765625,7.50000047683716,-870.900024414062,-3.05315349089263,-0.0360481949136762,0.0219612109704992,ST
8.16666666666667,0.138171032071114,-0.375035643577576,10.0410261154175,1.02134799957275,-0.67835795879364,1.29574000835419,-1125.90002441406,-3.30000019073486,-880.500061035156,-3.05521136940869,-0.0004491466471269,0.0314369586158047,ST
8.2,0.568235814571381,-0.382213354110718,10.1959447860718,0.78506600856781,-1.53202199935913,0.541162014007568,-1135.5,0.300000011920929,-870.900024414062,-3.05632122341649,0.0406061266864443,0.0347112962462273,ST
8.23333333333333,0.817063271999359,-0.144750595092773,9.44108867645264,0.388722002506256,-1.85976791381836,-0.198172003030777,-1145.10009765625,3.30000019073486,-897.300048828125,-3.05522075452824,0.0767352126237809,0.0199141108179841,ST
8.26666666666667,0.747080564498901,-0.282921612262726,9.50748252868652,0.335367977619171,-1.09756803512573,0.121951997280121,-1137.90002441406,2.70000004768372,-870.900024414062,-3.05607947784832,0.0793609887776811,0.0267538593822118,ST
8.3,1.03538548946381,-0.32239904999733,9.18269062042236,0.213415995240211,-0.472563982009888,0.190549999475479,-1135.5,-8.70000076293945,-887.700012207031,-3.05697252116963,0.102899795093308,0.0323427230943027,ST
8.33333333333333,0.464757084846497,-0.492271661758423,9.46860313415527,0.0228659994900227,0.525918006896973,0.282013982534409,-1133.10009765625,2.10000014305115,-863.700012207031,-3.05857393997031,0.0645537521399274,0.0460646789815311,ST
8.36666666666667,0.476719945669174,-0.44322395324707,9.43450927734375,-0.0457319989800453,0.335367977619171,0.289635986089706,-1147.5,-0.300000011920929,-878.100036621094,-3.05909726693506,0.0540580295245838,0.046768914853433,ST
8.4,-0.247033044695854,-0.543113827705383,9.77365589141846,-0.0762199983000755,0.6250039935112,0.868907988071442,-1137.90002441406,8.70000076293945,-875.700012207031,-3.06078719919568,-0.0042791447861143,0.0532392746331323,ST
8.43333333333333,-0.236864611506462,-0.454588651657104,10.3394994735718,0.289635986089706,0.37347799539566,1.08994603157043,-1137.90002441406,3.30000019073486,-897.300048828125,-3.06270637302119,-0.0178085561315454,0.046368377934829,ST
8.46666666666667,0.157909750938416,-0.775193274021149,10.0171003341675,0.37347799539566,-0.884151995182037,0.891773998737335,-1147.5,2.10000014305115,-873.300048828125,-3.0642065334339,0.0066431189012036,0.0674873507139676,ST
8.5,0.355895072221756,-0.636424124240875,9.91122913360596,0.160062000155449,-1.46342396736145,0.0076219998300075,-1140.30004882812,-2.10000014305115,-870.900024414062,-3.06434679256312,0.0288247626172737,0.0649450985036982,ST
8.53333333333333,0.203966751694679,-0.294286340475082,9.57387638092041,0.335367977619171,-1.40244793891907,0.213415995240211,-1133.10009765625,0.900000035762787,-863.700012207031,-3.06421641890524,0.0250595482949055,0.039276264697324,ST
8.56666666666667,0.232079476118088,-0.233275756239891,9.40220928192139,0.37347799539566,-0.266770005226135,1.50153398513794,-1142.70007324219,0.900000035762787,-890.100036621094,-3.0666513270491,0.0250520868610781,0.0285486560014864,ST
8.6,-0.138171032071114,-0.253612607717514,9.71144962310791,0.442075997591019,0.579271972179413,2.01982998847961,-1135.5,-5.70000028610229,-873.300048828125,-3.07009776566852,-0.0031810244879732,0.0263296527563712,ST
8.63333333333333,-0.410924226045609,-0.385802209377289,9.90644359588623,0.266770005226135,0.960371971130371,2.0579400062561,-1133.10009765625,2.10000014305115,-873.300048828125,-3.07345057670535,-0.0311686719419334,0.0347647597194436,ST
8.66666666666667,-0.275743901729584,-0.189013183116913,9.27779579162598,0.434453994035721,-0.0533539988100529,1.34147191047668,-1133.10009765625,7.50000047683716,-868.500061035156,-3.07607218132406,-0.0301293537155701,0.0241189471811869,ST
8.7,-0.333763778209686,-0.343334078788757,9.36751747131348,0.137196004390717,0.236281991004944,0.990859985351562,-1149.90002441406,3.30000019073486,-885.300048828125,-3.07762620805025,-0.0345009423414607,0.0331356509175767,ST
8.73333333333333,-0.243444189429283,-0.401353925466537,9.48774337768555,-0.205793991684914,-0.358233988285065,0.25152599811554,-1142.70007324219,4.5,-880.500061035156,-3.07790845655637,-0.0276253244686519,0.0400173922131247,ST
8.76666666666667,-0.410924226045609,-0.349913626909256,9.6283073425293,-0.0228659994900227,-0.342989981174469,0.0,-1147.5,2.70000004768372,-880.500061035156,-3.07801870404776,-0.0378862347415546,0.0374160202940097,ST
8.8,-0.16269488632679,-0.270360618829727,9.74913215637207,0.503051996231079,-0.716467976570129,0.289635986089706,-1135.5,2.70000004768372,-882.900024414062,-3.07879358091025,-0.0216100776745567,0.0297373470802352,ST
8.83333333333333,0.01914057508111,-0.122021168470383,9.95668792724609,0.640248000621796,-1.01372599601746,0.3125019967556,-1140.30004882812,-2.70000004768372,-890.100036621094,-3.07958014153186,-0.0029512667249092,0.0160084623525489,ST
8.86666666666667,0.269164323806763,-0.0352904349565506,9.1802978515625,0.160062000155449,-0.815553963184357,0.327746003866196,-1142.70007324219,0.300000011920929,-868.500061035156,-3.08010325777279,0.0210441193250621,0.0071485622866334,ST
8.9,-0.0442625805735588,-0.1214230209589,9.68154239654541,-0.152439996600151,0.236281991004944,0.365855991840363,-1142.70007324219,10.5,-885.300048828125,-3.08081383537409,0.0021605942135743,0.0112583592720038,ST
8.93333333333333,-0.174657747149467,-0.182433605194092,10.0218858718872,-0.350611984729767,0.823175966739655,0.198172003030777,-1145.10009765625,1.5,-878.100036621094,-3.08111207861994,-0.012540480459681,0.0165396999029186,ST
8.96666666666667,-0.0490477234125137,-0.294286340475082,9.74554347991943,0.0076219998300075,0.846041977405548,-0.0685980021953583,-1140.30004882812,-3.90000009536743,-868.500061035156,-3.08086395192511,-0.0083200285148628,0.0260749040560538,ST
9.0,-0.0053832866251468,-0.173461467027664,9.69529914855957,0.411587983369827,0.289635986089706,-0.701223969459534,-1142.70007324219,5.10000038146973,-875.700012207031,-3.07967246145105,-0.0032243993697081,0.0198538656424807,DLL
9.03333333333333,0.155517175793648,-0.125610023736954,9.76528167724609,0.922261953353882,-0.3125019967556,-0.830797970294952,-1140.30004882812,5.10000038146973,-878.100036621094,-3.0782285149941,0.010562187100425,0.0138359516243247,DLL
9.06666666666667,0.485093951225281,-0.127404451370239,9.17132663726807,0.769822001457214,-1.12805593013763,-1.05183601379395,-1130.70007324219,4.5,-868.500061035156,-3.07644472994293,0.0415138569762328,0.0129011632305013,DLL
9.1,0.469542235136032,-0.14355431497097,9.13184833526611,0.37347799539566,-1.2423859834671,-0.92988395690918,-1140.30004882812,-2.70000004768372,-875.700012207031,-3.0749646329812,0.0499348329465025,0.0143641804771407,DLL
9.13333333333333,0.549095273017883,-0.139965459704399,9.39024639129639,0.388722002506256,-0.579271972179413,-0.586893975734711,-1145.10009765625,7.50000047683716,-873.300048828125,-3.07387750039515,0.0570539934646273,0.0142195303046285,DLL
9.16666666666667,-0.120824880897999,-0.0251220054924488,9.1330451965332,0.846041977405548,0.0457319989800453,0.213415995240211,-1135.5,6.30000019073486,-868.500061035156,-3.0740262371723,0.0060274393994862,0.0048377588145869,DLL
9.2,-0.583189368247986,-0.0059814294800162,9.75690841674805,0.617381989955902,0.0685980021953583,1.64635193347931,-1142.70007324219,-2.70000004768372,-882.900024414062,-3.07692001677552,-0.0400091611978825,0.0010967878590143,DLL
9.23333333333333,-1.29258692264557,0.0580198690295219,9.62471866607666,0.221037998795509,-0.190549999475479,3.04879999160767,-1142.70007324219,5.70000028610229,-878.100036621094,-3.08255250050531,-0.105104518112525,-0.0044147165251965,DLL
9.26666666666667,-2.62883830070496,0.407335370779037,9.48714542388916,-0.342989981174469,-1.31098401546478,8.26986980438232,-1149.90002441406,0.300000011920929,-878.100036621094,-3.10125107835347,-0.218491064359218,-0.0322518575154039,DLL
9.3,-2.05103230476379,-0.376830071210861,9.04511833190918,-1.82165801525116,-2.61434602737427,15.7089414596558,-1145.10009765625,9.30000019073486,-885.300048828125,-3.11763255129283,-0.218342499617287,0.01733595987332,DLL
9.33333333333333,-0.91276615858078,-1.14544379711151,8.74006462097168,-2.4847719669342,-3.62807202339172,20.4422035217285,-1152.30004882812,5.10000038146973,-870.900024414062,3.14082700888796,-0.130717400633713,0.0996596808882758,DLL
9.36666666666667,0.282921612262726,-1.84646737575531,8.60309028625488,-3.17075204849243,-2.34757590293884,23.0260620117188,-1164.30004882812,5.70000028610229,-873.300048828125,3.10647767840056,-0.0183549198490399,0.179722403829219,DLL
9.4,0.462962657213211,-2.13955736160278,9.49910831451416,-3.14026403427124,-0.792688012123108,23.7577743530273,-1161.90002441406,20.7000007629395,-866.100036621094,3.06581879527253,0.0229542683625143,0.212875119610725,DLL
9.43333333333333,0.396568775177002,-2.23167133331299,9.96386528015137,-2.33995389938354,-0.403965979814529,22.1952629089355,-1149.90002441406,24.9000015258789,-868.500061035156,3.02466354045636,0.0289884803808665,0.222114484341098,DLL
9.46666666666667,1.17056584358215,-2.39017939567566,9.90046215057373,-1.95885396003723,-1.20427596569061,20.0229930877686,-1145.10009765625,27.9000015258789,-868.500061035156,2.98988595259043,0.0845798085824855,0.236246600302707,DLL
9.5,0.941477060317993,-2.13776302337646,10.111008644104,-0.99848198890686,-1.53202199935913,16.8903522491455,-1135.5,21.9000015258789,-861.300048828125,2.96252337563296,0.0861424584894801,0.219712896231873,DLL
9.53333333333333,1.14245307445526,-1.85244882106781,10.1672344207764,0.396344006061554,-1.01372599601746,11.8140993118286,-1133.10009765625,32.7000007629395,-863.700012207031,2.94471318383884,0.101183633600075,0.192990786688004,DLL
9.56666666666667,0.65137767791748,-1.58089184761047,9.84184455871582,1.32622802257538,-0.724089980125427,8.84914207458496,-1133.10009765625,25.5000019073486,-870.900024414062,2.93101354127635,0.0745029251013655,0.168254942171159,DLL
9.6,1.06708705425262,-1.56115317344666,9.1928596496582,1.28811800479889,-0.724089980125427,6.58540773391724,-1133.10009765625,32.7000007629395,-861.300048828125,2.91951051657317,0.101610478656382,0.167379280677,DLL
9.63333333333333,0.22968690097332,-0.957028746604919,9.54815578460693,1.38720393180847,-1.39482593536377,3.68142580986023,-1133.10009765625,27.9000015258789,-858.900024414062,2.91634214832964,0.0483852560362778,0.11882385562526,DLL
9.66666666666667,0.418101936578751,-0.806296706199646,9.08220291137695,1.79117000102997,-1.12805593013763,3.49849796295166,-1133.10009765625,29.1000003814697,-870.900024414062,2.910918034009,0.0474970495441649,0.0952355324493423,DLL
9.7,-0.458775669336319,-0.382811486721039,9.85620021820068,2.18751406669617,-0.243903994560242,3.10977602005005,-1128.30004882812,26.7000007629395,-858.900024414062,2.90607092897429,-0.0181659502211579,0.0532155524043012,DLL
9.73333333333333,0.383409649133682,-0.735715866088867,9.54636192321777,1.72257196903229,-0.25152599811554,2.58385801315308,-1137.90002441406,36.3000030517578,-844.500061035156,2.90141492564797,0.0234010318846594,0.0679695503206494,DLL
9.76666666666667,0.0059814294800162,-0.75246387720108,9.497314453125,0.198172003030777,-0.205793991684914,0.480185985565186,-1128.30004882812,29.1000003814697,-866.100036621094,2.90043933750132,0.0076865322731793,0.075495876664452,DLL
9.8,-0.214135184884071,-0.643003702163696,9.6881217956543,-0.807931959629059,-0.396344006061554,-0.381099998950958,-1123.5,26.1000003814697,-878.100036621094,2.90103144957229,-0.0125900274021821,0.070036870584704,DLL
9.83333333333333,-1.08503139019012,-0.506627082824707,9.74673938751221,-0.358233988285065,-0.335367977619171,0.0762199983000755,-1125.90002441406,24.9000015258789,-866.100036621094,2.90026766899284,-0.0807676279300615,0.0578599533770874,DLL
9.86666666666667,-0.512608528137207,-0.882260859012604,9.5391845703125,-0.198172003030777,0.0381099991500378,1.37958192825317,-1135.5,27.9000015258789,-844.500061035156,2.89946179980571,-0.0608064937515518,0.0833609530233501,DLL
9.9,-0.345128506422043,-1.15621042251587,9.50508975982666,-0.182927995920181,-0.533540010452271,1.30336201190948,-1130.70007324219,36.3000030517578,-870.900024414062,2.89839394358849,-0.0423357553611387,0.110850258393695,DLL
9.93333333333333,0.430064797401428,-1.46186137199402,8.70477485656738,-0.304879993200302,-0.602137982845306,0.83841997385025,-1133.10009765625,30.9000015258789,-861.300048828125,2.8971553299296,0.0230594754968422,0.150783051851525,DLL
9.96666666666667,-0.240453481674194,-1.08383500576019,9.51585674285889,-0.190549999475479,-0.815553963184357,0.411587983369827,-1130.70007324219,32.1000022888184,-866.100036621094,2.89639956848384,-0.0103212301879664,0.124409246638385,DLL
10.0,-0.0783567279577255,-0.992319166660309,9.57148361206055,0.449698001146317,-0.724089980125427,0.861285984516144,-1125.90002441406,35.1000022888184,-861.300048828125,2.89459017919501,-0.0079991466578621,0.108802864946291,DLL
10.0333333333333,-0.595152258872986,-0.745286166667938,10.2892551422119,0.975615978240967,-0.823175966739655,1.28811800479889,-1133.10009765625,29.1000003814697,-861.300048828125,2.89160829019584,-0.0418537636531868,0.0820754287749572,DLL
10.0666666666667,0.464757084846497,-0.91575688123703,9.72281360626221,0.83841997385025,-1.20427596569061,1.10518991947174,-1118.70007324219,29.1000003814697,-861.300048828125,2.88962258233341,0.0219788532454396,0.089326387687773,DLL
10.1,-0.0634031519293785,-0.607115089893341,9.73716926574707,0.78506600856781,-0.586893975734711,0.640248000621796,-1118.70007324219,33.9000015258789,-866.100036621094,2.88866469809043,0.0027188588715804,0.0694610262189067,DLL
10.1333333333333,0.238659039139748,-0.672312676906586,9.90046215057373,-0.0609759986400604,-0.449698001146317,0.807931959629059,-1128.30004882812,29.1000003814697,-861.300048828125,2.88723060290495,0.0181109310552906,0.0683881668148875,DLL
10.1666666666667,0.480308800935745,-0.756052732467651,9.45305156707764,-0.228659987449646,-0.83841997385025,1.11281192302704,-1128.30004882812,35.1000022888184,-856.500061035156,2.88476946347648,0.0430574550659294,0.077157363591102,DLL
10.2,0.813474416732788,-1.11972367763519,9.0074348449707,-1.03659200668335,-1.06708002090454,0.3125019967556,-1137.90002441406,27.9000015258789,-858.900024414062,2.88201016391639,0.0779695888900599,0.112213776904703,DLL
10.2333333333333,0.576011657714844,-1.35000872612,9.49013614654541,-0.945127964019775,-0.396344006061554,0.0381099991500378,-1128.30004882812,34.5,-858.900024414062,2.88043484744126,0.0659009673875564,0.133725072275175,DLL
10.2666666666667,-0.147143170237541,-1.14245307445526,9.81552600860596,-0.25152599811554,0.0609759986400604,0.175305992364883,-1121.10009765625,31.5000019073486,-844.500061035156,2.88062441526416,0.0093253191623231,0.121575040083457,DLL
10.3,0.01914057508111,-1.06708705425262,9.68393516540527,0.487807989120483,0.327746003866196,1.40244793891907,-1135.5,25.5000019073486,-846.900024414062,2.87833600550831,0.003581085721234,0.112720613813457,DLL
10.3333333333333,0.36725977063179,-0.794333875179291,10.0117168426514,0.868907988071442,-0.564027965068817,1.72257196903229,-1133.10009765625,32.1000022888184,-844.500061035156,2.87546946269366,0.0279952547895238,0.0873345610176316,DLL
10.3666666666667,0.448009073734283,-0.477916240692139,9.81612396240234,1.13567793369293,-0.861285984516144,1.52439999580383,-1121.10009765625,33.3000030517578,-849.300048828125,2.87364770189539,0.0411939042834874,0.0589732328182963,DLL
10.4,0.678892254829407,-0.428270369768143,9.52183818817139,0.92988395690918,-0.266770005226135,0.556405961513519,-1125.90002441406,32.7000007629395,-868.500061035156,2.87314771688824,0.0623993308089039,0.0480744181072165,DLL
10.4333333333333,0.291893780231476,-0.580198705196381,9.31248760223389,0.289635986089706,0.198172003030777,-0.0609759986400604,-1130.70007324219,33.9000015258789,-866.100036621094,2.87274572785991,0.0395781428983978,0.0579716497983939,DLL
10.4666666666667,0.617283523082733,-0.891233026981354,8.93685436248779,-0.960371971130371,-0.0685980021953583,-0.472563982009888,-1133.10009765625,30.3000011444092,-851.700012207031,2.87212581583592,0.0604061872828807,0.0886346426729095,DLL
10.5,-0.363670915365219,-0.626255691051483,10.4058933258057,-0.266770005226135,0.0152439996600151,0.167683988809586,-1133.10009765625,33.3000030517578,-854.100036621094,2.87236306220527,-0.0087098564369419,0.0683132205691954,DLL
10.5333333333333,0.351708054542542,-0.823044717311859,9.74494552612305,0.78506600856781,0.320124000310898,0.92988395690918,-1121.10009765625,32.7000007629395,-849.300048828125,2.87072693995739,0.022038406491313,0.0785123544322806,DLL
10.5666666666667,0.101086162030697,-0.525169551372528,9.84662914276123,0.853663980960846,0.167683988809586,0.564027965068817,-1133.10009765625,32.1000022888184,-873.300048828125,2.86998005887477,0.0129302583873145,0.0584874086188239,DLL
10.6,0.101684302091599,-0.402550220489502,10.0523910522461,0.495429992675781,0.0609759986400604,0.320124000310898,-1125.90002441406,31.5000019073486,-856.500061035156,2.86958371712269,0.0108620855939817,0.0449769999229145,DLL
10.6333333333333,0.271556913852692,-0.583787560462952,9.66240119934082,0.685979962348938,0.167683988809586,0.152439996600151,-1121.10009765625,38.7000007629395,-861.300048828125,2.86910044828524,0.023519757874489,0.0556066678783354,DLL
10.6666666666667,0.034094151109457,-0.587974548339844,9.7957878112793,0.190549999475479,0.190549999475479,-0.548784017562866,-1121.10009765625,32.1000022888184,-854.100036621094,2.87001402401392,0.0093098324353441,0.0584018512030801,DLL
10.7,-0.191405743360519,-0.661546111106873,9.401611328125,0.556405961513519,0.358233988285065,-0.503051996231079,-1130.70007324219,30.3000011444092,-856.500061035156,2.87092873256968,-0.0117948489385171,0.0660084107079169,DLL
10.7333333333333,-0.166283741593361,-0.705808699131012,9.11450290679932,0.320124000310898,0.365855991840363,-0.556405961513519,-1128.30004882812,32.1000022888184,-856.500061035156,2.87207894318324,-0.0167550199861333,0.0736540966841116,DLL
10.7666666666667,0.0167480036616325,-0.803904175758362,8.98590183258057,-0.0381099991500378,0.274392008781433,-0.0152439996600151,-1125.90002441406,32.7000007629395,-851.700012207031,2.87226094279459,-0.0036009525611395,0.0849984439333243,DLL
10.8,-0.270360618829727,-0.824241042137146,9.7299919128418,0.259148001670837,0.388722002506256,0.0838419944047928,-1135.5,29.7000007629395,-856.500061035156,2.87217021365539,-0.0209189767030299,0.0843409080152208,DLL
10.8333333333333,-0.299669623374939,-0.818857729434967,9.67795372009277,0.914639949798584,0.190549999475479,0.137196004390717,-1133.10009765625,31.5000019073486,-858.900024414062,2.87197318725639,-0.028104791865341,0.0832691842231961,DLL
10.8666666666667,-0.60651695728302,-0.547300815582275,9.59780216217041,0.937505960464478,0.182927995920181,0.182927995920181,-1116.30004882812,35.1000022888184,-856.500061035156,2.87092837322057,-0.053219859480724,0.0633640015845381,DLL
10.9,-0.302062213420868,-0.711192011833191,9.28258037567139,0.487807989120483,0.137196004390717,0.556405961513519,-1128.30004882812,30.3000011444092,-866.100036621094,2.87041899147169,-0.0389008605962923,0.0719031543634635,DLL
10.9333333333333,-0.129797026515007,-0.735715866088867,9.10792255401611,-0.449698001146317,-0.426831990480423,0.0152439996600151,-1128.30004882812,27.3000011444092,-878.100036621094,2.87051229718559,-0.0211152814071809,0.0785352738898104,DLL
10.9666666666667,-0.0119628589600325,-1.00428199768066,8.70836353302002,-0.983237981796265,-0.365855991840363,0.0533539988100529,-1123.5,26.7000007629395,-854.100036621094,2.8707083242655,-0.0066015445575121,0.105607071699185,DLL
11.0,-0.203368604183197,-1.07366669178009,9.22097206115723,-1.22714197635651,-0.724089980125427,0.350611984729767,-1137.90002441406,30.3000011444092,-854.100036621094,2.87004715851042,-0.016469621148879,0.114306546995246,DLL
11.0333333333333,-0.116637878119946,-1.08204066753387,9.69290637969971,-0.861285984516144,-0.487807989120483,1.12043392658234,-1130.70007324219,32.1000022888184,-861.300048828125,2.8677406417795,-0.0126182498971454,0.113061121861149,DLL
11.0666666666667,0.199181616306305,-1.05811488628387,9.95908069610596,-0.853663980960846,-1.2347639799118,1.01372599601746,-1123.5,29.1000003814697,-854.100036621094,2.865756756282,0.011469496268245,0.109063924114044,DLL
11.1,0.504234552383423,-1.18671560287476,9.72759914398193,-0.449698001146317,-1.29574000835419,1.07470202445984,-1135.5,34.5,-856.500061035156,2.86343749661456,0.0408146037776136,0.118275946531666,DLL
11.1333333333333,0.168078169226646,-1.05033910274506,9.85620021820068,0.282013982534409,-0.472563982009888,1.16616594791412,-1128.30004882812,28.5000019073486,-851.700012207031,2.86161354085057,0.0245425182995253,0.109511402890929,DLL
11.1666666666667,0.209350034594536,-1.18193054199219,10.0763168334961,0.0685980021953583,0.121951997280121,1.17378795146942,-1130.70007324219,33.3000030517578,-861.300048828125,2.85950348648762,0.0215001033873832,0.114531768215454,DLL
11.2,0.465355217456818,-1.10237753391266,9.85919094085693,-0.129574000835419,-0.579271972179413,1.18903195858002,-1133.10009765625,32.1000022888184,-868.500061035156,2.85741786750198,0.0397800512827011,0.112514943307464,DLL
11.2333333333333,1.01744115352631,-1.33505511283875,9.25087928771973,-0.198172003030777,-0.541162014007568,0.586893975734711,-1130.70007324219,33.9000015258789,-854.100036621094,2.85485453827425,0.08925341032854,0.134741124755342,DLL
11.2666666666667,0.192602038383484,-1.11254596710205,9.78322601318359,0.518296003341675,0.129574000835419,0.365855991840363,-1133.10009765625,36.9000015258789,-861.300048828125,2.85520256471776,0.0393884179787427,0.118804322012944,DLL
11.3,0.276940196752548,-1.16458439826965,9.46082782745361,1.03659200668335,0.487807989120483,-0.503051996231079,-1125.90002441406,35.1000022888184,-866.100036621094,2.85605511209101,0.0316381737256905,0.120085634566875,DLL
11.3333333333333,0.0011962859425693,-1.14245307445526,9.305908203125,0.556405961513519,0.160062000155449,-1.65397393703461,-1121.10009765625,34.5,-849.300048828125,2.85897452325806,0.0092383073934246,0.120830833156844,DLL
11.3666666666667,-0.509019672870636,-0.86790543794632,9.88012599945068,0.243903994560242,0.25152599811554,-2.01220798492432,-1118.70007324219,29.1000003814697,-856.500061035156,2.86247653300607,-0.0354545792775595,0.0960793408888288,DLL
11.4,-0.849363029003143,-0.843381583690643,9.55533409118652,1.10518991947174,0.907018005847931,-0.899396002292633,-1121.10009765625,32.7000007629395,-868.500061035156,2.86389034955576,-0.0734121714887997,0.0891843037937615,DLL
11.4333333333333,-0.322997212409973,-1.03538548946381,9.4554443359375,0.647870004177094,0.975615978240967,-0.830797970294952,-1123.5,30.3000011444092,-851.700012207031,2.86633836946592,-0.0469115842341764,0.102374726307566,DLL
11.4666666666667,-0.727940022945404,-0.916953146457672,9.41776084899902,0.724089980125427,0.228659987449646,-0.586893975734711,-1125.90002441406,30.9000015258789,-873.300048828125,2.86719355218583,-0.0680018867455291,0.0978208851249491,DLL
11.5,-0.39836323261261,-1.10417187213898,8.97334098815918,0.342989981174469,0.198172003030777,-0.663114011287689,-1128.30004882812,28.5000019073486,-858.900024414062,2.86940831493112,-0.0514044285079172,0.114670097865875,DLL
11.5333333333333,-0.956430613994598,-0.861325860023499,9.44288349151611,0.297257989645004,-0.0381099991500378,-0.0762199983000755,-1130.70007324219,29.1000003814697,-866.100036621094,2.8684073384287,-0.0857002132872813,0.0977662405446335,DLL
11.5666666666667,-0.887644171714783,-0.736912131309509,9.92199516296387,0.67835795879364,-0.0762199983000755,0.83841997385025,-1130.70007324219,29.7000007629395,-858.900024414062,2.86554693558755,-0.0879983214922754,0.0803261562074051,DLL
11.6,-0.470738530158997,-0.769810020923615,9.77066516876221,0.716467976570129,-0.236281991004944,1.56251001358032,-1135.5,22.5,-861.300048828125,2.86276283498704,-0.0598902723023826,0.0781239443032427,DLL
11.6333333333333,-0.29009935259819,-0.647788822650909,9.89807033538818,-0.0609759986400604,-0.945127964019775,1.44817996025085,-1121.10009765625,29.7000007629395,-863.700012207031,2.85970908645684,-0.0374372079525504,0.0691774180102019,DLL
11.6666666666667,0.061608724296093,-0.839792728424072,9.38845252990723,-0.381099998950958,-0.853663980960846,1.37958192825317,-1125.90002441406,19.5,-856.500061035156,2.85751802114192,-0.0057862121467424,0.0836197928479194,DLL
11.7,0.166881889104843,-1.03418922424316,9.19405555725098,-0.815553963184357,-0.434453994035721,1.13567793369293,-1121.10009765625,33.9000015258789,-846.900024414062,2.85543939584363,0.0112652309706849,0.104472977264764,DLL
11.7333333333333,-0.209350034594536,-0.982748925685883,9.62112998962402,-0.533540010452271,0.114329993724823,1.13567793369293,-1135.5,33.9000015258789,-849.300048828125,2.85350883390599,-0.0120278607025255,0.103251209257711,DLL
11.7666666666667,-0.420494496822357,-0.888242304325104,9.79937648773193,0.160062000155449,0.419209986925125,1.55488801002502,-1121.10009765625,29.1000003814697,-858.900024414062,2.85070044829114,-0.0341784386321779,0.0940284714092886,DLL
11.8,-0.174059599637985,-0.827829897403717,9.70307540893555,0.381099998950958,0.160062000155449,1.96647596359253,-1116.30004882812,32.7000007629395,-861.300048828125,2.84696034713073,-0.0227757444523838,0.08700729370261,DLL
11.8333333333333,-0.175854027271271,-0.531150937080383,10.2001323699951,0.396344006061554,-0.67835795879364,1.32622802257538,-1125.90002441406,32.7000007629395,-866.100036621094,2.8440893547579,-0.0181847218268966,0.062029296088554,DLL
11.8666666666667,0.042468149214983,-0.355895072221756,9.94113636016846,1.37195992469788,-0.602137982845306,1.07470202445984,-1113.90002441406,30.3000011444092,-856.500061035156,2.84200590094533,-0.0018182851894421,0.0419915767117872,DLL
11.9,0.491075366735458,-0.513206660747528,9.06665134429932,1.12043392658234,-0.609759986400604,0.358233988285065,-1123.5,27.3000011444092,-863.700012207031,2.84115150157881,0.0379433777356614,0.0508042840405541,DLL
11.9333333333333,0.0281127188354731,-0.33137121796608,8.71913051605225,0.716467976570129,-0.457319974899292,-0.205793991684914,-1121.10009765625,31.5000019073486,-854.100036621094,2.84169186530924,0.0142355411817562,0.0409620971391226,DLL
11.9666666666667,0.0358885787427425,-0.632237136363983,9.16055965423584,0.137196004390717,0.0838419944047928,-0.114329993724823,-1111.5,28.5000019073486,-851.700012207031,2.84168870414331,0.0069209190315043,0.0603336052455649,DLL
12.0,-0.540721237659454,-0.619676113128662,9.93814563751221,0.518296003341675,0.0457319989800453,0.259148001670837,-1128.30004882812,29.7000007629395,-863.700012207031,2.84126673187819,-0.0359181283413889,0.0610564012298222,DLL
12.0333333333333,-0.429466664791107,-0.592161536216736,10.3030128479004,0.0457319989800453,-0.663114011287689,-0.0228659994900227,-1135.5,31.5000019073486,-861.300048828125,2.84114281341033,-0.0390753575496132,0.0584513818532732,DLL
12.0666666666667,-0.0747678726911545,-0.827829897403717,9.85739612579346,-0.0914639979600906,-0.685979962348938,0.78506600856781,-1130.70007324219,27.9000015258789,-861.300048828125,2.8401997120562,-0.0162724310331089,0.0762532643057545,DLL
12.1,0.091515876352787,-0.997702479362488,9.69529914855957,-0.922261953353882,-0.746955990791321,0.342989981174469,-1118.70007324219,31.5000019073486,-858.900024414062,2.83962098647994,0.0025396396118737,0.0957602304541058,DLL
12.1333333333333,0.116039738059044,-1.20824885368347,9.63727951049805,-1.12043392658234,-0.442075997591019,0.434453994035721,-1128.30004882812,30.9000015258789,-863.700012207031,2.83867388773728,0.0095962748754915,0.117381128869596,DLL
12.1666666666667,0.113647162914276,-1.23995041847229,9.5266227722168,-0.830797970294952,-0.0685980021953583,0.3125019967556,-1125.90002441406,36.9000015258789,-870.900024414062,2.83804012022712,0.0111940818982413,0.126823189127732,DLL
12.2,0.0891233012080193,-1.22619307041168,9.33761024475098,0.0914639979600906,0.236281991004944,1.31098401546478,-1125.90002441406,28.5000019073486,-863.700012207031,2.8358176276724,0.0094931830518375,0.129347897861485,DLL
12.2333333333333,-0.0986935868859291,-1.04675018787384,9.5744743347168,0.480185985565186,0.342989981174469,1.45580196380615,-1121.10009765625,40.5,-863.700012207031,2.83320022668119,-0.0057381686726181,0.113641526404887,DLL
12.2666666666667,0.113049022853374,-0.912168025970459,9.2401123046875,0.541162014007568,-0.221037998795509,1.53964400291443,-1116.30004882812,35.7000007629395,-863.700012207031,2.83028093905457,0.0075509609342664,0.101702122469552,DLL
12.3,0.386400371789932,-0.82663357257843,9.48295879364014,0.198172003030777,-0.602137982845306,1.21951997280121,-1125.90002441406,24.3000011444092,-861.300048828125,2.82828095554385,0.031228483076621,0.0911826017243656,DLL
12.3333333333333,0.0251220054924488,-0.53234726190567,9.78262805938721,0.800309956073761,-0.0304879993200302,0.754577994346619,-1121.10009765625,31.5000019073486,-856.500061035156,2.82751204707474,0.0111534358760042,0.064480813280394,DLL
12.3666666666667,0.182433605194092,-0.55567479133606,9.67137336730957,1.34147191047668,0.396344006061554,0.800309956073761,-1118.70007324219,38.7000007629395,-851.700012207031,2.82623291248833,0.0159789898888748,0.0579003399212151,DLL
12.4,-0.0604124404489994,-0.403148353099823,9.83466720581055,0.602137982845306,-0.0914639979600906,-0.259148001670837,-1121.10009765625,38.1000022888184,-856.500061035156,2.82677965186355,0.000351160662518,0.0450869148670019,DLL
12.4333333333333,-0.19798532128334,-0.180041030049324,9.90704250335693,0.746955990791321,-0.472563982009888,0.289635986089706,-1116.30004882812,31.5000019073486,-861.300048828125,2.82606743041127,-0.0140541855787949,0.0242646578351805,DLL
12.4666666666667,0.272753208875656,-0.107067592442036,9.97044563293457,0.121951997280121,-0.87652999162674,0.396344006061554,-1113.90002441406,33.3000030517578,-854.100036621094,2.82528709649188,0.0181303916470361,0.0139655820423441,DLL
12.5,0.982748925685883,-0.122021168470383,9.23293495178223,-0.0762199983000755,-1.11281192302704,0.25152599811554,-1121.10009765625,30.9000015258789,-868.500061035156,2.82483957283765,0.0821107921531373,0.0135485203383675,DLL
12.5333333333333,0.839792728424072,-0.283519774675369,9.24130916595459,0.205793991684914,-0.0228659994900227,-0.213415995240211,-1123.5,33.9000015258789,-861.300048828125,2.82418217850501,0.088070669943376,0.0252439265071926,DLL
12.5666666666667,0.53533798456192,-0.412718653678894,8.96436882019043,-0.0228659994900227,0.693601965904236,-0.762199997901917,-1125.90002441406,26.7000007629395,-866.100036621094,2.82441062822562,0.0673430760165732,0.0397259304090889,DLL
12.6,-0.0215331465005875,-0.614292860031128,9.27420711517334,-0.144817993044853,0.868907988071442,-0.67835795879364,-1128.30004882812,28.5000019073486,-856.500061035156,2.82493648149849,0.0157788898443298,0.0590463633253908,DLL
12.6333333333333,-0.266173630952835,-0.718967854976654,9.59481143951416,-0.0990860015153885,0.487807989120483,-0.144817993044853,-1118.70007324219,29.7000007629395,-878.100036621094,2.82527451751314,-0.0168806741335992,0.0707941208217577,DLL
12.6666666666667,0.0011962859425693,-0.757847130298615,9.52423095703125,-0.0838419944047928,0.0762199983000755,-0.449698001146317,-1133.10009765625,31.5000019073486,-858.900024414062,2.82612450013373,-0.0050425924362519,0.0769226467333523,DLL
12.7,-0.309838056564331,-0.756650865077972,9.8197135925293,0.0609759986400604,0.365855991840363,-0.46494197845459,-1123.5,33.3000030517578,-858.900024414062,2.82697421582603,-0.02390772388959,0.0768443563354577,DLL
12.7333333333333,-0.131591454148293,-0.854148149490356,10.0344467163086,0.114329993724823,0.0228659994900227,-0.602137982845306,-1121.10009765625,36.3000030517578,-854.100036621094,2.82812931692905,-0.0162966552874882,0.0823645149247499,DLL
12.7666666666667,0.831418752670288,-1.29438138008118,8.69281196594238,-0.800309956073761,-0.716467976570129,-1.19665396213531,-1128.30004882812,33.9000015258789,-863.700012207031,2.82903410820465,0.0663239152935044,0.131568866020519,DLL
12.8,-1.3201014995575,-0.720164120197296,10.1050271987915,0.571649968624115,0.739333987236023,-0.304879993200302,-1128.30004882812,33.3000030517578,-854.100036621094,2.82958924006593,-0.0712313686504824,0.0889558461100236,DLL
12.8333333333333,-0.308043628931046,-1.0054783821106,9.54157638549805,0.663114011287689,0.777444005012512,0.442075997591019,-1121.10009765625,30.3000011444092,-861.300048828125,2.82959987673428,-0.0434119272381207,0.0999168065210334,DLL
12.8666666666667,0.174059599637985,-1.23097825050354,8.71972846984863,-0.259148001670837,-0.586893975734711,0.693601965904236,-1125.90002441406,37.5,-858.900024414062,2.82888489107849,0.0013503986101648,0.128420933831597,DLL
12.9,0.32239904999733,-1.23038005828857,9.64206504821777,-0.571649968624115,-1.18140995502472,0.243903994560242,-1123.5,29.1000003814697,-866.100036621094,2.82818185338082,0.0258634616339519,0.12806708073639,DLL
12.9333333333333,0.0041870009154081,-1.00428199768066,9.41835880279541,0.403965979814529,-0.198172003030777,0.129574000835419,-1125.90002441406,32.1000022888184,-854.100036621094,2.82817473627394,0.0083086596939526,0.112308463117956,DLL
12.9666666666667,-0.260192185640335,-0.856540739536285,9.65522384643555,0.381099998950958,0.617381989955902,0.274392008781433,-1121.10009765625,33.9000015258789,-868.500061035156,2.82770906348067,-0.0179994237578709,0.094547729912941,DLL
13.0,-0.522776961326599,-0.817063271999359,9.78561878204346,-0.152439996600151,0.571649968624115,0.541162014007568,-1125.90002441406,30.9000015258789,-861.300048828125,2.82662475348061,-0.0433591117541061,0.086859306085417,DLL
13.0333333333333,0.230883181095123,-1.22499680519104,9.40639591217041,-0.967993974685669,-0.106707997620106,0.487807989120483,-1118.70007324219,26.7000007629395,-854.100036621094,2.82633881795155,0.0040133736026049,0.11785057162949,DLL
13.0666666666667,0.311034351587296,-1.35299944877625,9.35495567321777,-0.945127964019775,-0.754577994346619,0.129574000835419,-1121.10009765625,31.5000019073486,-868.500061035156,2.82569501772234,0.0250971310110529,0.137034631586059,DLL
13.1,-0.159106031060219,-0.748276829719543,10.1439065933228,1.19665396213531,0.0381099991500378,0.449698001146317,-1130.70007324219,33.9000015258789,-854.100036621094,2.82534606173901,-0.0045649201030063,0.0895522690639338,DLL
13.1333333333333,0.0400755777955055,-0.596348524093628,10.4561376571655,2.59910202026367,0.663114011287689,0.350611984729767,-1118.70007324219,29.1000003814697,-856.500061035156,2.82479000320851,0.0004629813119958,0.0635993039010289,DLL
13.1666666666667,1.14065861701965,-0.706406831741333,9.13125038146973,1.265251994133,-1.2500079870224,-1.95885396003723,-1109.10009765625,33.9000015258789,-873.300048828125,2.82759208823049,0.0883736841501501,0.0714531937698791,DLL
13.2,0.717771589756012,-0.764426708221436,9.89926624298096,0.0457319989800453,-0.495429992675781,-4.49697971343994,-1121.10009765625,29.1000003814697,-846.900024414062,2.83495972045764,0.0780475180709227,0.0748735722004979,DLL
13.2333333333333,1.04316139221191,-1.18791198730469,9.79279708862305,0.472563982009888,0.518296003341675,-5.96040391921997,-1121.10009765625,26.1000003814697,-875.700012207031,2.84249553358155,0.0971904793531971,0.105668981780686,DLL
13.2666666666667,1.04974091053009,-1.15262150764465,9.70845890045166,0.823175966739655,0.655492007732391,-8.7957878112793,-1123.5,35.1000022888184,-861.300048828125,2.85683645118714,0.104397401765487,0.112309602262845,DLL
13.3,0.583189368247986,-1.12749946117401,9.69828987121582,1.91312193870544,0.983237981796265,-13.1860599517822,-1133.10009765625,29.1000003814697,-875.700012207031,2.87937728106077,0.0737247109565955,0.11095401498049,DLL
13.3333333333333,1.19269704818726,-1.51569426059723,9.39742469787598,1.70732796192169,0.480185985565186,-16.4101657867432,-1125.90002441406,21.3000011444092,-863.700012207031,2.90523201860161,0.112007074727192,0.141718912858651,DLL
13.3666666666667,0.15312460064888,-1.21004319190979,9.59481143951416,2.02745199203491,0.6250039935112,-19.6114063262939,-1142.70007324219,22.5,-858.900024414062,2.93975916077936,0.0472323840325701,0.126024534866864,DLL
13.4,-1.04256319999695,-0.678294122219086,9.84423732757568,2.52288198471069,0.945127964019775,-20.3202514648438,-1149.90002441406,20.1000003814697,-875.700012207031,2.97459398633423,-0.0578216412806645,0.0833153312976271,DLL
13.4333333333333,-1.36316788196564,-0.318810194730759,9.32205867767334,2.46952795982361,1.48628997802734,-17.9116992950439,-1135.5,15.9000005722046,-878.100036621094,3.00277821190777,-0.119240350363217,0.0480647282996443,DLL
13.4666666666667,-0.724949300289154,-0.635227859020233,9.06605339050293,1.20427596569061,0.78506600856781,-15.586989402771,-1149.90002441406,6.30000019073486,-868.500061035156,3.0314663654898,-0.0914157986929404,0.0639167526946636,DLL
13.5,-0.809885561466217,0.0675901547074318,8.83277702331543,0.952749967575073,-0.571649968624115,-13.3994760513306,-1145.10009765625,10.5,-870.900024414062,3.05009687349794,-0.0901684201536454,0.0142163741268864,DLL
13.5333333333333,-0.789548695087433,0.152526453137398,8.75741100311279,0.525918006896973,-0.564027965068817,-9.26072978973389,-1135.5,3.90000009536743,-885.300048828125,3.06416064669726,-0.0892714683328869,-0.0075241870106286,DLL
13.5666666666667,-1.06050753593445,-0.091515876352787,9.86158275604248,0.6250039935112,0.0838419944047928,-6.41772365570068,-1149.90002441406,9.30000019073486,-880.500061035156,3.0764217631809,-0.101869336698013,0.0042081807713825,DLL
13.6,-0.44322395324707,-0.401952087879181,10.2725076675415,0.83841997385025,-0.182927995920181,-4.59606599807739,-1142.70007324219,3.90000009536743,-882.900024414062,3.08638487539572,-0.0604745658598338,0.0280679066747462,DLL
13.6333333333333,-0.0502440109848976,-0.0980954468250275,9.70307540893555,0.533540010452271,-1.21189796924591,-4.07776975631714,-1130.70007324219,5.70000028610229,-866.100036621094,3.09288899186519,-0.020233537397967,0.0150526389106592,DLL
13.6666666666667,-0.0586180128157139,0.180041030049324,9.98719310760498,0.78506600856781,-1.48628997802734,-3.02593398094177,-1140.30004882812,4.5,-873.300048828125,3.09778089122744,-0.008368196843441,-0.0089820156891771,DLL
13.7,0.250621914863586,0.0843381583690643,9.58524131774902,0.967993974685669,-1.14329993724823,-1.98934197425842,-1145.10009765625,1.5,-885.300048828125,3.1012375033666,0.0171311688220343,-0.0100475407351235,DLL
13.7333333333333,1.05871307849884,-0.373839348554611,9.38546180725098,-0.693601965904236,-1.57775402069092,-2.62959003448486,-1135.5,14.1000003814697,-866.100036621094,3.10399979534255,0.08556070756587,0.0253965953526966,DLL
13.7666666666667,1.22260427474976,-0.281725347042084,8.50439643859863,-1.43293595314026,-1.52439999580383,-2.79727387428284,-1147.5,0.900000035762787,-878.100036621094,3.10867682591327,0.129785306515104,0.032541054888699,DLL
13.8,0.318212062120438,-0.440831363201141,9.21379470825195,-1.6844619512558,0.342989981174469,-1.92836594581604,-1142.70007324219,3.90000009536743,-878.100036621094,3.11110078259693,0.0628620720958942,0.0450730166127286,DLL
13.8333333333333,0.275743901729584,-0.681284844875336,9.30830097198486,-1.29574000835419,0.594515979290009,-0.739333987236023,-1142.70007324219,-1.5,-861.300048828125,3.11153093706227,0.0379978276908067,0.0669747051347525,DLL
13.8666666666667,0.100488021969795,-0.938486337661743,10.0075302124023,-1.05945801734924,0.3125019967556,-0.114329993724823,-1140.30004882812,0.900000035762787,-870.900024414062,3.11127290341347,0.0169527485225126,0.0879130567024059,DLL
13.9,-0.0203368607908487,-0.819455862045288,9.7180290222168,-0.487807989120483,0.0457319989800453,0.25152599811554,-1133.10009765625,0.300000011920929,-880.500061035156,3.11087743510859,0.0035585988189521,0.0858628530035876,DLL
13.9333333333333,-0.237462759017944,-0.901999592781067,10.1283550262451,-0.190549999475479,0.259148001670837,0.670735955238342,-1145.10009765625,6.90000009536743,-878.100036621094,3.10977401688329,-0.0156412409233035,0.0881612544028642,DLL
13.9666666666667,0.462962657213211,-0.887046039104462,9.40041446685791,-0.381099998950958,-0.685979962348938,0.67835795879364,-1149.90002441406,4.5,-880.500061035156,3.10838668158212,0.0320169468202892,0.0929570331231187,DLL
14.0,0.672312676906586,-0.754856407642365,9.2347297668457,-0.320124000310898,-0.647870004177094,0.670735955238342,-1147.5,11.1000003814697,-868.500061035156,3.10750757564956,0.0609915452420895,0.085430918652446,DLL
14.0333333333333,0.11484345048666,-0.767417430877686,9.77724456787109,-0.106707997620106,0.37347799539566,0.853663980960846,-1142.70007324219,6.30000019073486,-887.700012207031,3.10631013401028,0.0259956584077834,0.0806416810909509,ST
14.0666666666667,0.416905641555786,-0.693845868110657,9.84722805023193,0.205793991684914,0.274392008781433,1.10518991947174,-1145.10009765625,9.30000019073486,-873.300048828125,3.10461408192222,0.0371017973686923,0.0730940007655299,ST
14.1,0.0980954468250275,-0.343932211399078,9.61395168304443,0.83841997385025,-0.442075997591019,1.16616594791412,-1145.10009765625,5.10000038146973,-873.300048828125,3.10327091379621,0.0187480664546031,0.0460038415103124,ST
14.1333333333333,0.327782362699509,-0.498851239681244,9.62352180480957,1.17378795146942,-0.259148001670837,1.28811800479889,-1142.70007324219,11.1000003814697,-875.700012207031,3.10084442655715,0.0298623152565613,0.0487063527121982,ST
14.1666666666667,0.541319370269775,-0.380418926477432,9.35136699676514,0.487807989120483,-0.617381989955902,0.800309956073761,-1137.90002441406,6.30000019073486,-873.300048828125,3.09959097219216,0.0504713242582893,0.0424106522920343,ST
14.2,0.650779545307159,-0.308641761541367,9.17910194396973,0.129574000835419,-0.503051996231079,0.525918006896973,-1149.90002441406,11.1000003814697,-875.700012207031,3.09899967750767,0.0652324400479309,0.0361418256394141,ST
14.2333333333333,-0.352306216955185,-0.44023323059082,10.0123147964478,0.236281991004944,0.990859985351562,0.556405961513519,-1137.90002441406,8.10000038146973,-863.700012207031,3.09793742333942,-0.0061418605634677,0.0413339445970047,ST
14.2666666666667,-0.0269164331257343,-0.505430817604065,10.1965436935425,0.236281991004944,1.17378795146942,0.426831990480423,-1145.10009765625,11.1000003814697,-875.700012207031,3.09732207583657,-0.0051449571175019,0.0467728396530132,ST
14.3,0.573020994663239,-0.177050322294235,9.14082050323486,0.274392008781433,-0.358233988285065,0.167683988809586,-1137.90002441406,6.30000019073486,-870.900024414062,3.09736672975451,0.0426395801525575,0.0273032935789242,ST
14.3333333333333,0.0974973067641258,-0.400157660245895,9.6941032409668,0.975615978240967,0.739333987236023,0.541162014007568,-1137.90002441406,5.70000028610229,-890.100036621094,3.09612144402197,0.0184806026141632,0.0360530171927141,ST
14.3666666666667,0.294286340475082,-0.282323479652405,9.39862060546875,0.579271972179413,0.663114011287689,-0.297257989645004,-1135.5,3.30000019073486,-887.700012207031,3.09676278680994,0.0266389048323488,0.0311261581665042,ST
14.4,0.294884473085403,-0.39537250995636,9.07502555847168,0.121951997280121,0.365855991840363,-0.518296003341675,-1135.5,11.1000003814697,-866.100036621094,3.09743124653893,0.0302803259268116,0.0396380855979516,ST
14.4333333333333,-0.997702479362488,-0.276940196752548,10.1576642990112,0.205793991684914,0.937505960464478,-0.449698001146317,-1149.90002441406,6.30000019073486,-870.900024414062,3.09815053893356,-0.062086873403491,0.030610302001856,ST
14.4666666666667,-0.57062840461731,-0.73751026391983,10.4178562164307,0.0838419944047928,1.10518991947174,0.0990860015153885,-1133.10009765625,7.50000047683716,-882.900024414062,3.09974714799351,-0.0582059135457751,0.0585212998919021,ST
14.5,-0.226098045706749,-0.579002380371094,9.85021877288818,-0.0381099991500378,-0.716467976570129,-0.823175966739655,-1137.90002441406,6.30000019073486,-880.500061035156,3.10109992525692,-0.0325959566820841,0.0587466411673739,ST
14.5333333333333,0.125011876225471,-0.604124426841736,9.03973484039307,0.190549999475479,-0.525918006896973,-0.87652999162674,-1118.70007324219,6.30000019073486,-878.100036621094,3.1026481920318,0.0005453021511187,0.0641159862746387,ST
14.5666666666667,-0.206359326839447,-0.522776961326599,9.37648963928223,0.396344006061554,-0.0533539988100529,-0.868907988071442,-1142.70007324219,3.30000019073486,-878.100036621094,3.104098946025,-0.0150689811477925,0.0577544734270922,ST
14.6,-0.0041870009154081,-0.178844749927521,9.0074348449707,0.503051996231079,-0.914639949798584,-0.304879993200302,-1130.70007324219,6.90000009536743,-880.500061035156,3.10430599322363,-0.0037274575725952,0.030643249308011,ST
14.6333333333333,0.0897214487195015,-0.39836323261261,9.32863807678223,0.304879993200302,-0.0304879993200302,0.708845973014832,-1133.10009765625,4.5,-890.100036621094,3.10299626485934,0.0059531605207437,0.0389876779418111,ST
14.6666666666667,0.072973445057869,-0.399559497833252,9.4674072265625,-0.213415995240211,-0.0076219998300075,0.708845973014832,-1135.5,5.10000038146973,-880.500061035156,3.10175794975185,0.0071496640542139,0.0414850652412075,ST
14.7,0.516795516014099,-0.425279647111893,10.1839818954468,-0.609759986400604,-0.899396002292633,0.571649968624115,-1133.10009765625,7.50000047683716,-880.500061035156,3.10070614663508,0.0386364268139206,0.0424242167403407,ST
14.7333333333333,0.400755792856216,-0.231481328606606,9.83466720581055,-0.320124000310898,-1.50153398513794,0.632625997066498,-1130.70007324219,5.70000028610229,-873.300048828125,3.09998037456532,0.0420762866318863,0.0289333589515173,ST
14.7666666666667,0.713584542274475,-0.511412262916565,9.7957878112793,0.106707997620106,-0.25152599811554,0.602137982845306,-1147.5,6.90000009536743,-878.100036621094,3.09806345494219,0.0637137862162691,0.0450736539105097,ST
14.8,0.800913453102112,-0.525169551372528,10.0171003341675,0.472563982009888,0.327746003866196,0.167683988809586,-1137.90002441406,3.30000019073486,-878.100036621094,3.09743196027496,0.0744661155079006,0.0496161711652959,ST
14.8333333333333,0.593955993652344,-0.345726639032364,9.5924186706543,0.655492007732391,-0.0990860015153885,-0.274392008781433,-1135.5,6.30000019073486,-870.900024414062,3.09853997132992,0.0657467604528354,0.0392882661399698,ST
14.8666666666667,0.74050098657608,-0.313426911830902,9.47099590301514,0.899396002292633,0.0685980021953583,-0.0685980021953583,-1140.30004882812,12.9000005722046,-870.900024414062,3.09893550086265,0.0742237544371105,0.0338456028949505,ST
14.9,0.709397554397583,-0.280529052019119,9.08220291137695,1.13567793369293,0.152439996600151,-0.144817993044853,-1135.5,3.90000009536743,-878.100036621094,3.09930773874647,0.0766233376008125,0.0303708328135645,ST
14.9333333333333,0.479710668325424,-0.345128506422043,8.95898532867432,1.12805593013763,0.647870004177094,-0.304879993200302,-1133.10009765625,5.70000028610229,-880.500061035156,3.0994416936341,0.0596462233864807,0.034657913143679,ST
14.9666666666667,-0.421690791845322,-0.473729223012924,8.87404918670654,0.792688012123108,1.75305998325348,-0.815553963184357,-1130.70007324219,4.5,-870.900024414062,3.10077829451938,-0.0201348334241478,0.0471864434295677,ST
15.0,-0.627451956272125,-0.617881715297699,9.6941032409668,0.297257989645004,2.080806016922,-0.731711983680725,-1142.70007324219,2.70000004768372,-878.100036621094,3.10282580968597,-0.0554950083053259,0.0589903356142198,ST
15.0333333333333,-1.18013608455658,-0.577207982540131,9.41776084899902,0.152439996600151,1.41006994247437,-0.365855991840363,-1116.30004882812,2.70000004768372,-887.700012207031,3.10373339512602,-0.105373307028684,0.0604067973753712,ST
15.0666666666667,-1.73341834545135,-0.771006286144257,10.5099697113037,0.282013982534409,1.6844619512558,0.167683988809586,-1125.90002441406,0.900000035762787,-878.100036621094,3.10484397779528,-0.150087295816857,0.0694766881813116,ST
15.1,-0.799118995666504,-0.779380261898041,10.3347139358521,-0.167683988809586,-0.457319974899292,-0.129574000835419,-1128.30004882812,-1.5,-880.500061035156,3.10552667423569,-0.0964657971283586,0.073925905302041,ST
15.1333333333333,0.198583468794823,-0.875681281089783,9.92378997802734,-0.266770005226135,-2.41617393493652,-0.335367977619171,-1125.90002441406,4.5,-882.900024414062,3.10630369723905,-0.012177434887784,0.0841438424175746,ST
15.1666666666667,-0.0586180128157139,-0.817661464214325,9.04152870178223,-0.167683988809586,-3.07166600227356,-0.853663980960846,-1116.30004882812,8.10000038146973,-875.700012207031,3.10735144113578,-0.0043529428947137,0.0885812983443366,ST
15.2,-0.0101684303954244,-0.911569893360138,9.31009578704834,-0.320124000310898,-0.442075997591019,-0.426831990480423,-1130.70007324219,4.5,-885.300048828125,3.10803400852098,-0.0014842920281258,0.0952801512202048,ST
15.2333333333333,-0.332567483186722,-0.845774173736572,9.7000846862793,0.0228659994900227,0.0990860015153885,0.0,-1130.70007324219,-3.30000019073486,-892.500061035156,3.10797472804296,-0.0244395638658297,0.0894475680658925,ST
15.2666666666667,-0.422288924455643,-0.669920146465302,9.60497951507568,0.37347799539566,-0.381099998950958,0.365855991840363,-1123.5,4.5,-873.300048828125,3.10686563567181,-0.0375737068085472,0.0751270892410411,ST
15.3,0.130395174026489,-0.632237136363983,9.39323711395264,0.579271972179413,-0.670735955238342,0.830797970294952,-1121.10009765625,6.90000009536743,-887.700012207031,3.10525208738115,-0.0008780625880175,0.0688670859271425,ST
15.3333333333333,0.483299523591995,-0.572422802448273,9.04392147064209,0.487807989120483,-1.40244793891907,0.480185985565186,-1133.10009765625,3.30000019073486,-875.700012207031,3.10425245936763,0.0408396657490227,0.0640883516043911,ST
15.3666666666667,0.808689296245575,-0.827829897403717,9.06485652923584,0.0838419944047928,-0.0990860015153885,0.0685980021953583,-1121.10009765625,1.5,-870.900024414062,3.10291474824239,0.0767844741997773,0.0842026178970101,ST
15.4,0.221911042928696,-0.619676113128662,9.19943904876709,0.190549999475479,-0.327746003866196,-0.167683988809586,-1128.30004882812,0.900000035762787,-868.500061035156,3.10384628167935,0.0403412610509825,0.0721099311403354,ST
15.4333333333333,-0.256603330373764,-0.709995687007904,9.38845252990723,0.442075997591019,0.739333987236023,1.12805593013763,-1135.5,5.10000038146973,-870.900024414062,3.10183882380432,-0.0097108613340294,0.0740225676370859,ST
15.4666666666667,-1.08802211284637,-0.739304721355438,10.4758758544922,0.579271972179413,1.40244793891907,1.93598794937134,-1133.10009765625,1.5,-875.700012207031,3.09847563042727,-0.0782273194166962,0.0706778603838916,ST
15.5,-1.10177934169769,-0.569432079792023,10.7127408981323,0.693601965904236,0.335367977619171,2.01982998847961,-1111.5,7.50000047683716,-892.500061035156,3.09373759504153,-0.0963093382250336,0.0568392339268873,ST
15.5333333333333,-0.270360618829727,-0.46236452460289,10.1253643035889,0.670735955238342,-0.78506600856781,2.13416004180908,-1140.30004882812,6.90000009536743,-894.900024414062,3.08921170655456,-0.0449537384178276,0.0476713834383071,ST
15.5666666666667,0.138769164681435,-0.593357801437378,9.32504844665527,0.0609759986400604,-1.2423859834671,1.57775402069092,-1125.90002441406,0.900000035762787,-875.700012207031,3.08663729339115,-0.0017365317282742,0.0586567718773225,ST
15.6,0.404942780733109,-0.585581958293915,9.47697734832764,-0.304879993200302,-1.10518991947174,1.15092194080353,-1135.5,7.50000047683716,-887.700012207031,3.08431375195525,0.032321637025423,0.0613322961680148,ST
15.6333333333333,0.166283741593361,-0.61847984790802,9.39682579040527,-0.411587983369827,-0.213415995240211,1.44055795669556,-1128.30004882812,0.900000035762787,-882.900024414062,3.08165162289199,0.0220238770116761,0.0650217722643899,ST
15.6666666666667,0.346922934055328,-0.483299523591995,9.02059459686279,-0.121951997280121,-0.403965979814529,2.0731840133667,-1116.30004882812,5.10000038146973,-866.100036621094,3.0782582695518,0.0338028688973797,0.0572063317977994,ST
15.7,-0.172863319516182,-0.652574002742767,9.7898063659668,0.205793991684914,0.815553963184357,2.88111591339111,-1137.90002441406,4.5,-873.300048828125,3.073123183338,-0.0040573045966468,0.0636676023577381,ST
15.7333333333333,0.0807493031024933,-0.429466664791107,9.61993312835693,0.685979962348938,0.121951997280121,2.18751406669617,-1130.70007324219,11.7000007629395,-887.700012207031,3.06913877339262,0.0046600368826175,0.0489801573093976,ST
15.7666666666667,-0.537730515003204,-0.214733332395554,10.3269386291504,1.17378795146942,0.0381099991500378,1.62348592281342,-1123.5,1.5,-870.900024414062,3.06604093419203,-0.0350841109907568,0.0278215277497316,ST
15.8,0.172863319516182,-0.112450875341892,9.74733829498291,1.08232402801514,-1.02134799957275,0.846041977405548,-1121.10009765625,0.300000011920929,-873.300048828125,3.06437200681499,0.0030644462949159,0.0150995972931603,ST
15.8333333333333,0.702219843864441,-0.156115308403969,9.43391132354736,0.594515979290009,-1.63872992992401,0.182927995920181,-1149.90002441406,4.5,-868.500061035156,3.06397895167924,0.0548480981529191,0.0153939454876372,ST
15.8666666666667,0.233275756239891,0.0903195887804031,9.1868782043457,0.655492007732391,-1.08232402801514,-0.426831990480423,-1135.5,0.300000011920929,-887.700012207031,3.06548304126328,0.0355756065847782,-0.0030723365695373,ST
15.9,-0.0053832866251468,0.0023925718851387,9.45604228973389,0.830797970294952,0.868907988071442,-0.266770005226135,-1133.10009765625,8.10000038146973,-890.100036621094,3.06588332720175,0.0092425676374807,-0.0021216059706435,ST
15.9333333333333,-0.376830071210861,-0.0795530155301094,9.20781326293945,0.868907988071442,1.10518991947174,-0.0381099991500378,-1130.70007324219,5.70000028610229,-873.300048828125,3.06603020033257,-0.0285240914647685,0.0045811836409584,ST
15.9666666666667,-0.464158952236176,-0.080151155591011,9.39802265167236,0.632625997066498,0.724089980125427,-0.0152439996600151,-1128.30004882812,3.30000019073486,-873.300048828125,3.06617359877015,-0.0439675908083969,0.0065690203548831,ST
16.0,-0.696238398551941,-0.188415035605431,10.006932258606,0.480185985565186,0.152439996600151,-0.0304879993200302,-1137.90002441406,2.10000014305115,-868.500061035156,3.06669420277248,-0.0619727171154578,0.0145510163707301,ST
16.0333333333333,-0.506627082824707,-0.159106031060219,9.90285491943359,0.350611984729767,-0.907018005847931,-0.243903994560242,-1135.5,0.300000011920929,-878.100036621094,3.06719161887213,-0.0529394431543724,0.0152225364564079,ST
16.0666666666667,-0.0430662930011749,-0.319408357143402,9.5984001159668,-0.175305992364883,-0.92988395690918,-0.739333987236023,-1135.5,0.300000011920929,-878.100036621094,3.06887880133469,-0.0179107930252832,0.0280872956827022,ST
16.1,-0.2554070353508,-0.464158952236176,9.50927734375,-0.541162014007568,-0.693601965904236,-0.640248000621796,-1130.70007324219,2.70000004768372,-882.900024414062,3.07023580613903,-0.0232674814454905,0.0432255709343234,ST
16.1333333333333,0.0394774377346039,-0.626853823661804,9.59600734710693,-0.891773998737335,-0.25152599811554,-0.175305992364883,-1128.30004882812,8.70000076293945,-892.500061035156,3.07073470757457,-0.0030852837709435,0.0603208199760999,ST
16.1666666666667,-0.0334960073232651,-0.716575264930725,9.43510723114014,-0.754577994346619,-0.0457319989800453,0.167683988809586,-1125.90002441406,2.70000004768372,-880.500061035156,3.07045746480771,-0.0033715795641974,0.0725051255044596,ST
16.2,-0.235668331384659,-0.563450694084167,9.50150108337402,-0.304879993200302,0.0381099991500378,0.320124000310898,-1116.30004882812,2.70000004768372,-885.300048828125,3.06978814761036,-0.0186817074902053,0.063424668047329,ST
16.2333333333333,0.169274464249611,-0.685471832752228,9.44168663024902,-0.190549999475479,0.236281991004944,0.541162014007568,-1123.5,9.90000057220459,-878.100036621094,3.06891927010471,0.0065485548403983,0.0699825127556011,ST
16.2666666666667,-0.515001118183136,-0.575413525104523,9.20960712432861,0.0762199983000755,0.129574000835419,0.937505960464478,-1135.5,6.90000009536743,-882.900024414062,3.06707985196253,-0.0396600016421194,0.0642775064130899,ST
16.3,-0.543113827705383,-0.640611112117767,9.70486927032471,-0.175305992364883,0.304879993200302,1.40244793891907,-1137.90002441406,9.90000057220459,-875.700012207031,3.064742783626,-0.0514164699234008,0.0655584997671358,ST
16.3333333333333,-0.586180090904236,-0.863120317459106,10.1277570724487,-0.198172003030777,0.579271972179413,1.79117000102997,-1135.5,6.90000009536743,-882.900024414062,3.06245403290062,-0.0566104848208197,0.0792902980179312,ST
16.3666666666667,-0.275743901729584,-0.450999796390533,9.93515491485596,0.228659987449646,-0.632625997066498,1.60061991214752,-1123.5,6.90000009536743,-878.100036621094,3.05852911057774,-0.0357747836669815,0.0551914317500547,ST
16.4,0.244042336940765,-0.720164120197296,9.88491058349609,0.190549999475479,-0.419209986925125,1.63872992992401,-1121.10009765625,8.10000038146973,-878.100036621094,3.05575035758713,0.0076385532798022,0.067425490801149,ST
16.4333333333333,0.426475942134857,-0.413914948701859,9.04870700836182,0.221037998795509,-1.20427596569061,1.02897000312805,-1133.10009765625,2.10000014305115,-885.300048828125,3.05418257415987,0.0365869745034251,0.0520126491445219,ST
16.4666666666667,-0.115441590547562,-0.284716039896011,9.60557842254639,0.541162014007568,-0.221037998795509,1.15092194080353,-1133.10009765625,0.300000011920929,-868.500061035156,3.05247920040229,0.0028178358267529,0.0357324584559414,ST
16.5,0.247631192207336,-0.342735916376114,9.25087928771973,0.663114011287689,0.0838419944047928,1.14329993724823,-1128.30004882812,2.10000014305115,-870.900024414062,3.05037715239291,0.0200147237271897,0.0358533055028325,ST
16.5333333333333,0.299071490764618,-0.0699827298521996,9.4907341003418,0.617381989955902,-0.556405961513519,0.571649968624115,-1130.70007324219,-1.5,-887.700012207031,3.04978064362677,0.0291906402265956,0.0140659632442834,ST
16.5666666666667,-0.128600731492043,0.154919028282166,9.97223949432373,1.20427596569061,-0.403965979814529,0.602137982845306,-1140.30004882812,2.10000014305115,-882.900024414062,3.04902786666895,0.0002601739471194,-0.00808896200545,ST
16.6,0.300267785787582,0.0466551519930363,10.1032333374023,1.03659200668335,-0.0609759986400604,0.327746003866196,-1118.70007324219,3.30000019073486,-882.900024414062,3.0484340119727,0.0209296302100603,-0.0069233181852852,ST
16.6333333333333,0.469542235136032,0.156713455915451,9.89089202880859,0.87652999162674,-0.510673999786377,-0.0838419944047928,-1130.70007324219,8.10000038146973,-904.500061035156,3.04876667751672,0.040081529155927,-0.0142315713451847,ST
16.6666666666667,0.293090045452118,0.138769164681435,9.01700496673584,0.701223969459534,0.221037998795509,-1.08232402801514,-1125.90002441406,4.5,-870.900024414062,3.05064767125336,0.0344828195052828,-0.0159452653713046,ST
16.7,-0.28112718462944,-0.0795530155301094,10.1803932189941,0.365855991840363,1.52439999580383,-1.07470202445984,-1135.5,4.5,-887.700012207031,3.05227907889385,-0.0107908761584483,0.0002025628034765,ST
16.7333333333333,-0.590367138385773,-0.0149535741657019,9.55772686004639,0.426831990480423,0.274392008781433,-0.983237981796265,-1130.70007324219,-0.900000035762787,-878.100036621094,3.05406307785021,-0.0473916113772993,0.0006779553247063,ST
16.7666666666667,-0.291295617818832,-0.40853163599968,9.04751014709473,-0.266770005226135,0.137196004390717,-1.00610399246216,-1116.30004882812,2.70000004768372,-885.300048828125,3.05710867088865,-0.0368940393123958,0.03213486733865,ST
16.8,-0.575413525104523,-0.586778283119202,9.32026386260986,-0.37347799539566,0.335367977619171,-0.731711983680725,-1135.5,11.7000007629395,-878.100036621094,3.05943140167969,-0.05483300418169,0.0545343626978093,ST
16.8333333333333,-0.371446788311005,-0.682481110095978,9.41237735748291,-0.282013982534409,-0.335367977619171,-0.937505960464478,-1121.10009765625,3.30000019073486,-875.700012207031,3.06162056976162,-0.0435239668175083,0.0674158152882117,ST
16.8666666666667,-0.485692083835602,-0.721958577632904,9.09954929351807,-0.160062000155449,-0.0228659994900227,-0.670735955238342,-1123.5,2.70000004768372,-873.300048828125,3.06328275629538,-0.0505412696751617,0.0763374399693107,ST
16.9,-0.661546111106873,-0.730332553386688,9.10254001617432,-0.320124000310898,0.533540010452271,-0.221037998795509,-1121.10009765625,-0.900000035762787,-878.100036621094,3.0638787636453,-0.0663959510610145,0.0793515212822839,ST
16.9333333333333,-0.680088579654694,-0.855942606925964,9.99855804443359,-0.556405961513519,0.716467976570129,0.221037998795509,-1116.30004882812,5.10000038146973,-880.500061035156,3.063859896609,-0.0682125040035712,0.0843383207355874,ST
16.9666666666667,-1.16458439826965,-0.833811283111572,10.5703821182251,-0.350611984729767,-0.106707997620106,0.442075997591019,-1113.90002441406,8.10000038146973,-875.700012207031,3.06274506055917,-0.0969212872138692,0.0808004075375773,ST
17.0,-0.44023323059082,-0.708201289176941,10.0434188842773,-0.0609759986400604,-0.853663980960846,0.647870004177094,-1123.5,5.70000028610229,-885.300048828125,3.06094468971269,-0.0587332197044971,0.0735319071745861,ST
17.0333333333333,0.295482635498047,-0.593357801437378,9.16773700714111,0.182927995920181,-1.6615959405899,0.564027965068817,-1109.10009765625,9.30000019073486,-885.300048828125,3.05957742907395,0.0080048306585089,0.0669608740218234,ST
17.0666666666667,-0.677097856998444,-0.716575264930725,9.49193096160889,-0.114329993724823,0.25152599811554,-0.0457319989800453,-1133.10009765625,3.90000009536743,-878.100036621094,3.0598274740076,-0.0505961326970631,0.0733048395182101,ST
17.1,0.0502440109848976,-0.679490387439728,9.96326732635498,-0.144817993044853,-0.0152439996600151,-0.396344006061554,-1104.30004882812,6.30000019073486,-890.100036621094,3.06041189535475,-0.0109146228848689,0.0697917820375879,ST
17.1333333333333,-0.340941488742828,-0.468944102525711,9.5804557800293,0.419209986925125,-1.58537602424622,-0.25152599811554,-1123.5,8.10000038146973,-885.300048828125,3.06040433202331,-0.0261772427807805,0.0546865188871541,ST
17.1666666666667,-0.136376604437828,-0.598741114139557,9.86577033996582,0.800309956073761,0.0228659994900227,0.182927995920181,-1128.30004882812,5.10000038146973,-885.300048828125,3.06016838286594,-0.0170853712359995,0.0580254042701316,ST
17.2,0.199181616306305,-0.497654944658279,9.26942157745361,0.739333987236023,-0.533540010452271,-0.221037998795509,-1140.30004882812,11.1000003814697,-878.100036621094,3.06052366064373,0.0120507537646315,0.0538378053092555,ST
17.2333333333333,-0.0053832866251468,-0.61548912525177,9.49791240692139,0.381099998950958,-0.243903994560242,-0.518296003341675,-1125.90002441406,2.70000004768372,-875.700012207031,3.06140989672679,0.0030943628183389,0.0613662619767792,ST
17.2666666666667,-0.0101684303954244,-0.566441416740417,9.20123291015625,0.442075997591019,-0.0076219998300075,-0.350611984729767,-1123.5,3.90000009536743,-875.700012207031,3.06201308836405,0.0001948211879747,0.0609083462845481,ST
17.3,-0.454588651657104,-0.57062840461731,10.3813695907593,0.472563982009888,-0.3125019967556,0.365855991840363,-1128.30004882812,3.30000019073486,-875.700012207031,3.06120039132993,-0.0323372323890956,0.0557880665316914,ST
17.3333333333333,0.14355431497097,-0.329576790332794,9.28377723693848,0.67835795879364,-0.99848198890686,0.899396002292633,-1118.70007324219,-0.300000011920929,-875.700012207031,3.05935777144186,0.0022389249969199,0.0407511038982654,ST
17.3666666666667,0.270360618829727,-0.305651068687439,9.77664661407471,0.762199997901917,-0.0304879993200302,1.20427596569061,-1125.90002441406,4.5,-873.300048828125,3.05734762865257,0.0199783666359253,0.0331981635053557,ST
17.4,0.102880589663982,-0.0897214487195015,9.13782978057861,0.716467976570129,-0.480185985565186,0.663114011287689,-1116.30004882812,1.5,-878.100036621094,3.05632998285094,0.0140476266324187,0.0147412030016716,ST
