seconds,sensor_accX_m_s_,sensor_accY_m_s_,sensor_accZ_m_s_,sensor_gyroX___s_,sensor_gyroY___s_,sensor_gyroZ___s_,sensor_magX__T_,sensor_magY__T_,sensor_magZ__T_,sensor_yaw___,sensor_pitch___,sensor_roll___,label3
0.0,-0.273351341485977,-0.631040811538696,9.67855167388916,0.121951997280121,-0.114329993724823,0.144817993044853,-1101.90002441406,3.90000009536743,-868.500061035156,-2.84082388155538,-0.0279743746400205,0.0648777529399643,ST
0.0333333333333333,-0.266173630952835,-0.620872378349304,9.69111251831055,0.190549999475479,-0.129574000835419,0.274392008781433,-1101.90002441406,4.5,-873.300048828125,-2.84229203233719,-0.0272283933013137,0.0636665789913845,ST
0.0666666666666667,-0.270958751440048,-0.583189368247986,9.65761661529541,0.205793991684914,-0.129574000835419,0.297257989645004,-1101.90002441406,8.10000038146973,-861.300048828125,-2.84394072148504,-0.0277880789291868,0.0600407186123988,ST
0.1,-0.279332756996155,-0.56165623664856,9.6163444519043,0.182927995920181,-0.167683988809586,0.266770005226135,-1111.5,-2.10000014305115,-880.500061035156,-2.84540047462028,-0.0286996129138603,0.0580624108438863,ST
0.133333333333333,-0.244640469551086,-0.590965270996094,9.62890529632568,0.0685980021953583,-0.190549999475479,0.289635986089706,-1106.70007324219,5.70000028610229,-868.500061035156,-2.84700751950885,-0.0251182406911562,0.0611082708145528,ST
0.166666666666667,-0.258995920419693,-0.557469248771667,9.73896408081055,0.114329993724823,-0.243903994560242,0.198172003030777,-1111.5,8.10000038146973,-870.900024414062,-2.84829350963927,-0.0261205368589846,0.0570441173680865,ST
0.2,-0.269164323806763,-0.562852561473846,9.62053108215332,0.228659987449646,-0.25152599811554,0.182927995920181,-1116.30004882812,2.70000004768372,-868.500061035156,-2.84928710810909,-0.0274704604815337,0.0580067933281354,ST
0.233333333333333,-0.252416342496872,-0.567039549350739,9.57686710357666,0.144817993044853,-0.213415995240211,0.182927995920181,-1106.70007324219,6.90000009536743,-858.900024414062,-2.85025561366387,-0.0259929724664086,0.0588548687147813,ST
0.266666666666667,-0.297277063131332,-0.553880393505096,9.69051456451416,0.0914639979600906,-0.137196004390717,0.228659987449646,-1099.5,0.300000011920929,-866.100036621094,-2.85151846955446,-0.0302813598551349,0.0569754731771494,ST
0.3,-0.191405743360519,-0.608909547328949,9.74075794219971,0.0609759986400604,-0.160062000155449,0.221037998795509,-1116.30004882812,0.300000011920929,-858.900024414062,-2.8526822109353,-0.0195510723390714,0.0622195011728622,ST
0.333333333333333,-0.188415035605431,-0.602329969406128,9.60916709899902,0.0228659994900227,-0.3125019967556,0.160062000155449,-1106.70007324219,1.5,-863.700012207031,-2.85365876353388,-0.0190506230856391,0.0625481105658393,ST
0.366666666666667,-0.153722748160362,-0.644798099994659,9.59122276306152,-0.0304879993200302,-0.160062000155449,0.236281991004944,-1104.30004882812,-2.70000004768372,-873.300048828125,-2.85493646989665,-0.0158073329884319,0.0670774290023676,ST
0.4,-0.208751901984215,-0.683677434921265,9.6701774597168,-0.0381099991500378,0.0076219998300075,0.160062000155449,-1121.10009765625,10.5,-863.700012207031,-2.85575036651151,-0.0214437763392943,0.0705689678595336,ST
0.433333333333333,-0.260790348052979,-0.683677434921265,9.71683216094971,0.0685980021953583,0.0533539988100529,0.167683988809586,-1101.90002441406,2.10000014305115,-861.300048828125,-2.85659940691653,-0.0267319566495333,0.0701294435374583,ST
0.466666666666667,-0.270958751440048,-0.666929423809052,9.66658878326416,0.114329993724823,-0.0685980021953583,0.114329993724823,-1109.10009765625,1.5,-873.300048828125,-2.85723716844306,-0.0278205222184999,0.0687182736878339,ST
0.5,-0.333763778209686,-0.639414846897125,9.65701866149902,0.198172003030777,-0.0914639979600906,0.167683988809586,-1113.90002441406,6.30000019073486,-866.100036621094,-2.85819167865608,-0.0341554859150142,0.0658404253651412,ST
0.533333333333333,-0.285314202308655,-0.644199967384338,9.62471866607666,0.0838419944047928,-0.129574000835419,0.205793991684914,-1118.70007324219,5.10000038146973,-866.100036621094,-2.85939338656103,-0.029442220393985,0.0666616528795519,ST
0.566666666666667,-0.340343356132507,-0.589170813560486,9.68273830413818,0.167683988809586,-0.182927995920181,0.335367977619171,-1116.30004882812,3.90000009536743,-868.500061035156,-2.86135119838368,-0.0346419496236418,0.0606281258011821,ST
0.6,-0.214733332395554,-0.601133704185486,9.66000938415527,0.198172003030777,-0.205793991684914,0.472563982009888,-1121.10009765625,6.30000019073486,-873.300048828125,-2.86380204107377,-0.0222222433005555,0.0617518785628794,ST
0.633333333333333,-0.221312895417213,-0.626255691051483,9.57327842712402,0.0990860015153885,-0.0990860015153885,0.335367977619171,-1109.10009765625,1.5,-868.500061035156,-2.86553626853163,-0.0229128724002081,0.0650569768394593,ST
0.666666666666667,-0.236864611506462,-0.629246413707733,9.61395168304443,-0.0,-0.0228659994900227,0.274392008781433,-1128.30004882812,5.10000038146973,-861.300048828125,-2.86695621239585,-0.0245263409814906,0.0653385712926574,ST
0.7,-0.263781040906906,-0.674705266952515,9.71683216094971,-0.0152439996600151,-0.0838419944047928,0.144817993044853,-1109.10009765625,6.30000019073486,-870.900024414062,-2.86763633817069,-0.0268805526730422,0.0692360802109284,ST
0.733333333333333,-0.305651068687439,-0.696238398551941,9.6641960144043,0.0685980021953583,-0.114329993724823,0.106707997620106,-1113.90002441406,-2.70000004768372,-854.100036621094,-2.86814695473856,-0.031227632357039,0.0717233593584508,ST
0.766666666666667,-0.290697485208511,-0.697434723377228,9.66957950592041,0.0990860015153885,-0.152439996600151,0.129574000835419,-1116.30004882812,0.300000011920929,-873.300048828125,-2.86885479459782,-0.029767898469272,0.0718190658953415,ST
0.8,-0.276940196752548,-0.708201289176941,9.61813926696777,0.121951997280121,-0.243903994560242,0.175305992364883,-1109.10009765625,7.50000047683716,-873.300048828125,-2.86979325858766,-0.0283454791481894,0.0732371128712398,ST
0.833333333333333,-0.273351341485977,-0.695042133331299,9.65522384643555,0.0990860015153885,-0.205793991684914,0.25152599811554,-1123.5,-0.300000011920929,-863.700012207031,-2.87119836361304,-0.0279159507992933,0.0717187259120625,ST
0.866666666666667,-0.2613884806633,-0.706406831741333,9.63967227935791,0.129574000835419,-0.0609759986400604,0.320124000310898,-1113.90002441406,0.300000011920929,-866.100036621094,-2.87282555865836,-0.0269969844132736,0.0728766098074693,ST
0.9,-0.189013183116913,-0.717771589756012,9.54695987701416,0.152439996600151,-0.0609759986400604,0.289635986089706,-1109.10009765625,2.10000014305115,-875.700012207031,-2.87428533842704,-0.0198708068572737,0.074714119651122,ST
0.933333333333333,-0.305052906274796,-0.708201289176941,9.67197227478027,0.221037998795509,0.0152439996600151,0.236281991004944,-1109.10009765625,0.300000011920929,-863.700012207031,-2.87551902797415,-0.0311854377884682,0.072748492258719,ST
0.966666666666667,-0.302660346031189,-0.678892254829407,9.74255275726318,0.0990860015153885,-0.167683988809586,0.137196004390717,-1113.90002441406,8.70000076293945,-861.300048828125,-2.87644400546585,-0.0307141213211522,0.0694503336396241,ST
1.0,-0.282921612262726,-0.671116411685944,9.6402702331543,0.167683988809586,-0.297257989645004,0.3125019967556,-1092.30004882812,3.90000009536743,-866.100036621094,-2.87825063695618,-0.028828706209938,0.0691996167614034,ST
1.03333333333333,-0.196789041161537,-0.709397554397583,9.58942794799805,0.144817993044853,-0.121951997280121,0.358233988285065,-1106.70007324219,5.10000038146973,-863.700012207031,-2.88013891888449,-0.0204728375476973,0.0734856315997718,ST
1.06666666666667,-0.241649761795998,-0.683079302310944,9.63847541809082,0.152439996600151,0.0304879993200302,0.274392008781433,-1101.90002441406,3.30000019073486,-878.100036621094,-2.88159386029595,-0.0249647792796363,0.0705560294673083,ST
1.1,-0.311034351587296,-0.661546111106873,9.6342887878418,0.289635986089706,0.0076219998300075,0.274392008781433,-1111.5,6.30000019073486,-870.900024414062,-2.8831595398029,-0.0321119526443004,0.0680829900844328,ST
1.13333333333333,-0.323595345020294,-0.607713282108307,9.59780216217041,0.198172003030777,-0.106707997620106,0.282013982534409,-1123.5,8.10000038146973,-870.900024414062,-2.88487496730335,-0.0334524685239104,0.0629788578714828,ST
1.16666666666667,-0.362474650144577,-0.628648281097412,9.57925987243652,0.236281991004944,-0.198172003030777,0.434453994035721,-1118.70007324219,3.90000009536743,-858.900024414062,-2.88706997517199,-0.0373357445661173,0.0650333287796901,ST
1.2,-0.354698777198792,-0.604124426841736,9.67197227478027,0.137196004390717,-0.167683988809586,0.388722002506256,-1111.5,-0.300000011920929,-861.300048828125,-2.88921281941471,-0.0363626714359935,0.0621948770010475,ST
1.23333333333333,-0.369054228067398,-0.564048826694489,9.98779106140137,0.25152599811554,-0.426831990480423,0.403965979814529,-1104.30004882812,1.5,-880.500061035156,-2.89173592192304,-0.0361751116763854,0.0560772987381382,ST
1.26666666666667,-0.458177506923676,-0.491673529148102,9.63488674163818,0.602137982845306,-0.807931959629059,0.579271972179413,-1111.5,5.10000038146973,-870.900024414062,-2.89506207241779,-0.0458294271614166,0.0500552970580354,ST
1.3,-0.35110992193222,-0.844577848911285,8.99906063079834,0.0762199983000755,0.221037998795509,0.221037998795509,-1106.70007324219,0.300000011920929,-868.500061035156,-2.89437482462555,-0.0393643284538058,0.0926493608457766,ST
1.33333333333333,-0.992319166660309,-0.583189368247986,10.0332498550415,-0.25152599811554,0.754577994346619,-0.289635986089706,-1109.10009765625,-0.300000011920929,-858.900024414062,-2.89499248589062,-0.0980594691096495,0.0594874018561192,ST
1.36666666666667,-1.27045571804047,-0.498253107070923,9.58404445648193,0.0076219998300075,0.205793991684914,0.198172003030777,-1116.30004882812,9.30000019073486,-873.300048828125,-2.89679409902328,-0.131069076311051,0.0520937299490786,ST
1.4,-1.77349388599396,-0.250023752450943,9.10134315490723,0.0152439996600151,1.17378795146942,1.20427596569061,-1113.90002441406,0.300000011920929,-868.500061035156,-2.90664493016218,-0.192764142324447,0.0277415867235594,ST
1.43333333333333,-1.61917304992676,-0.457579374313354,9.76827239990234,0.144817993044853,1.55488801002502,2.01982998847961,-1097.10009765625,3.30000019073486,-868.500061035156,-2.91331723478682,-0.167657156739094,0.0454800063088615,ST
1.46666666666667,-1.02282452583313,-0.773398876190186,9.55832481384277,-0.0609759986400604,0.37347799539566,1.14329993724823,-1104.30004882812,2.70000004768372,-875.700012207031,-2.91437744462688,-0.108713621380852,0.0796736083382139,ST
1.5,-0.992319166660309,-1.06589078903198,9.42852783203125,-0.388722002506256,-0.472563982009888,-0.365855991840363,-1104.30004882812,10.5,-861.300048828125,-2.90949610905773,-0.103460750894687,0.112392026605336,ST
1.53333333333333,-0.982150733470917,-1.24652993679047,10.0607643127441,-0.274392008781433,-0.739333987236023,-1.35671591758728,-1104.30004882812,4.5,-858.900024414062,-2.9016351887256,-0.0951841269983573,0.123722093002542,ST
1.56666666666667,-0.851157426834106,-1.13527536392212,10.2162818908691,0.403965979814529,-1.80641400814056,-1.6768399477005,-1109.10009765625,6.30000019073486,-875.700012207031,-2.89484093229202,-0.0795371209219922,0.1104942770295,ST
1.6,-0.87986832857132,-0.82663357257843,10.3000221252441,1.44817996025085,-1.93598794937134,-0.967993974685669,-1106.70007324219,0.900000035762787,-858.900024414062,-2.89256653678647,-0.0813957323911628,0.0784514540834927,ST
1.63333333333333,-0.824241042137146,-0.581993103027344,10.099045753479,2.24086785316467,-0.975615978240967,0.198172003030777,-1121.10009765625,1.5,-873.300048828125,-2.89491230044025,-0.079669262512521,0.0542939741629362,ST
1.66666666666667,-0.815268874168396,-0.305651068687439,9.69709396362305,2.08842802047729,0.114329993724823,0.556405961513519,-1106.70007324219,2.70000004768372,-866.100036621094,-2.89897704517775,-0.0839453737772644,0.0285051803991317,ST
1.7,-1.17295837402344,-0.101684302091599,9.27001953125,1.16616594791412,0.967993974685669,0.503051996231079,-1113.90002441406,4.5,-868.500061035156,-2.90294247641867,-0.126651760426748,0.0092360092124853,ST
1.73333333333333,-1.71786665916443,0.296678900718689,9.61813926696777,0.342989981174469,1.38720393180847,0.556405961513519,-1113.90002441406,-5.70000028610229,-861.300048828125,-2.91165712573161,-0.177632444810052,-0.0304951392042726,ST
1.76666666666667,-1.59763991832733,0.10826388001442,9.48176193237305,-0.350611984729767,0.396344006061554,1.28049600124359,-1101.90002441406,5.70000028610229,-875.700012207031,-2.91531262861979,-0.16785327392716,-0.0117123825273525,ST
1.8,-1.48399269580841,-0.0813474431633949,9.54217529296875,-0.861285984516144,-0.495429992675781,1.15092194080353,-1097.10009765625,-3.30000019073486,-870.900024414062,-2.91857572488576,-0.153820751125585,0.0091307466583792,ST
1.83333333333333,-1.46903908252716,-0.296080768108368,9.55473613739014,-0.884151995182037,-0.693601965904236,1.00610399246216,-1106.70007324219,3.30000019073486,-873.300048828125,-2.92109282619565,-0.151393522281528,0.0316183194153317,ST
1.86666666666667,-1.83151376247406,-0.324193477630615,9.64445686340332,-0.716467976570129,-0.0762199983000755,0.87652999162674,-1121.10009765625,2.70000004768372,-880.500061035156,-2.92636456659634,-0.18692016709273,0.0345204192672854,ST
1.9,-2.11563158035278,-0.099889874458313,9.64744758605957,0.129574000835419,0.594515979290009,1.42531394958496,-1109.10009765625,0.900000035762787,-866.100036621094,-2.93894772689419,-0.216393310296932,0.0100409232468717,ST
1.93333333333333,-1.91704821586609,-0.221911042928696,9.02597713470459,0.541162014007568,1.05183601379395,1.57775402069092,-1097.10009765625,-1.5,-866.100036621094,-2.94377215256363,-0.211242324256735,0.0227456371224859,ST
1.96666666666667,-2.16408133506775,-0.19798532128334,9.13723182678223,0.304879993200302,1.89787793159485,0.259148001670837,-1111.5,0.900000035762787,-861.300048828125,-2.94493099161482,-0.235316416262236,0.0210772817557049,ST
2.0,-2.50442457199097,-0.181237325072289,9.41835880279541,0.243903994560242,2.40855193138123,-0.670735955238342,-1106.70007324219,-1.5,-875.700012207031,-2.94147178288853,-0.263247805805445,0.0192013720035908,ST
2.03333333333333,-2.89919900894165,-0.277538329362869,9.36452674865723,0.442075997591019,2.59910202026367,-1.46342396736145,-1099.5,6.90000009536743,-870.900024414062,-2.9298323173266,-0.303716657935595,0.0294694812192699,ST
2.06666666666667,-3.06847333908081,-0.456981241703033,9.07562351226807,0.693601965904236,2.69056582450867,-1.47866797447205,-1085.10009765625,3.90000009536743,-878.100036621094,-2.91462101730347,-0.329500034739653,0.0494883588993835,ST
2.1,-3.04514575004578,-0.87089616060257,9.01999568939209,0.685979962348938,2.77440786361694,-1.36433792114258,-1087.5,-2.70000004768372,-868.500061035156,-2.89106267904057,-0.328819589445974,0.0947582890523733,ST
2.13333333333333,-3.05351996421814,-0.942673325538635,9.11330604553223,0.6250039935112,2.32470989227295,-1.41006994247437,-1094.70007324219,-2.70000004768372,-866.100036621094,-2.879430690705,-0.325582191313461,0.10272756603009,ST
2.16666666666667,-3.06069755554199,-0.60950767993927,8.3219633102417,1.03659200668335,1.40244793891907,-0.381099998950958,-1075.5,-3.30000019073486,-875.700012207031,-2.88528038761755,-0.353187287547423,0.0724635983552153,ST
2.2,-3.08821225166321,-0.79074501991272,8.1191930770874,0.571649968624115,1.05945801734924,0.434453994035721,-1089.90002441406,-0.300000011920929,-868.500061035156,-2.87789599608202,-0.363522178395234,0.0952298153340912,ST
2.23333333333333,-2.67489528656006,-1.03777801990509,8.90754508972168,-0.182927995920181,-0.381099998950958,0.647870004177094,-1085.10009765625,-0.300000011920929,-870.900024414062,-2.87536950741301,-0.290683323587778,0.11557443399187,ST
2.26666666666667,-2.55407047271729,-1.17535090446472,8.53430366516113,-0.342989981174469,-1.72257196903229,0.541162014007568,-1075.5,2.70000004768372,-878.100036621094,-2.87393436728296,-0.285477109162627,0.136618441453791,ST
2.3,-2.77299070358276,-1.21542656421661,9.82210540771484,-0.0990860015153885,-1.28049600124359,1.06708002090454,-1068.30004882812,-3.30000019073486,-878.100036621094,-2.88388654700635,-0.271582337690876,0.123074241903432,ST
2.33333333333333,-2.36864614486694,-0.658555388450623,9.89208889007568,0.594515979290009,-1.45580196380615,0.922261953353882,-1085.10009765625,3.90000009536743,-887.700012207031,-2.90248352911337,-0.233189839420054,0.0665758274394122,ST
2.36666666666667,-2.57620167732239,-0.445616513490677,9.59002590179443,1.28049600124359,-1.34147191047668,2.13416004180908,-1089.90002441406,1.5,-878.100036621094,-2.91832357101377,-0.259515372484583,0.043612546273402,ST
2.4,-2.22210121154785,-0.174657747149467,11.2349195480347,0.701223969459534,-1.86738991737366,1.95123195648193,-1082.70007324219,-3.90000009536743,-870.900024414062,-2.93481467761736,-0.193440091612331,0.0142389476571782,ST
2.43333333333333,-1.24533367156982,0.0203368607908487,9.54337120056152,0.442075997591019,-3.18599581718445,1.47866797447205,-1099.5,3.30000019073486,-880.500061035156,-2.94548714776768,-0.125442351533738,-0.0029273889045209,ST
2.46666666666667,-1.36197149753571,0.40853163599968,9.74494552612305,0.198172003030777,-2.82776188850403,0.358233988285065,-1087.5,3.90000009536743,-866.100036621094,-2.95186204827087,-0.133637949426577,-0.041589252369901,ST
2.5,-0.66932201385498,-0.0490477234125137,9.94891166687012,-0.0,-2.18751406669617,0.304879993200302,-1097.10009765625,3.90000009536743,-868.500061035156,-2.94882729512062,-0.0652726176226966,0.0036331963483,ST
2.53333333333333,-0.771604418754578,0.125011876225471,9.73956203460693,-0.381099998950958,-2.25611186027527,-0.365855991840363,-1106.70007324219,0.900000035762787,-873.300048828125,-2.94806920389777,-0.0748535956961996,-0.0116896010884025,ST
2.56666666666667,-0.697434723377228,0.0418700091540813,9.81433010101318,0.0228659994900227,-1.42531394958496,0.388722002506256,-1106.70007324219,2.10000014305115,-851.700012207031,-2.94968363064223,-0.0685673400173116,-0.0044843929500957,ST
2.6,-0.52636581659317,-0.136376604437828,9.90764045715332,-0.350611984729767,-0.983237981796265,-0.0762199983000755,-1113.90002441406,0.300000011920929,-880.500061035156,-2.94831001856418,-0.0517114990415739,0.0139912845565232,ST
2.63333333333333,-0.741099119186401,0.150133892893791,9.46262168884277,-0.129574000835419,-0.327746003866196,-0.0914639979600906,-1099.5,0.300000011920929,-868.500061035156,-2.94972475507562,-0.0768762681039955,-0.0148183108019029,ST
2.66666666666667,-0.902597725391388,-0.154320880770683,10.0416240692139,0.0533539988100529,0.937505960464478,0.144817993044853,-1099.5,-0.300000011920929,-873.300048828125,-2.94797149804326,-0.0908827880624595,0.0144339884320835,ST
2.7,-0.987534046173096,-0.080151155591011,9.5152587890625,0.106707997620106,0.78506600856781,-0.114329993724823,-1109.10009765625,1.5,-863.700012207031,-2.94787048691752,-0.104400707736058,0.0084270705280147,ST
2.73333333333333,-0.881064593791962,-0.473131090402603,8.9715461730957,-0.327746003866196,1.19665396213531,0.190549999475479,-1101.90002441406,6.90000009536743,-868.500061035156,-2.94435993517245,-0.0999563349799898,0.0523097656054526,ST
2.76666666666667,-0.974374890327454,-0.590965270996094,8.84952545166016,-0.92988395690918,1.02897000312805,-0.228659987449646,-1104.30004882812,0.900000035762787,-870.900024414062,-2.94165130830617,-0.110954129420342,0.0680278369886566,ST
2.8,-0.872690618038177,-0.96659904718399,8.61146450042725,-0.983237981796265,1.37958192825317,0.0914639979600906,-1092.30004882812,-4.5,-873.300048828125,-2.9372134250364,-0.102952098847513,0.112563840293742,ST
2.83333333333333,-1.40384149551392,-1.29438138008118,9.62770938873291,-0.792688012123108,2.20275783538818,0.152439996600151,-1097.10009765625,3.90000009536743,-870.900024414062,-2.93437490554918,-0.146156427772924,0.134446845473634,ST
2.86666666666667,-1.746577501297,-1.18551933765411,10.5853357315063,-0.0609759986400604,2.57623600959778,-0.0990860015153885,-1094.70007324219,3.30000019073486,-875.700012207031,-2.93574516473031,-0.166482123118681,0.112291353640412,ST
2.9,-1.8847484588623,-0.903794050216675,10.0739240646362,1.265251994133,1.43293595314026,0.0762199983000755,-1094.70007324219,1.5,-878.100036621094,-2.93849926788665,-0.18625290751899,0.0878812329540109,ST
2.93333333333333,-1.73401641845703,-0.659153580665588,10.058970451355,1.69970595836639,0.221037998795509,0.106707997620106,-1075.5,-0.300000011920929,-858.900024414062,-2.94180476719579,-0.171115475823021,0.0630445787727093,ST
2.96666666666667,-0.665733098983765,-0.718967854976654,9.07442665100098,0.78506600856781,-2.40855193138123,-0.792688012123108,-1085.10009765625,2.10000014305115,-882.900024414062,-2.93626856224672,-0.0708320953658594,0.0774795694142427,ST
3.0,-0.708201289176941,-0.388792932033539,9.48654747009277,-0.144817993044853,-3.88721990585327,-1.28049600124359,-1087.5,6.30000019073486,-875.700012207031,-2.93287819250139,-0.0676432044879168,0.0420947296007601,ST
3.03333333333333,-0.677695989608765,-0.15312460064888,9.75930118560791,0.243903994560242,-3.7881338596344,-0.282013982534409,-1101.90002441406,-0.300000011920929,-875.700012207031,-2.93347912751727,-0.0628198211245048,0.0159246341318617,ST
3.06666666666667,-0.258995920419693,-0.308641761541367,9.08399772644043,0.434453994035721,-2.45428395271301,0.236281991004944,-1104.30004882812,3.90000009536743,-863.700012207031,-2.93427642516497,-0.0251362776556282,0.0327797574952659,ST
3.1,-1.29617583751678,-0.770408153533936,10.5530366897583,0.548784017562866,1.08994603157043,-0.106707997620106,-1097.10009765625,-0.900000035762787,-870.900024414062,-2.92746422755006,-0.123775689278247,0.0719567045357864,ST
3.13333333333333,-1.59524726867676,-0.108862020075321,10.1648416519165,0.716467976570129,-1.00610399246216,-1.33385002613068,-1092.30004882812,-5.10000038146973,-873.300048828125,-2.92283649943566,-0.153872106195395,0.0098330435834246,ST
3.16666666666667,-1.1657806634903,-0.443822085857391,9.40699481964111,0.419209986925125,-0.731711983680725,-0.274392008781433,-1109.10009765625,4.5,-866.100036621094,-2.91635569380866,-0.122741140969237,0.0454745604841905,ST
3.2,-1.35957896709442,-0.428270369768143,9.55832481384277,0.0457319989800453,-0.663114011287689,-0.228659987449646,-1099.5,8.10000038146973,-878.100036621094,-2.91539655461625,-0.139509681973698,0.0447643293593412,ST
3.23333333333333,-1.57191967964172,-0.893625617027283,8.98709774017334,-0.655492007732391,-0.0990860015153885,0.655492007732391,-1109.10009765625,5.10000038146973,-875.700012207031,-2.91099807497121,-0.171373004923029,0.098543312599342,ST
3.26666666666667,-1.88235592842102,-0.962412059307098,9.85021877288818,-1.21189796924591,0.289635986089706,1.19665396213531,-1099.5,-0.900000035762787,-863.700012207031,-2.91839297174661,-0.188299159477112,0.0991153547484546,ST
3.3,-1.96609592437744,-0.917551338672638,10.0721292495728,-0.243903994560242,-0.0609759986400604,2.01982998847961,-1101.90002441406,-0.900000035762787,-870.900024414062,-2.93046411146238,-0.192111946048566,0.0908216783092101,ST
3.33333333333333,-1.57730305194855,-0.807493031024933,10.4160614013672,1.15854394435883,-1.09756803512573,2.10367202758789,-1097.10009765625,-2.10000014305115,-868.500061035156,-2.94332128048393,-0.149411491328835,0.0751937269077088,ST
3.36666666666667,-1.44152450561523,-0.51739364862442,9.45245361328125,1.82165801525116,-1.53964400291443,1.94360995292664,-1099.5,0.900000035762787,-870.900024414062,-2.95667617457409,-0.14862600583002,0.0514094601775038,ST
3.4,-1.4361412525177,-0.0885251611471176,9.67137336730957,1.30336201190948,-1.03659200668335,1.6844619512558,-1116.30004882812,-4.5,-863.700012207031,-2.97161193249029,-0.145688888201357,0.0072538883856156,ST
3.43333333333333,-1.54320883750916,0.236864611506462,9.85799407958984,1.04421401023865,-1.32622802257538,1.81403601169586,-1111.5,0.300000011920929,-870.900024414062,-2.98538297243126,-0.152705843103562,-0.0256260099425473,ST
3.46666666666667,-1.13407909870148,0.379222631454468,9.22934627532959,0.967993974685669,-1.12043392658234,2.04269599914551,-1111.5,3.90000009536743,-870.900024414062,-2.99733334668416,-0.120951161201127,-0.042712789775107,ST
3.5,-0.917551338672638,0.339745193719864,8.49422836303711,0.731711983680725,-0.442075997591019,1.57775402069092,-1121.10009765625,-5.10000038146973,-863.700012207031,-3.00480787406498,-0.107022067792249,-0.0415803639825853,ST
3.53333333333333,-1.28241848945618,0.41451308131218,9.42792987823486,0.510673999786377,0.350611984729767,0.92988395690918,-1116.30004882812,-9.30000019073486,-858.900024414062,-3.0097383804566,-0.134825914466264,-0.044954297639369,ST
3.56666666666667,-1.5503865480423,0.365465342998505,9.20841121673584,0.78506600856781,0.243903994560242,0.236281991004944,-1109.10009765625,7.50000047683716,-873.300048828125,-3.00980471797512,-0.166203967170734,-0.0412144332659951,ST
3.6,-1.45707631111145,0.382811486721039,9.08997917175293,0.419209986925125,0.670735955238342,-0.144817993044853,-1113.90002441406,-3.30000019073486,-863.700012207031,-3.00902440949675,-0.160096707366704,-0.0427590742514128,ST
3.63333333333333,-1.84287846088409,0.206359326839447,9.44707012176514,0.320124000310898,1.54726600646973,0.411587983369827,-1118.70007324219,-0.300000011920929,-875.700012207031,-3.00772386308707,-0.1946589244868,-0.0229173547706283,ST
3.66666666666667,-1.52107763290405,-0.113647162914276,8.3871603012085,-0.548784017562866,1.41006994247437,0.221037998795509,-1104.30004882812,3.30000019073486,-868.500061035156,-3.00260138834117,-0.182124701898309,0.0136697253873401,ST
3.7,-2.00557327270508,-0.0472532957792282,10.3036108016968,-0.289635986089706,1.34147191047668,0.3125019967556,-1101.90002441406,-0.900000035762787,-863.700012207031,-3.00612559545337,-0.194328418138355,0.0051673350170903,ST
3.73333333333333,-1.46664655208588,-0.23925718665123,9.11450290679932,-0.480185985565186,-0.0762199983000755,-0.342989981174469,-1097.10009765625,-2.70000004768372,-863.700012207031,-3.0008727514243,-0.159974861642791,0.026785470648837,ST
3.76666666666667,-1.5964435338974,0.001794428913854,10.2527685165405,-0.0990860015153885,-0.647870004177094,-0.87652999162674,-1111.5,-3.30000019073486,-875.700012207031,-3.00052538868798,-0.1535147086006,0.0009571779079978,ST
3.8,-1.29198884963989,0.0089721446856856,9.63907432556152,0.632625997066498,-1.05183601379395,-1.2347639799118,-1099.5,-1.5,-887.700012207031,-2.99389825749751,-0.131934896475872,-0.0016801677871292,ST
3.83333333333333,-0.637620389461517,-0.160302311182022,8.84713268280029,-0.0457319989800453,-0.800309956073761,-1.53964400291443,-1099.5,6.90000009536743,-880.500061035156,-2.9835437858398,-0.0717676027672674,0.0179883057052906,ST
3.86666666666667,-1.07486295700073,0.07656230032444,9.47458457946777,-0.724089980125427,-0.396344006061554,-1.6692179441452,-1121.10009765625,-2.10000014305115,-875.700012207031,-2.97748280244014,-0.111177814233536,-0.0058322959408725,ST
3.9,-0.330773055553436,-0.145946890115738,9.15278339385986,-0.556405961513519,-1.04421401023865,-0.716467976570129,-1104.30004882812,-1.5,-880.500061035156,-2.97236226425614,-0.0363730606682056,0.0163511537463524,ST
3.93333333333333,-0.208153754472733,-0.406737208366394,8.52054691314697,-1.09756803512573,-0.891773998737335,-0.640248000621796,-1104.30004882812,-2.10000014305115,-873.300048828125,-2.96841694585931,-0.0231612754238548,0.0487355133036663,ST
3.96666666666667,-0.230285048484802,-0.671116411685944,9.45065879821777,-1.40244793891907,-0.0990860015153885,-0.617381989955902,-1109.10009765625,-0.300000011920929,-866.100036621094,-2.96486507883264,-0.024028741090301,0.0726966928149144,ST
4.0,-0.744089841842651,-0.934897482395172,10.075119972229,-1.35671591758728,-0.365855991840363,-0.46494197845459,-1111.5,0.300000011920929,-878.100036621094,-2.96200050797084,-0.0713708797806048,0.0943399029854562,ST
4.03333333333333,-0.781174719333649,-0.815268874168396,11.0465040206909,-0.426831990480423,-0.350611984729767,0.0990860015153885,-1116.30004882812,0.900000035762787,-880.500061035156,-2.96421086309821,-0.0698492093956403,0.0748733108100824,ST
4.06666666666667,-1.22260427474976,-0.330773055553436,10.8790245056152,0.922261953353882,-0.586893975734711,0.807931959629059,-1104.30004882812,3.30000019073486,-873.300048828125,-2.97207861771065,-0.109771299585909,0.0298964215759209,ST
4.1,-0.721958577632904,-0.354698777198792,9.93336009979248,1.56251001358032,-0.320124000310898,1.58537602424622,-1111.5,0.300000011920929,-870.900024414062,-2.97937887337639,-0.0730651026088429,0.032675281588669,ST
4.13333333333333,-0.699229121208191,-0.753062009811401,9.33222675323486,0.243903994560242,-0.0609759986400604,1.05945801734924,-1099.5,-1.5,-873.300048828125,-2.9813794392517,-0.0745376834027974,0.0786695073455567,ST
4.16666666666667,-0.764426708221436,-0.75545459985733,9.92797660827637,-0.297257989645004,-0.175305992364883,0.480185985565186,-1106.70007324219,-0.900000035762787,-870.900024414062,-2.98428806674279,-0.0763402143895544,0.0764543468265944,ST
4.2,-0.679490387439728,-0.836203873157501,9.6342887878418,-0.403965979814529,-0.739333987236023,-0.182927995920181,-1104.30004882812,-0.300000011920929,-882.900024414062,-2.98304839999001,-0.0690401356981356,0.0870022265649609,ST
4.23333333333333,-1.00787091255188,-0.631040811538696,9.62172794342041,0.129574000835419,-0.564027965068817,-0.0685980021953583,-1113.90002441406,2.70000004768372,-873.300048828125,-2.98465258326985,-0.102228811930883,0.0658641619250447,ST
4.26666666666667,-1.04734838008881,-0.572422802448273,9.84184455871582,0.670735955238342,-0.358233988285065,0.472563982009888,-1101.90002441406,0.900000035762787,-870.900024414062,-2.98774217243096,-0.105182404344963,0.0570812211085845,ST
4.3,-0.95463615655899,-0.473131090402603,10.2994241714478,0.25152599811554,-0.846041977405548,-0.213415995240211,-1111.5,0.900000035762787,-863.700012207031,-2.98775526922459,-0.0910936094187432,0.0457029737079559,ST
4.33333333333333,-1.09819054603577,-0.215331465005875,9.4787712097168,0.213415995240211,-1.30336201190948,-0.152439996600151,-1118.70007324219,6.30000019073486,-868.500061035156,-2.98936121598679,-0.112437245047099,0.0230012667841503,ST
4.36666666666667,-0.984543323516846,-0.282921612262726,10.1965436935425,-0.167683988809586,-0.830797970294952,0.0381099991500378,-1104.30004882812,-0.300000011920929,-858.900024414062,-2.98928354054256,-0.0950919693082165,0.0279317557703114,ST
4.4,-0.982748925685883,-0.245238617062569,9.07741737365723,-0.175305992364883,-0.556405961513519,-0.175305992364883,-1109.10009765625,3.90000009536743,-882.900024414062,-2.988609770349,-0.106505648758227,0.0273613567011979,ST
4.43333333333333,-1.36316788196564,-0.677097856998444,9.17431735992432,-0.358233988285065,1.6615959405899,0.236281991004944,-1113.90002441406,2.70000004768372,-866.100036621094,-2.98378254700601,-0.149354842716364,0.0735281680117767,ST
4.46666666666667,-1.6544634103775,-0.941477060317993,8.81483268737793,-0.472563982009888,2.33995389938354,0.426831990480423,-1106.70007324219,1.5,-878.100036621094,-2.97974571848255,-0.187578549853729,0.106249139099737,ST
4.5,-1.79084002971649,-1.3320643901825,9.46979999542236,-0.87652999162674,2.28659987449646,0.388722002506256,-1111.5,1.5,-878.100036621094,-2.97474401443531,-0.189145888098225,0.140707724108145,ST
4.53333333333333,-1.98523652553558,-1.27045571804047,9.53559494018555,-0.746955990791321,1.34909391403198,0.411587983369827,-1111.5,2.10000014305115,-878.100036621094,-2.9781261848687,-0.205593883653277,0.133820324019831,ST
4.56666666666667,-1.9068797826767,-1.3841028213501,8.99666881561279,-0.0304879993200302,0.221037998795509,1.29574000835419,-1104.30004882812,-0.300000011920929,-875.700012207031,-2.98100565360338,-0.207185175058858,0.151807224624825,ST
4.6,-2.27234506607056,-1.17953789234161,9.82210540771484,-0.381099998950958,0.640248000621796,1.53964400291443,-1104.30004882812,-0.900000035762787,-863.700012207031,-2.99600025942073,-0.226809415485016,0.120272945226788,ST
4.63333333333333,-1.81297135353088,-0.919943869113922,8.89498424530029,0.236281991004944,0.129574000835419,1.94360995292664,-1089.90002441406,2.10000014305115,-878.100036621094,-3.00925811382001,-0.201318270740053,0.102447759709347,ST
4.66666666666667,-1.51569426059723,-0.814670741558075,8.88242340087891,-0.121951997280121,0.274392008781433,1.6615959405899,-1104.30004882812,0.300000011920929,-875.700012207031,-3.01969785535744,-0.169941488983553,0.0914822267304431,ST
4.7,-1.85603761672974,-0.485692083835602,9.98838901519775,0.396344006061554,-0.144817993044853,1.81403601169586,-1099.5,-0.300000011920929,-866.100036621094,-3.03615811073852,-0.183064209975379,0.0485171226977205,ST
4.73333333333333,-1.6323322057724,-0.584983825683594,9.35555458068848,0.6250039935112,-0.518296003341675,2.13416004180908,-1099.5,6.90000009536743,-875.700012207031,-3.04452482412372,-0.172035251772168,0.060365557046184,ST
4.76666666666667,-1.19209897518158,-0.709397554397583,9.7658805847168,0.792688012123108,-0.975615978240967,2.16464805603027,-1097.10009765625,10.5,-878.100036621094,-3.05393072948938,-0.121138790327972,0.0703606300814477,ST
4.8,-1.03897428512573,-0.680088579654694,9.72042179107666,1.18140995502472,-1.2347639799118,1.86738991737366,-1097.10009765625,3.30000019073486,-878.100036621094,-3.06361447525591,-0.104752822636136,0.0675061305521324,ST
4.83333333333333,-0.745286166667938,-0.507823407649994,9.29873085021973,1.28049600124359,-0.861285984516144,1.39482593536377,-1104.30004882812,0.900000035762787,-858.900024414062,-3.07185682629553,-0.0792048831122363,0.0525356079600649,ST
4.86666666666667,-0.827231705188751,-0.619077980518341,8.89737701416016,1.13567793369293,-0.564027965068817,1.37958192825317,-1097.10009765625,-3.30000019073486,-878.100036621094,-3.07741394958816,-0.0913229391032433,0.0668610071564336,ST
4.9,-0.292491912841797,-1.15441596508026,9.57686710357666,0.25152599811554,-1.61586391925812,0.922261953353882,-1111.5,-6.90000009536743,-866.100036621094,-3.07986542989214,-0.029428327833605,0.118029668128695,ST
4.93333333333333,-0.0275145769119263,-1.07546103000641,8.98051834106445,-0.777444005012512,-3.52136397361755,-0.335367977619171,-1106.70007324219,-2.10000014305115,-866.100036621094,-3.08033058863903,0.0023559791852855,0.120484742856183,ST
4.96666666666667,-0.781174719333649,-0.473131090402603,9.19106483459473,-0.503051996231079,-3.00306797027588,0.693601965904236,-1118.70007324219,9.90000057220459,-863.700012207031,-3.08770037815066,-0.077292748833397,0.0540802326742078,ST
5.0,-0.741099119186401,-0.10527316480875,9.5744743347168,0.213415995240211,-1.63110792636871,2.62959003448486,-1109.10009765625,-0.300000011920929,-875.700012207031,-3.10464487532897,-0.0745493873641448,0.0114676482598571,ST
5.03333333333333,-1.03777801990509,-0.256005197763443,10.210898399353,-1.82165801525116,-1.10518991947174,3.61282801628113,-1109.10009765625,3.90000009536743,-866.100036621094,-3.12291841954057,-0.0988095915025497,0.0271915161530876,ST
5.06666666666667,-0.967795312404633,0.0807493031024933,12.0035333633423,-2.46952795982361,-1.61586391925812,3.30794787406921,-1118.70007324219,9.30000019073486,-854.100036621094,3.1394558516856,-0.0782135476453232,-0.0020639663558605,ST
5.1,-0.313426911830902,-0.152526453137398,10.7994709014893,-0.868907988071442,-0.868907988071442,3.20123982429504,-1113.90002441406,12.3000001907349,-858.900024414062,3.12253513437688,-0.0286204949617439,0.0150930874776908,ST
5.13333333333333,-0.596348524093628,-0.858933329582214,10.0595684051514,-0.0990860015153885,0.647870004177094,1.31098401546478,-1121.10009765625,6.90000009536743,-866.100036621094,3.11839286831301,-0.0597364037768847,0.0839590191245814,ST
5.16666666666667,-1.63352847099304,-0.732127010822296,11.0124101638794,-0.144817993044853,2.17227005958557,0.205793991684914,-1116.30004882812,6.90000009536743,-858.900024414062,3.11625746320775,-0.148862299566322,0.0669875730752656,ST
5.2,-2.00138640403748,-0.665733098983765,9.96207141876221,0.762199997901917,2.00458598136902,0.884151995182037,-1104.30004882812,8.10000038146973,-870.900024414062,3.11284233977569,-0.199993350562085,0.0651888146198385,ST
5.23333333333333,-1.48518896102905,-0.503038227558136,9.49910831451416,1.17378795146942,1.34909391403198,1.18903195858002,-1113.90002441406,2.70000004768372,-870.900024414062,3.10505222894332,-0.158007287117815,0.0507708553867358,ST
5.26666666666667,-1.0634982585907,-0.0137572884559631,9.38905048370361,1.41769194602966,0.594515979290009,1.50915598869324,-1113.90002441406,6.90000009536743,-875.700012207031,3.0913830097562,-0.115046422707019,8.64987739703348e-05,ST
5.3,-0.652574002742767,0.225499898195267,8.80885124206543,1.12805593013763,0.0533539988100529,1.38720393180847,-1116.30004882812,7.50000047683716,-861.300048828125,3.08215512880963,-0.0750756044210424,-0.0269989798605191,ST
5.33333333333333,-0.465355217456818,0.479112505912781,8.61146450042725,0.647870004177094,-0.160062000155449,0.510673999786377,-1116.30004882812,11.7000007629395,-873.300048828125,3.07788829095117,-0.0541628406364002,-0.0559505265179725,ST
5.36666666666667,-0.488682806491852,0.286510497331619,9.38247108459473,0.0914639979600906,0.579271972179413,-0.769822001457214,-1104.30004882812,6.30000019073486,-866.100036621094,3.08322295244885,-0.0530953487742523,-0.0312190974695666,ST
5.4,-0.427074074745178,0.240453481674194,8.81423473358154,-0.0304879993200302,0.800309956073761,-1.58537602424622,-1123.5,2.70000004768372,-878.100036621094,3.09150821989955,-0.0499572931436934,-0.0271954127227315,ST
5.43333333333333,-0.941477060317993,0.345128506422043,8.86328220367432,0.243903994560242,1.29574000835419,-2.25611186027527,-1101.90002441406,-0.300000011920929,-878.100036621094,3.10213506239427,-0.10656926255539,-0.038634070039199,ST
5.46666666666667,-1.18791198730469,0.380418926477432,9.88909816741943,0.853663980960846,0.87652999162674,-2.22562384605408,-1099.5,8.10000038146973,-868.500061035156,3.11382893019036,-0.12074796252777,-0.0394582032545348,ST
5.5,-0.77579140663147,0.152526453137398,9.7778434753418,0.945127964019775,0.0304879993200302,-2.08842802047729,-1099.5,8.70000076293945,-863.700012207031,3.12725504383625,-0.0804206386818413,-0.0175489187789771,ST
5.53333333333333,-0.378624498844147,0.235070183873177,9.50030517578125,0.647870004177094,-1.18903195858002,-2.66770005226135,-1109.10009765625,5.70000028610229,-866.100036621094,3.14090499047802,-0.0390189158233592,-0.0254455611522844,ST
5.56666666666667,-0.471934795379639,0.249425619840622,9.48176193237305,0.3125019967556,-0.891773998737335,-2.76678586006165,-1109.10009765625,10.5,-861.300048828125,-3.12693301412458,-0.04809469784235,-0.0265903118976461,ST
5.6,-1.03538548946381,-0.315221339464188,10.3729953765869,0.114329993724823,0.198172003030777,-1.77592599391937,-1116.30004882812,12.3000001907349,-866.100036621094,-3.11363361440553,-0.0983123110527904,0.0289099434778008,ST
5.63333333333333,-0.795530140399933,-0.267968058586121,9.97044563293457,0.175305992364883,0.3125019967556,-1.21951997280121,-1099.5,0.300000011920929,-878.100036621094,-3.10682266804857,-0.0804078383608181,0.0267784403431554,ST
5.66666666666667,-0.504832684993744,-0.209948182106018,9.12766170501709,0.487807989120483,0.442075997591019,-0.945127964019775,-1101.90002441406,2.10000014305115,-875.700012207031,-3.10156128150127,-0.05641134602227,0.0223247532284624,ST
5.7,-1.22918379306793,-0.523973226547241,10.5679903030396,0.449698001146317,0.647870004177094,-0.800309956073761,-1111.5,2.70000004768372,-873.300048828125,-3.09485852615975,-0.115076173726356,0.0481864432335249,ST
5.73333333333333,-0.909177303314209,-0.800315320491791,10.1929540634155,-0.518296003341675,0.266770005226135,-1.2576299905777,-1099.5,0.900000035762787,-873.300048828125,-3.08483953612551,-0.0894570389286279,0.0789022060668493,ST
5.76666666666667,-2.16228675842285,0.0502440109848976,10.018895149231,0.0152439996600151,1.05945801734924,-1.50915598869324,-1097.10009765625,2.10000014305115,-875.700012207031,-3.08863088572616,-0.21215401582477,-0.0029549634146734,ST
5.8,-2.25679349899292,-0.178844749927521,10.1941509246826,1.92836594581604,2.5152599811554,-0.503051996231079,-1085.10009765625,2.70000004768372,-880.500061035156,-3.07984676476,-0.222008046830638,0.0140302415716591,ST
5.83333333333333,-1.96609592437744,-0.442027658224106,10.2611427307129,1.81403601169586,2.58385801315308,-0.975615978240967,-1085.10009765625,2.10000014305115,-875.700012207031,-3.06683488457902,-0.194175462208597,0.0397239792034672,ST
5.86666666666667,-1.77528834342957,-0.171667039394379,8.46073246002197,1.2423859834671,1.37958192825317,-2.0731840133667,-1092.30004882812,-6.30000019073486,-880.500061035156,-3.05888318277879,-0.208708788988031,0.019457860329572,ST
5.9,-2.03248977661133,-0.518589973449707,9.04691219329834,0.297257989645004,1.17378795146942,-2.37806391716003,-1089.90002441406,0.900000035762787,-880.500061035156,-3.03666827431882,-0.222248278618795,0.0570997948635337,ST
5.93333333333333,-1.87158930301666,-0.699827253818512,8.72032642364502,-0.350611984729767,-0.541162014007568,-2.40092992782593,-1082.70007324219,-5.70000028610229,-866.100036621094,-3.01965457720457,-0.209791536741034,0.0809907581935573,ST
5.96666666666667,-1.86979496479034,-0.866111040115356,8.88541412353516,-0.320124000310898,-0.403965979814529,-1.47866797447205,-1070.70007324219,0.300000011920929,-878.100036621094,-3.00903072039008,-0.205609598394434,0.0978399591594966,ST
6.0,-1.91106677055359,-0.992319166660309,9.31488037109375,-0.190549999475479,0.365855991840363,-0.434453994035721,-1077.90002441406,5.10000038146973,-875.700012207031,-3.00496863068302,-0.201880772220172,0.106449301295447,ST
6.03333333333333,-1.64070618152618,-1.03478729724884,9.7479362487793,-0.0076219998300075,0.335367977619171,-0.0914639979600906,-1075.5,0.900000035762787,-875.700012207031,-3.00438837703086,-0.167040070747203,0.105821306704541,ST
6.06666666666667,-1.7525589466095,-0.898410737514496,9.37948036193848,0.205793991684914,0.0457319989800453,0.0152439996600151,-1082.70007324219,-0.300000011920929,-878.100036621094,-3.00606706119451,-0.183518984272951,0.0954225331613447,ST
6.1,-1.7483719587326,-0.986337780952454,9.52542686462402,0.221037998795509,-0.289635986089706,0.457319974899292,-1077.90002441406,1.5,-878.100036621094,-3.00705833874317,-0.180252620292347,0.102443729644029,ST
6.13333333333333,-2.07735061645508,-0.978561878204346,9.88790130615234,0.297257989645004,-0.396344006061554,1.02134799957275,-1082.70007324219,3.30000019073486,-873.300048828125,-3.01362013199699,-0.20519028005515,0.0978191342559298,ST
6.16666666666667,-1.3440272808075,-1.17295837402344,10.1361303329468,0.365855991840363,-1.93598794937134,1.60061991214752,-1070.70007324219,1.5,-870.900024414062,-3.02071248354637,-0.129315500553833,0.113852030397756,ST
6.2,-0.373839348554611,-1.43075799942017,8.51456546783447,-0.228659987449646,-3.39178991317749,1.08994603157043,-1080.30004882812,0.300000011920929,-870.900024414062,-3.02461672571216,-0.0402320937264419,0.165313316767961,ST
6.23333333333333,-0.586778283119202,-1.28421294689178,10.2731056213379,-0.205793991684914,-2.9420919418335,0.533540010452271,-1092.30004882812,-2.70000004768372,-868.500061035156,-3.03130923693798,-0.051335796231018,0.12575060363312,ST
6.26666666666667,-0.593357801437378,-1.05273163318634,9.04451942443848,0.198172003030777,-2.62959003448486,0.396344006061554,-1092.30004882812,2.10000014305115,-868.500061035156,-3.03545889447347,-0.0603426529778376,0.11573499255399,ST
6.3,-1.24174475669861,-0.766221165657043,9.1450080871582,0.716467976570129,-0.846041977405548,1.05945801734924,-1099.5,2.10000014305115,-866.100036621094,-3.04402835274505,-0.131199376151727,0.0830189633332099,ST
6.33333333333333,-1.66164112091064,-0.359483927488327,10.3771820068359,1.63110792636871,-0.457319974899292,2.01982998847961,-1092.30004882812,1.5,-866.100036621094,-3.06047005460909,-0.157292423317285,0.0326416802697168,ST
6.36666666666667,-0.885849714279175,-0.190807610750198,10.0942611694336,1.90549993515015,-1.83690190315247,2.27897787094116,-1106.70007324219,-3.90000009536743,-868.500061035156,-3.0744221574844,-0.0856940279823542,0.0155197847947474,ST
6.4,-1.47561872005463,0.483897656202316,10.0296611785889,1.38720393180847,-1.80641400814056,2.66007804870605,-1101.90002441406,-1.5,-858.900024414062,-3.09549052276254,-0.141530110672229,-0.0500383314035874,ST
6.43333333333333,-1.03179657459259,0.894821882247925,10.9675493240356,1.41769194602966,-0.221037998795509,4.13874578475952,-1099.5,-0.300000011920929,-873.300048828125,-3.12171992226482,-0.0934044767121985,-0.0839601746370919,ST
6.46666666666667,-0.757248997688293,0.739304721355438,9.44647216796875,0.891773998737335,-0.0685980021953583,4.1997218132019,-1104.30004882812,3.90000009536743,-873.300048828125,3.14057176304903,-0.0794286632112661,-0.0803510580381874,ST
6.5,-0.795530140399933,0.422887086868286,9.36392784118652,-0.670735955238342,1.01372599601746,3.19361782073975,-1111.5,3.30000019073486,-861.300048828125,3.12488347713843,-0.0860479468278076,-0.0450913899355692,ST
6.53333333333333,-1.03777801990509,0.675303399562836,8.66410064697266,-0.739333987236023,1.51677799224854,1.95885396003723,-1106.70007324219,-5.70000028610229,-870.900024414062,3.10998444112495,-0.120514892409608,-0.0762597955080875,ST
6.56666666666667,-0.837400138378143,0.562254369258881,9.24908447265625,0.525918006896973,1.54726600646973,1.6768399477005,-1106.70007324219,5.10000038146973,-868.500061035156,3.10259113456385,-0.0933948196798432,-0.0623192764651975,ST
6.6,-0.913364291191101,0.696238398551941,9.19644832611084,1.00610399246216,0.571649968624115,-0.175305992364883,-1099.5,5.10000038146973,-854.100036621094,3.10244758344298,-0.0995987396612708,-0.0769860022435016,ST
6.63333333333333,-1.04854464530945,0.640012979507446,9.42075157165527,0.899396002292633,0.0914639979600906,-0.426831990480423,-1092.30004882812,0.900000035762787,-866.100036621094,3.1058882905106,-0.110499593403907,-0.069530613855109,ST
6.66666666666667,-0.256603330373764,0.0968991592526436,9.11988544464111,-0.990859985351562,-1.62348592281342,-1.28049600124359,-1099.5,2.10000014305115,-866.100036621094,3.12995852583985,-0.0253140243259536,-0.0088378995413063,ST
6.7,-0.190209463238716,-0.119030453264713,9.52482891082764,-1.41006994247437,-0.548784017562866,-1.11281192302704,-1104.30004882812,-0.900000035762787,-873.300048828125,3.13606666104769,-0.0191568473053382,0.0143470130244512,ST
6.73333333333333,-0.183031752705574,-0.449803501367569,10.3233499526978,-1.09756803512573,-0.411587983369827,-0.731711983680725,-1101.90002441406,-0.900000035762787,-863.700012207031,3.14022859623977,-0.0170008616641289,0.0446338563561646,ST
6.76666666666667,-0.851755619049072,-0.532945394515991,10.9974565505981,-0.342989981174469,-0.289635986089706,-0.663114011287689,-1099.5,-0.300000011920929,-873.300048828125,-3.13950143451019,-0.075020931728357,0.0489788660071324,ST
6.8,-0.224303618073463,-0.29009935259819,8.78313159942627,0.160062000155449,-0.868907988071442,-0.327746003866196,-1082.70007324219,-2.70000004768372,-873.300048828125,-3.13873497678538,-0.0253722200209061,0.0331945415915054,ST
6.83333333333333,-0.455186814069748,-0.53533798456192,8.71434497833252,-0.236281991004944,-0.746955990791321,0.945127964019775,-1118.70007324219,6.90000009536743,-866.100036621094,3.14035416963735,-0.0501893024589145,0.0609085641878479,ST
6.86666666666667,-0.552684128284454,-1.03299295902252,10.035044670105,-1.08994603157043,-0.388722002506256,1.15092194080353,-1094.70007324219,-3.90000009536743,-870.900024414062,3.1361447955118,-0.0541451026414908,0.103185397130367,ST
6.9,-0.794333875179291,-0.794333875179291,9.88072395324707,-1.35671591758728,-0.221037998795509,-0.426831990480423,-1111.5,-0.300000011920929,-873.300048828125,3.13653890732199,-0.0790594384965244,0.0830141688388096,ST
6.93333333333333,-1.46724474430084,-0.981552600860596,10.0380353927612,-0.967993974685669,0.899396002292633,-0.0381099991500378,-1109.10009765625,-0.300000011920929,-863.700012207031,3.13831812927268,-0.144969464510291,0.0989406275869149,ST
6.96666666666667,-1.97746062278748,-1.32369041442871,10.1050271987915,-0.0838419944047928,2.9420919418335,0.525918006896973,-1109.10009765625,-3.30000019073486,-866.100036621094,-3.14063568033815,-0.19545105475436,0.129488698488017,ST
7.0,-1.72743690013885,-1.01325416564941,9.84842395782471,0.342989981174469,2.75916385650635,-0.0609759986400604,-1094.70007324219,2.70000004768372,-875.700012207031,3.13987577217641,-0.177893270063341,0.10260107503679,ST
7.03333333333333,-1.65984678268433,-1.00966536998749,9.30650615692139,0.274392008781433,1.31098401546478,-0.274392008781433,-1087.5,-5.70000028610229,-873.300048828125,-3.13992847388043,-0.177716541303852,0.107612553747825,ST
7.06666666666667,-1.0455539226532,-1.26746499538422,9.34418964385986,-0.335367977619171,0.175305992364883,-0.106707997620106,-1101.90002441406,1.5,-866.100036621094,-3.13556032798133,-0.112301451861173,0.134777431932982,ST
7.1,-1.23755776882172,-0.896018147468567,9.12586688995361,-0.617381989955902,-1.37958192825317,-0.358233988285065,-1094.70007324219,-6.90000009536743,-870.900024414062,-3.13911914857592,-0.131344392625398,0.0996457489258491,ST
7.13333333333333,-0.683677434921265,-0.913962483406067,9.05349159240723,0.259148001670837,-1.57775402069092,1.07470202445984,-1097.10009765625,-2.10000014305115,-880.500061035156,3.13732451439923,-0.073501394348286,0.0999858680901724,ST
7.16666666666667,-0.473131090402603,-1.02880585193634,9.50987529754639,0.899396002292633,-0.823175966739655,1.63110792636871,-1101.90002441406,5.70000028610229,-875.700012207031,3.12885007043151,-0.0488925263169785,0.105897994921279,ST
7.2,-0.35410064458847,-0.91575688123703,10.0260725021362,1.10518991947174,-0.510673999786377,0.815553963184357,-1094.70007324219,0.300000011920929,-892.500061035156,3.12354445807132,-0.0346594542741874,0.0894048152795198,DLL
7.23333333333333,-0.144152462482452,-0.78177285194397,9.86517238616943,0.884151995182037,-0.487807989120483,-0.0685980021953583,-1109.10009765625,-5.10000038146973,-878.100036621094,3.12350494143315,-0.0142774211655767,0.0778610861208006,DLL
7.26666666666667,-0.55567479133606,-0.821250319480896,9.6342887878418,0.586893975734711,-0.685979962348938,-0.708845973014832,-1097.10009765625,-6.30000019073486,-866.100036621094,3.12721086744775,-0.0549707269898866,0.083901091813831,DLL
7.3,-1.46066510677338,-0.445018380880356,10.9029502868652,0.647870004177094,0.365855991840363,-0.724089980125427,-1104.30004882812,-1.5,-875.700012207031,3.12740610909106,-0.131508191081165,0.041035118125549,DLL
7.33333333333333,-1.99660122394562,0.158507883548737,9.11629676818848,0.99848198890686,-0.800309956073761,1.83690190315247,-1101.90002441406,-0.900000035762787,-875.700012207031,3.10774330849669,-0.212845871750394,-0.0188309634668101,DLL
7.36666666666667,-2.81665515899658,0.488084673881531,9.60677433013916,-0.274392008781433,-2.66770005226135,9.00158214569092,-1106.70007324219,4.5,-866.100036621094,3.05438939454372,-0.277603994506515,-0.0535977956288701,DLL
7.4,-3.81854462623596,0.538926839828491,9.12646579742432,-0.327746003866196,-3.15550804138184,16.1586399078369,-1109.10009765625,-2.10000014305115,-868.500061035156,2.96881132032935,-0.385619988301881,-0.0690483525289876,DLL
7.43333333333333,-3.48777174949646,-0.409129798412323,8.76279449462891,-1.73019397258759,-3.20123982429504,24.7562561035156,-1116.30004882812,0.900000035762787,-856.500061035156,2.87922483988079,-0.374124675178493,0.0301938482855994,DLL
7.46666666666667,-2.63422155380249,-1.46963727474213,8.73528003692627,-3.27745985984802,-3.30794787406921,31.0825157165527,-1128.30004882812,15.3000001907349,-861.300048828125,2.75982640546197,-0.293239442200569,0.152226033825924,DLL
7.5,-1.58149003982544,-2.17544603347778,8.79449653625488,-4.08539199829102,-2.86587190628052,33.2624053955078,-1123.5,14.1000003814697,-863.700012207031,2.58631122456873,-0.182934850994941,0.237221121505104,DLL
7.53333333333333,-0.446812808513641,-2.81246829032898,10.2025241851807,-4.12350177764893,-1.97409796714783,32.1038627624512,-1133.10009765625,26.7000007629395,-868.500061035156,2.42522695559904,-0.0571315122821243,0.271403297542562,DLL
7.56666666666667,0.868503570556641,-2.79751467704773,9.97223949432373,-3.70429182052612,-2.69818782806396,27.248649597168,-1113.90002441406,21.9000015258789,-854.100036621094,2.28580143338264,0.0714511377843147,0.28242923654414,DLL
7.6,1.25131511688232,-2.26756000518799,9.64565372467041,-2.69818782806396,-3.24697184562683,21.6388568878174,-1118.70007324219,24.9000015258789,-856.500061035156,2.17882073844491,0.120615659435477,0.241162018004853,DLL
7.63333333333333,1.40324342250824,-2.03069543838501,10.4657077789307,-0.724089980125427,-3.20123982429504,14.6342391967773,-1106.70007324219,36.3000030517578,-844.500061035156,2.10763635057119,0.130953100930112,0.197531572883164,DLL
7.66666666666667,1.69154834747314,-1.79801774024963,9.57806301116943,0.579271972179413,-3.66618180274963,9.78664779663086,-1104.30004882812,41.1000022888184,-849.300048828125,2.05583081377486,0.173752121226721,0.187898857556095,DLL
7.7,2.11024832725525,-1.75315701961517,8.52652835845947,0.868907988071442,-3.94057393074036,6.13570976257324,-1099.5,36.3000030517578,-849.300048828125,2.01721318825713,0.240555603685125,0.203660904468855,DLL
7.73333333333333,1.58926582336426,-1.21482837200165,8.51217269897461,0.243903994560242,-3.17075204849243,2.01982998847961,-1106.70007324219,33.3000030517578,-839.700012207031,2.01700790210415,0.189162582124096,0.143827333217376,DLL
7.76666666666667,1.27703523635864,-1.13407909870148,9.92857551574707,-0.403965979814529,-2.37044191360474,1.10518991947174,-1101.90002441406,40.5,-851.700012207031,2.01472596440161,0.132566742184295,0.115551025321952,DLL
7.8,1.76153099536896,-1.41221559047699,9.37648963928223,-0.800309956073761,-2.29422187805176,0.114329993724823,-1118.70007324219,36.3000030517578,-837.300048828125,2.00754171505284,0.186616853539802,0.15038900796342,DLL
7.83333333333333,1.01923561096191,-0.939682602882385,10.1038312911987,-0.106707997620106,-1.43293595314026,-1.17378795146942,-1109.10009765625,35.7000007629395,-837.300048828125,2.021322587942,0.104538483608793,0.0939066308976021,DLL
7.86666666666667,-0.0,-0.634031534194946,10.72829246521,1.80641400814056,0.137196004390717,-0.67835795879364,-1113.90002441406,42.9000015258789,-842.100036621094,2.02675771390224,0.0020032259714871,0.0566548239483853,DLL
7.9,-0.24882747232914,-0.428270369768143,11.1111040115356,2.21800184249878,0.259148001670837,-0.335367977619171,-1116.30004882812,32.7000007629395,-837.300048828125,2.02862433960847,-0.0222907851378082,0.0351220403037233,DLL
7.93333333333333,0.0460570082068443,-0.800913453102112,9.28856182098389,0.655492007732391,0.167683988809586,-0.510673999786377,-1121.10009765625,38.7000007629395,-842.100036621094,2.03178215503621,0.0039825223012447,0.0835131590093566,DLL
7.96666666666667,0.494664251804352,-1.39666378498077,8.79569244384766,-2.63721203804016,-0.175305992364883,-1.62348592281342,-1116.30004882812,32.1000022888184,-834.900024414062,2.03828319100509,0.0547945788553312,0.159798852544431,DLL
8.0,-2.89261937141418,-0.463560789823532,11.2121896743774,-1.28049600124359,1.09756803512573,-1.29574000835419,-1113.90002441406,35.7000007629395,-837.300048828125,2.03365865304103,-0.248441511423434,0.0463506416636169,DLL
8.03333333333333,0.0968991592526436,-1.64250063896179,8.94343376159668,-0.449698001146317,0.78506600856781,0.579271972179413,-1113.90002441406,34.5,-834.900024414062,2.0474927514642,0.0019963295395163,0.178734329184238,DLL
8.06666666666667,-1.0975923538208,-0.597544848918915,10.3987159729004,0.182927995920181,0.129574000835419,0.282013982534409,-1106.70007324219,35.1000022888184,-846.900024414062,2.03997669965009,-0.103325961543693,0.0592537212890922,DLL
8.1,-0.0436644367873669,-0.651975810527802,9.31727313995361,1.54726600646973,0.685979962348938,1.95123195648193,-1104.30004882812,36.9000015258789,-839.700012207031,2.03055303318197,-0.0084071540776308,0.0669208133085105,DLL
8.13333333333333,0.732725143432617,-1.21602463722229,8.91831207275391,-0.228659987449646,0.487807989120483,1.14329993724823,-1121.10009765625,39.3000030517578,-846.900024414062,2.02250222876312,0.0780196471640862,0.13439585424706,DLL
8.16666666666667,0.0789548754692078,-0.314623206853867,9.00922966003418,-1.76830399036407,-1.76068198680878,-0.792688012123108,-1099.5,41.1000022888184,-834.900024414062,2.03058080002231,0.013701786500949,0.0405946431989878,DLL
8.2,1.20525813102722,-1.51928317546844,8.22805500030518,-0.388722002506256,1.07470202445984,2.34757590293884,-1101.90002441406,38.1000022888184,-844.500061035156,2.00900790817877,0.137083065457007,0.179777385826831,DLL
8.23333333333333,1.16996765136719,-1.46365582942963,9.91063117980957,-2.46952795982361,-2.28659987449646,-1.58537602424622,-1113.90002441406,32.7000007629395,-827.700012207031,2.02043380265857,0.121078631401399,0.151460604085809,DLL
8.26666666666667,-0.877475738525391,-0.721958577632904,10.980110168457,-0.342989981174469,-1.37195992469788,0.160062000155449,-1123.5,44.1000022888184,-844.500061035156,2.0209546950248,-0.0717895517465222,0.0685847373651179,DLL
8.3,1.22260427474976,-1.33445692062378,9.4554443359375,0.0914639979600906,-1.50153398513794,-0.327746003866196,-1111.5,43.5,-837.300048828125,2.01984191111336,0.126345353989874,0.138717364108987,DLL
8.33333333333333,0.232677608728409,-0.489879101514816,10.7360677719116,0.87652999162674,-0.0685980021953583,-0.46494197845459,-1109.10009765625,39.9000015258789,-832.500061035156,2.02892412237433,0.0246651252691711,0.0466116052664301,DLL
8.36666666666667,1.45109486579895,-1.00667464733124,8.32973861694336,1.93598794937134,1.47104597091675,1.42531394958496,-1118.70007324219,38.1000022888184,-832.500061035156,2.01461272663162,0.164512867289261,0.115255650264006,DLL
8.4,1.40982294082642,-1.10536825656891,8.24719524383545,-1.06708002090454,0.320124000310898,-1.77592599391937,-1109.10009765625,35.7000007629395,-842.100036621094,2.02252808589266,0.167636521371263,0.134217636012533,DLL
8.43333333333333,-0.594554126262665,-0.353502482175827,10.9202966690063,-0.442075997591019,-0.67835795879364,-1.82927989959717,-1109.10009765625,41.1000022888184,-842.100036621094,2.03776709843658,-0.046982472435163,0.0359911792941542,DLL
8.46666666666667,1.45767438411713,-1.56115317344666,8.23702716827393,-0.350611984729767,-0.579271972179413,-0.67835795879364,-1118.70007324219,42.9000015258789,-839.700012207031,2.03209584250438,0.167292505152269,0.183520315770978,DLL
8.5,0.204564899206161,-1.02282452583313,9.89507961273193,-0.769822001457214,0.0914639979600906,-2.34757590293884,-1111.5,36.9000015258789,-839.700012207031,2.05228268929539,0.0243576888122241,0.106077338108102,DLL
8.53333333333333,0.635825991630554,-1.06050753593445,9.82689094543457,0.571649968624115,1.21951997280121,-0.472563982009888,-1121.10009765625,36.3000030517578,-839.700012207031,2.05531083790167,0.0613114880912884,0.106435547221434,DLL
8.56666666666667,-0.315819501876831,-0.617881715297699,9.39981651306152,0.846041977405548,0.541162014007568,-0.205793991684914,-1111.5,34.5,-844.500061035156,2.05732590179786,-0.0327054640060358,0.0649373388188993,DLL
8.6,0.802109718322754,-0.919345736503601,9.27121639251709,-0.114329993724823,0.693601965904236,0.846041977405548,-1106.70007324219,35.7000007629395,-851.700012207031,2.05249391394935,0.0813384986434442,0.0981990113720538,DLL
8.63333333333333,0.350511789321899,-0.272155046463013,9.50150108337402,-0.0152439996600151,0.0609759986400604,0.106707997620106,-1121.10009765625,36.3000030517578,-844.500061035156,2.05599766034494,0.0379621068960271,0.0305591400464555,DLL
8.66666666666667,0.747080564498901,-0.522178828716278,8.81303882598877,1.27287399768829,0.945127964019775,0.983237981796265,-1111.5,32.7000007629395,-844.500061035156,2.04916499418821,0.0814651131713302,0.0563607140940623,DLL
8.7,0.780576586723328,-1.05033910274506,9.29753398895264,-0.0457319989800453,0.297257989645004,-1.37958192825317,-1118.70007324219,35.7000007629395,-834.900024414062,2.05194989904532,0.0829327542830236,0.110843304672598,DLL
8.73333333333333,1.11434030532837,-1.23456704616547,9.99197864532471,-1.265251994133,-1.20427596569061,-2.72867584228516,-1101.90002441406,44.1000022888184,-837.300048828125,2.06453686115982,0.11208656799019,0.124273754060548,DLL
8.76666666666667,0.549095273017883,-1.40144896507263,8.58335208892822,-0.0838419944047928,-1.17378795146942,-1.21951997280121,-1118.70007324219,38.1000022888184,-839.700012207031,2.06693622700422,0.066380151498979,0.161093749149564,DLL
8.8,0.467747807502747,-1.66403377056122,9.80236721038818,-0.99848198890686,0.0381099991500378,-1.6844619512558,-1113.90002441406,35.1000022888184,-842.100036621094,2.07562940088897,0.0478891472701295,0.16954800537485,DLL
8.83333333333333,0.820053994655609,-2.14793133735657,9.1808967590332,-0.78506600856781,-0.0914639979600906,-0.99848198890686,-1121.10009765625,41.1000022888184,-834.900024414062,2.0773031005515,0.0865893756163476,0.229941156911176,DLL
8.86666666666667,0.788352429866791,-1.95532941818237,9.04212760925293,-1.07470202445984,-0.46494197845459,-2.62196803092957,-1121.10009765625,32.1000022888184,-832.500061035156,2.09177613432139,0.086781487362535,0.214890158345025,DLL
8.9,0.104675017297268,-2.0731635093689,9.07263278961182,0.114329993724823,0.899396002292633,-1.56251001358032,-1123.5,32.1000022888184,-839.700012207031,2.10021514057849,0.0124026222687463,0.224137768495339,DLL
8.93333333333333,-1.89252436161041,-0.988730311393738,12.0274591445923,1.59299790859222,1.18140995502472,-1.11281192302704,-1116.30004882812,35.1000022888184,-849.300048828125,2.09759450143226,-0.152809750242034,0.0835661840878128,DLL
8.96666666666667,-0.34811919927597,-1.45109486579895,9.46979999542236,1.87501192092896,1.05183601379395,1.56251001358032,-1113.90002441406,38.1000022888184,-844.500061035156,2.09716967058892,-0.0416494804734292,0.146898072430839,DLL
9.0,-0.907382905483246,-1.01205790042877,8.98231315612793,0.846041977405548,0.647870004177094,0.556405961513519,-1113.90002441406,36.3000030517578,-837.300048828125,2.09259081610405,-0.0996627900223153,0.111634716635737,DLL
9.03333333333333,-0.1722651720047,-1.35060679912567,9.66359806060791,0.0228659994900227,0.983237981796265,1.14329993724823,-1123.5,36.3000030517578,-854.100036621094,2.08898812042944,-0.0218041587001351,0.138037668868109,DLL
9.06666666666667,-0.856540739536285,-1.15501403808594,10.4633150100708,0.236281991004944,-0.647870004177094,1.12805593013763,-1113.90002441406,31.5000019073486,-849.300048828125,2.08146534815048,-0.0786970420889761,0.110159717161422,DLL
9.1,0.555076658725739,-1.86321532726288,9.27121639251709,-0.731711983680725,-0.914639949798584,1.02897000312805,-1118.70007324219,36.3000030517578,-842.100036621094,2.07605764694222,0.0569677510357236,0.197840499722465,DLL
9.13333333333333,-0.629844546318054,-0.96061760187149,9.86876106262207,-0.685979962348938,-1.60061991214752,0.564027965068817,-1116.30004882812,36.3000030517578,-846.900024414062,2.07196075432309,-0.0575681171460496,0.100905243977117,DLL
9.16666666666667,0.579600512981415,-1.49595558643341,9.49252891540527,0.647870004177094,-0.396344006061554,2.15702605247498,-1118.70007324219,32.1000022888184,-830.100036621094,2.05946202861257,0.0582301123156275,0.154385425085187,DLL
9.2,1.38649535179138,-1.64250063896179,8.41587162017822,-0.0762199983000755,-1.31098401546478,0.419209986925125,-1109.10009765625,32.7000007629395,-839.700012207031,2.05209599988548,0.159577807219263,0.191990283973429,DLL
9.23333333333333,0.330174922943115,-0.938486337661743,8.97992038726807,0.510673999786377,-0.670735955238342,-0.121951997280121,-1118.70007324219,42.9000015258789,-832.500061035156,2.06073180700826,0.0410643931200153,0.105641182971875,DLL
9.26666666666667,-0.0281127188354731,-0.811680018901825,9.4434814453125,1.85214591026306,1.28811800479889,0.891773998737335,-1121.10009765625,36.3000030517578,-837.300048828125,2.05704956311559,-0.004076926725795,0.0831376877288435,DLL
9.3,-1.02461886405945,-0.0556272976100445,10.6613006591797,1.98934197425842,0.693601965904236,0.0609759986400604,-1116.30004882812,34.5,-842.100036621094,2.05360418902141,-0.095097777341825,0.0034347614457013,DLL
9.33333333333333,0.127404451370239,-0.852951884269714,10.4190521240234,1.81403601169586,0.327746003866196,1.76830399036407,-1106.70007324219,35.7000007629395,-834.900024414062,2.04792923076468,0.0084945457803414,0.0764722229075071,DLL
9.36666666666667,0.333165645599365,-0.406139075756073,10.5350923538208,-1.03659200668335,-2.9420919418335,-1.46342396736145,-1104.30004882812,36.3000030517578,-839.700012207031,2.05629934660873,0.0363208734628149,0.0409141745232236,DLL
9.4,-0.0980954468250275,-0.594554126262665,11.3138742446899,0.167683988809586,-1.49391198158264,0.0762199983000755,-1104.30004882812,36.3000030517578,-844.500061035156,2.05532578936413,-0.005053639030549,0.0519413546182673,DLL
9.43333333333333,1.65326714515686,-1.39068245887756,8.98291110992432,-0.403965979814529,-1.70732796192169,-1.28049600124359,-1118.70007324219,36.3000030517578,-842.100036621094,2.05247473102444,0.178022473511868,0.151166165980941,DLL
9.46666666666667,2.45418071746826,-2.0791449546814,7.36074733734131,-2.46190595626831,-1.08994603157043,-3.55185198783875,-1118.70007324219,38.7000007629395,-842.100036621094,2.04205020884893,0.310235361251164,0.274334150466943,DLL
9.5,1.16996765136719,-1.80220472812653,7.43372106552124,-1.20427596569061,-0.434453994035721,-3.68904781341553,-1125.90002441406,34.5,-842.100036621094,2.07072549469413,0.156880421022275,0.239553081582122,DLL
9.53333333333333,0.183629885315895,-1.06230187416077,8.66709136962891,0.92988395690918,1.28811800479889,-1.98171997070312,-1123.5,28.5000019073486,-846.900024414062,2.09240959763626,0.0225421399956969,0.123043385080868,DLL
9.56666666666667,-1.25849282741547,-0.656162858009338,9.77126312255859,2.42379593849182,2.24086785316467,0.342989981174469,-1128.30004882812,35.1000022888184,-837.300048828125,2.08952475340301,-0.127543331353502,0.0644449903818295,DLL
9.6,-0.371446788311005,-0.875083148479462,9.82868576049805,1.15854394435883,1.13567793369293,1.63872992992401,-1123.5,32.7000007629395,-837.300048828125,2.08378537834346,-0.0422298554582496,0.0860440748184878,DLL
9.63333333333333,-0.91575688123703,-0.464158952236176,11.1697216033936,-0.0381099991500378,-0.609759986400604,2.59148001670837,-1121.10009765625,35.7000007629395,-842.100036621094,2.06754798040844,-0.0798319701480559,0.0424695502192881,DLL
9.66666666666667,0.133385881781578,-1.05392789840698,11.0794019699097,-0.92988395690918,-1.21189796924591,3.14026403427124,-1130.70007324219,35.1000022888184,-839.700012207031,2.0520366680716,0.0113729885990198,0.0952026429405549,DLL
9.7,1.28720366954803,-1.59704172611237,10.5638027191162,-2.27135586738586,-1.92074394226074,1.88263392448425,-1135.5,38.7000007629395,-839.700012207031,2.03830263246979,0.119700512515081,0.152802685602805,DLL
9.73333333333333,1.0395724773407,-1.64429497718811,10.0727272033691,-1.61586391925812,-0.564027965068817,0.274392008781433,-1133.10009765625,34.5,-832.500061035156,2.03605897190565,0.102872625410143,0.164377910110847,DLL
9.76666666666667,1.00846910476685,-2.21013832092285,9.24549579620361,0.0990860015153885,0.754577994346619,0.213415995240211,-1133.10009765625,38.1000022888184,-834.900024414062,2.02869312364052,0.104292548472505,0.232570656692965,DLL
9.8,0.250023752450943,-1.58089184761047,8.7221212387085,0.388722002506256,0.266770005226135,-1.33385002613068,-1128.30004882812,29.7000007629395,-834.900024414062,2.0391667825777,0.0302407367044174,0.180007229323531,DLL
9.83333333333333,-0.202172324061394,-1.24294114112854,8.26932621002197,1.86738991737366,1.30336201190948,1.20427596569061,-1123.5,38.7000007629395,-846.900024414062,2.03421800743733,-0.025187401549761,0.146825580177781,DLL
9.86666666666667,0.310436189174652,-1.07007777690887,8.52353763580322,0.87652999162674,0.167683988809586,0.815553963184357,-1118.70007324219,29.7000007629395,-849.300048828125,2.02991759950841,0.0343924079141143,0.123887876284341,DLL
9.9,0.57361912727356,-1.08921837806702,9.84304046630859,0.922261953353882,-1.08232402801514,1.63872992992401,-1125.90002441406,33.9000015258789,-839.700012207031,2.02129132463562,0.058740120919469,0.109184391217526,DLL
9.93333333333333,0.584983825683594,-1.18073427677155,10.1881694793701,0.899396002292633,-1.6768399477005,0.914639949798584,-1118.70007324219,33.3000030517578,-849.300048828125,2.01506497733021,0.0596757286338177,0.113794034710164,DLL
9.96666666666667,0.531749129295349,-1.23396897315979,10.210898399353,0.46494197845459,-1.38720393180847,0.274392008781433,-1118.70007324219,36.9000015258789,-851.700012207031,2.01236178477155,0.05415617139444,0.119340468349424,DLL
10.0,0.717173397541046,-1.39845824241638,9.31428241729736,-0.594515979290009,-0.228659987449646,-0.434453994035721,-1125.90002441406,32.1000022888184,-844.500061035156,2.01269589612165,0.0758944343721775,0.14917868411306,DLL
10.0333333333333,1.49834811687469,-2.08393001556396,8.76877593994141,-1.71494996547699,0.846041977405548,-0.823175966739655,-1125.90002441406,38.1000022888184,-837.300048828125,2.00892978001103,0.161227496669621,0.233657479277951,DLL
10.0666666666667,0.665733098983765,-1.88056147098541,9.76169300079346,-1.28049600124359,1.50153398513794,-2.63721203804016,-1123.5,37.5,-839.700012207031,2.03051209266544,0.0669258638746354,0.192925330802062,DLL
10.1,1.53363859653473,-2.22628808021545,10.02308177948,0.67835795879364,2.46952795982361,-5.4878396987915,-1118.70007324219,39.9000015258789,-846.900024414062,2.05797440949572,0.143924623724686,0.215331976387526,DLL
10.1333333333333,1.64130425453186,-2.2191104888916,9.70128059387207,1.10518991947174,1.84452390670776,-11.3110475540161,-1125.90002441406,30.3000011444092,-849.300048828125,2.11492198319675,0.164039163444728,0.219552652670144,DLL
10.1666666666667,1.0575168132782,-2.00078821182251,9.38127422332764,1.50915598869324,1.44817996025085,-16.1815052032471,-1135.5,33.3000030517578,-849.300048828125,2.19876252893687,0.114497159279831,0.204533616968721,DLL
10.2,0.154320880770683,-1.92901110649109,10.0075302124023,2.66770005226135,2.88873791694641,-19.8171997070312,-1133.10009765625,26.1000003814697,-844.500061035156,2.30277624953453,0.0193012402975976,0.185301628906038,DLL
10.2333333333333,0.901401460170746,-2.22449374198914,9.1808967590332,1.75305998325348,2.39330792427063,-21.8903827667236,-1142.70007324219,29.7000007629395,-854.100036621094,2.41248233651705,0.0974164755441489,0.229930960241792,DLL
10.2666666666667,-0.104076877236366,-1.61857485771179,10.2838716506958,1.87501192092896,2.04269599914551,-23.376672744751,-1137.90002441406,18.3000011444092,-861.300048828125,2.54395116858754,-0.0048259099419031,0.154277017112921,DLL
10.3,-0.202172324061394,-1.01684308052063,8.50559329986572,2.59148001670837,1.37195992469788,-22.3934364318848,-1130.70007324219,18.9000015258789,-854.100036621094,2.65950320416201,-0.0208421458692577,0.11626570135064,DLL
10.3333333333333,-0.989926636219025,-0.369652360677719,10.2563571929932,3.29270386695862,2.53812599182129,-18.9864025115967,-1137.90002441406,11.1000003814697,-858.900024414062,2.75468371107446,-0.0970071766021201,0.0355368452476922,DLL
10.3666666666667,-1.35299944877625,0.269164323806763,8.46013450622559,3.05642199516296,1.6692179441452,-13.1631937026978,-1133.10009765625,2.70000004768372,-863.700012207031,2.82402933238954,-0.161032989838771,-0.0324348215807672,DLL
10.4,-0.876279473304749,0.171667039394379,9.2281494140625,1.39482593536377,1.40244793891907,-7.87352561950684,-1133.10009765625,7.50000047683716,-856.500061035156,2.86683431173675,-0.099127619868007,-0.0199343873073431,DLL
10.4333333333333,-0.336754500865936,-0.113049022853374,9.05947303771973,-0.358233988285065,0.617381989955902,-4.07776975631714,-1130.70007324219,13.5000009536743,-854.100036621094,2.89073093114119,-0.0396112726778602,0.0126334089044012,DLL
10.4666666666667,-1.01803934574127,-0.21712589263916,10.330527305603,-0.6250039935112,1.01372599601746,-1.90549993515015,-1128.30004882812,5.70000028610229,-849.300048828125,2.90225199234633,-0.0989615314922332,0.0222721862325253,DLL
10.5,-0.546702682971954,-0.258995920419693,10.4268283843994,-0.152439996600151,1.10518991947174,-0.304879993200302,-1130.70007324219,9.30000019073486,-868.500061035156,2.90412688165239,-0.0554994469593221,0.0250573837995793,DLL
10.5333333333333,-0.0735715851187706,-0.0239257179200649,9.95788383483887,0.243903994560242,-0.0762199983000755,0.0533539988100529,-1125.90002441406,7.50000047683716,-863.700012207031,2.90315638399826,-0.0085688250384869,0.0026032785991,DLL
10.5666666666667,-0.266173630952835,-0.0921140164136887,10.2049169540405,0.99848198890686,0.0914639979600906,0.685979962348938,-1123.5,1.5,-868.500061035156,2.8997874196253,-0.0257627546266546,0.0071280573771412,DLL
10.6,-0.448009073734283,0.0005981429712846,9.79100227355957,0.78506600856781,0.647870004177094,-0.388722002506256,-1133.10009765625,5.10000038146973,-858.900024414062,2.9016691898657,-0.0462823832867174,-0.0011691138381454,DLL
10.6333333333333,-0.204564899206161,-0.0107665732502937,8.92249870300293,0.594515979290009,1.70732796192169,-0.442075997591019,-1137.90002441406,7.50000047683716,-868.500061035156,2.90432188057433,-0.0262698618000435,0.0001661546056201,ST
10.6666666666667,-0.681882977485657,0.125011876225471,9.47697734832764,0.152439996600151,1.79117000102997,-0.670735955238342,-1123.5,7.50000047683716,-861.300048828125,2.90709859615425,-0.0736360459679859,-0.0130088554141933,ST
10.7,-0.602329969406128,-0.0604124404489994,9.60617637634277,-0.0,1.18140995502472,-0.388722002506256,-1104.30004882812,9.30000019073486,-861.300048828125,2.9104115801148,-0.064922546856363,0.0058083726391101,ST
10.7333333333333,-0.580198705196381,-0.289501190185547,9.28377723693848,-0.449698001146317,0.99848198890686,-0.739333987236023,-1111.5,-0.300000011920929,-861.300048828125,2.91585178836384,-0.0641125848753367,0.0313308032850023,ST
10.7666666666667,-0.562254369258881,-0.273351341485977,9.68752384185791,-0.807931959629059,0.800309956073761,-1.08994603157043,-1123.5,5.70000028610229,-863.700012207031,2.92126312495649,-0.0594215023246802,0.0297791745218502,ST
10.8,-0.724351167678833,-0.492869794368744,10.2958345413208,-0.358233988285065,0.205793991684914,-0.922261953353882,-1125.90002441406,7.50000047683716,-861.300048828125,2.92713355813491,-0.0701427393341055,0.0480602272618498,ST
10.8333333333333,-0.0903195887804031,-0.681882977485657,9.68333625793457,-0.884151995182037,-0.967993974685669,-1.87501192092896,-1109.10009765625,8.70000076293945,-854.100036621094,2.93729869625593,-0.0091022374626347,0.0712458481110408,ST
10.8666666666667,-0.232079476118088,-0.305052906274796,9.48714542388916,-0.6250039935112,-1.265251994133,-1.58537602424622,-1109.10009765625,9.30000019073486,-875.700012207031,2.94552850904681,-0.0219338231906925,0.0338847265071082,ST
10.9,0.128600731492043,-0.541319370269775,9.13364315032959,-0.297257989645004,-0.800309956073761,-0.0990860015153885,-1121.10009765625,-0.900000035762787,-870.900024414062,2.94595109035832,0.0147847678221666,0.0592497101983019,ST
10.9333333333333,0.256005197763443,-0.899607002735138,9.32026386260986,-0.815553963184357,-0.0990860015153885,0.693601965904236,-1121.10009765625,10.5,-858.900024414062,2.94164192708699,0.0270507423664708,0.0966326351727703,ST
10.9666666666667,0.352904349565506,-1.28361487388611,9.47219181060791,-1.2500079870224,-0.442075997591019,0.853663980960846,-1123.5,8.10000038146973,-878.100036621094,2.93593131690734,0.0371883345550205,0.135835590842259,ST
11.0,0.211742609739304,-1.36256968975067,9.63548469543457,-1.37958192825317,-0.647870004177094,0.0838419944047928,-1133.10009765625,8.10000038146973,-870.900024414062,2.93502018816135,0.0232441002022067,0.142703467002648,ST
11.0333333333333,-0.433653652667999,-1.21901535987854,10.4992036819458,-0.182927995920181,-0.213415995240211,1.16616594791412,-1123.5,11.1000003814697,-875.700012207031,2.92846776414791,-0.0393528597731461,0.116478869626736,ST
11.0666666666667,0.527562081813812,-1.32069969177246,10.3580417633057,0.411587983369827,-1.17378795146942,0.533540010452271,-1133.10009765625,3.90000009536743,-873.300048828125,2.9245479466086,0.0507416231941274,0.125981509447369,ST
11.1,0.164489313960075,-1.35180306434631,9.38546180725098,0.510673999786377,-0.274392008781433,-0.167683988809586,-1121.10009765625,9.90000057220459,-868.500061035156,2.92462705789254,0.0185418855404493,0.141817658381858,ST
11.1333333333333,-0.73751026391983,-1.02880585193634,10.4435758590698,0.762199997901917,0.800309956073761,-0.952749967575073,-1125.90002441406,2.70000004768372,-873.300048828125,2.92905867401905,-0.0689346990614671,0.0982008125752114,ST
11.1666666666667,-1.10716259479523,-0.884055316448212,9.87534046173096,1.03659200668335,1.12805593013763,-0.327746003866196,-1109.10009765625,9.30000019073486,-863.700012207031,2.93086514571693,-0.111914742887575,0.0878454918598452,ST
11.2,-1.18252861499786,-0.619077980518341,10.1116065979004,1.53964400291443,1.47104597091675,0.0152439996600151,-1109.10009765625,0.300000011920929,-868.500061035156,2.92894466739773,-0.118581885648164,0.0592759551132368,ST
11.2333333333333,-0.887644171714783,-0.647190690040588,8.91113376617432,1.6768399477005,1.18903195858002,0.289635986089706,-1109.10009765625,7.50000047683716,-878.100036621094,2.92988220345922,-0.101544779492742,0.0692939120215699,ST
11.2666666666667,-0.781174719333649,-0.555076658725739,9.43271446228027,0.670735955238342,0.861285984516144,-0.0381099991500378,-1121.10009765625,0.900000035762787,-880.500061035156,2.92968780469541,-0.0842562993017368,0.0578030920313748,ST
11.3,-0.95463615655899,-0.53234726190567,8.60907173156738,0.304879993200302,-0.6250039935112,0.274392008781433,-1113.90002441406,5.10000038146973,-866.100036621094,2.92847099666099,-0.108651574757051,0.0610965655393051,ST
11.3333333333333,-1.19449150562286,-0.652574002742767,10.2790870666504,-0.0838419944047928,0.0990860015153885,0.777444005012512,-1118.70007324219,6.90000009536743,-866.100036621094,2.92434462404617,-0.115587767149425,0.0633502305878274,ST
11.3666666666667,0.52636581659317,-0.393578082323074,9.06964206695557,0.37347799539566,-2.66770005226135,0.381099998950958,-1113.90002441406,8.70000076293945,-866.100036621094,2.92109658660113,0.0576700648859076,0.0433179994769227,ST
11.4,0.445616513490677,-0.53234726190567,9.84363842010498,0.434453994035721,-2.62959003448486,0.975615978240967,-1116.30004882812,9.90000057220459,-875.700012207031,2.9147276455152,0.0498850933350253,0.0530949362978232,ST
11.4333333333333,0.393578082323074,-0.243444189429283,10.72829246521,0.922261953353882,-2.17227005958557,0.769822001457214,-1113.90002441406,5.70000028610229,-863.700012207031,2.91158672013298,0.0406746083429441,0.0220069321966464,ST
11.4666666666667,0.416307508945465,-0.18482618033886,9.28676795959473,0.846041977405548,-0.609759986400604,0.602137982845306,-1125.90002441406,1.5,-861.300048828125,2.90815840389818,0.0457266217384763,0.0185446490466097,ST
11.5,0.230285048484802,0.0885251611471176,8.59411811828613,0.92988395690918,-0.0381099991500378,0.342989981174469,-1113.90002441406,2.10000014305115,-856.500061035156,2.90730511959914,0.0273729510310569,-0.0110776943464487,ST
11.5333333333333,-0.260192185640335,0.0155517170205712,8.26872825622559,0.716467976570129,0.815553963184357,0.92988395690918,-1123.5,5.10000038146973,-868.500061035156,2.90252411126633,-0.0312335832002701,-0.0033881667887084,ST
11.5666666666667,-0.964804589748383,-0.0526365824043751,10.9065389633179,0.937505960464478,1.49391198158264,1.41769194602966,-1121.10009765625,2.70000004768372,-861.300048828125,2.89591885227339,-0.0892212986017294,0.0028085982214183,ST
11.6,-0.399559497833252,0.160302311182022,9.92438793182373,0.792688012123108,-0.198172003030777,1.27287399768829,-1123.5,2.70000004768372,-863.700012207031,2.88788267263625,-0.0408759194990642,-0.0172116304214754,ST
11.6333333333333,-0.86790543794632,0.30624920129776,10.7390584945679,0.823175966739655,0.342989981174469,1.92836594581604,-1128.30004882812,0.900000035762787,-863.700012207031,2.87709445603308,-0.0801554064081581,-0.029896806070013,ST
11.6666666666667,-0.0418700091540813,0.297277063131332,9.72580432891846,0.46494197845459,-0.0228659994900227,1.2500079870224,-1116.30004882812,-0.900000035762787,-863.700012207031,2.87063037276836,-0.0062629477901707,-0.0313571944154878,ST
11.7,0.179442897439003,0.157311603426933,9.61993312835693,-0.0533539988100529,-0.152439996600151,0.518296003341675,-1118.70007324219,3.90000009536743,-866.100036621094,2.86787595992037,0.0182455851269475,-0.0166552019878272,ST
11.7333333333333,0.809885561466217,0.126208171248436,9.16594314575195,-0.320124000310898,-1.45580196380615,-0.716467976570129,-1118.70007324219,-1.5,-863.700012207031,2.87162758140568,0.0886730729436521,-0.0134061436832644,ST
11.7666666666667,-0.130395174026489,0.250621914863586,9.42374229431152,0.0228659994900227,-0.342989981174469,-0.594515979290009,-1123.5,-0.300000011920929,-854.100036621094,2.87534350723537,-0.0108319082704071,-0.0263129900760759,ST
11.8,-0.18183545768261,-0.0173461455851793,9.78860950469971,0.167683988809586,1.08232402801514,0.0304879993200302,-1121.10009765625,0.300000011920929,-854.100036621094,2.87557726643966,-0.0202011288066076,0.0007221002032858,ST
11.8333333333333,-0.308043628931046,0.154919028282166,9.27719783782959,-0.434453994035721,-0.182927995920181,-0.350611984729767,-1116.30004882812,1.5,-868.500061035156,2.87696371624225,-0.0325758282963991,-0.0155239741562241,ST
11.8666666666667,-0.413914948701859,-0.166881889104843,9.12646579742432,-0.426831990480423,0.937505960464478,0.571649968624115,-1116.30004882812,8.10000038146973,-870.900024414062,2.87527519135099,-0.0465745356432814,0.0180451430395482,ST
11.9,-0.245836764574051,-0.546702682971954,10.4686985015869,-0.907018005847931,0.121951997280121,-0.259148001670837,-1109.10009765625,5.10000038146973,-868.500061035156,2.87776886514019,-0.0241826500039692,0.0529218081874414,ST
11.9333333333333,-0.118432305753231,-0.904392182826996,10.5697841644287,-0.739333987236023,-0.609759986400604,-0.6250039935112,-1128.30004882812,0.900000035762787,-858.900024414062,2.88127190354579,-0.0103990447298895,0.0857402588563537,ST
11.9666666666667,0.273351341485977,-1.07665729522705,9.29035663604736,-0.907018005847931,-0.990859985351562,-1.41769194602966,-1113.90002441406,8.70000076293945,-863.700012207031,2.88781611293121,0.030083415719087,0.116051169413013,ST
12.0,0.233275756239891,-1.08921837806702,9.76647853851318,-0.739333987236023,-0.746955990791321,-1.21951997280121,-1116.30004882812,10.5,-868.500061035156,2.89440089747093,0.025355195889916,0.112374346188548,ST
12.0333333333333,0.358885794878006,-1.35658824443817,8.83516979217529,-0.564027965068817,-0.259148001670837,-0.541162014007568,-1123.5,-2.70000004768372,-870.900024414062,2.89578775420855,0.0402972952795413,0.152190626180291,ST
12.0666666666667,0.226696193218231,-1.0455539226532,8.59411811828613,-0.0381099991500378,0.518296003341675,-0.106707997620106,-1123.5,11.7000007629395,-866.100036621094,2.89780694144198,0.0255388817695724,0.12160862986509,ST
12.1,-0.572422802448273,-1.14424753189087,9.29633808135986,0.175305992364883,1.72257196903229,0.175305992364883,-1130.70007324219,5.10000038146973,-866.100036621094,2.89803120139629,-0.0616193643514724,0.122154942697108,ST
12.1333333333333,-1.11134958267212,-1.06828331947327,9.87653636932373,0.411587983369827,2.82013988494873,0.564027965068817,-1118.70007324219,8.70000076293945,-863.700012207031,2.89567216309542,-0.114917969784993,0.107392909504812,ST
12.1666666666667,-1.49655365943909,-0.938486337661743,10.7558069229126,0.87652999162674,1.82165801525116,0.632625997066498,-1104.30004882812,4.5,-870.900024414062,2.89117677422895,-0.14029027465497,0.0859898085359908,ST
12.2,-1.29497957229614,-0.854746282100677,10.8503131866455,0.777444005012512,0.426831990480423,0.0914639979600906,-1111.5,6.90000009536743,-882.900024414062,2.89028725261251,-0.119753810706849,0.0774823891621183,ST
12.2333333333333,-1.04136693477631,-0.246434897184372,10.0452127456665,0.823175966739655,-1.53964400291443,-0.396344006061554,-1099.5,6.90000009536743,-866.100036621094,2.88684622190187,-0.100865606818806,0.024003060568083,ST
12.2666666666667,-0.485093951225281,-0.412120521068573,9.86277961730957,1.08232402801514,-1.37958192825317,0.396344006061554,-1111.5,4.5,-868.500061035156,2.88605825049091,-0.0481963308630646,0.0394016837267083,ST
12.3,0.39537250995636,-0.166881889104843,9.2161865234375,1.07470202445984,-2.67532205581665,-0.495429992675781,-1111.5,6.90000009536743,-875.700012207031,2.88830200119551,0.0455653273625439,0.0166821478997241,ST
12.3333333333333,0.842185318470001,-0.15312460064888,9.04392147064209,0.830797970294952,-2.00458598136902,-0.282013982534409,-1113.90002441406,1.5,-868.500061035156,2.88941898311307,0.095431530831986,0.0154618397678203,ST
12.3666666666667,0.496458679437637,0.0777585878968239,8.50200462341309,1.03659200668335,-0.304879993200302,-0.289635986089706,-1106.70007324219,5.70000028610229,-870.900024414062,2.89253596109977,0.0598487089085021,-0.0102688761181343,ST
12.4,0.0885251611471176,0.0711790099740028,9.61514854431152,0.975615978240967,1.36433792114258,0.0609759986400604,-1128.30004882812,5.70000028610229,-868.500061035156,2.89199195561388,0.0082692824581529,-0.0091352884251199,ST
12.4333333333333,-0.335558205842972,0.375633776187897,8.92728424072266,1.12043392658234,1.45580196380615,-0.106707997620106,-1116.30004882812,0.900000035762787,-866.100036621094,2.8919410249304,-0.0390814317692242,-0.0432820715746748,ST
12.4666666666667,-0.82065212726593,0.291295617818832,10.5733728408813,0.564027965068817,1.2423859834671,0.236281991004944,-1118.70007324219,0.300000011920929,-861.300048828125,2.89154013678049,-0.0784834990008459,-0.0289648989782188,ST
12.5,-1.10596632957458,0.48150509595871,9.88191986083984,0.114329993724823,-0.304879993200302,-0.243903994560242,-1111.5,-2.10000014305115,-870.900024414062,2.89121104083537,-0.110229621689322,-0.0484788542222899,ST
12.5333333333333,-1.91405749320984,0.326586067676544,11.1009349822998,-0.0152439996600151,0.92988395690918,0.823175966739655,-1106.70007324219,9.30000019073486,-863.700012207031,2.88937911016951,-0.170560904633151,-0.0301502660514481,ST
12.5666666666667,-1.38948607444763,0.0293090064078569,10.3759860992432,-0.724089980125427,1.15092194080353,0.967993974685669,-1111.5,1.5,-873.300048828125,2.88801512680593,-0.136086661761031,-0.0025668177492849,ST
12.6,-1.47442245483398,-0.10527316480875,10.9986534118652,-0.823175966739655,1.50915598869324,1.05945801734924,-1109.10009765625,1.5,-858.900024414062,2.88380256458976,-0.135910154170601,0.0103959651623666,ST
12.6333333333333,-0.168676316738129,-0.0484495796263218,10.0583724975586,-0.594515979290009,-0.586893975734711,-0.0457319989800453,-1106.70007324219,1.5,-878.100036621094,2.88350479474608,-0.0190196737040733,0.0059788121322095,ST
12.6666666666667,0.509019672870636,-0.156713455915451,8.45056343078613,-0.0457319989800453,-0.762199997901917,0.0304879993200302,-1116.30004882812,-0.300000011920929,-863.700012207031,2.88303221194223,0.0598121421871427,0.0183638829628171,ST
12.7,0.720164120197296,-0.183031752705574,8.65453052520752,0.0381099991500378,-0.396344006061554,-0.640248000621796,-1106.70007324219,-0.900000035762787,-868.500061035156,2.886102392958,0.0830668378359731,0.020918178048124,ST
12.7333333333333,1.22858572006226,-0.44023323059082,7.83686923980713,-0.106707997620106,-1.13567793369293,-1.6920839548111,-1106.70007324219,2.70000004768372,-878.100036621094,2.89055869746963,0.155372575428158,0.0549165477839797,ST
12.7666666666667,0.99590802192688,-0.439036935567856,8.41407680511475,-0.487807989120483,-1.29574000835419,-1.56251001358032,-1101.90002441406,2.10000014305115,-870.900024414062,2.89909801513262,0.120897484361125,0.0527115215125754,ST
12.8,0.16269488632679,-0.440831363201141,9.01580905914307,-0.0228659994900227,-0.37347799539566,-0.0609759986400604,-1109.10009765625,3.90000009536743,-870.900024414062,2.89960829138583,0.0205228782869874,0.0489642783183872,ST
12.8333333333333,-0.0071777156554162,-0.712986409664154,10.2354221343994,0.0762199983000755,0.525918006896973,0.975615978240967,-1113.90002441406,5.70000028610229,-868.500061035156,2.89453625855308,-0.0011237178390256,0.0688588198852911,ST
12.8666666666667,0.0005981429712846,-0.709995687007904,9.37948036193848,0.0076219998300075,0.388722002506256,0.609759986400604,-1111.5,5.70000028610229,-870.900024414062,2.89153752675344,-0.000704138752864,0.0753568332517834,ST
12.9,-0.839792728424072,-1.03717994689941,10.1618509292603,-1.05183601379395,1.09756803512573,0.228659987449646,-1111.5,-3.90000009536743,-861.300048828125,2.89171359055852,-0.0817080393102065,0.102766704309006,ST
12.9333333333333,-0.97557121515274,-1.32428848743439,11.207405090332,-2.18751406669617,1.35671591758728,-0.434453994035721,-1111.5,-2.70000004768372,-868.500061035156,2.89532146296269,-0.0883079385965554,0.121014638700245,ST
12.9666666666667,-0.995309889316559,-1.34761607646942,9.61514854431152,-2.17989206314087,0.533540010452271,-0.647870004177094,-1094.70007324219,3.90000009536743,-870.900024414062,2.89995323368886,-0.10252250648339,0.142576515184594,ST
13.0,-0.82065212726593,-1.81835460662842,9.89268684387207,-1.52439999580383,0.434453994035721,0.243903994560242,-1104.30004882812,2.70000004768372,-875.700012207031,2.90215901856585,-0.0827848162119018,0.183278849795511,ST
13.0333333333333,-1.3201014995575,-1.46545028686523,10.2982273101807,-0.266770005226135,0.228659987449646,0.266770005226135,-1104.30004882812,0.900000035762787,-882.900024414062,2.89657037895065,-0.12565674814349,0.142761516425685,ST
13.0666666666667,-0.929514169692993,-1.27344644069672,9.65701866149902,0.960371971130371,-0.0533539988100529,0.99848198890686,-1109.10009765625,6.90000009536743,-866.100036621094,2.89035650063317,-0.0959954565255818,0.129583093003385,ST
13.1,-0.288903057575226,-0.944467723369598,9.50748252868652,1.41006994247437,-1.27287399768829,0.861285984516144,-1106.70007324219,0.900000035762787,-868.500061035156,2.88340650179646,-0.0297815991186859,0.0972778285116007,ST
13.1333333333333,0.111852735280991,-0.73451954126358,8.42603969573975,1.21189796924591,-1.74543797969818,0.670735955238342,-1104.30004882812,-2.70000004768372,-875.700012207031,2.87904291344505,0.0149078091900259,0.085191158835411,ST
13.1666666666667,-0.150133892893791,-0.736912131309509,9.7240104675293,0.800309956073761,-0.609759986400604,0.983237981796265,-1106.70007324219,-0.900000035762787,-873.300048828125,2.87358233933541,-0.0137645179421182,0.0744821977283148,ST
13.2,-0.0143554313108325,-0.384605944156647,9.45783710479736,0.754577994346619,-0.891773998737335,0.617381989955902,-1116.30004882812,2.70000004768372,-875.700012207031,2.86992702382446,-0.0003829986846521,0.0402805245151935,ST
13.2333333333333,-0.166881889104843,-0.313426911830902,9.54935264587402,0.472563982009888,-0.335367977619171,0.548784017562866,-1101.90002441406,-2.70000004768372,-878.100036621094,2.86689680072945,-0.0165183402085047,0.032168040263569,ST
13.2666666666667,-0.099889874458313,-0.458775669336319,10.4375944137573,0.167683988809586,0.0304879993200302,0.564027965068817,-1116.30004882812,3.30000019073486,-875.700012207031,2.86378815067181,-0.0097631316301009,0.0434441321682283,ST
13.3,-0.629844546318054,-0.32538977265358,10.4399871826172,0.960371971130371,0.350611984729767,0.205793991684914,-1116.30004882812,3.90000009536743,-861.300048828125,2.86253335681255,-0.0594603923179014,0.0298439776187832,ST
13.3333333333333,-0.355895072221756,-0.188415035605431,10.2222633361816,1.33385002613068,0.396344006061554,0.0685980021953583,-1121.10009765625,3.30000019073486,-866.100036621094,2.86188101593419,-0.0361417965278222,0.0164715120019888,ST
13.3666666666667,0.0645994395017624,-0.120824880897999,9.61455059051514,0.868907988071442,-0.861285984516144,-0.701223969459534,-1111.5,0.300000011920929,-875.700012207031,2.86540981161621,0.0070279393091495,0.011194035193718,ST
13.4,-0.182433605194092,-0.107067592442036,8.68922328948975,1.07470202445984,-0.769822001457214,-0.434453994035721,-1099.5,0.300000011920929,-868.500061035156,2.86767542835269,-0.0189135449978866,0.0104776373871135,ST
13.4333333333333,-0.197387173771858,0.0107665732502937,9.37648963928223,1.19665396213531,-0.365855991840363,-0.320124000310898,-1113.90002441406,2.70000004768372,-878.100036621094,2.86924712180519,-0.0203750257023944,-0.0028998309874531,ST
13.4666666666667,-0.65735912322998,-0.0610105842351913,9.32923603057861,0.868907988071442,-0.3125019967556,-0.144817993044853,-1099.5,2.10000014305115,-868.500061035156,2.87057722221249,-0.0684530249627162,0.0048216951474458,ST
13.5,-0.68965882062912,-0.0113647161051631,8.83576774597168,0.503051996231079,-0.129574000835419,0.297257989645004,-1109.10009765625,6.30000019073486,-873.300048828125,2.86887650591882,-0.0774503994307289,0.000474192655369,ST
13.5333333333333,-1.09340536594391,0.0568235814571381,9.65402793884277,-0.106707997620106,0.724089980125427,0.815553963184357,-1113.90002441406,3.90000009536743,-880.500061035156,2.86401410451774,-0.113037717099379,-0.0056841156841463,ST
13.5666666666667,-0.814072608947754,-0.222509190440178,10.6355800628662,-0.37347799539566,0.419209986925125,1.43293595314026,-1109.10009765625,0.900000035762787,-866.100036621094,2.85854193035837,-0.0778987881688757,0.0208102058581532,ST
13.6,-0.608311414718628,-0.270360618829727,9.81791877746582,-0.342989981174469,-0.541162014007568,1.12805593013763,-1111.5,3.30000019073486,-873.300048828125,2.85300635231588,-0.0614266555477277,0.0278077592945352,ST
13.6333333333333,-0.406737208366394,-0.335558205842972,10.0757179260254,-0.182927995920181,-0.746955990791321,0.442075997591019,-1109.10009765625,-1.5,-868.500061035156,2.85076181497974,-0.0395780827885355,0.0334398241649158,ST
13.6666666666667,0.269762486219406,-0.559861838817596,9.43809795379639,-0.457319974899292,-1.43293595314026,-0.37347799539566,-1128.30004882812,-0.300000011920929,-851.700012207031,2.85246848098387,0.0291345458418852,0.0593132677535787,ST
13.7,0.30624920129776,-0.717771589756012,9.37589073181152,-0.419209986925125,-1.265251994133,-0.221037998795509,-1111.5,-3.30000019073486,-863.700012207031,2.8526628365296,0.0346339137713914,0.0766454471212052,DLR
13.7333333333333,-0.0119628589600325,-0.294286340475082,8.62103462219238,0.167683988809586,-1.08994603157043,-0.266770005226135,-1118.70007324219,4.5,-875.700012207031,2.85451555305855,0.0014605448936514,0.0349933247287528,DLR
13.7666666666667,0.326586067676544,-0.583787560462952,9.72700119018555,0.0228659994900227,-0.0381099991500378,1.28049600124359,-1116.30004882812,-0.900000035762787,-863.700012207031,2.84746127355845,0.032571658884101,0.059291386982864,DLR
13.8,0.984543323516846,-0.754258275032043,9.63907432556152,0.129574000835419,-0.518296003341675,0.769822001457214,-1121.10009765625,3.30000019073486,-861.300048828125,2.84203820040791,0.100382475682853,0.0774861726467407,DLR
13.8333333333333,0.739304721355438,-0.765622973442078,9.74374866485596,0.525918006896973,0.0609759986400604,-0.762199997901917,-1104.30004882812,2.70000004768372,-866.100036621094,2.84599499254192,0.0760102202422223,0.0773947223681788,DLR
13.8666666666667,1.55876052379608,-1.25669836997986,11.1469926834106,0.602137982845306,0.365855991840363,-5.35826587677002,-1111.5,4.5,-873.300048828125,2.86990025558914,0.136727728940121,0.109086183314052,DLR
13.9,1.9828439950943,-1.49057233333588,9.62112998962402,1.31860601902008,-0.289635986089706,-10.9299478530884,-1106.70007324219,3.90000009536743,-873.300048828125,2.91735990522585,0.202302695082145,0.146602871335118,DLR
13.9333333333333,1.16278994083405,-1.57132160663605,9.96446418762207,2.14178204536438,0.106707997620106,-18.0565166473389,-1106.70007324219,2.70000004768372,-870.900024414062,3.01527365903962,0.120728468575176,0.148650409063632,DLR
13.9666666666667,0.52636581659317,-1.81536388397217,8.54447269439697,2.9192259311676,-0.129574000835419,-21.9589805603027,-1106.70007324219,-5.70000028610229,-873.300048828125,3.12383453088017,0.0691069572263256,0.200222298914284,DLR
14.0,-0.547300815582275,-1.44331896305084,9.93276214599609,2.9116039276123,0.945127964019775,-25.4803447723389,-1097.10009765625,-3.30000019073486,-868.500061035156,-3.01931476115451,-0.0471580640613914,0.142075816355995,DLR
14.0333333333333,-0.324193477630615,-1.12091994285583,8.63539028167725,4.1463680267334,0.350611984729767,-26.5321807861328,-1080.30004882812,-9.30000019073486,-873.300048828125,-2.88263579817411,-0.0324186857729383,0.123884887454311,DLR
14.0666666666667,-1.24234294891357,-1.13228464126587,9.15517616271973,3.68142580986023,1.2500079870224,-26.2654113769531,-1070.70007324219,-12.9000005722046,-858.900024414062,-2.74124090127293,-0.128129591145393,0.122141357148843,DLR
14.1,-1.58507883548737,0.0651975870132446,10.1199808120728,3.60520601272583,0.160062000155449,-24.8248538970947,-1051.5,-27.9000015258789,-863.700012207031,-2.62862996533465,-0.154516171375148,-0.0026432963425588,DLR
14.1333333333333,-1.02940404415131,0.986935913562775,10.0314559936523,-0.358233988285065,-2.40855193138123,-4.64179801940918,-1032.30004882812,-25.5000019073486,-863.700012207031,-2.56478630389255,-0.0983670783786466,-0.0966058931626088,DLR
14.1666666666667,-0.41750380396843,1.30873680114746,9.60677433013916,-2.4923939704895,-2.04269599914551,-1.55488801002502,-1029.90002441406,-19.5,-861.300048828125,-2.55862827262435,-0.0414374726972216,-0.129970962097789,DLR
14.2,0.472532957792282,0.108862020075321,9.16055965423584,-2.85824990272522,-1.06708002090454,2.56099200248718,-1039.5,-23.7000007629395,-858.900024414062,-2.57186289576528,0.0509033695261014,-0.0100809216080693,DLR
14.2333333333333,0.14355431497097,-0.362474650144577,10.6188325881958,-1.69970595836639,0.670735955238342,1.01372599601746,-1039.5,-18.9000015258789,-878.100036621094,-2.58332140770523,0.0122771432897444,0.0371067777730988,DLR
14.2666666666667,-0.47552365064621,-0.123217448592186,10.7480306625366,0.259148001670837,0.914639949798584,0.106707997620106,-1029.90002441406,-23.1000003814697,-868.500061035156,-2.5846619049325,-0.0458078980994017,0.0110043872193118,DLR
14.3,0.643003702163696,0.522776961326599,7.27581119537354,2.46190595626831,-1.2500079870224,2.22562384605408,-1039.5,-18.9000015258789,-851.700012207031,-2.60809768812853,0.0903878424733225,-0.075686166086262,DLR
14.3333333333333,-0.202770471572876,0.0669920146465302,8.19575500488281,-0.327746003866196,1.59299790859222,1.73019397258759,-1039.5,-17.7000007629395,-854.100036621094,-2.61948447185271,-0.0242506145252978,-0.0094967721274357,DLR
14.3666666666667,-0.78177285194397,0.425877809524536,11.0506916046143,-1.27287399768829,2.62196803092957,0.205793991684914,-1034.70007324219,-18.9000015258789,-858.900024414062,-2.62285638282769,-0.0743404397105422,-0.0359142060275297,DLR
14.4,-0.248229339718819,0.189013183116913,9.98719310760498,0.647870004177094,0.457319974899292,1.10518991947174,-1029.90002441406,-23.7000007629395,-863.700012207031,-2.62789100094517,-0.0267603187527158,-0.0204891623944762,DLR
14.4333333333333,-0.584385693073273,-0.22968690097332,12.0986375808716,0.221037998795509,0.701223969459534,0.685979962348938,-1032.30004882812,-18.3000011444092,-858.900024414062,-2.63023341927623,-0.0490881417071943,0.0178365231760382,DLR
14.4666666666667,0.110058307647705,0.278734624385834,10.2952365875244,2.0579400062561,-0.975615978240967,0.381099998950958,-1032.30004882812,-15.3000001907349,-863.700012207031,-2.6330705832996,0.0111299861394256,-0.0296509044571561,DLR
14.5,0.814670741558075,1.00009500980377,11.1846752166748,1.21951997280121,-1.50915598869324,-1.82165801525116,-1020.30004882812,-22.5,-858.900024414062,-2.62029879293757,0.0734574457424604,-0.0902553703501702,DLR
14.5333333333333,1.03837621212006,1.45707631111145,6.92230844497681,2.38568592071533,-1.79879200458527,-1.58537602424622,-1025.10009765625,-18.9000015258789,-870.900024414062,-2.59918777601551,0.146257863141438,-0.208749738182603,DLR
14.5666666666667,0.541319370269775,0.702817976474762,9.43630313873291,0.434453994035721,1.00610399246216,-1.41769194602966,-1037.10009765625,-17.7000007629395,-861.300048828125,-2.60597849503805,0.0576751107918314,-0.0788738661517404,DLR
14.6,0.835007607936859,0.591563403606415,8.45056343078613,0.152439996600151,1.34909391403198,-1.41006994247437,-1037.10009765625,-22.5,-858.900024414062,-2.59951769731307,0.0949405173141441,-0.0705432265469761,DLR
14.6333333333333,-0.188415035605431,-0.244640469551086,10.4352025985718,-1.51677799224854,1.48628997802734,-1.70732796192169,-1027.5,-24.3000011444092,-858.900024414062,-2.59422086874774,-0.0174464687201318,0.0234757089761091,DLR
14.6666666666667,-0.0131591456010938,0.270958751440048,9.58882999420166,-0.0076219998300075,0.198172003030777,-0.655492007732391,-1022.70001220703,-18.9000015258789,-866.100036621094,-2.59132826825674,-0.0021702990911,-0.0268257707605689,DLR
14.7,-0.0239257179200649,-0.500645637512207,9.60198879241943,0.579271972179413,0.114329993724823,0.952749967575073,-1020.30004882812,-22.5,-856.500061035156,-2.5962046286761,-0.0027444102687308,0.0492234384543836,DLR
14.7333333333333,-0.276342064142227,-0.268566191196442,10.5362882614136,0.289635986089706,-0.121951997280121,0.525918006896973,-1039.5,-23.7000007629395,-861.300048828125,-2.59925403545681,-0.0253925365221164,0.025617971396072,DLR
14.7666666666667,-0.204564899206161,-0.0281127188354731,11.0536823272705,-0.129574000835419,-0.594515979290009,-0.0685980021953583,-1025.10009765625,-21.3000011444092,-861.300048828125,-2.59942225273289,-0.017681886346166,0.003393103014007,DLR
14.8,0.685471832752228,0.455186814069748,8.89259147644043,0.381099998950958,-1.34909391403198,-0.243903994560242,-1025.10009765625,-24.3000011444092,-863.700012207031,-2.59643533479691,0.0765260694723256,-0.050333672173865,DLR
14.8333333333333,0.66932201385498,0.533543527126312,8.80466461181641,0.381099998950958,-1.10518991947174,0.213415995240211,-1029.90002441406,-23.7000007629395,-866.100036621094,-2.59654833833349,0.0776510718362148,-0.0608743039316056,DLR
14.8666666666667,0.469542235136032,-0.0885251611471176,7.33682155609131,-0.602137982845306,-0.121951997280121,0.78506600856781,-1034.70007324219,-14.7000007629395,-861.300048828125,-2.60550644004947,0.0644874037679954,0.0111906665189051,DLR
14.9,-0.2613884806633,-0.397765070199966,10.4818572998047,-2.63721203804016,1.30336201190948,-0.0304879993200302,-1034.70007324219,-17.7000007629395,-858.900024414062,-2.60569878048763,-0.0246875191320663,0.0416825691689662,DLR
14.9333333333333,-0.0891233012080193,-0.259594053030014,10.716329574585,0.365855991840363,-0.0304879993200302,1.32622802257538,-1022.70001220703,-17.1000003814697,-868.500061035156,-2.61284280556499,-0.0087659485337133,0.0240502555991436,DLR
14.9666666666667,-0.0490477234125137,-0.171068891882896,10.880220413208,0.884151995182037,0.160062000155449,1.02134799957275,-1027.5,-17.1000003814697,-866.100036621094,-2.61815913552334,-0.0049216788826942,0.0144379845042333,DLR
15.0,-0.433055520057678,0.238060906529427,10.0966529846191,1.75305998325348,0.167683988809586,0.914639949798584,-1029.90002441406,-23.1000003814697,-868.500061035156,-2.62357157012289,-0.0420715651148584,-0.0255744123079029,DLR
15.0333333333333,-0.51739364862442,1.17953789234161,10.9340534210205,1.90549993515015,-0.243903994560242,0.0152439996600151,-1034.70007324219,-20.1000003814697,-863.700012207031,-2.62677109611009,-0.046467006076967,-0.108465458861021,DLR
15.0666666666667,0.247033044695854,1.51928317546844,8.50020980834961,2.44666194915771,-1.40244793891907,0.342989981174469,-1029.90002441406,-14.1000003814697,-856.500061035156,-2.62808187285665,0.028996798400185,-0.17915669403172,DLR
15.1,-0.177648469805717,0.770408153533936,7.84823369979858,-0.129574000835419,0.167683988809586,-0.907018005847931,-1017.90002441406,-18.3000011444092,-861.300048828125,-2.62382383078355,-0.0215718615912763,-0.0998208330384056,DLR
15.1333333333333,-0.628648281097412,0.570030272006989,9.78262805938721,-1.40244793891907,1.61586391925812,-1.40244793891907,-1037.10009765625,-12.9000005722046,-863.700012207031,-2.61566679422342,-0.0657942095856711,-0.0568209759455581,DLR
15.1666666666667,-0.876279473304749,0.793137550354004,8.87464714050293,0.716467976570129,0.983237981796265,-0.0457319989800453,-1015.50006103516,-18.9000015258789,-861.300048828125,-2.61819076592529,-0.0988259342041557,-0.0894758798320021,DLR
15.2,-1.16518247127533,0.686668157577515,9.16115760803223,0.350611984729767,0.967993974685669,-0.167683988809586,-1013.10003662109,-21.3000011444092,-858.900024414062,-2.61597103625283,-0.127075426688936,-0.0757902723272982,DLR
15.2333333333333,-1.01385235786438,0.195592746138573,10.7420492172241,-0.198172003030777,0.228659987449646,-0.46494197845459,-1025.10009765625,-23.1000003814697,-851.700012207031,-2.60746007011268,-0.0953984390439299,-0.0193537450584355,DLR
15.2666666666667,-0.939682602882385,0.318810194730759,10.6732635498047,0.320124000310898,-1.39482593536377,-0.304879993200302,-1017.90002441406,-16.5,-861.300048828125,-2.60651530613372,-0.0856307500420865,-0.0300679685150383,DLR
15.3,-0.339745193719864,0.700425446033478,10.9460163116455,0.480185985565186,-1.87501192092896,-0.762199997901917,-1017.90002441406,-18.9000015258789,-866.100036621094,-2.60360180428204,-0.0289795213151162,-0.0639734235246282,DLR
15.3333333333333,0.0986935868859291,0.421690791845322,8.96616268157959,0.419209986925125,-1.51677799224854,-0.213415995240211,-1032.30004882812,-21.3000011444092,-858.900024414062,-2.60194887939346,0.0124610720605025,-0.0481747173736235,DLR
15.3666666666667,0.0622068680822849,0.582591235637665,9.02896785736084,-0.777444005012512,-0.800309956073761,-0.198172003030777,-1013.10003662109,-18.3000011444092,-870.900024414062,-2.60049224912846,0.0083629782958943,-0.0626767155803469,DLR
15.4,0.104076877236366,0.323595345020294,9.46381855010986,-0.92988395690918,-0.335367977619171,0.724089980125427,-1029.90002441406,-19.5,-863.700012207031,-2.60474266150163,0.011561401828272,-0.0330856225818502,DLR
15.4333333333333,0.068188302218914,0.211144462227821,9.11330604553223,-0.350611984729767,-0.762199997901917,1.50915598869324,-1034.70007324219,-23.1000003814697,-861.300048828125,-2.6125465971938,0.0089459749814485,-0.0228161144961084,DLR
15.4666666666667,-0.156115308403969,0.580796837806702,9.76169300079346,-0.266770005226135,-1.30336201190948,2.72867584228516,-1013.10003662109,-18.9000015258789,-858.900024414062,-2.62810337155154,-0.0130750195377641,-0.0584484566440243,DLR
15.5,0.510814070701599,-0.248229339718819,9.85919094085693,-1.21951997280121,-0.617381989955902,3.28508186340332,-1037.10009765625,-16.5,-866.100036621094,-2.64755495571507,0.0513531702382906,0.0257762875117264,DLR
15.5333333333333,0.428868502378464,0.480906963348389,11.2881546020508,-0.503051996231079,-1.15092194080353,2.62959003448486,-1029.90002441406,-18.9000015258789,-856.500061035156,-2.65793665350181,0.0404104363917927,-0.0396799312030338,DLR
15.5666666666667,1.43793570995331,0.334361910820007,10.082896232605,1.37958192825317,-1.32622802257538,2.56861400604248,-1041.90002441406,-17.7000007629395,-863.700012207031,-2.67211834844423,0.141225921549207,-0.0351098285618251,DLR
15.6,1.32309222221375,0.0699827298521996,9.71324348449707,0.967993974685669,-0.297257989645004,1.31098401546478,-1041.90002441406,-24.3000011444092,-863.700012207031,-2.68307683467491,0.136070944856203,-0.0093017702172978,DLR
15.6333333333333,0.783567309379578,0.836203873157501,9.04751014709473,1.34147191047668,0.518296003341675,0.0152439996600151,-1037.10009765625,-24.3000011444092,-858.900024414062,-2.67482567472775,0.0865249779997236,-0.0921853582474629,DLR
15.6666666666667,0.552684128284454,0.882260859012604,8.24599933624268,0.899396002292633,1.265251994133,-0.419209986925125,-1029.90002441406,-15.9000005722046,-856.500061035156,-2.6724211790142,0.064733265899193,-0.107858711771983,DLR
15.7,-0.177648469805717,0.720164120197296,9.55712795257568,0.213415995240211,1.28049600124359,-0.320124000310898,-1034.70007324219,-21.9000015258789,-856.500061035156,-2.67196201455344,-0.0192634079707031,-0.07616221305873,DLR
15.7333333333333,-0.469542235136032,0.338548928499222,10.139121055603,-0.487807989120483,1.29574000835419,-0.0914639979600906,-1025.10009765625,-18.3000011444092,-856.500061035156,-2.67046853934855,-0.0478227684856679,-0.0335613103136826,DLR
15.7666666666667,-0.28112718462944,0.0819455906748772,11.7660703659058,-0.884151995182037,-0.167683988809586,-1.45580196380615,-1029.90002441406,-19.5,-858.900024414062,-2.6537069234013,-0.0236093855720201,-0.0053618001457346,DLR
15.8,0.246434897184372,0.688462555408478,10.1259622573853,0.503051996231079,-1.55488801002502,-0.266770005226135,-1022.70001220703,-14.7000007629395,-858.900024414062,-2.64909800144785,0.0269514905199741,-0.0687808279305388,DLR
15.8333333333333,0.184228032827377,-0.179442897439003,8.59591293334961,-1.44817996025085,1.36433792114258,0.388722002506256,-1025.10009765625,-20.7000007629395,-868.500061035156,-2.65498508756906,0.0190279533850823,0.0234094187624787,DLR
15.8666666666667,0.0873288735747337,1.10716259479523,8.55882740020752,1.88263392448425,-0.472563982009888,1.30336201190948,-1025.10009765625,-23.1000003814697,-861.300048828125,-2.68264970208449,0.0111944117501618,-0.13231859534059,DLR
15.9,-0.24882747232914,1.8446729183197,8.08150959014893,1.2347639799118,-0.0228659994900227,1.49391198158264,-1022.70001220703,-21.3000011444092,-861.300048828125,-2.69113955704183,-0.028444400485553,-0.224385441114131,DLR
15.9333333333333,-0.169872596859932,1.32727921009064,7.68673515319824,0.282013982534409,0.472563982009888,2.5076379776001,-1022.70001220703,-27.9000015258789,-870.900024414062,-2.70302880911386,-0.0219922219782433,-0.173015966857323,DLR
15.9666666666667,-0.591563403606415,1.00129127502441,9.7778434753418,-1.22714197635651,1.2347639799118,2.11129403114319,-1027.5,-23.1000003814697,-856.500061035156,-2.71204240577025,-0.0607730290341369,-0.102117965159646,DLR
16.0,-0.357689499855042,0.544310092926025,9.90943431854248,-0.868907988071442,0.495429992675781,1.91312193870544,-1029.90002441406,-22.5,-856.500061035156,-2.72119788546434,-0.0370747091971319,-0.0542479854602736,DLR
16.0333333333333,-0.512010395526886,0.70461243391037,11.4622135162354,-0.297257989645004,-0.0685980021953583,0.175305992364883,-1032.30004882812,-14.1000003814697,-861.300048828125,-2.72241065890634,-0.0442181199714423,-0.0607087592341635,DLR
16.0666666666667,-0.352904349565506,0.56464695930481,10.5655975341797,0.586893975734711,-0.602137982845306,-0.861285984516144,-1027.5,-15.9000005722046,-856.500061035156,-2.71728843984719,-0.0326561274491544,-0.05451370897759,DLR
16.1,-0.362474650144577,0.409727931022644,10.5309047698975,0.548784017562866,0.0685980021953583,-1.93598794937134,-1022.70001220703,-20.1000003814697,-873.300048828125,-2.70670326141693,-0.0345866777610071,-0.0401313808881056,DLR
16.1333333333333,-0.261986613273621,1.11493849754333,9.2227668762207,0.495429992675781,0.259148001670837,-2.00458598136902,-1013.10003662109,-18.9000015258789,-858.900024414062,-2.67852761551736,-0.0290651028444602,-0.121070976383821,DLR
16.1666666666667,-0.266771763563156,-0.0035888578277081,9.69171047210693,-0.670735955238342,0.495429992675781,-1.61586391925812,-1015.50006103516,-18.9000015258789,-863.700012207031,-2.66692133066504,-0.0284461307837431,-0.0017218787742974,DLR
16.2,-0.678892254829407,0.900803327560425,10.2264499664307,0.640248000621796,-0.3125019967556,-0.83841997385025,-1022.70001220703,-15.3000001907349,-854.100036621094,-2.66625915998161,-0.0645977578251167,-0.0865053659934966,DLR
16.2333333333333,0.113049022853374,0.854148149490356,10.2790870666504,1.47104597091675,-1.34147191047668,0.304879993200302,-1015.50006103516,-23.7000007629395,-868.500061035156,-2.66826031930097,0.0133352323650236,-0.0854682976070702,DLR
16.2666666666667,0.510215938091278,0.625657558441162,9.497314453125,-0.617381989955902,-0.594515979290009,-0.571649968624115,-1020.30004882812,-25.5000019073486,-863.700012207031,-2.66192907715113,0.0545247577035935,-0.0647631609449068,DLR
16.3,-0.269762486219406,0.487486511468887,9.95429515838623,-0.228659987449646,0.6250039935112,1.54726600646973,-1032.30004882812,-22.5,-870.900024414062,-2.68324086632072,-0.0280193277019028,-0.0486113239327661,DLR
16.3333333333333,-0.141759887337685,0.525767683982849,10.58473777771,0.716467976570129,-0.137196004390717,2.08842802047729,-1029.90002441406,-30.3000011444092,-851.700012207031,-2.69431932910283,-0.0133100387498416,-0.0508797589075866,DLR
16.3666666666667,-0.151928320527077,0.703416109085083,11.0267658233643,1.57013201713562,-0.495429992675781,2.34757590293884,-1027.5,-21.3000011444092,-858.900024414062,-2.70639795470435,-0.0126407795368983,-0.0660718275286139,DLR
16.4,0.47552365064621,0.704014301300049,8.03605079650879,1.38720393180847,0.609759986400604,1.57775402069092,-1027.5,-27.9000015258789,-858.900024414062,-2.71455544334499,0.0561317035121087,-0.0890226960135281,DLR
16.4333333333333,-0.807493031024933,0.836802005767822,10.2647314071655,-0.0228659994900227,1.2576299905777,0.0762199983000755,-1025.10009765625,-20.7000007629395,-866.100036621094,-2.7154189251093,-0.0766990723631831,-0.0815380778869543,DLR
16.4666666666667,-0.718967854976654,1.57491040229797,10.2156839370728,0.983237981796265,-0.0990860015153885,0.884151995182037,-1020.30004882812,-15.9000005722046,-868.500061035156,-2.72471991844084,-0.0692641790283201,-0.152788984176757,DLR
16.5,0.0705808699131012,0.804502308368683,8.32256126403809,0.815553963184357,-0.289635986089706,1.81403601169586,-1039.5,-21.3000011444092,-863.700012207031,-2.73215034210091,0.0071335620130359,-0.0992890528600333,DLR
16.5333333333333,-0.914560616016388,1.47860944271088,9.39144325256348,0.297257989645004,-0.541162014007568,1.16616594791412,-1029.90002441406,-20.1000003814697,-856.500061035156,-2.74073578410662,-0.0930652144417076,-0.155934844615871,DLR
16.5666666666667,-0.650181412696838,1.07007777690887,10.3622283935547,-0.792688012123108,1.28049600124359,1.38720393180847,-1027.5,-20.1000003814697,-849.300048828125,-2.74477713144312,-0.065078689015219,-0.103172047066162,DLR
16.6,0.472532957792282,1.30454981327057,7.88771152496338,0.602137982845306,-0.266770005226135,0.823175966739655,-1027.5,-21.9000015258789,-858.900024414062,-2.75319922394552,0.059723222310641,-0.164873507627966,DLR
16.6333333333333,-2.2292788028717,1.26148355007172,11.2881546020508,-1.44055795669556,0.746955990791321,3.42227792739868,-1032.30004882812,-20.1000003814697,-854.100036621094,-2.78736317107839,-0.194425991481148,-0.109975889101896,DLR
16.6666666666667,-0.0735715851187706,0.825437307357788,8.65811920166016,-2.14940404891968,-0.243903994560242,15.0991821289062,-1068.30004882812,-18.9000015258789,-854.100036621094,3.07487132728622,0.0154091455027898,-0.101088784311799,DLR
16.7,0.91575688123703,-0.467149674892426,7.86378574371338,-2.55336999893188,0.807931959629059,16.6769351959229,-1087.5,-10.5,-863.700012207031,2.97419805637832,0.110877365477216,0.0632855262718312,DLR
16.7333333333333,-0.262584775686264,-0.486888378858566,9.42792987823486,-2.94971394538879,1.15092194080353,13.8949060440063,-1082.70007324219,-11.1000003814697,-870.900024414062,2.90311098209228,-0.0273423073896709,0.0566050423805219,DLR
16.7666666666667,0.0029907147400081,-0.595152258872986,10.3688087463379,-2.69818782806396,1.01372599601746,12.7363615036011,-1082.70007324219,-13.5000009536743,-861.300048828125,2.83742408291633,-0.0035021367114902,0.061769175315434,DLR
16.8,0.454588651657104,-0.402550220489502,10.0775127410889,-1.96647596359253,-0.190549999475479,10.7927513122559,-1092.30004882812,-6.30000019073486,-868.500061035156,2.78212483899841,0.0432022582942415,0.0445636668734802,DLR
16.8333333333333,0.268566191196442,-1.13049018383026,10.3747901916504,-2.43141794204712,-0.602137982845306,9.51987743377686,-1089.90002441406,-5.70000028610229,-875.700012207031,2.72629768948212,0.0253281239106022,0.111990596488649,DLR
16.8666666666667,1.06888151168823,-1.05691862106323,10.5063810348511,-2.25611186027527,-0.983237981796265,7.29425382614136,-1097.10009765625,-7.50000047683716,-870.900024414062,2.68954018329433,0.0991775363280392,0.105567033170803,DLR
16.9,1.18910825252533,-0.801511585712433,9.54157638549805,-1.63872992992401,-2.27135586738586,5.07625198364258,-1113.90002441406,-2.70000004768372,-870.900024414062,2.66536048776218,0.125960256625437,0.0882864523457881,DLR
16.9333333333333,0.447410941123962,-0.912168025970459,8.90694713592529,-0.739333987236023,-0.327746003866196,4.5655779838562,-1106.70007324219,-1.5,-863.700012207031,2.64064143065281,0.0517605326664354,0.103398511308886,DLR
16.9666666666667,0.0592161528766155,-0.818259596824646,10.1367292404175,-0.381099998950958,1.00610399246216,3.47563195228577,-1099.5,5.70000028610229,-868.500061035156,2.623803228547,0.0048739737750304,0.0818699745951802,DLR
17.0,0.144750595092773,-0.744687974452972,9.35256385803223,0.716467976570129,1.38720393180847,2.46190595626831,-1101.90002441406,3.30000019073486,-863.700012207031,2.6116440508718,0.0124635429227399,0.0783519903040026,DLR
17.0333333333333,-0.378624498844147,-0.592161536216736,10.1457014083862,0.922261953353882,1.18903195858002,0.0381099991500378,-1111.5,-1.5,-873.300048828125,2.61167840282625,-0.0379048432605148,0.0572821887143131,DLR
17.0666666666667,-0.581394970417023,-0.409129798412323,10.4764738082886,1.71494996547699,0.525918006896973,-0.792688012123108,-1104.30004882812,-3.90000009536743,-863.700012207031,2.61565473905488,-0.0558804983197406,0.0365552147247189,DLR
17.1,-0.519188106060028,-0.30923992395401,10.4932222366333,1.36433792114258,-0.198172003030777,-1.46342396736145,-1094.70007324219,-3.90000009536743,-878.100036621094,2.62307998120807,-0.0491858983289778,0.0274619648435135,DLR
17.1333333333333,-0.0825437307357788,-0.218920320272446,9.18807411193848,1.04421401023865,-0.800309956073761,-1.47866797447205,-1092.30004882812,-5.10000038146973,-873.300048828125,2.63060318011628,-0.0086601672272631,0.0221796450207892,ST
17.1666666666667,-0.233275756239891,-0.230883181095123,9.64684963226318,0.236281991004944,0.0533539988100529,-1.41006994247437,-1085.10009765625,-8.70000076293945,-873.300048828125,2.63840537965435,-0.0238832079291587,0.0235434306521003,ST
17.2,0.535936117172241,-0.302062213420868,8.92010593414307,0.25152599811554,-0.663114011287689,-1.37195992469788,-1089.90002441406,-9.90000057220459,-863.700012207031,2.64519810010664,0.0588903275479586,0.0330256290301509,ST
17.2333333333333,0.0980954468250275,-0.404344648122787,9.78621673583984,0.259148001670837,-0.0076219998300075,-1.74543797969818,-1106.70007324219,2.10000014305115,-861.300048828125,2.65393316558834,0.0114768011344712,0.0405820453762245,ST
17.2666666666667,-0.983945190906525,-0.390587359666824,8.86328220367432,0.487807989120483,1.37195992469788,-1.21951997280121,-1097.10009765625,-0.300000011920929,-882.900024414062,2.66085254014831,-0.109366928170951,0.0433293540606732,ST
17.3,-0.738108456134796,-0.238060906529427,10.8245935440063,0.388722002506256,1.49391198158264,-0.121951997280121,-1092.30004882812,-6.30000019073486,-863.700012207031,2.65993461765147,-0.0717216177129967,0.0219279079525078,ST
17.3333333333333,0.153722748160362,-0.22968690097332,9.2401123046875,1.03659200668335,-1.06708002090454,0.0914639979600906,-1092.30004882812,-2.70000004768372,-868.500061035156,2.65942495625246,0.0160308967173092,0.0230147144283976,ST
17.3666666666667,-0.787156164646149,-0.250621914863586,9.40280723571777,1.18903195858002,-1.82927989959717,0.259148001670837,-1097.10009765625,-6.90000009536743,-868.500061035156,2.65820080512173,-0.0776849220283644,0.0244927580252542,ST
