seconds,sensor_accX_m_s_,sensor_accY_m_s_,sensor_accZ_m_s_,sensor_gyroX___s_,sensor_gyroY___s_,sensor_gyroZ___s_,sensor_magX__T_,sensor_magY__T_,sensor_magZ__T_,sensor_yaw___,sensor_pitch___,sensor_roll___,label2
0.0,-0.338548928499222,-0.781174719333649,9.64924240112305,0.350611984729767,-0.0838419944047928,0.190549999475479,-1109.10009765625,3.90000009536743,-868.500061035156,-2.3165080199366,-0.0340106694161999,0.0803241190709425,ST
0.0333333333333333,-0.311034351587296,-0.744687974452972,9.62711143493652,0.358233988285065,-0.0533539988100529,0.129574000835419,-1099.5,4.5,-875.700012207031,-2.3170410349236,-0.0322960430796727,0.0769065411467487,ST
0.0666666666666667,-0.349315494298935,-0.713584542274475,9.58524131774902,0.350611984729767,-0.167683988809586,0.198172003030777,-1109.10009765625,1.5,-875.700012207031,-2.31782505570852,-0.0357198948897422,0.0739758535284818,ST
0.1,-0.352306216955185,-0.704014301300049,9.58344650268555,0.297257989645004,-0.152439996600151,0.282013982534409,-1113.90002441406,-0.900000035762787,-873.300048828125,-2.31883662093991,-0.0363542653660605,0.0728995220558517,ST
0.133333333333333,-0.333165645599365,-0.738108456134796,9.56968975067139,0.243903994560242,-0.0304879993200302,0.304879993200302,-1118.70007324219,2.70000004768372,-885.300048828125,-2.31974697347137,-0.0348358006634864,0.0762042409926259,ST
0.166666666666667,-0.340941488742828,-0.716575264930725,9.62352180480957,0.236281991004944,-0.0457319989800453,0.236281991004944,-1116.30004882812,5.10000038146973,-890.100036621094,-2.32061739829697,-0.0352275935589644,0.0741053601708931,ST
0.2,-0.342735916376114,-0.741697311401367,9.59899806976318,0.25152599811554,-0.137196004390717,0.167683988809586,-1101.90002441406,2.10000014305115,-873.300048828125,-2.32111776662736,-0.0353550343215262,0.0764334584454948,ST
0.233333333333333,-0.438438802957535,-0.706406831741333,9.67316818237305,0.205793991684914,-0.198172003030777,0.152439996600151,-1106.70007324219,-2.10000014305115,-873.300048828125,-2.3218234291697,-0.0440640034469339,0.0728496819398402,ST
0.266666666666667,-0.379820793867111,-0.725547432899475,9.54217529296875,0.213415995240211,-0.175305992364883,0.320124000310898,-1111.5,-2.70000004768372,-880.500061035156,-2.32287217475566,-0.0397907647031348,0.0752752433527845,ST
0.3,-0.359483927488327,-0.705808699131012,9.6941032409668,0.221037998795509,-0.205793991684914,0.358233988285065,-1113.90002441406,2.10000014305115,-868.500061035156,-2.32423389240932,-0.0369390993574234,0.0725415083909055,ST
0.333333333333333,-0.332567483186722,-0.709995687007904,9.59899806976318,0.335367977619171,-0.190549999475479,0.472563982009888,-1123.5,-0.300000011920929,-882.900024414062,-2.32584641203359,-0.0345082354521569,0.0731551316442834,ST
0.366666666666667,-0.337352633476257,-0.687266290187836,9.59062480926514,0.342989981174469,-0.160062000155449,0.457319974899292,-1099.5,-0.300000011920929,-875.700012207031,-2.32753932416826,-0.034821092884494,0.071096444407236,ST
0.4,-0.37623193860054,-0.643601834774017,9.62950325012207,0.3125019967556,-0.160062000155449,0.449698001146317,-1118.70007324219,2.10000014305115,-868.500061035156,-2.32925073489068,-0.0383839489232348,0.0666081173190466,ST
0.433333333333333,-0.323595345020294,-0.66034984588623,9.60378360748291,0.297257989645004,-0.259148001670837,0.457319974899292,-1111.5,-3.90000009536743,-875.700012207031,-2.3308493505817,-0.0336333932869251,0.0679802469918016,ST
0.466666666666667,-0.282921612262726,-0.659153580665588,9.63249397277832,0.25152599811554,-0.365855991840363,0.327746003866196,-1099.5,0.900000035762787,-880.500061035156,-2.33211302691397,-0.0290687964294407,0.067874913825321,ST
0.5,-0.285314202308655,-0.660947978496552,9.66539192199707,0.266770005226135,-0.365855991840363,0.190549999475479,-1113.90002441406,0.300000011920929,-882.900024414062,-2.33283067129759,-0.028849180309234,0.0678069606943962,ST
0.533333333333333,-0.282323479652405,-0.61548912525177,9.60856914520264,0.327746003866196,-0.243903994560242,0.121951997280121,-1101.90002441406,3.90000009536743,-873.300048828125,-2.3333893766497,-0.028898068369614,0.0637895010918325,ST
0.566666666666667,-0.28710862994194,-0.616087257862091,9.57567119598389,0.282013982534409,-0.0914639979600906,0.144817993044853,-1118.70007324219,0.300000011920929,-875.700012207031,-2.33389602246887,-0.029697140658614,0.063753526684108,ST
0.6,-0.343932211399078,-0.623863101005554,9.64146614074707,0.259148001670837,-0.0533539988100529,0.228659987449646,-1111.5,-0.300000011920929,-885.300048828125,-2.33472444253944,-0.0351154722969069,0.0641228150721056,ST
0.633333333333333,-0.339147061109543,-0.61249840259552,9.61096096038818,0.266770005226135,-0.0609759986400604,0.388722002506256,-1106.70007324219,4.5,-880.500061035156,-2.33607614103085,-0.0351362693968091,0.0632411450848145,ST
0.666666666666667,-0.311632484197617,-0.595152258872986,9.54755783081055,0.243903994560242,-0.0304879993200302,0.457319974899292,-1116.30004882812,-6.90000009536743,-887.700012207031,-2.33781743856257,-0.0327386869183882,0.0619016115052333,ST
0.7,-0.366063505411148,-0.628050148487091,9.65462589263916,0.205793991684914,-0.0457319989800453,0.472563982009888,-1109.10009765625,3.30000019073486,-868.500061035156,-2.3393458693927,-0.037333725994047,0.0643293668451468,ST
0.733333333333333,-0.300267785787582,-0.631040811538696,9.59720420837402,0.160062000155449,-0.121951997280121,0.358233988285065,-1109.10009765625,2.70000004768372,-875.700012207031,-2.34055679504849,-0.0316073006535498,0.0652647631554737,ST
0.766666666666667,-0.312828779220581,-0.620274245738983,9.60737228393555,0.129574000835419,-0.335367977619171,0.289635986089706,-1104.30004882812,-1.5,-882.900024414062,-2.34171028535634,-0.0319063213697335,0.0643075087044074,ST
0.8,-0.28411790728569,-0.635825991630554,9.55473613739014,0.0076219998300075,-0.304879993200302,0.282013982534409,-1111.5,-0.300000011920929,-873.300048828125,-2.34272256396757,-0.0293897017621538,0.0662441258065559,ST
0.833333333333333,-0.267369896173477,-0.692051410675049,9.61275577545166,-0.0381099991500378,-0.205793991684914,0.236281991004944,-1104.30004882812,-3.90000009536743,-873.300048828125,-2.3434929052819,-0.0275555726956386,0.0714950099464986,ST
0.866666666666667,-0.30624920129776,-0.692051410675049,9.63727951049805,0.0076219998300075,-0.0990860015153885,0.129574000835419,-1109.10009765625,5.10000038146973,-873.300048828125,-2.34395845525283,-0.0311695671908793,0.0716507602325504,ST
0.9,-0.351708054542542,-0.704014301300049,9.64984035491943,0.0457319989800453,-0.0838419944047928,0.114329993724823,-1116.30004882812,-3.90000009536743,-885.300048828125,-2.34433469656125,-0.0357475801173907,0.0726413912046423,ST
0.933333333333333,-0.37623193860054,-0.680088579654694,9.63668155670166,0.0381099991500378,-0.152439996600151,0.137196004390717,-1106.70007324219,9.30000019073486,-863.700012207031,-2.34496393520824,-0.0384754036276154,0.0705352347084251,ST
0.966666666666667,-0.322997212409973,-0.736313998699188,9.5272216796875,0.0152439996600151,-0.228659987449646,0.297257989645004,-1104.30004882812,-2.70000004768372,-882.900024414062,-2.3458287262225,-0.0338864583401905,0.0764937034586905,ST
1.0,-0.346324771642685,-0.742893576622009,9.67855167388916,0.0304879993200302,-0.205793991684914,0.213415995240211,-1109.10009765625,2.70000004768372,-880.500061035156,-2.34666044923247,-0.0352238800002926,0.0765358758841129,ST
1.03333333333333,-0.267968058586121,-0.756650865077972,9.60976505279541,0.0914639979600906,-0.213415995240211,0.106707997620106,-1106.70007324219,-0.300000011920929,-870.900024414062,-2.34702124082881,-0.0281395224483262,0.0782401811032153,ST
1.06666666666667,-0.289501190185547,-0.748276829719543,9.59301662445068,0.0685980021953583,-0.213415995240211,0.0,-1092.30004882812,5.10000038146973,-878.100036621094,-2.34708697063992,-0.0295769909639978,0.0777667106315831,ST
1.1,-0.332567483186722,-0.745884299278259,9.63189601898193,0.0228659994900227,-0.213415995240211,0.0228659994900227,-1118.70007324219,3.30000019073486,-875.700012207031,-2.34723947521737,-0.0336736662005153,0.0772859305846248,ST
1.13333333333333,-0.292491912841797,-0.78177285194397,9.6163444519043,-0.0152439996600151,-0.213415995240211,0.114329993724823,-1113.90002441406,-1.5,-880.500061035156,-2.34758122827243,-0.0302882306872019,0.0807890106211982,ST
1.16666666666667,-0.291295617818832,-0.816465139389038,9.61335372924805,-0.0076219998300075,-0.221037998795509,0.106707997620106,-1113.90002441406,-3.30000019073486,-880.500061035156,-2.34790469987202,-0.0298572786660522,0.0843769075935595,ST
1.2,-0.305651068687439,-0.851755619049072,9.64505577087402,0.0685980021953583,-0.190549999475479,0.0762199983000755,-1106.70007324219,4.5,-880.500061035156,-2.34813449442947,-0.0311328054956294,0.0876868373647303,ST
1.23333333333333,-0.448009073734283,-0.851157426834106,9.72101974487305,0.129574000835419,-0.144817993044853,0.0609759986400604,-1099.5,4.5,-885.300048828125,-2.34841221911764,-0.0446394500393827,0.0871443724651633,ST
1.26666666666667,-0.680088579654694,-0.920542061328888,9.78502082824707,0.358233988285065,0.0304879993200302,0.152439996600151,-1109.10009765625,-4.5,-882.900024414062,-2.34854987545077,-0.0669456198991652,0.0926145188516431,ST
1.3,-0.888242304325104,-0.936093747615814,9.7479362487793,0.586893975734711,0.0304879993200302,0.25152599811554,-1118.70007324219,3.30000019073486,-885.300048828125,-2.34909581746553,-0.0884147291607974,0.0944889703640727,ST
1.33333333333333,-1.20406174659729,-0.928916037082672,9.50628662109375,0.693601965904236,-0.137196004390717,0.266770005226135,-1106.70007324219,-0.900000035762787,-870.900024414062,-2.34963670773688,-0.121874435208921,0.0959902688759438,ST
1.36666666666667,-2.01394748687744,-0.672910869121552,9.21259784698486,0.6250039935112,-0.228659987449646,0.6250039935112,-1106.70007324219,2.70000004768372,-882.900024414062,-2.35525387717989,-0.207368913416536,0.0734860868298559,ST
1.4,-2.43085312843323,-0.626255691051483,9.5804557800293,0.800309956073761,-0.205793991684914,1.6692179441452,-1111.5,1.5,-873.300048828125,-2.36254744777154,-0.24446686097711,0.0640297026340462,ST
1.43333333333333,-2.06179881095886,-0.687266290187836,9.45664024353027,0.92988395690918,-0.670735955238342,2.14940404891968,-1111.5,0.300000011920929,-890.100036621094,-2.36871402121275,-0.215166443511844,0.0696977804910501,ST
1.46666666666667,-1.54261076450348,-0.698032855987549,9.58823204040527,0.87652999162674,-1.54726600646973,1.56251001358032,-1116.30004882812,2.70000004768372,-885.300048828125,-2.37397665052113,-0.161022736150156,0.0705763189303388,ST
1.5,-1.08323693275452,-0.659751713275909,9.2167854309082,0.701223969459534,-2.63721203804016,0.685979962348938,-1116.30004882812,-0.300000011920929,-880.500061035156,-2.3769420648189,-0.115545435914029,0.0700864813213132,ST
1.53333333333333,-0.702817976474762,-0.608311414718628,9.17910194396973,0.640248000621796,-3.05642199516296,-0.0304879993200302,-1135.5,0.900000035762787,-868.500061035156,-2.37781169651666,-0.0742904049422877,0.065414794459301,ST
1.56666666666667,-0.651975810527802,-0.427672237157822,9.07083797454834,0.708845973014832,-3.06404399871826,-0.0762199983000755,-1133.10009765625,-6.30000019073486,-870.900024414062,-2.37921247494847,-0.0670470554622928,0.0476353729928971,ST
1.6,-0.653770267963409,-0.245238617062569,9.05349159240723,0.647870004177094,-2.53812599182129,0.236281991004944,-1128.30004882812,-1.5,-875.700012207031,-2.38151882673116,-0.0675931029737442,0.0278797270946633,ST
1.63333333333333,-0.384007781744003,-0.198583468794823,9.18927001953125,0.525918006896973,-1.92836594581604,0.663114011287689,-1133.10009765625,3.30000019073486,-870.900024414062,-2.38422975867705,-0.0410561007150244,0.0212870557377705,ST
1.66666666666667,-0.205761179327965,-0.244042336940765,9.2227668762207,0.350611984729767,-1.48628997802734,0.655492007732391,-1140.30004882812,2.70000004768372,-866.100036621094,-2.38645023979523,-0.0216626899288672,0.025402534786494,ST
1.7,-0.156713455915451,-0.346922934055328,9.25626277923584,0.0381099991500378,-1.40244793891907,0.0914639979600906,-1133.10009765625,-1.5,-868.500061035156,-2.38674450412893,-0.0150183773640112,0.036487530404042,ST
1.73333333333333,-0.199181616306305,-0.352904349565506,9.4195556640625,-0.0228659994900227,-1.08232402801514,-0.236281991004944,-1142.70007324219,-2.10000014305115,-868.500061035156,-2.38605296788224,-0.0188440593571565,0.0374026142908187,ST
1.76666666666667,-0.164489313960075,-0.331969350576401,9.57746505737305,0.175305992364883,-1.22714197635651,-0.297257989645004,-1135.5,0.900000035762787,-861.300048828125,-2.38510896167332,-0.0152440609656867,0.0345396403730358,ST
1.8,0.257201462984085,-0.304454773664474,9.94173431396484,0.480185985565186,-1.76068198680878,-0.0609759986400604,-1133.10009765625,-0.900000035762787,-868.500061035156,-2.38508466887401,0.0258918419541195,0.0301039697283365,ST
1.83333333333333,0.598741114139557,-0.343334078788757,9.79160022735596,0.289635986089706,-2.41617393493652,0.0381099991500378,-1145.10009765625,-1.5,-875.700012207031,-2.3857116876797,0.0616868368720611,0.0341522335079131,ST
1.86666666666667,0.765024840831757,-0.153722748160362,10.2641334533691,0.0685980021953583,-2.59148001670837,-0.274392008781433,-1140.30004882812,-0.300000011920929,-858.900024414062,-2.38377350033069,0.0773622276081283,0.016575670495524,ST
1.9,1.12690138816833,0.0065795728005468,10.314377784729,0.449698001146317,-2.57623600959778,-0.205793991684914,-1147.5,-1.5,-858.900024414062,-2.38174143670215,0.110069390934105,0.0001761027649981,ST
1.93333333333333,1.73222208023071,-0.0855344459414482,10.0816993713379,0.647870004177094,-2.56099200248718,-0.37347799539566,-1159.5,0.900000035762787,-863.700012207031,-2.38166613551631,0.170186229848077,0.0067586587734581,ST
1.96666666666667,1.57849931716919,-0.278734624385834,9.60976505279541,0.25152599811554,-2.00458598136902,-0.655492007732391,-1164.30004882812,5.10000038146973,-858.900024414062,-2.3830013361634,0.166621402099814,0.0264273393327993,ST
2.0,0.957028746604919,-0.51739364862442,9.93993949890137,-0.670735955238342,-0.236281991004944,-0.6250039935112,-1145.10009765625,-3.90000009536743,-842.100036621094,-2.38369704437353,0.101156790336965,0.0512369703158787,ST
2.03333333333333,-0.138769164681435,-0.13398402929306,10.8192100524902,-0.114329993724823,0.884151995182037,-0.198172003030777,-1161.90002441406,2.70000004768372,-854.100036621094,-2.38115084987479,-0.0056264437183237,0.0154890645068128,ST
2.06666666666667,-0.212340757250786,-0.163293033838272,10.2384128570557,0.564027965068817,1.41769194602966,0.548784017562866,-1149.90002441406,3.90000009536743,-858.900024414062,-2.38294957031864,-0.0216305208697356,0.0149956707461567,ST
2.1,-0.412120521068573,-0.0328978635370731,9.94233226776123,0.670735955238342,1.34909391403198,0.0990860015153885,-1157.10009765625,-0.300000011920929,-863.700012207031,-2.38354730969643,-0.04177884538413,0.0032964845941395,ST
2.13333333333333,-0.604124426841736,-0.080151155591011,10.0918684005737,0.769822001457214,1.21951997280121,-0.0076219998300075,-1152.30004882812,2.10000014305115,-854.100036621094,-2.38319087579052,-0.0603988255061776,0.0063503866580662,ST
2.16666666666667,-0.431261092424393,-0.336156338453293,9.80655384063721,0.381099998950958,0.983237981796265,-0.297257989645004,-1154.70007324219,-1.5,-866.100036621094,-2.38069305214043,-0.046963517396854,0.0311634026659462,ST
2.2,-0.374437510967255,-0.290697485208511,9.91302299499512,-0.37347799539566,0.670735955238342,-0.365855991840363,-1152.30004882812,-1.5,-861.300048828125,-2.37946066099928,-0.0396192378485461,0.0301015068125207,ST
2.23333333333333,-0.495262384414673,-0.382811486721039,9.88311672210693,-0.609759986400604,0.442075997591019,0.0990860015153885,-1140.30004882812,0.900000035762787,-866.100036621094,-2.37946791361449,-0.0499660744518169,0.039042330001684,ST
2.26666666666667,-0.848764896392822,-0.705808699131012,9.98838901519775,-0.899396002292633,1.36433792114258,0.800309956073761,-1140.30004882812,-2.10000014305115,-861.300048828125,-2.38029145507612,-0.0842314187657554,0.0695267453246289,ST
2.3,-0.966000914573669,-0.852353751659393,9.60617637634277,-0.907018005847931,1.92836594581604,1.02897000312805,-1140.30004882812,-2.10000014305115,-858.900024414062,-2.38186010387956,-0.101610137943518,0.0880856648880453,ST
2.33333333333333,-1.14843451976776,-0.939084470272064,9.51047325134277,-0.868907988071442,2.34757590293884,1.2423859834671,-1142.70007324219,4.5,-863.700012207031,-2.38450670999569,-0.121868042656394,0.0986772777049541,ST
2.36666666666667,-1.28600740432739,-0.77878212928772,9.07861423492432,-0.381099998950958,2.33995389938354,0.937505960464478,-1137.90002441406,6.30000019073486,-880.500061035156,-2.38903128394664,-0.1430115473425,0.0868508595167641,ST
2.4,-1.57969558238983,-0.652574002742767,8.88481616973877,0.228659987449646,2.46952795982361,0.548784017562866,-1137.90002441406,3.90000009536743,-873.300048828125,-2.39228707952499,-0.177333410812169,0.0737795336632682,ST
2.43333333333333,-1.48279643058777,-0.673509001731873,9.31787109375,0.419209986925125,2.47714996337891,0.121951997280121,-1130.70007324219,-0.900000035762787,-868.500061035156,-2.39218682194594,-0.162911479933297,0.071617521290586,ST
2.46666666666667,-1.75554966926575,-0.620872378349304,10.3777809143066,0.0381099991500378,1.27287399768829,-0.647870004177094,-1125.90002441406,5.10000038146973,-873.300048828125,-2.39143784553118,-0.168841527562539,0.0609635383727915,ST
2.5,-1.63651919364929,-0.446812808513641,9.93395805358887,0.213415995240211,0.0457319989800453,-0.403965979814529,-1123.5,0.300000011920929,-866.100036621094,-2.39230324239389,-0.163548903992001,0.0458101416267701,ST
2.53333333333333,-1.86620604991913,-0.2613884806633,9.32325458526611,1.08232402801514,0.647870004177094,1.41769194602966,-1118.70007324219,-2.10000014305115,-878.100036621094,-2.39963164407844,-0.195509584465355,0.027505640075293,ST
2.56666666666667,-1.08443319797516,-0.425279647111893,8.56959438323975,1.21951997280121,1.2500079870224,2.30946588516235,-1128.30004882812,-2.70000004768372,-873.300048828125,-2.40457158644522,-0.132299950712948,0.0456994829290845,ST
2.6,-0.352306216955185,-1.04854464530945,8.73767280578613,0.0914639979600906,0.327746003866196,1.56251001358032,-1128.30004882812,-2.10000014305115,-870.900024414062,-2.40375130765954,-0.0491642222044244,0.112495052158981,ST
2.63333333333333,-0.471934795379639,-1.19269704818726,9.1802978515625,-0.800309956073761,-0.823175966739655,0.510673999786377,-1118.70007324219,-0.900000035762787,-870.900024414062,-2.40517393258024,-0.0495798982425037,0.128906751690299,ST
2.66666666666667,-0.733921408653259,-1.20406174659729,9.42194843292236,-0.442075997591019,-0.83841997385025,0.823175966739655,-1121.10009765625,-3.90000009536743,-873.300048828125,-2.40852021889864,-0.0734683141668789,0.127870404536031,ST
2.7,-1.1155366897583,-1.29019439220428,9.54576396942139,0.228659987449646,0.510673999786377,1.95885396003723,-1118.70007324219,3.90000009536743,-875.700012207031,-2.41440939214573,-0.112720422189597,0.133084145729995,ST
2.73333333333333,-1.08802211284637,-1.36795294284821,10.2330303192139,0.213415995240211,1.28049600124359,2.43141794204712,-1113.90002441406,8.70000076293945,-858.900024414062,-2.42258660838783,-0.108148000113645,0.132166512163907,ST
2.76666666666667,-0.952841758728027,-1.41580438613892,9.98121166229248,0.182927995920181,0.632625997066498,2.40092992782593,-1118.70007324219,-6.90000009536743,-875.700012207031,-2.42988618727495,-0.0969204148990884,0.139527455130393,ST
2.8,-0.52935653924942,-1.14424753189087,10.2330303192139,-0.129574000835419,-0.975615978240967,1.05945801734924,-1125.90002441406,6.30000019073486,-882.900024414062,-2.4440806203856,-0.0498780650401653,0.111481304950312,ST
2.83333333333333,-0.785361707210541,-0.571226537227631,9.67137336730957,0.945127964019775,-0.0533539988100529,1.00610399246216,-1121.10009765625,5.70000028610229,-870.900024414062,-2.45467244719496,-0.080879886331887,0.0572297141871487,ST
2.86666666666667,-0.82065212726593,-0.126806303858757,10.0894756317139,1.08994603157043,-0.442075997591019,0.594515979290009,-1121.10009765625,0.900000035762787,-870.900024414062,-2.45996633506317,-0.0804506521871253,0.0144383585478624,ST
2.9,-0.491075366735458,-0.126806303858757,9.7120475769043,1.18903195858002,-1.00610399246216,0.541162014007568,-1133.10009765625,9.30000019073486,-882.900024414062,-2.46193193837566,-0.0511613013101236,0.0111911490313207,ST
2.93333333333333,-0.0209350045770407,-0.246434897184372,9.01999568939209,0.800309956073761,-1.22714197635651,-0.304879993200302,-1121.10009765625,3.90000009536743,-870.900024414062,-2.4604898181734,-0.0043835221365133,0.0247082057772175,ST
2.96666666666667,-0.16568560898304,-0.256005197763443,8.94343376159668,0.396344006061554,-0.701223969459534,-1.27287399768829,-1123.5,0.900000035762787,-878.100036621094,-2.45571394374393,-0.0163498486858234,0.0277330264064648,ST
3.0,-0.503636360168457,-0.137572884559631,9.36512470245361,0.945127964019775,-0.411587983369827,-1.01372599601746,-1125.90002441406,-2.10000014305115,-870.900024414062,-2.45256218329347,-0.0496589505041966,0.0144379444690294,ST
3.03333333333333,-0.132189601659775,-0.263781040906906,9.01521110534668,1.41769194602966,-0.525918006896973,-0.510673999786377,-1135.5,3.90000009536743,-880.500061035156,-2.45031417752504,-0.0169691419356065,0.0256816220219363,ST
3.06666666666667,-0.508421540260315,-0.47552365064621,9.72700119018555,0.975615978240967,-0.0838419944047928,-0.37347799539566,-1123.5,2.10000014305115,-878.100036621094,-2.44811843740383,-0.0495798030219379,0.0456938827790761,ST
3.1,-1.01624488830566,-0.390587359666824,9.62591457366943,0.693601965904236,1.30336201190948,-0.297257989645004,-1133.10009765625,-5.70000028610229,-858.900024414062,-2.44706830980936,-0.102991037095895,0.0398780804629592,ST
3.13333333333333,-1.30215728282928,-0.422288924455643,10.0254745483398,0.342989981174469,2.14178204536438,-0.0457319989800453,-1118.70007324219,0.900000035762787,-880.500061035156,-2.44625648277311,-0.130533367401958,0.0414030919963426,ST
3.16666666666667,-1.66523003578186,-0.0789548754692078,12.0657396316528,0.937505960464478,0.78506600856781,-0.3125019967556,-1111.5,0.900000035762787,-861.300048828125,-2.44912327413391,-0.137791132682581,0.0082817437661489,ST
3.2,-0.783567309379578,0.293090045452118,10.4429779052734,1.6768399477005,-2.28659987449646,0.419209986925125,-1125.90002441406,-2.10000014305115,-873.300048828125,-2.45384506065945,-0.0754649880296481,-0.0283481769087717,ST
3.23333333333333,0.106469452381134,0.452794224023819,8.46790981292725,0.503051996231079,-2.62196803092957,0.213415995240211,-1133.10009765625,-3.30000019073486,-868.500061035156,-2.45496186570761,0.0107692016206838,-0.0525190926756152,ST
3.26666666666667,-0.187816888093948,0.373839348554611,9.18448543548584,-0.236281991004944,-0.777444005012512,0.617381989955902,-1123.5,5.10000038146973,-861.300048828125,-2.45706330590963,-0.0167794714554107,-0.0412040275188675,ST
3.3,-0.133385881781578,0.13398402929306,10.3574438095093,-0.716467976570129,-0.129574000835419,0.655492007732391,-1137.90002441406,1.5,-861.300048828125,-2.45895252054408,-0.0130035185895313,-0.0143699906111212,ST
3.33333333333333,-0.343932211399078,0.111852735280991,10.4363985061646,-0.342989981174469,-1.37958192825317,0.434453994035721,-1137.90002441406,-2.10000014305115,-870.900024414062,-2.46034170861088,-0.0289397141541315,-0.0105202572419656,ST
3.36666666666667,-0.464757084846497,-0.128002598881721,10.1474952697754,-0.259148001670837,-1.27287399768829,0.602137982845306,-1123.5,2.10000014305115,-873.300048828125,-2.46170198816857,-0.0422285435873718,0.0108919061303093,ST
3.4,-0.421690791845322,-0.587974548339844,9.3118896484375,-0.617381989955902,-0.762199997901917,0.701223969459534,-1130.70007324219,0.300000011920929,-863.700012207031,-2.46223829274433,-0.0437497998118907,0.0592652025206496,ST
3.43333333333333,-0.474327385425568,-0.86192399263382,9.76109504699707,-0.777444005012512,-0.0381099991500378,0.228659987449646,-1123.5,3.90000009536743,-875.700012207031,-2.46195595222882,-0.0480199142566073,0.0873389570105267,ST
3.46666666666667,-0.474327385425568,-1.02521705627441,9.53200626373291,-0.46494197845459,-0.144817993044853,0.0609759986400604,-1128.30004882812,0.900000035762787,-863.700012207031,-2.46138289358656,-0.0490896387112765,0.10608380325309,ST
3.5,-0.990524768829346,-0.777585864067078,9.83586311340332,0.0304879993200302,0.289635986089706,-0.121951997280121,-1130.70007324219,0.900000035762787,-878.100036621094,-2.46266671112292,-0.0966625487045768,0.0809266652276269,ST
3.53333333333333,-1.00188946723938,-0.60950767993927,9.81911468505859,0.777444005012512,-0.297257989645004,0.114329993724823,-1125.90002441406,1.5,-875.700012207031,-2.46472596847443,-0.100659347009374,0.0621466961780162,ST
3.56666666666667,-1.29079258441925,-0.55567479133606,9.61514854431152,0.670735955238342,-0.419209986925125,0.670735955238342,-1130.70007324219,0.300000011920929,-875.700012207031,-2.46750501331162,-0.129927341548187,0.0568820880067941,ST
3.6,-1.36376595497131,-0.381615221500397,10.2043190002441,0.800309956073761,-0.945127964019775,1.21951997280121,-1128.30004882812,-2.70000004768372,-870.900024414062,-2.47411388173554,-0.131102912027738,0.0374473318007471,ST
3.63333333333333,-0.785959839820862,-0.404344648122787,8.66948413848877,0.548784017562866,-1.08232402801514,1.85976791381836,-1137.90002441406,2.10000014305115,-870.900024414062,-2.47964876620252,-0.0924167229525718,0.044605550770881,ST
3.66666666666667,-1.03538548946381,-0.312230616807938,9.58284854888916,0.0990860015153885,0.541162014007568,2.14178204536438,-1125.90002441406,8.70000076293945,-875.700012207031,-2.48804200745948,-0.107180066268161,0.0331529074060604,ST
3.7,-0.847568571567535,-0.536534249782562,9.52363204956055,0.121951997280121,0.503051996231079,1.92074394226074,-1130.70007324219,5.10000038146973,-866.100036621094,-2.49284555697129,-0.0909909774601838,0.054051030318616,ST
3.73333333333333,-0.976169347763062,-0.208153754472733,9.67675685882568,0.266770005226135,0.457319974899292,1.44817996025085,-1135.5,0.900000035762787,-878.100036621094,-2.5005677404248,-0.100452800453879,0.0238071487420961,ST
3.76666666666667,-0.927121579647064,-0.171667039394379,8.95778942108154,0.487807989120483,0.419209986925125,1.53964400291443,-1133.10009765625,3.30000019073486,-873.300048828125,-2.50619146300132,-0.103585688722254,0.0185567358313488,ST
3.8,-0.987534046173096,-0.236864611506462,9.13424110412598,-0.0381099991500378,0.365855991840363,1.42531394958496,-1125.90002441406,3.30000019073486,-863.700012207031,-2.51066903648647,-0.107997164515686,0.0251852970530621,ST
3.83333333333333,-1.20525813102722,-0.189013183116913,9.39263916015625,-0.411587983369827,0.160062000155449,1.50153398513794,-1135.5,3.30000019073486,-861.300048828125,-2.51663717084316,-0.126284423609027,0.0209047622519021,ST
3.86666666666667,-0.747678697109222,-0.123815596103668,9.54875469207764,-0.221037998795509,-0.167683988809586,1.59299790859222,-1135.5,-0.300000011920929,-880.500061035156,-2.52328443460204,-0.0815377181585827,0.0136864714321799,ST
3.9,-0.551487803459167,-0.219518467783928,9.30351543426514,-0.274392008781433,-0.0609759986400604,1.09756803512573,-1130.70007324219,9.30000019073486,-870.900024414062,-2.52669555397228,-0.0608171895279436,0.0231723383755825,ST
3.93333333333333,-0.433653652667999,-0.200377896428108,9.55114650726318,-0.137196004390717,0.289635986089706,0.899396002292633,-1135.5,2.10000014305115,-863.700012207031,-2.53018546945212,-0.0469268262382729,0.0212782573255353,ST
3.96666666666667,-0.872092425823212,-0.104675017297268,9.96147346496582,0.282013982534409,0.411587983369827,0.6250039935112,-1130.70007324219,3.90000009536743,-863.700012207031,-2.53292794038094,-0.0843304364138682,0.0109626471310661,ST
4.0,-0.83261501789093,-0.263781040906906,10.1074199676514,0.335367977619171,0.67835795879364,0.411587983369827,-1133.10009765625,4.5,-880.500061035156,-2.53310007227152,-0.0834508310223703,0.0241384875985788,ST
4.03333333333333,-0.449803501367569,-0.406737208366394,9.74554347991943,-0.495429992675781,0.381099998950958,-0.556405961513519,-1125.90002441406,1.5,-875.700012207031,-2.53012370476707,-0.0500352057618509,0.0409642844959343,ST
4.06666666666667,-0.401353925466537,-0.261986613273621,10.1462993621826,-0.92988395690918,0.0076219998300075,-1.04421401023865,-1123.5,-3.30000019073486,-873.300048828125,-2.52721523511898,-0.0404343070346451,0.028731284112472,ST
4.1,0.0281127188354731,-0.0526365824043751,10.1839818954468,-0.472563982009888,-0.975615978240967,-0.945127964019775,-1128.30004882812,4.5,-878.100036621094,-2.52444500636613,0.0004200840573503,0.0080622535308214,ST
4.13333333333333,0.15312460064888,-0.126806303858757,9.91840648651123,0.548784017562866,-1.07470202445984,-0.503051996231079,-1135.5,0.900000035762787,-861.300048828125,-2.52278993457234,0.015792296518068,0.0114762256831717,ST
4.16666666666667,0.321202784776688,-0.763230443000793,9.7120475769043,0.182927995920181,0.106707997620106,-1.12043392658234,-1130.70007324219,-0.900000035762787,-875.700012207031,-2.52004216587508,0.0317228568010458,0.0734695599860478,ST
4.2,-0.22968690097332,-0.761435985565186,9.35794639587402,-0.571649968624115,-0.106707997620106,-1.93598794937134,-1128.30004882812,-0.900000035762787,-878.100036621094,-2.51304456191375,-0.0197997082844491,0.0815608618786676,ST
4.23333333333333,-0.128002598881721,-0.974374890327454,9.35794639587402,-0.274392008781433,-0.266770005226135,-1.42531394958496,-1125.90002441406,0.300000011920929,-870.900024414062,-2.50789781997993,-0.0135225710725429,0.102211006175074,ST
4.26666666666667,-0.122021168470383,-0.989328503608704,9.44108867645264,-0.0685980021953583,-0.609759986400604,-1.22714197635651,-1118.70007324219,5.10000038146973,-875.700012207031,-2.50387337039052,-0.0117491463738186,0.104341044828062,ST
4.3,0.225499898195267,-0.985739588737488,9.35495567321777,0.647870004177094,-1.31098401546478,-0.327746003866196,-1123.5,0.300000011920929,-878.100036621094,-2.50323457697212,0.0228606127959258,0.103893503444465,ST
4.33333333333333,0.168078169226646,-1.05452609062195,9.42733097076416,0.25152599811554,-0.655492007732391,-0.525918006896973,-1130.70007324219,3.90000009536743,-870.900024414062,-2.50168750663636,0.0192222891814452,0.110456528686611,ST
4.36666666666667,-0.433653652667999,-0.66932201385498,9.67496299743652,0.381099998950958,-0.0533539988100529,-0.830797970294952,-1121.10009765625,0.300000011920929,-870.900024414062,-2.49912105616995,-0.0392104839990251,0.071926908070294,ST
4.4,-0.801511585712433,-0.412718653678894,10.2061138153076,0.914639949798584,0.952749967575073,0.289635986089706,-1121.10009765625,5.70000028610229,-873.300048828125,-2.50148731250541,-0.0763054148464524,0.0417967374211421,ST
4.43333333333333,-0.863718450069427,-0.232677608728409,9.74374866485596,1.34147191047668,0.937505960464478,0.807931959629059,-1130.70007324219,6.30000019073486,-878.100036621094,-2.50530954348392,-0.0888175845633321,0.0232611946806766,ST
4.46666666666667,-1.12450873851776,-0.235070183873177,9.89986419677734,0.724089980125427,1.10518991947174,1.39482593536377,-1133.10009765625,5.70000028610229,-866.100036621094,-2.51012489502375,-0.113075356859221,0.0222952952056292,ST
4.5,-1.32608294487,-0.505430817604065,9.81014251708984,-0.167683988809586,0.655492007732391,1.57775402069092,-1111.5,-2.10000014305115,-873.300048828125,-2.51226196617048,-0.133425916547265,0.0487762170546952,ST
4.53333333333333,-1.12271440029144,-0.792539417743683,9.70486927032471,-1.17378795146942,0.182927995920181,0.914639949798584,-1133.10009765625,-3.90000009536743,-875.700012207031,-2.5119236687066,-0.116882555588033,0.080220919272224,ST
4.56666666666667,-1.11075150966644,-0.91276615858078,9.72759914398193,-1.10518991947174,-0.449698001146317,0.442075997591019,-1125.90002441406,2.70000004768372,-880.500061035156,-2.51247624869703,-0.112852685927272,0.0941378724228171,ST
4.6,-0.95463615655899,-0.863718450069427,9.56191349029541,-0.457319974899292,-0.670735955238342,0.617381989955902,-1123.5,-0.900000035762787,-875.700012207031,-2.51544739155767,-0.0991570696546463,0.0910164693562288,ST
4.63333333333333,-0.967197179794312,-0.719565987586975,9.28736591339111,-0.0914639979600906,-0.548784017562866,1.12043392658234,-1135.5,1.5,-875.700012207031,-2.5207317922154,-0.102346981204279,0.0785204172936192,ST
4.66666666666667,-0.832016885280609,-0.690257012844086,9.05648231506348,0.152439996600151,0.0152439996600151,1.60824191570282,-1116.30004882812,4.5,-875.700012207031,-2.52695809687903,-0.0923290639831151,0.0757443606553386,ST
4.7,-1.11374223232269,-0.529954671859741,9.29873085021973,-0.0228659994900227,1.15092194080353,1.75305998325348,-1123.5,5.70000028610229,-870.900024414062,-2.53454623727227,-0.118597346422173,0.0583726441435816,ST
4.73333333333333,-0.95762687921524,-0.575413525104523,10.3269386291504,-0.320124000310898,0.586893975734711,1.80641400814056,-1130.70007324219,-0.300000011920929,-873.300048828125,-2.54098408466237,-0.0957942274756966,0.0561310258711328,ST
4.76666666666667,-0.492271661758423,-0.658555388450623,9.27001953125,-0.0914639979600906,-0.731711983680725,1.60061991214752,-1125.90002441406,5.10000038146973,-866.100036621094,-2.55163074048999,-0.0518915788371989,0.0709150228944313,ST
4.8,-0.141161739826202,-0.631040811538696,9.83765697479248,-0.297257989645004,-1.03659200668335,1.08994603157043,-1125.90002441406,0.300000011920929,-868.500061035156,-2.55585740142411,-0.01619158901357,0.0651064714901134,ST
4.83333333333333,-0.507823407649994,-0.461168229579926,9.79758167266846,0.884151995182037,-0.807931959629059,1.09756803512573,-1130.70007324219,6.90000009536743,-868.500061035156,-2.56049979159321,-0.0478342411267921,0.04689793632248,ST
4.86666666666667,-0.182433605194092,-0.517991840839386,9.83406829833984,1.41769194602966,0.282013982534409,1.03659200668335,-1135.5,2.70000004768372,-875.700012207031,-2.5639748591234,-0.0212718434343847,0.0498621427937633,ST
4.9,-0.0251220054924488,-0.432457357645035,9.329833984375,0.830797970294952,-0.160062000155449,0.320124000310898,-1140.30004882812,9.90000057220459,-866.100036621094,-2.56523375542861,-0.0037309040289039,0.0452084802248773,ST
4.93333333333333,-0.465953379869461,-0.354698777198792,9.96207141876221,0.670735955238342,-0.518296003341675,0.411587983369827,-1130.70007324219,6.90000009536743,-868.500061035156,-2.56693434202713,-0.0423507149338131,0.0352892328149142,ST
4.96666666666667,0.0317015759646893,-0.445018380880356,9.5206413269043,0.586893975734711,-1.32622802257538,0.823175966739655,-1128.30004882812,0.900000035762787,-863.700012207031,-2.56992090190592,0.0019603012272683,0.0448915073387366,ST
5.0,0.166881889104843,-0.660947978496552,9.28856182098389,-0.228659987449646,-1.49391198158264,0.228659987449646,-1133.10009765625,4.5,-880.500061035156,-2.57133260906274,0.0190973536391128,0.0694422393833861,ST
5.03333333333333,-0.154320880770683,-0.65735912322998,9.71085071563721,-0.640248000621796,-0.701223969459534,-0.213415995240211,-1140.30004882812,0.300000011920929,-870.900024414062,-2.57074306705601,-0.011820877532694,0.0687705061935495,ST
5.06666666666667,-0.318810194730759,-0.468345940113068,10.4435758590698,-0.25152599811554,-0.685979962348938,-0.350611984729767,-1118.70007324219,0.300000011920929,-868.500061035156,-2.57005193063264,-0.0279450920637261,0.047041773503195,ST
5.1,-0.0699827298521996,-0.297875195741653,9.65522384643555,0.121951997280121,-1.44055795669556,0.289635986089706,-1123.5,-0.300000011920929,-861.300048828125,-2.57156714615882,-0.0064991613598225,0.0318606291054921,ST
5.13333333333333,-0.147143170237541,-0.174657747149467,8.90156364440918,-0.0533539988100529,-1.47104597091675,0.853663980960846,-1135.5,2.70000004768372,-863.700012207031,-2.57475595262258,-0.0133152101754845,0.0207944471754539,ST
5.16666666666667,-0.196789041161537,-0.173461467027664,9.90345287322998,0.144817993044853,-0.0685980021953583,1.57013201713562,-1137.90002441406,2.10000014305115,-858.900024414062,-2.58055797449472,-0.0193061936342566,0.0174814262764699,ST
5.2,-0.258995920419693,-0.235070183873177,10.3269386291504,0.792688012123108,0.297257989645004,1.41769194602966,-1140.30004882812,0.300000011920929,-866.100036621094,-2.58529477914865,-0.0250638298482427,0.0209696194559321,ST
5.23333333333333,-0.306847333908081,0.0083740018308162,9.66898155212402,0.777444005012512,0.0990860015153885,0.815553963184357,-1137.90002441406,6.90000009536743,-863.700012207031,-2.58880349178825,-0.031387414885994,-0.0005126493899537,ST
5.26666666666667,-0.26437920331955,0.373839348554611,9.69649600982666,0.0914639979600906,-0.472563982009888,0.777444005012512,-1125.90002441406,-1.5,-873.300048828125,-2.59271700669174,-0.0267206099980653,-0.0361039270403048,ST
5.3,-0.501841962337494,0.439635097980499,9.83526515960693,0.259148001670837,-0.457319974899292,1.33385002613068,-1130.70007324219,8.10000038146973,-873.300048828125,-2.59766779926675,-0.048105323301002,-0.0444679209881697,ST
5.33333333333333,-0.254808902740479,0.585581958293915,9.76887130737305,0.967993974685669,0.503051996231079,1.45580196380615,-1137.90002441406,2.70000004768372,-873.300048828125,-2.60325842989133,-0.0286957226944697,-0.0600932042566611,ST
5.36666666666667,-0.136974737048149,0.492869794368744,9.27958965301514,1.30336201190948,1.02897000312805,0.556405961513519,-1135.5,-1.5,-870.900024414062,-2.60536615034913,-0.0173171148052156,-0.0556842759204701,ST
5.4,-0.142358019948006,0.432457357645035,9.34000205993652,0.632625997066498,0.861285984516144,-1.53964400291443,-1125.90002441406,-2.10000014305115,-866.100036621094,-2.60003758170632,-0.0169007806207159,-0.0480838897956546,ST
5.43333333333333,-0.359483927488327,0.322997212409973,9.17312049865723,0.266770005226135,0.769822001457214,-2.0579400062561,-1137.90002441406,5.70000028610229,-873.300048828125,-2.59270018507428,-0.0384827685608468,-0.0366778471293231,ST
5.46666666666667,-0.403148353099823,0.293090045452118,9.2048225402832,-0.0,-0.282013982534409,-2.40092992782593,-1130.70007324219,2.10000014305115,-868.500061035156,-2.58343320118934,-0.0430560085866484,-0.0319978311973524,ST
5.5,-0.686668157577515,0.128600731492043,10.0129137039185,-0.175305992364883,0.3125019967556,-1.98934197425842,-1125.90002441406,-1.5,-861.300048828125,-2.5756454711995,-0.0667217157128339,-0.0141050602736672,ST
5.53333333333333,-0.298473328351974,-0.315221339464188,9.72759914398193,-0.503051996231079,0.137196004390717,-1.82927989959717,-1154.70007324219,-3.90000009536743,-875.700012207031,-2.56662399754199,-0.0332977740822113,0.0301396274491336,ST
5.56666666666667,-0.594554126262665,-0.620872378349304,9.89687347412109,-1.34147191047668,0.46494197845459,-1.99696397781372,-1123.5,6.30000019073486,-866.100036621094,-2.5584258356881,-0.0580447591471106,0.0620074358813133,ST
5.6,-0.770408153533936,-0.753062009811401,9.6701774597168,-1.40244793891907,0.525918006896973,-1.93598794937134,-1123.5,2.70000004768372,-873.300048828125,-2.5508378212886,-0.0779450282603724,0.0787531530534288,ST
5.63333333333333,-0.640611112117767,-0.649583280086517,10.7707605361938,-0.975615978240967,0.0,-1.60824191570282,-1135.5,-1.5,-878.100036621094,-2.54658329243524,-0.0608160038551141,0.0636227882339195,ST
5.66666666666667,0.270360618829727,-0.236266478896141,8.81363677978516,0.0838419944047928,-1.92836594581604,-0.442075997591019,-1130.70007324219,2.70000004768372,-870.900024414062,-2.54593949810073,0.0254572835192312,0.0300017953608396,ST
5.7,0.212340757250786,-0.111254595220089,9.02179050445557,0.304879993200302,-1.05945801734924,0.297257989645004,-1121.10009765625,1.5,-875.700012207031,-2.5466463055093,0.0253785151068236,0.0134583048305244,ST
5.73333333333333,0.503038227558136,0.0430662930011749,9.1808967590332,0.853663980960846,0.0381099991500378,0.846041977405548,-1118.70007324219,3.30000019073486,-870.900024414062,-2.54925701655867,0.052658410752534,-0.0047639077707343,ST
5.76666666666667,0.215929612517357,-0.286510497331619,9.48714542388916,0.457319974899292,0.221037998795509,0.518296003341675,-1121.10009765625,3.30000019073486,-875.700012207031,-2.55230217410005,0.0250885099628372,0.0263299430990345,ST
5.8,-0.0586180128157139,-0.223107323050499,9.62711143493652,0.243903994560242,0.472563982009888,-0.160062000155449,-1123.5,9.90000057220459,-870.900024414062,-2.55168157692551,-0.0040106207617859,0.0230688657000866,ST
5.83333333333333,-0.302660346031189,-0.38939106464386,10.462119102478,0.541162014007568,-0.0152439996600151,-0.114329993724823,-1118.70007324219,-1.5,-875.700012207031,-2.5510719045042,-0.0266193272603776,0.0350676884841795,ST
5.86666666666667,-0.227294325828552,-0.349315494298935,10.4106788635254,0.495429992675781,-0.83841997385025,-0.548784017562866,-1140.30004882812,2.10000014305115,-878.100036621094,-2.5492862990389,-0.0208921025713458,0.0329109064463049,ST
5.9,0.504832684993744,-0.348717361688614,9.44766807556152,0.358233988285065,-1.48628997802734,-0.807931959629059,-1123.5,2.10000014305115,-863.700012207031,-2.5467416732776,0.0490313766415668,0.0359249630943605,ST
5.93333333333333,-0.289501190185547,-0.452196091413498,9.59780216217041,-0.304879993200302,0.0533539988100529,-1.37195992469788,-1140.30004882812,-2.10000014305115,-863.700012207031,-2.54198302722942,-0.023561027597063,0.0466657249851437,ST
5.96666666666667,-0.595750391483307,-0.645994424819946,9.7718620300293,-0.434453994035721,1.59299790859222,-1.28811800479889,-1145.10009765625,0.300000011920929,-875.700012207031,-2.53622365062971,-0.060390813420841,0.0653713601947867,ST
6.0,-0.929514169692993,-0.487486511468887,9.41118144989014,-0.129574000835419,1.16616594791412,-1.12043392658234,-1133.10009765625,-0.300000011920929,-858.900024414062,-2.53277770413949,-0.0975031128613763,0.0530773525423807,ST
6.03333333333333,-1.16278994083405,-0.47851437330246,9.51226806640625,0.213415995240211,1.74543797969818,-0.617381989955902,-1118.70007324219,2.70000004768372,-873.300048828125,-2.53057266634033,-0.122033561544707,0.05031067348923,ST
6.06666666666667,-0.986337780952454,-0.817063271999359,10.0278673171997,0.868907988071442,0.495429992675781,-0.304879993200302,-1111.5,-5.10000038146973,-880.500061035156,-2.52590162187501,-0.100165545738844,0.0778229348019659,ST
6.1,-0.652574002742767,-1.02820777893066,9.74434757232666,0.701223969459534,-1.13567793369293,-0.411587983369827,-1123.5,0.300000011920929,-868.500061035156,-2.52266023161389,-0.0676935917545417,0.101589341303052,ST
6.13333333333333,-0.331969350576401,-0.911569893360138,9.64505577087402,0.0304879993200302,-1.92074394226074,-0.99848198890686,-1121.10009765625,2.10000014305115,-866.100036621094,-2.52021125580974,-0.0340892855604425,0.0949026179509778,ST
6.16666666666667,-0.311034351587296,-1.14903259277344,9.57806301116943,-0.868907988071442,-1.13567793369293,-0.716467976570129,-1125.90002441406,1.5,-870.900024414062,-2.51750889583443,-0.0304800716060139,0.118587315534221,ST
6.2,0.0747678726911545,-1.22140789031982,9.54875469207764,-0.807931959629059,-0.518296003341675,-0.0685980021953583,-1125.90002441406,-1.5,-870.900024414062,-2.51740510515488,0.0051361673254546,0.127725259035022,ST
6.23333333333333,0.2613884806633,-1.28899812698364,9.10493278503418,-0.754577994346619,-0.0990860015153885,0.586893975734711,-1123.5,2.10000014305115,-870.900024414062,-2.51961838601878,0.0263385619871102,0.14068708850338,ST
6.26666666666667,-0.318212062120438,-1.23755776882172,9.96446418762207,-0.282013982534409,1.37958192825317,1.61586391925812,-1123.5,1.5,-863.700012207031,-2.5247063334182,-0.0294029031665627,0.12539672727383,ST
6.3,-0.973776757717133,-0.818857729434967,10.6062707901001,0.87652999162674,1.76068198680878,2.17989206314087,-1118.70007324219,5.70000028610229,-880.500061035156,-2.53502860372899,-0.0905943580138646,0.0783964757239113,ST
6.33333333333333,-0.540123105049133,-0.585581958293915,9.02119255065918,1.63872992992401,0.327746003866196,1.87501192092896,-1123.5,-0.900000035762787,-863.700012207031,-2.54213909681081,-0.0631911653587945,0.0632439600125859,ST
6.36666666666667,-0.244042336940765,-0.361278355121613,9.59301662445068,1.53202199935913,-0.106707997620106,1.53202199935913,-1116.30004882812,0.300000011920929,-873.300048828125,-2.5483997214796,-0.0287709476321056,0.0374376228867121,ST
6.4,-0.233275756239891,-0.495860517024994,10.175009727478,1.01372599601746,-1.29574000835419,1.05183601379395,-1128.30004882812,0.300000011920929,-861.300048828125,-2.55191921644807,-0.0214459074565651,0.0460264018047356,ST
6.43333333333333,0.177648469805717,-0.230285048484802,9.47817325592041,0.884151995182037,-2.33995389938354,0.0762199983000755,-1128.30004882812,5.70000028610229,-875.700012207031,-2.55248836167186,0.0188092661717041,0.0248576829910078,ST
6.46666666666667,0.640611112117767,-0.226696193218231,10.2336282730103,0.769822001457214,-1.28049600124359,0.114329993724823,-1123.5,-3.30000019073486,-878.100036621094,-2.55295344362937,0.0605765003916189,0.0211834301963983,ST
6.5,0.234472051262856,-0.263182908296585,9.95608997344971,0.693601965904236,-0.967993974685669,0.396344006061554,-1137.90002441406,-2.10000014305115,-866.100036621094,-2.55466326830031,0.0284108145393489,0.0248772841398797,ST
6.53333333333333,-0.0568235814571381,-0.327782362699509,9.86457347869873,0.708845973014832,0.525918006896973,1.08994603157043,-1128.30004882812,-3.30000019073486,-878.100036621094,-2.55881496498106,-0.004315744277807,0.0314942497017773,ST
6.56666666666667,0.272155046463013,-0.0059814294800162,9.16594314575195,0.87652999162674,0.25152599811554,0.945127964019775,-1125.90002441406,-3.90000009536743,-858.900024414062,-2.56178833573019,0.0261949530596719,0.0020833337672169,ST
6.6,-0.41152235865593,0.384605944156647,9.76049709320068,1.34909391403198,0.297257989645004,1.57775402069092,-1133.10009765625,0.900000035762787,-873.300048828125,-2.56741294962675,-0.0363175027210447,-0.0378238500744888,ST
6.63333333333333,-0.723752975463867,0.0586180128157139,10.5745697021484,1.09756803512573,0.327746003866196,1.95885396003723,-1118.70007324219,1.5,-863.700012207031,-2.57258933220179,-0.0659098087446583,-0.0103990473530552,ST
6.66666666666667,-0.715378999710083,-0.138769164681435,9.24130916595459,-0.160062000155449,1.58537602424622,0.663114011287689,-1133.10009765625,1.5,-875.700012207031,-2.57321342687904,-0.0787493752850636,0.0128901882043467,ST
6.7,-1.46126329898834,0.0568235814571381,10.4872407913208,-0.0,2.72105383872986,0.304879993200302,-1121.10009765625,7.50000047683716,-882.900024414062,-2.5761386251123,-0.138330663985407,-0.0040901106529571,ST
6.73333333333333,-1.22200608253479,-0.0651975870132446,9.991379737854,0.487807989120483,1.265251994133,0.274392008781433,-1118.70007324219,-2.70000004768372,-858.900024414062,-2.57569434565476,-0.12521434102421,0.0047383475510848,ST
6.76666666666667,-0.842783451080322,0.111254595220089,9.24429988861084,0.716467976570129,0.144817993044853,0.114329993724823,-1118.70007324219,4.5,-887.700012207031,-2.57765879300762,-0.0937308678182391,-0.0119476580212858,ST
6.8,0.204564899206161,0.0179442893713713,8.24181175231934,0.442075997591019,-1.15854394435883,-0.46494197845459,-1123.5,1.5,-873.300048828125,-2.57566100931815,0.0159050278573133,-0.0037552228357178,ST
6.83333333333333,-0.272753208875656,0.0167480036616325,8.87644195556641,-0.190549999475479,-1.37195992469788,-1.07470202445984,-1125.90002441406,-7.50000047683716,-875.700012207031,-2.57181842184333,-0.0246710992709722,-0.0017083420512442,ST
6.86666666666667,-0.125610023736954,0.0819455906748772,9.70187854766846,0.0457319989800453,-0.632625997066498,-0.282013982534409,-1111.5,-3.90000009536743,-868.500061035156,-2.57094609465154,-0.0130051293182005,-0.0079023249711025,ST
6.9,-0.41451308131218,0.149535745382309,9.95010852813721,0.221037998795509,-0.823175966739655,0.114329993724823,-1121.10009765625,0.300000011920929,-870.900024414062,-2.57145926745993,-0.0377315677713197,-0.0147384454412695,ST
6.93333333333333,0.117236025631428,0.0305052921175957,9.7299919128418,0.129574000835419,0.0990860015153885,0.403965979814529,-1128.30004882812,-1.5,-868.500061035156,-2.57273932801958,0.007777182610956,-0.004303046897325,ST
6.96666666666667,0.285314202308655,0.0699827298521996,9.66778469085693,-0.289635986089706,0.198172003030777,0.365855991840363,-1118.70007324219,0.300000011920929,-873.300048828125,-2.57406086681803,0.0276908278807615,-0.0065517114763722,ST
7.0,-0.402550220489502,-0.164489313960075,9.75032901763916,-0.388722002506256,1.10518991947174,0.937505960464478,-1123.5,0.900000035762787,-873.300048828125,-2.5773730410191,-0.0378514378639902,0.0156892601189904,ST
7.03333333333333,-0.468345940113068,-0.424681514501572,10.2988252639771,-0.3125019967556,0.960371971130371,0.99848198890686,-1113.90002441406,2.10000014305115,-870.900024414062,-2.57977201959174,-0.0463011363578428,0.0393306370341225,ST
7.06666666666667,-0.288304924964905,-0.62147057056427,9.89866828918457,-0.350611984729767,0.121951997280121,0.434453994035721,-1128.30004882812,5.70000028610229,-878.100036621094,-2.58045280617031,-0.0308532741132691,0.0611212944939202,ST
7.1,-0.0974973067641258,-0.531749129295349,9.80894660949707,0.297257989645004,-0.701223969459534,-0.160062000155449,-1116.30004882812,-0.900000035762787,-868.500061035156,-2.58016081342011,-0.0106922172409574,0.0543186713737652,ST
7.13333333333333,0.268566191196442,-0.652574002742767,8.94343376159668,0.350611984729767,-0.960371971130371,-0.487807989120483,-1111.5,0.300000011920929,-861.300048828125,-2.57880568849868,0.0281684905007916,0.0707319665327579,ST
7.16666666666667,-0.119030453264713,-0.880466461181641,9.46441650390625,-0.213415995240211,-0.739333987236023,-0.87652999162674,-1111.5,6.30000019073486,-880.500061035156,-2.57611759852715,-0.0078558068526033,0.091284309772276,ST
7.2,-0.301464051008224,-0.887644171714783,9.43630313873291,-0.503051996231079,0.724089980125427,-1.09756803512573,-1125.90002441406,0.900000035762787,-875.700012207031,-2.571723776647,-0.0311556824847352,0.094487333513034,ST
7.23333333333333,-0.590965270996094,-0.920542061328888,9.13184833526611,-0.160062000155449,0.693601965904236,-0.609759986400604,-1099.5,-3.90000009536743,-858.900024414062,-2.56893631114544,-0.0630452189206475,0.100378694982729,ST
7.26666666666667,-1.29079258441925,-1.02880585193634,10.1008405685425,-0.449698001146317,0.937505960464478,-0.190549999475479,-1109.10009765625,1.5,-866.100036621094,-2.56791935592567,-0.122671242844205,0.102186061898866,ST
7.3,-1.47502052783966,-0.75545459985733,10.9011554718018,-0.198172003030777,1.29574000835419,0.6250039935112,-1111.5,-2.10000014305115,-870.900024414062,-2.57378225035045,-0.135475430495875,0.0718889652535864,ST
7.33333333333333,-0.813474416732788,-0.547300815582275,8.92249870300293,0.655492007732391,0.160062000155449,1.09756803512573,-1116.30004882812,0.900000035762787,-878.100036621094,-2.57850827763607,-0.0951615927550789,0.0610021910762117,ST
7.36666666666667,-0.707004964351654,-0.352904349565506,10.0763168334961,1.07470202445984,0.37347799539566,0.754577994346619,-1094.70007324219,0.300000011920929,-885.300048828125,-2.58320978131858,-0.0722412109700908,0.0347811187235769,ST
7.4,-0.494664251804352,-0.0047851437702775,9.23114013671875,1.2500079870224,-1.18140995502472,0.0228659994900227,-1113.90002441406,2.70000004768372,-870.900024414062,-2.58519640842522,-0.0529031992606151,0.0008370556412866,ST
7.43333333333333,-0.375035643577576,-0.0394774377346039,8.84414196014404,0.579271972179413,-0.868907988071442,-0.0304879993200302,-1106.70007324219,0.900000035762787,-875.700012207031,-2.58489219551152,-0.0419517447203526,0.0032182059675966,ST
7.46666666666667,-0.778183996677399,0.01914057508111,9.01521110534668,0.0609759986400604,-0.358233988285065,0.221037998795509,-1116.30004882812,2.10000014305115,-868.500061035156,-2.58594839376199,-0.0815409516916497,-0.0017603848768331,ST
7.5,-1.22021162509918,-0.205761179327965,9.8197135925293,0.167683988809586,0.602137982845306,1.60061991214752,-1106.70007324219,-5.70000028610229,-882.900024414062,-2.58991645165941,-0.121995811975206,0.0189490678419868,ST
7.53333333333333,-0.817661464214325,-0.084936298429966,10.2814798355103,0.243903994560242,-0.190549999475479,1.28049600124359,-1109.10009765625,2.70000004768372,-868.500061035156,-2.59529765315527,-0.0829368757502142,0.008651467945636,ST
7.56666666666667,-0.278136491775513,-0.265575468540192,10.0254745483398,-0.0381099991500378,-1.11281192302704,0.884151995182037,-1106.70007324219,-4.5,-866.100036621094,-2.5978683499942,-0.0293934720868001,0.0253762429264499,ST
7.6,0.359483927488327,-0.456981241703033,9.79339504241943,-0.46494197845459,-2.59910202026367,0.228659987449646,-1109.10009765625,2.70000004768372,-875.700012207031,-2.59903302564263,0.0347793013186075,0.0454544659894965,ST
7.63333333333333,0.495262384414673,-0.57361912727356,8.68982124328613,-0.564027965068817,-2.69056582450867,-0.282013982534409,-1118.70007324219,0.300000011920929,-873.300048828125,-2.59940947008214,0.0591066287008015,0.0649483514867149,ST
7.66666666666667,-0.0322997197508812,-0.782370984554291,9.52841758728027,-0.663114011287689,-0.800309956073761,-0.106707997620106,-1125.90002441406,2.70000004768372,-875.700012207031,-2.59968800643309,0.0018517752421664,0.0819505079529922,ST
7.7,-0.042468149214983,-0.635227859020233,9.53559494018555,-0.0762199983000755,0.327746003866196,0.266770005226135,-1116.30004882812,0.300000011920929,-873.300048828125,-2.60054235731338,-0.004423319721498,0.0680341764133638,ST
7.73333333333333,-0.802707850933075,-0.590965270996094,10.4920263290405,0.6250039935112,1.18903195858002,1.10518991947174,-1121.10009765625,-0.900000035762787,-863.700012207031,-2.60445361780498,-0.0717218111055209,0.0562520628202607,ST
7.76666666666667,-0.354698777198792,-0.253014475107193,10.8891925811768,1.63872992992401,0.518296003341675,1.34909391403198,-1121.10009765625,-1.5,-873.300048828125,-2.61109912237554,-0.0359155585266909,0.0225208524762614,ST
7.8,0.141161739826202,0.061608724296093,8.88900279998779,1.97409796714783,-0.586893975734711,1.08232402801514,-1121.10009765625,-5.70000028610229,-880.500061035156,-2.61537850750704,0.0129195398258734,-0.0078881288413952,ST
7.83333333333333,-0.38939106464386,0.160302311182022,9.87833118438721,0.92988395690918,0.221037998795509,0.198172003030777,-1118.70007324219,1.5,-880.500061035156,-2.61618488296317,-0.036150672256014,-0.0171731851118262,ST
7.86666666666667,-0.544310092926025,0.281725347042084,10.1373271942139,0.815553963184357,1.18903195858002,0.167683988809586,-1128.30004882812,-2.10000014305115,-868.500061035156,-2.61722267180705,-0.0539211299785489,-0.0281337978228494,ST
7.9,-0.479112505912781,0.327782362699509,9.12766170501709,0.83841997385025,1.11281192302704,0.289635986089706,-1113.90002441406,2.70000004768372,-873.300048828125,-2.61864728310736,-0.0542947771593396,-0.0365525920192849,ST
7.93333333333333,-0.650779545307159,0.154919028282166,8.64795112609863,0.221037998795509,1.14329993724823,0.472563982009888,-1118.70007324219,3.30000019073486,-875.700012207031,-2.6192616089205,-0.0750146570220186,-0.02000746553797,ST
7.96666666666667,-0.426475942134857,0.139367312192917,8.8997688293457,-0.297257989645004,0.388722002506256,0.0609759986400604,-1121.10009765625,3.30000019073486,-870.900024414062,-2.61928589854631,-0.0507414174029426,-0.0155475135121461,ST
8.0,-0.861325860023499,0.0,8.72870063781738,-0.259148001670837,0.320124000310898,-0.0304879993200302,-1125.90002441406,-0.900000035762787,-866.100036621094,-2.61817646580331,-0.0952838375009564,-0.0007548072168517,ST
8.03333333333333,-0.203966751694679,-0.113647162914276,9.33282470703125,-0.0076219998300075,-0.228659987449646,-0.655492007732391,-1118.70007324219,-5.10000038146973,-878.100036621094,-2.61519158780434,-0.0281255442586643,0.011068196392463,ST
8.06666666666667,-1.01983380317688,-0.257799625396729,9.12825965881348,0.190549999475479,0.350611984729767,-0.266770005226135,-1118.70007324219,-0.300000011920929,-878.100036621094,-2.61318438020819,-0.104240157920099,0.0264073258907493,ST
8.1,-0.343334078788757,-0.314623206853867,10.3801727294922,0.137196004390717,0.381099998950958,-0.403965979814529,-1104.30004882812,3.90000009536743,-856.500061035156,-2.61148086146322,-0.040078776444669,0.029770257556592,ST
8.13333333333333,-0.781174719333649,0.0167480036616325,9.94532299041748,0.617381989955902,0.0457319989800453,0.0152439996600151,-1121.10009765625,3.90000009536743,-866.100036621094,-2.61310343337161,-0.0749949753538067,0.0001878062325066,ST
8.16666666666667,-0.685471832752228,0.206957474350929,10.5554294586182,0.830797970294952,-0.0609759986400604,0.266770005226135,-1121.10009765625,-2.10000014305115,-870.900024414062,-2.61524605854447,-0.0654988032797497,-0.0194817687848789,ST
8.2,-0.445616513490677,0.166283741593361,9.08220291137695,0.83841997385025,-0.114329993724823,0.92988395690918,-1104.30004882812,-0.300000011920929,-878.100036621094,-2.61830193677811,-0.0502979565504115,-0.0198226863195382,ST
8.23333333333333,-0.241051614284515,-0.103478737175465,8.75860786437988,-0.228659987449646,-0.0609759986400604,0.777444005012512,-1113.90002441406,0.900000035762787,-875.700012207031,-2.61985549913182,-0.0294832612491224,0.009274439306568,ST
8.26666666666667,-1.14604198932648,-0.302660346031189,9.42314434051514,-0.846041977405548,0.92988395690918,0.967993974685669,-1116.30004882812,2.10000014305115,-875.700012207031,-2.6217755587366,-0.11419232248307,0.0312278142762339,ST
8.3,0.1214230209589,-0.483299523591995,9.86995697021484,-0.640248000621796,-0.708845973014832,0.846041977405548,-1104.30004882812,0.900000035762787,-882.900024414062,-2.62412016534068,0.0038026008513811,0.0486084051087574,ST
8.33333333333333,0.072973445057869,-0.447410941123962,9.00683689117432,-0.3125019967556,-2.37044191360474,0.548784017562866,-1118.70007324219,-1.5,-875.700012207031,-2.62649068985563,0.0114840786803758,0.050059908725599,ST
8.36666666666667,-0.167480036616325,-0.648985147476196,9.77066516876221,-0.586893975734711,-0.807931959629059,0.548784017562866,-1101.90002441406,3.90000009536743,-873.300048828125,-2.62866569135488,-0.0136992360597447,0.0660361660113868,ST
8.4,-0.190807610750198,-0.796128273010254,9.09237098693848,-1.02134799957275,0.236281991004944,0.0076219998300075,-1109.10009765625,-0.900000035762787,-875.700012207031,-2.6283249963167,-0.0207401567276326,0.0873790566023758,ST
8.43333333333333,-0.581394970417023,-1.10716259479523,9.42314434051514,-1.47104597091675,0.960371971130371,0.0533539988100529,-1106.70007324219,-6.30000019073486,-875.700012207031,-2.62721647051574,-0.0590631513245152,0.116618711720989,ST
8.46666666666667,-1.19209897518158,-1.11912548542023,10.2509746551514,-0.419209986925125,1.10518991947174,0.891773998737335,-1099.5,-3.90000009536743,-873.300048828125,-2.63071628756688,-0.112796711295513,0.10989415087906,ST
8.5,-1.40922486782074,-1.16398620605469,10.1104106903076,0.304879993200302,1.08994603157043,1.6692179441452,-1118.70007324219,-0.900000035762787,-880.500061035156,-2.63541528711302,-0.137366817477291,0.113386696186652,ST
8.53333333333333,-1.06888151168823,-0.875083148479462,9.75870227813721,0.548784017562866,0.510673999786377,1.28811800479889,-1101.90002441406,4.5,-875.700012207031,-2.64225515630292,-0.112265022396838,0.0904915014387172,ST
8.56666666666667,-0.744687974452972,-0.574815392494202,9.44228458404541,0.640248000621796,-0.823175966739655,0.685979962348938,-1111.5,0.300000011920929,-878.100036621094,-2.64740767289527,-0.0801086137639334,0.0621230057452501,ST
8.6,-0.32239904999733,-0.193200185894966,9.18986892700195,0.846041977405548,-2.14178204536438,0.335367977619171,-1109.10009765625,-0.900000035762787,-894.900024414062,-2.6509406961787,-0.0357588691771037,0.0233622102939486,ST
8.63333333333333,-0.797324597835541,-0.189013183116913,10.3095922470093,0.350611984729767,-0.419209986925125,0.914639949798584,-1116.30004882812,-0.300000011920929,-878.100036621094,-2.65433863068157,-0.0727863702767579,0.0181369789170579,ST
8.66666666666667,-0.431261092424393,-0.0472532957792282,9.87892913818359,0.571649968624115,-0.480185985565186,1.37195992469788,-1116.30004882812,10.5,-880.500061035156,-2.66019214458644,-0.0448671146033995,0.0046588420006618,ST
8.7,-0.60950767993927,-0.0376830063760281,9.82031154632568,0.670735955238342,-0.0381099991500378,1.31098401546478,-1118.70007324219,6.90000009536743,-882.900024414062,-2.66496010838756,-0.0606395670296392,0.0026950297745798,ST
8.73333333333333,-0.608909547328949,0.0071777156554162,10.9143152236938,0.685979962348938,0.0381099991500378,0.594515979290009,-1116.30004882812,-3.30000019073486,-880.500061035156,-2.66711841366912,-0.0562361328883418,-0.0014973517903271,ST
8.76666666666667,0.39836323261261,0.209350034594536,10.5093717575073,1.04421401023865,-1.74543797969818,-0.472563982009888,-1130.70007324219,0.900000035762787,-870.900024414062,-2.6656188751161,0.0321136556659292,-0.0199178448698029,ST
8.8,0.253014475107193,0.430662930011749,9.20542049407959,1.41006994247437,-2.56099200248718,-0.99848198890686,-1116.30004882812,-0.900000035762787,-878.100036621094,-2.66115702229809,0.0318687297262234,-0.0466177423804569,ST
8.83333333333333,0.227294325828552,0.421092659235001,9.02358531951904,0.891773998737335,0.403965979814529,-0.617381989955902,-1109.10009765625,-4.5,-868.500061035156,-2.659137255803,0.0250760408388178,-0.0480715284210373,ST
8.86666666666667,0.0053832866251468,0.189611315727234,9.82090950012207,0.289635986089706,0.541162014007568,-0.800309956073761,-1113.90002441406,-0.900000035762787,-878.100036621094,-2.65654578297324,0.0013195448114774,-0.0217594079036017,ST
8.9,-0.0,0.0149535741657019,8.97932243347168,-0.0685980021953583,-0.182927995920181,-1.62348592281342,-1121.10009765625,-0.300000011920929,-885.300048828125,-2.65060365692552,0.0003768093738314,-0.0030710875087803,ST
8.93333333333333,-0.597544848918915,-0.147741317749023,9.56550216674805,0.0762199983000755,0.891773998737335,-1.41006994247437,-1118.70007324219,-4.5,-875.700012207031,-2.64505881252863,-0.0585962377894358,0.0138929612736766,ST
8.96666666666667,-1.01624488830566,-0.133385881781578,9.5505485534668,0.449698001146317,0.556405961513519,-1.34909391403198,-1111.5,-5.10000038146973,-885.300048828125,-2.63999921871955,-0.103290922767124,0.0134416105988338,ST
9.0,-1.53184413909912,-0.187816888093948,11.0728225708008,0.3125019967556,1.17378795146942,-0.67835795879364,-1121.10009765625,-3.30000019073486,-880.500061035156,-2.63713909023721,-0.136206719652667,0.0162884479654481,ST
9.03333333333333,-0.86192399263382,-0.0747678726911545,9.49312686920166,-0.289635986089706,-0.510673999786377,-0.259148001670837,-1109.10009765625,-0.900000035762787,-873.300048828125,-2.63720256251986,-0.093860416470849,0.0091353128722089,ST
9.06666666666667,-0.336754500865936,-0.449803501367569,9.54277324676514,-1.6615959405899,-0.434453994035721,-0.236281991004944,-1116.30004882812,-0.300000011920929,-885.300048828125,-2.63419710705561,-0.0381802825775235,0.0474699085884234,ST
9.1,-1.21841728687286,-0.434849947690964,9.61155986785889,-1.34147191047668,-0.0457319989800453,0.114329993724823,-1109.10009765625,-0.900000035762787,-861.300048828125,-2.6349901042884,-0.117950036989079,0.0475372648643523,ST
9.13333333333333,-0.607115089893341,-0.593357801437378,9.5086784362793,-0.891773998737335,0.693601965904236,0.602137982845306,-1104.30004882812,6.90000009536743,-878.100036621094,-2.63592612107969,-0.0689130494884246,0.0625795103014804,ST
9.16666666666667,-0.372044920921326,-0.398961365222931,8.64196968078613,-0.3125019967556,-0.495429992675781,0.449698001146317,-1106.70007324219,3.90000009536743,-878.100036621094,-2.63861727074186,-0.0439943464002398,0.0477324753246445,ST
9.2,-0.204564899206161,-0.497056812047958,9.41835880279541,0.0381099991500378,-0.434453994035721,0.655492007732391,-1097.10009765625,2.70000004768372,-873.300048828125,-2.6409404539714,-0.0227232407330216,0.052259220196556,ST
9.23333333333333,-0.224303618073463,-0.416307508945465,9.2999267578125,0.266770005226135,-0.609759986400604,0.868907988071442,-1125.90002441406,-0.900000035762787,-870.900024414062,-2.64418559919674,-0.0230637635672605,0.0449593590244887,ST
9.26666666666667,0.0855344459414482,-0.236266478896141,10.1732158660889,0.129574000835419,-1.44817996025085,0.685979962348938,-1109.10009765625,-0.300000011920929,-870.900024414062,-2.64687047521801,0.0078238778729012,0.0249829918017996,ST
9.3,-0.0568235814571381,-0.195592746138573,8.3698148727417,0.708845973014832,-0.701223969459534,1.2423859834671,-1101.90002441406,0.900000035762787,-873.300048828125,-2.65147900842232,-0.0045994486252957,0.0223385731505101,ST
9.33333333333333,-0.70760315656662,-0.532945394515991,10.0434188842773,-0.0685980021953583,1.80641400814056,1.70732796192169,-1109.10009765625,0.900000035762787,-868.500061035156,-2.65659940851061,-0.0687828393715203,0.0508620903536485,ST
9.36666666666667,-0.667527556419373,-0.39537250995636,9.66359806060791,0.0762199983000755,0.160062000155449,1.31860601902008,-1109.10009765625,0.900000035762787,-868.500061035156,-2.66202403687983,-0.0692502620994031,0.0413735270286091,ST
9.4,-0.589768946170807,-0.430662930011749,10.2366189956665,-0.0304879993200302,-0.853663980960846,1.12805593013763,-1118.70007324219,-1.5,-873.300048828125,-2.66600561057716,-0.0572833707386862,0.0419229552971805,ST
9.43333333333333,0.237462759017944,-0.385204076766968,9.2227668762207,0.137196004390717,-2.4923939704895,0.67835795879364,-1109.10009765625,6.30000019073486,-868.500061035156,-2.66870877078593,0.0221114769324638,0.0415501107245154,ST
9.46666666666667,0.684873700141907,-0.626255691051483,10.6595058441162,-0.0990860015153885,-2.30184388160706,0.434453994035721,-1118.70007324219,-0.900000035762787,-882.900024414062,-2.67127375262205,0.0638684476984525,0.057337093208863,ST
9.5,0.567039549350739,-0.705808699131012,9.98300647735596,-0.182927995920181,-1.76830399036407,0.3125019967556,-1118.70007324219,-6.30000019073486,-866.100036621094,-2.67362169170698,0.0599319189143019,0.0700137669578356,ST
9.53333333333333,1.02701151371002,-0.354698777198792,8.72331714630127,-0.297257989645004,-0.205793991684914,0.617381989955902,-1116.30004882812,2.10000014305115,-873.300048828125,-2.67355615694614,0.11345518998844,0.0432607054906548,ST
9.56666666666667,-0.2105463296175,-0.706406831741333,8.78791618347168,-0.594515979290009,1.6844619512558,1.76068198680878,-1133.10009765625,1.5,-875.700012207031,-2.68139495878927,-0.0173349495392452,0.0786677455104796,ST
9.6,-1.04196500778198,-0.699827253818512,10.011118888855,-0.175305992364883,2.11891603469849,2.37806391716003,-1116.30004882812,2.70000004768372,-870.900024414062,-2.68954577040814,-0.099281637324348,0.0705984282957186,ST
9.63333333333333,-1.7423905134201,-0.773398876190186,11.0106153488159,0.327746003866196,2.16464805603027,2.64483404159546,-1113.90002441406,5.70000028610229,-875.700012207031,-2.69811204053089,-0.155097360251374,0.0690830754137517,ST
9.66666666666667,-1.06110560894012,-0.552684128284454,10.1702251434326,0.907018005847931,0.381099998950958,1.6920839548111,-1111.5,6.30000019073486,-878.100036621094,-2.70613019651004,-0.107793825750854,0.0534097912141544,ST
9.7,-0.611302137374878,-0.213537037372589,9.75272083282471,0.792688012123108,-0.99848198890686,0.769822001457214,-1109.10009765625,0.900000035762787,-870.900024414062,-2.71136373222864,-0.0647631291749697,0.023127456132035,ST
9.73333333333333,-0.157311603426933,0.0011962859425693,9.15278339385986,0.602137982845306,-2.62196803092957,0.152439996600151,-1128.30004882812,8.70000076293945,-875.700012207031,-2.71284900273388,-0.0165462364618098,0.0006434579210032,ST
9.76666666666667,-0.127404451370239,0.110058307647705,9.79399299621582,0.266770005226135,-1.43293595314026,0.289635986089706,-1130.70007324219,10.5,-868.500061035156,-2.71402169118443,-0.0109577191185703,-0.0107766700685808,ST
9.8,0.135180309414864,0.0364867225289345,8.92489147186279,0.0762199983000755,-1.17378795146942,0.487807989120483,-1125.90002441406,-1.5,-875.700012207031,-2.71569018077535,0.0146515234693519,-0.0048075718996833,DLL
9.83333333333333,-0.818259596824646,0.0873288735747337,9.56430625915527,-0.221037998795509,-0.6250039935112,1.69970595836639,-1116.30004882812,1.5,-875.700012207031,-2.72168895029238,-0.0752670615944607,-0.0085348773964784,DLL
9.86666666666667,-1.15621042251587,0.117236025631428,10.2910499572754,-0.190549999475479,-0.769822001457214,3.14788603782654,-1121.10009765625,1.5,-875.700012207031,-2.7328080815521,-0.107285194392463,-0.0113305326026412,DLL
9.9,-0.952243626117706,0.41451308131218,9.55234336853027,0.190549999475479,-2.37806391716003,5.97564792633057,-1135.5,6.90000009536743,-868.500061035156,-2.75611078910852,-0.0958919136199743,-0.0416911931233163,DLL
9.93333333333333,-1.25610029697418,0.446812808513641,9.05767917633057,0.266770005226135,-2.69056582450867,9.68756198883057,-1133.10009765625,12.9000005722046,-868.500061035156,-2.7937954758865,-0.129836704728455,-0.0511899079365034,DLL
9.96666666666667,-3.81615209579468,0.263781040906906,7.60658407211304,-0.800309956073761,-1.18903195858002,19.0702438354492,-1137.90002441406,6.30000019073486,-868.500061035156,-2.862077213946,-0.437857789950982,-0.047219140610482,DLL
10.0,-3.47102355957031,-1.86620604991913,8.30700969696045,-4.80948209762573,-0.221037998795509,32.8050880432129,-1133.10009765625,9.30000019073486,-866.100036621094,-2.88359550478475,-0.399325588796093,0.186310841942818,DLL
10.0333333333333,-3.29516959190369,-3.40821862220764,9.79997444152832,-6.19668579101562,-0.167683988809586,38.5825614929199,-1123.5,19.5,-863.700012207031,-2.98153860173059,-0.331403910748564,0.314338523389468,DLL
10.0666666666667,0.860129594802856,-4.53751277923584,9.14859676361084,-7.30949783325195,-3.30794787406921,37.9804267883301,-1113.90002441406,24.3000011444092,-851.700012207031,-3.0988662079479,0.0333731619389892,0.460484557331094,DLL
10.1,2.31780409812927,-3.76172113418579,10.8377523422241,-5.46497392654419,-4.86283588409424,28.0718250274658,-1113.90002441406,37.5,-863.700012207031,3.09364600693416,0.17856052343917,0.358947147818333,DLL
10.1333333333333,3.23236465454102,-3.05471611022949,11.1936473846436,-1.98934197425842,-5.00765371322632,18.4528617858887,-1101.90002441406,35.7000007629395,-854.100036621094,3.04692117786074,0.262286426139145,0.285753653515602,DLL
10.1666666666667,4.55725145339966,-2.85374021530151,8.93505954742432,-0.0152439996600151,-5.42686367034912,8.62048149108887,-1106.70007324219,40.5,-858.900024414062,3.00552458671802,0.439054757492567,0.313725390131147,DLL
10.2,3.78385233879089,-2.06000447273254,8.06595802307129,0.907018005847931,-4.71801805496216,-0.510673999786377,-1111.5,36.9000015258789,-861.300048828125,3.02659053743662,0.435245465242935,0.25486015817023,DLL
10.2333333333333,1.54201257228851,-1.19867849349976,7.99477910995483,2.87349390983582,-1.70732796192169,-4.67228603363037,-1111.5,36.3000030517578,-854.100036621094,3.07088695091289,0.2150733048826,0.151605810172537,DLL
10.2666666666667,-0.0508421510457993,-0.527562081813812,9.56430625915527,3.55185198783875,0.0990860015153885,-3.65093803405762,-1121.10009765625,36.9000015258789,-846.900024414062,3.0930785195742,0.0151141174241238,0.0578316763295745,DLL
10.3,0.107665732502937,-0.643003702163696,9.55114650726318,2.90398192405701,0.160062000155449,-1.18140995502472,-1123.5,34.5,-854.100036621094,3.09700496452086,0.0114571649546963,0.0617383220522268,DLL
10.3333333333333,0.129198879003525,-0.377428203821182,10.8957719802856,1.2576299905777,-0.548784017562866,-0.243903994560242,-1128.30004882812,37.5,-861.300048828125,3.09807805493101,0.0127213503178895,0.0346371197836596,DLL
10.3666666666667,0.0705808699131012,-0.201574176549911,11.5985898971558,1.2423859834671,-0.640248000621796,0.739333987236023,-1123.5,36.9000015258789,-851.700012207031,3.09560895486721,0.0076763371816255,0.0169769868996449,DLL
10.4,0.922934591770172,-0.747080564498901,10.2814798355103,0.541162014007568,-0.137196004390717,0.693601965904236,-1125.90002441406,31.5000019073486,-856.500061035156,3.09086569061448,0.0820625000329273,0.0666934945212135,DLL
10.4333333333333,0.906784772872925,-0.847568571567535,9.51346397399902,-0.358233988285065,-0.0381099991500378,-0.518296003341675,-1118.70007324219,38.1000022888184,-858.900024414062,3.09093193927489,0.0936469619001365,0.0873440337703118,DLL
10.4666666666667,0.753660142421722,-1.12391066551208,8.69699859619141,-0.632625997066498,0.685979962348938,-0.914639949798584,-1116.30004882812,35.1000022888184,-856.500061035156,3.09108599436211,0.0855439577044249,0.125660834593818,DLL
10.5,-0.134582161903381,-1.08204066753387,8.83696460723877,-0.0609759986400604,0.685979962348938,-0.609759986400604,-1118.70007324219,24.3000011444092,-854.100036621094,3.09360846271347,-0.006958296350792,0.122278676097709,DLL
10.5333333333333,0.47851437330246,-1.5563679933548,8.08749103546143,-0.67835795879364,0.282013982534409,-0.213415995240211,-1118.70007324219,33.3000030517578,-858.900024414062,3.09316786411251,0.0531707133745182,0.18652889337657,DLL
10.5666666666667,-0.863120317459106,-1.11972367763519,9.63369083404541,-0.46494197845459,0.419209986925125,0.0228659994900227,-1118.70007324219,35.7000007629395,-854.100036621094,3.09252082737198,-0.0765614730919218,0.122947114067579,DLL
10.6,-0.221911042928696,-1.46963727474213,9.95608997344971,-0.121951997280121,0.0381099991500378,0.175305992364883,-1118.70007324219,38.1000022888184,-844.500061035156,3.09304188192773,-0.027082268929456,0.144609406566538,DLL
10.6333333333333,-0.479710668325424,-1.3159145116806,10.8150234222412,-0.685979962348938,-0.221037998795509,-0.358233988285065,-1121.10009765625,33.3000030517578,-866.100036621094,3.09338084058555,-0.0420527011751747,0.124319318883211,DLL
10.6666666666667,-0.0299071483314037,-1.01624488830566,10.1128034591675,0.0990860015153885,-0.236281991004944,-0.0152439996600151,-1118.70007324219,32.1000022888184,-861.300048828125,3.09280904659235,-0.0050011550816025,0.101504170018249,DLL
10.7,-0.146545022726059,-0.866111040115356,10.1498880386353,0.967993974685669,0.457319974899292,0.266770005226135,-1111.5,41.1000022888184,-849.300048828125,3.09191252815553,-0.0142968773184906,0.0850666620703455,DLL
10.7333333333333,0.502440094947815,-1.1657806634903,9.26643085479736,0.884151995182037,0.358233988285065,0.243903994560242,-1111.5,38.1000022888184,-866.100036621094,3.09056549645989,0.0469758372052236,0.120123927196662,DLL
10.7666666666667,-0.111254595220089,-0.935495615005493,8.68144702911377,0.472563982009888,0.655492007732391,-0.106707997620106,-1118.70007324219,29.7000007629395,-861.300048828125,3.09143882807822,-0.0092676454426356,0.107548415091976,DLL
10.8,-0.174657747149467,-0.994711756706238,9.14740085601807,0.152439996600151,0.746955990791321,-0.213415995240211,-1109.10009765625,32.1000022888184,-851.700012207031,3.09249539001764,-0.0193289494703781,0.108017521321771,DLL
10.8333333333333,-0.765622973442078,-0.590965270996094,9.29693603515625,0.548784017562866,0.541162014007568,0.0457319989800453,-1111.5,35.1000022888184,-842.100036621094,3.0905318235819,-0.0785802437463134,0.0656650133771043,DLL
10.8666666666667,0.33137121796608,-0.882260859012604,9.44826602935791,0.434453994035721,0.388722002506256,0.3125019967556,-1113.90002441406,28.5000019073486,-844.500061035156,3.0902537875765,0.0239585564235443,0.0899432398392527,DLL
10.9,-0.283519774675369,-0.614292860031128,9.87414455413818,0.640248000621796,-0.510673999786377,-0.46494197845459,-1123.5,36.3000030517578,-851.700012207031,3.09174618755257,-0.0230299957941314,0.0636446478947112,DLL
10.9333333333333,0.263781040906906,-0.613096535205841,9.5026969909668,0.663114011287689,-0.815553963184357,-0.739333987236023,-1113.90002441406,38.7000007629395,-854.100036621094,3.09410587113152,0.024470001139021,0.0632917104462791,DLL
10.9666666666667,-0.229088753461838,-0.570030272006989,10.1008405685425,1.12043392658234,-0.78506600856781,-0.381099998950958,-1113.90002441406,32.7000007629395,-866.100036621094,3.0952926922003,-0.0170987245523433,0.0552268774826715,DLL
11.0,0.835007607936859,-0.970187902450562,9.32923603057861,-0.571649968624115,-1.29574000835419,-1.2347639799118,-1118.70007324219,32.7000007629395,-856.500061035156,3.09818569147335,0.0844526999513271,0.101398334389442,DLL
11.0333333333333,0.0269164331257343,-0.790146887302399,10.0176982879639,-0.861285984516144,-1.39482593536377,-1.03659200668335,-1111.5,28.5000019073486,-854.100036621094,3.10247746984516,0.0118127621323275,0.0819282252850363,DLL
11.0666666666667,0.764426708221436,-1.14305126667023,9.28975868225098,-0.617381989955902,-0.670735955238342,-0.990859985351562,-1123.5,30.3000011444092,-854.100036621094,3.10423405665893,0.0774852682245032,0.12026704451308,DLL
11.1,0.476719945669174,-1.40085089206696,9.92319202423096,0.358233988285065,1.13567793369293,-0.106707997620106,-1123.5,37.5,-844.500061035156,3.10392828133607,0.0484814514883756,0.137848602870462,DLL
11.1333333333333,0.340343356132507,-0.871494293212891,9.74075794219971,0.121951997280121,-0.381099998950958,-1.08232402801514,-1106.70007324219,31.5000019073486,-854.100036621094,3.10937430900805,0.0368092674026617,0.0933698176946047,DLL
11.1666666666667,0.0245238617062569,-0.756052732467651,9.61813926696777,0.807931959629059,0.67835795879364,0.0914639979600906,-1133.10009765625,30.3000011444092,-844.500061035156,3.10950370685742,0.0037859060453775,0.0781593325800443,DLL
11.2,0.596348524093628,-0.682481110095978,9.22396278381348,0.106707997620106,-0.152439996600151,-0.365855991840363,-1123.5,32.7000007629395,-842.100036621094,3.11084003662048,0.0591867356951032,0.0740530542491536,DLL
11.2333333333333,-0.211742609739304,-0.385204076766968,9.21199989318848,0.198172003030777,0.67835795879364,0.228659987449646,-1113.90002441406,32.1000022888184,-846.900024414062,3.11075604669875,-0.017871002162743,0.0439088760808049,DLL
11.2666666666667,0.126208171248436,-0.687864422798157,9.62112998962402,0.259148001670837,1.15092194080353,0.472563982009888,-1116.30004882812,30.9000015258789,-854.100036621094,3.1094765307501,0.0084117362178973,0.0684791266284621,DLL
11.3,-0.104675017297268,-0.781174719333649,9.41237735748291,-0.25152599811554,0.137196004390717,-0.525918006896973,-1125.90002441406,43.5,-861.300048828125,3.11138705371655,-0.0096232359408768,0.082028325894611,DLL
11.3333333333333,-0.459971934556961,-0.773997008800507,10.951997756958,-0.403965979814529,0.487807989120483,-0.769822001457214,-1116.30004882812,39.3000030517578,-858.900024414062,3.11404702518758,-0.0401309310750874,0.0721175970519083,DLL
11.3666666666667,0.0346922911703587,-1.22140789031982,9.21319580078125,-0.37347799539566,0.37347799539566,-0.0609759986400604,-1106.70007324219,33.9000015258789,-854.100036621094,3.11549505978773,-0.000821469272264,0.126998823640477,DLL
11.4,0.0705808699131012,-1.25370764732361,9.62770938873291,-1.40244793891907,0.221037998795509,-0.571649968624115,-1111.5,36.9000015258789,-846.900024414062,3.1175570234784,0.0063077235228254,0.131486630225388,DLL
11.4333333333333,-0.227294325828552,-1.28002595901489,9.42613506317139,-0.388722002506256,-0.0685980021953583,0.205793991684914,-1118.70007324219,33.3000030517578,-858.900024414062,3.11683502096719,-0.0210931120964455,0.135267869051492,DLL
11.4666666666667,1.02103006839752,-1.81596207618713,8.72870063781738,-0.609759986400604,-0.228659987449646,-0.411587983369827,-1121.10009765625,35.1000022888184,-866.100036621094,3.11560334284202,0.102233163665095,0.199681932425918,DLL
11.5,-0.662742435932159,-0.982748925685883,10.4118747711182,0.983237981796265,-0.25152599811554,-0.350611984729767,-1113.90002441406,31.5000019073486,-842.100036621094,3.11930081836402,-0.0513870273134637,0.0998603261936641,DLL
11.5333333333333,0.172863319516182,-0.946262180805206,9.22755146026611,2.19513607025146,0.0533539988100529,0.0381099991500378,-1113.90002441406,33.3000030517578,-851.700012207031,3.11926447717034,0.0122045133382023,0.098499458690578,DLL
11.5666666666667,0.163891181349754,-0.802109718322754,8.76518726348877,1.77592599391937,0.259148001670837,0.160062000155449,-1111.5,28.5000019073486,-854.100036621094,3.11879386490813,0.0177342922263306,0.0888715372592466,DLL
11.6,-0.28411790728569,-0.686668157577515,9.2999267578125,0.815553963184357,0.0304879993200302,0.449698001146317,-1121.10009765625,31.5000019073486,-856.500061035156,3.11706937510972,-0.0272509133189286,0.0734080774409363,DLL
11.6333333333333,-0.640611112117767,-0.745286166667938,9.97762298583984,0.205793991684914,-0.388722002506256,0.640248000621796,-1121.10009765625,33.9000015258789,-866.100036621094,3.11482813248017,-0.0600793714145186,0.074071328530061,DLL
11.6666666666667,0.926523447036743,-1.40683221817017,8.80466461181641,-1.76068198680878,-1.56251001358032,0.114329993724823,-1121.10009765625,35.1000022888184,-861.300048828125,3.11273554271069,0.0910910419619963,0.153584802291603,DLL
11.7,0.0831418707966805,-1.42956173419952,9.87055492401123,-1.89025592803955,-1.58537602424622,0.144817993044853,-1106.70007324219,32.7000007629395,-856.500061035156,3.11191710793227,0.0160465470327535,0.147557654206761,DLL
11.7333333333333,0.52935653924942,-1.63651919364929,10.1181869506836,-0.647870004177094,-0.617381989955902,-0.0304879993200302,-1125.90002441406,43.5,-851.700012207031,3.11135814521385,0.0493584289096048,0.160227936115618,DLL
11.7666666666667,0.325987905263901,-1.65087461471558,9.5565299987793,0.282013982534409,0.419209986925125,-0.320124000310898,-1121.10009765625,31.5000019073486,-861.300048828125,3.1123281057512,0.0342093133093459,0.169765726184592,DLL
11.8,0.307445496320724,-1.34821426868439,8.53849124908447,0.99848198890686,0.495429992675781,-0.769822001457214,-1113.90002441406,34.5,-866.100036621094,3.11584089142109,0.034861678849252,0.155839617699996,DLL
11.8333333333333,-0.717173397541046,-1.0395724773407,9.70068264007568,1.47866797447205,1.13567793369293,-0.419209986925125,-1133.10009765625,28.5000019073486,-846.900024414062,3.11735834619752,-0.0683682615947043,0.107480920186458,DLL
11.8666666666667,-1.38290655612946,-0.750669419765472,10.668478012085,1.09756803512573,0.617381989955902,-0.243903994560242,-1123.5,27.3000011444092,-861.300048828125,3.11535099346616,-0.12457289952063,0.0716437142308656,DLL
11.9,-0.296678900718689,-1.15142524242401,9.53140830993652,0.3125019967556,0.0,0.0838419944047928,-1123.5,32.7000007629395,-846.900024414062,3.11874474410748,-0.0373670345539156,0.116390754952562,DLL
11.9333333333333,-0.549095273017883,-1.39726197719574,9.6163444519043,-0.548784017562866,-0.411587983369827,-0.243903994560242,-1118.70007324219,33.3000030517578,-851.700012207031,3.1205023714127,-0.0540215584304781,0.142650697677252,DLL
11.9666666666667,-0.406139075756073,-1.54919028282166,10.0583724975586,-1.15854394435883,-0.685979962348938,-0.480185985565186,-1116.30004882812,32.1000022888184,-858.900024414062,3.12224085802734,-0.0396380313257197,0.154029563364158,DLL
12.0,-0.165087461471558,-1.50074076652527,9.67077541351318,-0.434453994035721,-0.914639949798584,0.259148001670837,-1130.70007324219,32.1000022888184,-851.700012207031,3.1208056509656,-0.0173664138527273,0.154643608871817,DLL
12.0333333333333,-0.419896364212036,-1.32309222221375,9.57028770446777,0.731711983680725,-0.289635986089706,1.10518991947174,-1109.10009765625,33.3000030517578,-854.100036621094,3.11622781283208,-0.0412567594090695,0.13743579233918,DLL
12.0666666666667,-0.538328647613525,-0.957028746604919,9.85978889465332,1.47866797447205,-0.114329993724823,1.6844619512558,-1116.30004882812,30.9000015258789,-856.500061035156,3.10860377166891,-0.0533194714852019,0.097620764861847,DLL
12.1,-0.318212062120438,-0.965402781963348,9.64266300201416,1.27287399768829,-0.503051996231079,2.0579400062561,-1121.10009765625,34.5,-873.300048828125,3.10089513467632,-0.0337447000712126,0.097440342642599,DLL
12.1333333333333,0.0753660127520561,-1.04017066955566,8.74903678894043,-0.152439996600151,-0.853663980960846,1.03659200668335,-1113.90002441406,34.5,-846.900024414062,3.09691902886005,0.0068330772949429,0.117146193409852,DLL
12.1666666666667,-0.260192185640335,-0.869699895381927,8.9536018371582,0.106707997620106,-0.182927995920181,1.07470202445984,-1113.90002441406,34.5,-858.900024414062,3.09275391300076,-0.0261030579803222,0.0981587258169076,DLL
12.2,-0.696238398551941,-1.08862018585205,10.3580417633057,0.213415995240211,0.0076219998300075,1.46342396736145,-1116.30004882812,35.7000007629395,-851.700012207031,3.08786354028687,-0.063641168044831,0.103701413035436,DLL
12.2333333333333,1.74478304386139,-1.77409207820892,8.68742847442627,-1.74543797969818,-2.29422187805176,1.18140995502472,-1123.5,30.3000011444092,-856.500061035156,3.07799462026909,0.173948123116715,0.195478676279904,DLL
12.2666666666667,-0.113049022853374,-1.00428199768066,9.92857551574707,-0.426831990480423,-1.6920839548111,2.23324584960938,-1118.70007324219,38.1000022888184,-856.500061035156,3.07717361627321,0.0063233707365448,0.109494465952508,DLL
12.3,1.17475283145905,-1.31651270389557,9.50090312957764,0.746955990791321,0.190549999475479,2.60672402381897,-1121.10009765625,41.1000022888184,-837.300048828125,3.06640784072944,0.11145698174924,0.134516353219104,DLL
12.3333333333333,0.212938904762268,-0.66034984588623,9.74673938751221,1.62348592281342,0.716467976570129,1.85976791381836,-1118.70007324219,32.1000022888184,-839.700012207031,3.0643457990747,0.0285392581639181,0.0712441996144476,DLL
12.3666666666667,0.803305983543396,-1.00368392467499,8.47269535064697,0.693601965904236,0.67835795879364,1.47104597091675,-1113.90002441406,34.5,-856.500061035156,3.05697716701208,0.0866530985992238,0.112730521320622,DLL
12.4,0.640012979507446,-0.906186580657959,8.33572006225586,-0.609759986400604,-0.388722002506256,0.190549999475479,-1118.70007324219,35.7000007629395,-849.300048828125,3.05659793161248,0.0777094635504205,0.109685011710368,DLL
12.4333333333333,-0.775193274021149,-0.16269488632679,10.6008882522583,0.0304879993200302,0.190549999475479,0.632625997066498,-1125.90002441406,36.3000030517578,-854.100036621094,3.05522907040538,-0.0596503543061158,0.0238800749186224,DLL
12.4666666666667,-0.0185424312949181,-0.925327181816101,10.6451501846313,1.49391198158264,1.07470202445984,2.66770005226135,-1118.70007324219,31.5000019073486,-858.900024414062,3.04826529300847,-0.0089702383849906,0.0785725774601696,DLL
12.5,0.933103024959564,-1.19150078296661,10.0344467163086,-1.05945801734924,-1.07470202445984,-0.182927995920181,-1123.5,33.3000030517578,-849.300048828125,3.04726543948243,0.0846489342927058,0.116266862874677,DLL
12.5333333333333,0.0143554313108325,-1.11852741241455,10.0781106948853,-0.205793991684914,-1.05183601379395,-0.25152599811554,-1113.90002441406,30.9000015258789,-856.500061035156,3.04797983331685,0.0106565449174544,0.111379834625674,DLL
12.5666666666667,1.32967185974121,-1.75554966926575,8.77296257019043,0.99848198890686,0.297257989645004,0.327746003866196,-1113.90002441406,34.5,-849.300048828125,3.04116713135245,0.134571236953705,0.188057785619973,DLL
12.6,0.22968690097332,-1.04974091053009,9.16654109954834,0.0381099991500378,0.160062000155449,-0.609759986400604,-1113.90002441406,30.3000011444092,-851.700012207031,3.04903394061735,0.0347223982199884,0.120589680825842,DLL
12.6333333333333,0.19798532128334,-1.0216281414032,8.52353763580322,0.693601965904236,1.21951997280121,1.2576299905777,-1113.90002441406,33.3000030517578,-861.300048828125,3.04522001851758,0.0219548778515119,0.118350697090918,DLL
12.6666666666667,-0.0185424312949181,-0.548497080802917,9.16953182220459,0.403965979814529,0.586893975734711,0.426831990480423,-1116.30004882812,33.9000015258789,-858.900024414062,3.04444285861468,-0.001024693279752,0.063948317748991,DLL
12.7,-0.751865744590759,-0.330174922943115,10.0679426193237,1.74543797969818,1.20427596569061,1.44817996025085,-1118.70007324219,36.9000015258789,-861.300048828125,3.03878072301284,-0.0698529077090548,0.0327222025420323,DLL
12.7333333333333,-0.392979919910431,-0.562254369258881,9.72700119018555,0.655492007732391,0.137196004390717,0.0457319989800453,-1109.10009765625,33.3000030517578,-849.300048828125,3.04001325659512,-0.0425706552849182,0.0549545426604145,DLL
12.7666666666667,0.21712589263916,-0.824241042137146,9.00444412231445,-1.02897000312805,-1.08232402801514,-0.602137982845306,-1111.5,34.5,-849.300048828125,3.04228031613392,0.0208010989981064,0.0901980721261932,DLL
12.8,-0.0723752975463867,-0.96659904718399,9.8256950378418,-0.724089980125427,-1.35671591758728,0.144817993044853,-1121.10009765625,30.9000015258789,-844.500061035156,3.041191596148,-0.0032247546216422,0.0986970109496987,DLL
12.8333333333333,0.563450694084167,-1.4241783618927,9.54935264587402,-1.54726600646973,-1.22714197635651,-0.457319974899292,-1118.70007324219,30.9000015258789,-846.900024414062,3.04120375101516,0.0557094077887156,0.146796933787666,DLL
12.8666666666667,0.209948182106018,-1.38589727878571,10.0936622619629,-1.02897000312805,-0.114329993724823,-0.175305992364883,-1118.70007324219,30.9000015258789,-861.300048828125,3.04223005730612,0.0234740720393078,0.138884186836707,DLL
12.9,0.349315494298935,-1.34283101558685,9.72879505157471,0.0381099991500378,0.503051996231079,-0.190549999475479,-1116.30004882812,29.1000003814697,-844.500061035156,3.04324575259737,0.0339555668872915,0.137203187785038,DLL
12.9333333333333,0.248229339718819,-1.28600740432739,9.69290637969971,0.152439996600151,0.990859985351562,-1.03659200668335,-1111.5,33.9000015258789,-844.500061035156,3.0473871314907,0.0248166485152669,0.132092669034143,DLL
12.9666666666667,-0.226098045706749,-1.1436493396759,9.59600734710693,0.495429992675781,0.868907988071442,-0.937505960464478,-1121.10009765625,36.3000030517578,-851.700012207031,3.05100779032127,-0.0202182523873976,0.119072895913886,DLL
13.0,-0.0879270136356354,-1.17415463924408,8.84713268280029,0.579271972179413,0.739333987236023,-0.922261953353882,-1106.70007324219,35.7000007629395,-861.300048828125,3.0546927351334,-0.0117678930615723,0.129882918460569,DLL
13.0333333333333,-0.139965459704399,-1.12271440029144,8.97274303436279,0.221037998795509,0.190549999475479,-0.449698001146317,-1109.10009765625,34.5,-846.900024414062,3.05625671239402,-0.0153520748894552,0.124626993563922,DLL
13.0666666666667,0.573020994663239,-1.42238402366638,8.393141746521,-0.716467976570129,-0.739333987236023,-0.87652999162674,-1113.90002441406,23.7000007629395,-846.900024414062,3.05802651691977,0.0611052344306821,0.16504230745094,DLL
13.1,-0.419896364212036,-1.01086163520813,9.92797660827637,-0.0914639979600906,-0.510673999786377,-0.78506600856781,-1121.10009765625,33.3000030517578,-866.100036621094,3.06145697967409,-0.0332940924042907,0.106455393934567,DLL
13.1333333333333,-0.269164323806763,-0.860727727413177,10.2617406845093,1.62348592281342,0.746955990791321,0.381099998950958,-1113.90002441406,33.3000030517578,-849.300048828125,3.05977217693331,-0.0279271951193949,0.0827643074242365,DLL
13.1666666666667,-0.683079302310944,-0.644798099994659,10.9502029418945,1.30336201190948,0.541162014007568,-0.0381099991500378,-1116.30004882812,33.9000015258789,-849.300048828125,3.05919559367559,-0.0599470865954089,0.0589242414155337,DLL
13.2,-0.539524972438812,-0.560459971427917,9.87414455413818,1.12805593013763,-0.0304879993200302,0.381099998950958,-1121.10009765625,37.5,-858.900024414062,3.05787796463646,-0.0549767421532263,0.0550760187236729,DLL
13.2333333333333,0.0179442893713713,-0.814670741558075,9.50090312957764,0.228659987449646,0.0076219998300075,-0.205793991684914,-1116.30004882812,29.7000007629395,-849.300048828125,3.05940499594277,-0.0032543945306337,0.0824274051362558,DLL
13.2666666666667,0.0705808699131012,-1.07785367965698,9.18568134307861,-0.434453994035721,-0.586893975734711,-0.487807989120483,-1123.5,33.9000015258789,-849.300048828125,3.0608116128862,0.007655267462019,0.114382211477965,DLL
13.3,0.0496458671987057,-1.46186137199402,8.75202751159668,-0.967993974685669,-0.884151995182037,-0.647870004177094,-1116.30004882812,27.9000015258789,-856.500061035156,3.06225818585785,0.0073248183273605,0.162407920000969,DLL
13.3333333333333,0.0478514358401299,-1.50193703174591,9.70307540893555,-1.31098401546478,-0.960371971130371,-0.609759986400604,-1125.90002441406,29.1000003814697,-861.300048828125,3.06388731207662,0.0067529862685555,0.156446555161334,DLL
13.3666666666667,0.130395174026489,-1.35419571399689,9.39263916015625,-0.442075997591019,-0.419209986925125,0.457319974899292,-1113.90002441406,33.3000030517578,-849.300048828125,3.0621374063796,0.0137739205176577,0.144913173028402,DLL
13.4,0.23925718665123,-1.12929391860962,10.1074199676514,0.548784017562866,0.0609759986400604,0.92988395690918,-1118.70007324219,33.3000030517578,-846.900024414062,3.05941802262125,0.022441185719831,0.113201295981268,DLL
13.4333333333333,0.779380261898041,-1.07725548744202,9.6821403503418,1.00610399246216,-0.0228659994900227,0.426831990480423,-1118.70007324219,31.5000019073486,-854.100036621094,3.05794085802705,0.0746004616374521,0.109472044243393,DLL
13.4666666666667,1.56055498123169,-0.927121579647064,9.41297626495361,1.04421401023865,-0.381099998950958,-1.58537602424622,-1116.30004882812,26.1000003814697,-861.300048828125,3.06419148208862,0.156317262323998,0.0972189913364677,DLL
13.5,0.82364284992218,-0.760837852954865,10.0691385269165,1.89787793159485,1.20427596569061,-5.30491209030151,-1121.10009765625,31.5000019073486,-861.300048828125,3.08480577747353,0.0869264341502215,0.0734945761132714,DLL
13.5333333333333,2.61029601097107,-1.6544634103775,9.31607723236084,0.46494197845459,0.685979962348938,-9.67231750488281,-1133.10009765625,33.9000015258789,-849.300048828125,3.10243313574117,0.253772867029393,0.161991976906418,DLL
13.5666666666667,0.661546111106873,-1.05332982540131,9.99496936798096,0.228659987449646,0.541162014007568,-17.3400497436523,-1121.10009765625,31.5000019073486,-854.100036621094,-3.1124833747657,0.0852184677185906,0.106337001388408,DLL
13.6,0.563450694084167,-1.26267981529236,9.85021877288818,0.83841997385025,1.30336201190948,-18.4147510528564,-1137.90002441406,23.7000007629395,-858.900024414062,-3.05026610823064,0.0606606029690918,0.122309407803979,DLL
13.6333333333333,0.404344648122787,-1.45468366146088,10.1301488876343,1.18903195858002,1.92074394226074,-20.5641555786133,-1128.30004882812,23.1000003814697,-856.500061035156,-2.97998458022994,0.0427356671881518,0.137362531200331,DLL
13.6666666666667,0.577806115150452,-1.46245956420898,9.64864444732666,1.20427596569061,1.76068198680878,-21.204402923584,-1147.5,26.1000003814697,-863.700012207031,-2.90726690855026,0.0597080150310678,0.14543380518905,DLL
13.7,-0.0634031519293785,-1.02461886405945,9.13543796539307,1.6615959405899,1.45580196380615,-20.3050079345703,-1137.90002441406,16.5,-851.700012207031,-2.83398266735463,0.0001160312997707,0.111383987073808,DLL
13.7333333333333,0.675901532173157,-1.09400343894958,8.76458930969238,0.586893975734711,1.07470202445984,-19.2836589813232,-1149.90002441406,9.30000019073486,-858.900024414062,-2.7677396533385,0.0714184572330591,0.120380545700228,DLL
13.7666666666667,-1.61319160461426,-0.0077758585102856,9.30650615692139,1.02134799957275,2.44666194915771,-16.9665718078613,-1140.30004882812,8.10000038146973,-854.100036621094,-2.71281119680027,-0.152428268067757,0.0131398578935743,DLL
13.8,-0.799717128276825,-0.88285905122757,9.71683216094971,-0.121951997280121,2.64483404159546,-9.90859985351562,-1128.30004882812,11.1000003814697,-868.500061035156,-2.66733605482626,-0.0902369573110058,0.0866971757398432,DLL
13.8333333333333,-0.104076877236366,-1.01086163520813,9.51824951171875,-0.724089980125427,2.27897787094116,-8.7271900177002,-1121.10009765625,8.70000076293945,-868.500061035156,-2.63469241436757,-0.0196342857005636,0.10588912728021,DLL
13.8666666666667,-0.526963949203491,-0.916953146457672,9.69290637969971,-0.266770005226135,1.41769194602966,-7.64486598968506,-1137.90002441406,9.90000057220459,-878.100036621094,-2.60830001212751,-0.0520089007174524,0.0963422546810386,DLL
13.9,-0.388194799423218,-0.948654770851135,10.1319437026978,0.236281991004944,0.205793991684914,-5.67076778411865,-1123.5,12.9000005722046,-866.100036621094,-2.58882198312468,-0.0388605243060838,0.0936273868584562,DLL
13.9333333333333,-0.676499724388123,-0.939682602882385,10.5285129547119,0.746955990791321,-0.571649968624115,-3.30794787406921,-1125.90002441406,9.90000057220459,-873.300048828125,-2.57774757827094,-0.0602737049505202,0.0885335713255494,DLL
13.9666666666667,-0.381615221500397,-0.927121579647064,9.56968975067139,0.899396002292633,-0.358233988285065,-0.609759986400604,-1137.90002441406,8.10000038146973,-866.100036621094,-2.57531386837556,-0.0408783905933744,0.0944665709836022,DLL
14.0,0.25839775800705,-0.855942606925964,9.0911750793457,0.3125019967556,0.335367977619171,0.426831990480423,-1128.30004882812,2.10000014305115,-873.300048828125,-2.57672111686352,0.0219709800367171,0.0934325256350492,DLL
14.0333333333333,-0.284716039896011,-0.853550016880035,9.13125038146973,-0.152439996600151,1.15854394435883,1.70732796192169,-1125.90002441406,6.30000019073486,-866.100036621094,-2.58255929170593,-0.029151727108645,0.0934217879379552,DLL
14.0666666666667,-0.60950767993927,-0.938486337661743,9.69529914855957,-0.0838419944047928,1.89025592803955,2.30184388160706,-1125.90002441406,3.30000019073486,-873.300048828125,-2.5897363335332,-0.0628096089691335,0.0961671411311602,DLL
14.1,-0.657957255840302,-0.938486337661743,9.77006721496582,0.144817993044853,1.85214591026306,2.0579400062561,-1123.5,8.10000038146973,-875.700012207031,-2.59620810537548,-0.069800384932522,0.0953669817760635,DLL
14.1333333333333,-0.346324771642685,-0.922336459159851,10.146897315979,0.25152599811554,1.13567793369293,1.6692179441452,-1118.70007324219,9.90000057220459,-866.100036621094,-2.60245256007341,-0.0383182025309958,0.0904210769570664,DLL
14.1666666666667,-0.496458679437637,-0.877475738525391,9.6163444519043,0.647870004177094,-0.0609759986400604,1.05945801734924,-1125.90002441406,8.70000076293945,-875.700012207031,-2.60603814998456,-0.0502416745557233,0.0898356189632288,DLL
14.2,-0.806296706199646,-0.924130916595459,10.270712852478,0.411587983369827,-0.701223969459534,0.182927995920181,-1116.30004882812,2.70000004768372,-866.100036621094,-2.60683857239485,-0.0744327151590449,0.0890648671682157,DLL
14.2333333333333,-0.784165441989899,-0.821848452091217,9.99437046051025,0.762199997901917,-0.160062000155449,0.190549999475479,-1118.70007324219,4.5,-878.100036621094,-2.60791680849391,-0.0774838491633623,0.0814468001243543,ST
14.2666666666667,-0.0747678726911545,-0.688462555408478,9.50808048248291,0.693601965904236,-0.861285984516144,-0.129574000835419,-1113.90002441406,9.30000019073486,-866.100036621094,-2.60802823127837,-0.0127666984934064,0.0720160529768563,ST
14.3,0.311034351587296,-0.598741114139557,9.2227668762207,0.739333987236023,-1.85214591026306,-0.129574000835419,-1116.30004882812,2.70000004768372,-863.700012207031,-2.6079729417282,0.0323898785998372,0.0643070797711944,ST
14.3333333333333,0.385802209377289,-0.613096535205841,9.45245361328125,0.594515979290009,-1.21189796924591,-0.0609759986400604,-1135.5,3.90000009536743,-868.500061035156,-2.60810160113076,0.042107542892797,0.063773334461389,ST
14.3666666666667,0.122021168470383,-0.800913453102112,9.18328857421875,0.342989981174469,-0.701223969459534,-0.190549999475479,-1121.10009765625,8.70000076293945,-873.300048828125,-2.60826922619752,0.0169835892105408,0.0843459738584171,ST
14.4,-0.18482618033886,-0.676499724388123,9.65103721618652,0.0076219998300075,-0.190549999475479,-0.815553963184357,-1128.30004882812,6.30000019073486,-866.100036621094,-2.60533509964142,-0.0159766195986297,0.0710658625223283,ST
14.4333333333333,-0.589768946170807,-0.504234552383423,9.33222675323486,0.495429992675781,0.236281991004944,-0.266770005226135,-1109.10009765625,-0.900000035762787,-870.900024414062,-2.60485812081723,-0.0598284702440112,0.0544956512515316,ST
14.4666666666667,-0.114245310425758,-0.773398876190186,9.72520637512207,0.282013982534409,0.457319974899292,0.0076219998300075,-1121.10009765625,5.10000038146973,-875.700012207031,-2.6038945979543,-0.0167907819938749,0.0766666579485173,ST
14.5,-0.269762486219406,-0.538926839828491,9.98599720001221,0.403965979814529,-0.685979962348938,-0.358233988285065,-1123.5,-0.300000011920929,-870.900024414062,-2.60322556278847,-0.0249270645800313,0.055344968021221,ST
14.5333333333333,-0.35110992193222,-0.374437510967255,9.90345287322998,0.594515979290009,-0.746955990791321,0.350611984729767,-1125.90002441406,-2.10000014305115,-873.300048828125,-2.60515148997882,-0.0335601309627191,0.0378962979065604,ST
14.5666666666667,0.298473328351974,-0.310436189174652,9.67077541351318,0.182927995920181,-0.78506600856781,0.609759986400604,-1116.30004882812,3.30000019073486,-866.100036621094,-2.60737303391837,0.026221580534412,0.0323395882250901,ST
14.6,0.246434897184372,-0.299071490764618,9.34718036651611,0.0685980021953583,-0.0914639979600906,1.265251994133,-1133.10009765625,-2.10000014305115,-861.300048828125,-2.61174768871045,0.0264146262762463,0.031961251404538,ST
14.6333333333333,-0.360680222511292,-0.091515876352787,9.82689094543457,0.198172003030777,0.190549999475479,1.44817996025085,-1125.90002441406,14.7000007629395,-861.300048828125,-2.61678423646277,-0.0313104222356852,0.0110083445738131,ST
14.6666666666667,0.193200185894966,-0.381615221500397,9.64326095581055,-0.137196004390717,0.457319974899292,1.41006994247437,-1133.10009765625,3.30000019073486,-873.300048828125,-2.62139622879469,0.0145734714145695,0.0371966739796228,ST
14.7,-0.350511789321899,-0.0771604403853416,10.1128034591675,-0.434453994035721,0.167683988809586,0.579271972179413,-1118.70007324219,6.30000019073486,-868.500061035156,-2.62361177457472,-0.0304726758274218,0.0109797415793145,ST
14.7333333333333,-0.22011661529541,-0.35110992193222,9.70247745513916,-0.175305992364883,0.335367977619171,0.823175966739655,-1125.90002441406,-2.10000014305115,-861.300048828125,-2.62613650757448,-0.0237462328887479,0.0348502873315648,ST
14.7666666666667,0.0442625805735588,-0.462962657213211,9.6283073425293,0.106707997620106,-0.129574000835419,0.419209986925125,-1121.10009765625,3.90000009536743,-873.300048828125,-2.6275615873882,0.0026327271026727,0.0468774800325779,ST
14.8,-0.0502440109848976,-0.372643083333969,9.87773323059082,0.243903994560242,0.144817993044853,0.114329993724823,-1116.30004882812,5.70000028610229,-875.700012207031,-2.62797752437298,-0.0047952751306036,0.0379408536173626,ST
14.8333333333333,-0.180041030049324,-0.305052906274796,9.83526515960693,0.510673999786377,0.0533539988100529,-0.160062000155449,-1125.90002441406,4.5,-873.300048828125,-2.62742464347163,-0.0174455139459,0.0306568529458815,ST
14.8666666666667,0.297875195741653,-0.295482635498047,9.16773700714111,0.518296003341675,-0.259148001670837,-0.25152599811554,-1121.10009765625,3.30000019073486,-868.500061035156,-2.62658033511642,0.0287642768584299,0.0312535590434127,ST
14.9,-0.429466664791107,-0.299071490764618,9.76946926116943,0.518296003341675,0.350611984729767,-0.0990860015153885,-1116.30004882812,0.300000011920929,-882.900024414062,-2.62614937350167,-0.039477247917694,0.0298114259035598,ST
14.9333333333333,0.141759887337685,-0.608311414718628,8.93745231628418,-0.266770005226135,-1.56251001358032,-0.548784017562866,-1125.90002441406,12.9000005722046,-875.700012207031,-2.62249028867419,0.0185466945708782,0.068368862559598,ST
14.9666666666667,0.233275756239891,-0.751267552375793,9.19644832611084,-0.487807989120483,-0.716467976570129,-0.175305992364883,-1123.5,1.5,-866.100036621094,-2.62231779072866,0.0258232639643826,0.0810910499878464,ST
15.0,0.0472532957792282,-0.637620389461517,10.4417819976807,-0.205793991684914,-0.396344006061554,0.25152599811554,-1142.70007324219,3.30000019073486,-878.100036621094,-2.62297555062454,0.0070457863594218,0.063138697180542,ST
15.0333333333333,0.437840640544891,-0.748875021934509,9.87294769287109,0.167683988809586,0.114329993724823,0.556405961513519,-1121.10009765625,9.90000057220459,-873.300048828125,-2.62514772812998,0.0405860650561192,0.0743310615845274,ST
15.0666666666667,0.123815596103668,-0.56165623664856,9.17670917510986,0.442075997591019,0.365855991840363,0.221037998795509,-1130.70007324219,5.10000038146973,-868.500061035156,-2.625509171405,0.015317915207874,0.0616272737077205,ST
15.1,0.458775669336319,-0.488084673881531,8.62342739105225,0.358233988285065,0.472563982009888,-0.228659987449646,-1116.30004882812,5.10000038146973,-866.100036621094,-2.62450141314728,0.0489232268047577,0.0564154885521732,ST
15.1333333333333,-1.16458439826965,-0.683677434921265,10.8574914932251,0.701223969459534,2.05031800270081,0.221037998795509,-1123.5,8.10000038146973,-878.100036621094,-2.62464452562313,-0.0957845075314105,0.0611830879004955,ST
15.1666666666667,-0.231481328606606,-0.57062840461731,10.158860206604,0.541162014007568,0.342989981174469,-0.480185985565186,-1118.70007324219,3.30000019073486,-875.700012207031,-2.62299942737899,-0.0282806607378641,0.0556165280489763,ST
15.2,-0.540721237659454,-0.573020994663239,9.48116397857666,0.693601965904236,-0.388722002506256,-0.655492007732391,-1113.90002441406,9.30000019073486,-870.900024414062,-2.62043694045686,-0.054022131024743,0.0589365477465146,ST
15.2333333333333,-0.323595345020294,-0.729136288166046,10.7235069274902,0.304879993200302,0.0762199983000755,-0.792688012123108,-1123.5,0.900000035762787,-868.500061035156,-2.61713974195176,-0.0319413993031582,0.0667703626940861,ST
15.2666666666667,-0.0167480036616325,-0.78177285194397,8.97992038726807,-0.0152439996600151,-1.2347639799118,-1.28811800479889,-1121.10009765625,-2.70000004768372,-878.100036621094,-2.6127182016016,-0.0024603426648641,0.0850662012764252,ST
15.3,0.0167480036616325,-0.849961161613464,9.62053108215332,-0.87652999162674,-0.830797970294952,-1.43293595314026,-1113.90002441406,2.10000014305115,-868.500061035156,-2.60775064488945,0.0029575791620824,0.089300039704713,ST
15.3333333333333,-0.0687864422798157,-0.895420014858246,9.40998554229736,-1.05183601379395,-0.289635986089706,-0.632625997066498,-1123.5,9.90000057220459,-870.900024414062,-2.6056029192359,-0.0058736177290856,0.0960983584007814,ST
15.3666666666667,-0.172863319516182,-0.825437307357788,9.13125038146973,-0.571649968624115,0.0762199983000755,0.320124000310898,-1109.10009765625,4.5,-878.100036621094,-2.6067587559278,-0.0178452530552709,0.091590107639161,ST
15.4,-0.583189368247986,-0.99889874458313,9.80117034912109,-0.213415995240211,1.45580196380615,1.35671591758728,-1128.30004882812,0.300000011920929,-863.700012207031,-2.61061157574206,-0.0579016676439483,0.100908027951718,ST
15.4333333333333,-0.225499898195267,-0.864316582679749,8.2561674118042,0.243903994560242,0.221037998795509,1.19665396213531,-1123.5,9.90000057220459,-868.500061035156,-2.61449185985897,-0.0304840408371183,0.103546374763451,ST
15.4666666666667,-0.83560574054718,-0.961215734481812,11.159553527832,-0.335367977619171,0.266770005226135,0.602137982845306,-1118.70007324219,6.30000019073486,-885.300048828125,-2.61754014686134,-0.0719613686557635,0.0876238838285634,ST
15.5,0.0227294322103262,-0.848764896392822,9.991379737854,0.754577994346619,-1.55488801002502,0.609759986400604,-1113.90002441406,8.70000076293945,-875.700012207031,-2.62031313718195,-0.0009186066844876,0.0837326129068525,ST
15.5333333333333,0.511412262916565,-0.580198705196381,10.3095922470093,1.03659200668335,-2.85062789916992,0.129574000835419,-1113.90002441406,2.70000004768372,-866.100036621094,-2.62090982541678,0.0498628166485671,0.0568571903196253,ST
15.5666666666667,0.218322187662125,-0.150732025504112,9.54157638549805,1.72257196903229,-1.95885396003723,0.701223969459534,-1128.30004882812,6.30000019073486,-875.700012207031,-2.62242764655974,0.0278877016286107,0.0158558297890719,ST
15.6,0.585581958293915,-0.0843381583690643,9.63129806518555,1.77592599391937,0.670735955238342,1.32622802257538,-1116.30004882812,10.5,-882.900024414062,-2.62687013663431,0.0566682877427205,0.0066855461030131,ST
15.6333333333333,0.32838049530983,-0.218322187662125,8.76458930969238,1.15854394435883,1.05945801734924,0.884151995182037,-1121.10009765625,2.10000014305115,-873.300048828125,-2.6307422355742,0.0374716830853194,0.021475446783363,ST
15.6666666666667,-0.0933103039860725,-0.313426911830902,8.17900657653809,0.83841997385025,1.27287399768829,0.487807989120483,-1125.90002441406,9.90000057220459,-873.300048828125,-2.63256823086639,-0.0094200333615901,0.0355696996210516,ST
15.7,-1.35838270187378,-0.196789041161537,10.2414035797119,0.701223969459534,1.98934197425842,0.365855991840363,-1113.90002441406,1.5,-880.500061035156,-2.63461706162377,-0.125809150745826,0.0192804180662182,ST
15.7333333333333,-1.1938933134079,0.0460570082068443,10.3191623687744,1.15854394435883,0.350611984729767,0.647870004177094,-1123.5,10.5,-875.700012207031,-2.63942742789049,-0.116485340169909,-0.0048411623061493,ST
15.7666666666667,-1.02581524848938,-0.235070183873177,10.5111665725708,0.503051996231079,0.106707997620106,1.21951997280121,-1118.70007324219,0.900000035762787,-866.100036621094,-2.64107808342675,-0.0989156941153903,0.0192989868914105,ST
15.8,-0.0448607243597507,-0.0717771574854851,9.20781326293945,-0.487807989120483,-1.56251001358032,0.663114011287689,-1121.10009765625,2.70000004768372,-878.100036621094,-2.64405284796116,-0.0109231634924152,0.0095772494072828,ST
15.8333333333333,0.844577848911285,-0.349913626909256,9.30710506439209,-1.35671591758728,-1.6615959405899,0.342989981174469,-1130.70007324219,6.30000019073486,-875.700012207031,-2.64618253490673,0.0838701461920369,0.037226434683034,ST
15.8666666666667,0.815268874168396,0.179442897439003,8.79868316650391,-1.31860601902008,-2.56099200248718,-0.487807989120483,-1121.10009765625,3.30000019073486,-866.100036621094,-2.63963507826985,0.0956864711886258,-0.0131580590169639,ST
15.9,0.39537250995636,-0.236864611506462,8.82440280914307,-0.541162014007568,1.46342396736145,1.47104597091675,-1135.5,4.5,-873.300048828125,-2.64720112484931,0.047014176096801,0.0242165320015472,ST
15.9333333333333,-1.05931115150452,-0.583787560462952,9.99197864532471,-0.0228659994900227,3.17837381362915,1.95123195648193,-1125.90002441406,2.70000004768372,-875.700012207031,-2.652864962781,-0.0980230607480599,0.0553594860108275,ST
15.9666666666667,-1.01624488830566,-0.461168229579926,9.73178577423096,0.533540010452271,2.72867584228516,1.42531394958496,-1118.70007324219,6.30000019073486,-882.900024414062,-2.65795135669966,-0.107834788828553,0.0470126438030234,ST
16.0,-0.886447906494141,-0.325987905263901,9.92378997802734,0.46494197845459,0.495429992675781,0.541162014007568,-1123.5,6.90000009536743,-870.900024414062,-2.66113239192578,-0.0911696226480987,0.0329739223385098,ST
16.0333333333333,-1.08204066753387,-0.499449372291565,10.8407430648804,0.259148001670837,-1.05183601379395,0.152439996600151,-1133.10009765625,6.30000019073486,-880.500061035156,-2.66064957573639,-0.0970281912082422,0.0445125086261639,ST
16.0666666666667,-0.919345736503601,-0.531150937080383,11.6817321777344,0.449698001146317,-1.60824191570282,0.25152599811554,-1113.90002441406,-3.90000009536743,-880.500061035156,-2.66165124020246,-0.0774375631267972,0.0445990035411299,ST
16.1,0.928317904472351,-0.510215938091278,9.01700496673584,0.213415995240211,-3.55947399139404,-0.46494197845459,-1111.5,3.90000009536743,-878.100036621094,-2.66075906432403,0.0917642839522926,0.0550882780864042,ST
16.1333333333333,1.72923135757446,-0.200377896428108,8.32375717163086,0.320124000310898,-3.24697184562683,-0.724089980125427,-1121.10009765625,6.30000019073486,-873.300048828125,-2.65468140010442,0.199731256167795,0.0262427083744218,ST
16.1666666666667,0.528758406639099,-0.305052906274796,8.50619125366211,0.457319974899292,-0.297257989645004,-0.0533539988100529,-1121.10009765625,5.10000038146973,-868.500061035156,-2.65583967354992,0.0720207461508724,0.0344463094216279,ST
16.2,0.135778456926346,-0.699229121208191,9.84004974365234,0.213415995240211,1.63872992992401,0.160062000155449,-1123.5,7.50000047683716,-878.100036621094,-2.6575684423743,0.0164288760513412,0.0673087214965682,ST
16.2333333333333,-0.482701390981674,-0.519188106060028,8.71554088592529,0.114329993724823,1.38720393180847,-0.152439996600151,-1125.90002441406,2.10000014305115,-866.100036621094,-2.65685722939151,-0.0509255249263367,0.0600437114809957,ST
16.2666666666667,-0.919943869113922,-0.818259596824646,10.1151962280273,-0.304879993200302,2.44666194915771,-0.259148001670837,-1123.5,5.70000028610229,-873.300048828125,-2.65389885784797,-0.0916234999860005,0.0798519253512902,ST
16.3,-0.95463615655899,-0.690855145454407,9.90225696563721,0.449698001146317,0.937505960464478,-0.693601965904236,-1116.30004882812,0.900000035762787,-861.300048828125,-2.6520629719035,-0.0968979623636926,0.069978914022505,ST
16.3333333333333,-0.805698573589325,-1.10118126869202,10.1122055053711,-0.144817993044853,0.228659987449646,-0.769822001457214,-1121.10009765625,2.10000014305115,-875.700012207031,-2.6462558888801,-0.0809066265565652,0.105328591310411,ST
16.3666666666667,-0.674705266952515,-0.521580696105957,10.294638633728,0.480185985565186,-1.31860601902008,-1.14329993724823,-1118.70007324219,2.70000004768372,-878.100036621094,-2.64621457723221,-0.0645692222530704,0.0549205712942683,ST
16.4,-0.346324771642685,-0.444420218467712,9.56729698181152,0.525918006896973,-2.0579400062561,-0.586893975734711,-1125.90002441406,3.90000009536743,-880.500061035156,-2.6448352067274,-0.035157029659824,0.0463115359191237,ST
16.4333333333333,-0.510814070701599,-0.630442678928375,9.63189601898193,0.236281991004944,-0.0609759986400604,0.0533539988100529,-1130.70007324219,-0.300000011920929,-880.500061035156,-2.6442583187234,-0.0514423865876959,0.0635367634060547,ST
16.4666666666667,0.243444189429283,-0.416905641555786,8.76159858703613,0.175305992364883,-0.46494197845459,-0.0457319989800453,-1125.90002441406,1.5,-882.900024414062,-2.64440658657889,0.0213189108906948,0.0487201625398263,ST
16.5,0.422288924455643,-0.548497080802917,9.35017108917236,-0.0914639979600906,-0.586893975734711,-0.144817993044853,-1128.30004882812,0.300000011920929,-875.700012207031,-2.64428553821262,0.0442241835118015,0.0579899045026714,ST
16.5333333333333,0.507823407649994,-0.497654944658279,8.27112102508545,0.434453994035721,0.236281991004944,-0.0914639979600906,-1118.70007324219,8.10000038146973,-885.300048828125,-2.64406529456748,0.0593074102546148,0.0592056237737707,ST
16.5666666666667,-0.673509001731873,-0.527562081813812,9.75571155548096,-0.289635986089706,0.891773998737335,-0.396344006061554,-1113.90002441406,2.10000014305115,-880.500061035156,-2.6425322562959,-0.0585851302277271,0.0549874149711998,ST
16.6,-1.51270353794098,-0.341539651155472,11.3790721893311,0.724089980125427,1.35671591758728,0.617381989955902,-1106.70007324219,9.30000019073486,-875.700012207031,-2.64666913229598,-0.129286959420414,0.0304542154014006,ST
16.6333333333333,-0.176452174782753,-0.223107323050499,9.71324348449707,1.29574000835419,-0.945127964019775,0.830797970294952,-1121.10009765625,3.90000009536743,-882.900024414062,-2.65000626096262,-0.026761712340647,0.0215234848730106,ST
16.6666666666667,0.186620607972145,-0.20755560696125,9.95608997344971,0.922261953353882,-1.82927989959717,0.510673999786377,-1123.5,1.5,-882.900024414062,-2.65196551340721,0.0178878812150106,0.0194315098700107,ST
16.7,0.128600731492043,-0.0203368607908487,9.65462589263916,0.342989981174469,-1.37958192825317,-0.0381099991500378,-1109.10009765625,0.900000035762787,-863.700012207031,-2.65160962847312,0.0158761155412322,0.0027385963134322,ST
16.7333333333333,-0.312828779220581,0.179442897439003,10.1528787612915,0.579271972179413,-0.0762199983000755,0.388722002506256,-1123.5,-0.900000035762787,-870.900024414062,-2.65303507047165,-0.0264447470498631,-0.0167542894254837,ST
16.7666666666667,0.922336459159851,-0.0873288735747337,8.38416957855225,0.289635986089706,-0.0381099991500378,0.419209986925125,-1116.30004882812,2.70000004768372,-868.500061035156,-2.65539143242853,0.0972827302538685,0.007514750791353,ST
16.8,0.0974973067641258,-0.0508421510457993,8.87524509429932,-0.350611984729767,0.289635986089706,-0.0152439996600151,-1118.70007324219,8.10000038146973,-875.700012207031,-2.65520363475178,0.0170336723782691,0.0064267949550333,ST
16.8333333333333,-1.04316139221191,-0.05742172524333,9.86636829376221,-0.0990860015153885,1.48628997802734,0.884151995182037,-1116.30004882812,8.70000076293945,-873.300048828125,-2.6585410714737,-0.0993282168138212,0.0059149534546712,ST
16.8666666666667,-1.22140789031982,-0.128002598881721,10.9137163162231,0.190549999475479,1.57775402069092,1.46342396736145,-1106.70007324219,5.10000038146973,-866.100036621094,-2.66294996834675,-0.112874227210849,0.0106455681890758,ST
16.9,-0.896616339683533,-0.0502440109848976,9.58583927154541,0.327746003866196,0.160062000155449,1.19665396213531,-1118.70007324219,3.90000009536743,-875.700012207031,-2.6675275972362,-0.0953033914481592,0.0050206671897688,NLR
16.9333333333333,-0.355296939611435,-0.228490620851517,10.266526222229,-0.3125019967556,-0.510673999786377,0.221037998795509,-1109.10009765625,3.30000019073486,-875.700012207031,-2.66737925161495,-0.0375559105563094,0.0216719742785885,NLR
16.9666666666667,-0.564048826694489,-0.378624498844147,10.3735933303833,-0.495429992675781,-1.13567793369293,-0.792688012123108,-1118.70007324219,-0.300000011920929,-875.700012207031,-2.66396119526161,-0.0512466607904211,0.0363290834095164,NLR
17.0,0.20097604393959,-0.598142981529236,9.6283073425293,-0.541162014007568,-0.777444005012512,-1.03659200668335,-1113.90002441406,2.10000014305115,-866.100036621094,-2.65980473152365,0.0172298997423895,0.061151788286919,NLR
17.0333333333333,0.0466551519930363,-0.595152258872986,9.89208889007568,-0.411587983369827,-0.739333987236023,-1.17378795146942,-1116.30004882812,3.90000009536743,-878.100036621094,-2.6556549527692,0.0069581837612681,0.0608197554312403,NLR
17.0666666666667,0.367857933044434,-0.557469248771667,9.3477783203125,-0.0076219998300075,-0.891773998737335,-0.685979962348938,-1118.70007324219,6.90000009536743,-875.700012207031,-2.65324806869496,0.038556278649067,0.059631753095894,NLR
17.1,0.196789041161537,-0.665733098983765,9.05947303771973,0.403965979814529,0.602137982845306,-0.411587983369827,-1118.70007324219,2.10000014305115,-863.700012207031,-2.6520907336439,0.0222803588200961,0.0714526268060638,NLR
17.1333333333333,0.367857933044434,-0.834409415721893,8.77176666259766,0.335367977619171,0.0990860015153885,-1.21189796924591,-1116.30004882812,8.10000038146973,-870.900024414062,-2.64833331877336,0.0402714723404,0.0924612108742254,NLR
17.1666666666667,0.419298231601715,-0.960019469261169,10.0595684051514,0.586893975734711,-0.426831990480423,-3.26983785629272,-1125.90002441406,5.10000038146973,-868.500061035156,-2.63636433621149,0.0425740771727054,0.0937864987099421,NLR
17.2,1.22200608253479,-1.26028728485107,9.07801628112793,0.868907988071442,-1.21189796924591,-5.73936605453491,-1123.5,-0.300000011920929,-873.300048828125,-2.62069847056675,0.127448197373049,0.131579306268298,NLR
17.2333333333333,1.40025269985199,-1.6024249792099,9.86098480224609,1.04421401023865,-0.541162014007568,-9.42841339111328,-1109.10009765625,-5.10000038146973,-870.900024414062,-2.59258656751934,0.141275438703196,0.15472535779899,NLR
17.2666666666667,2.03488230705261,-1.78186786174774,10.9173059463501,2.29422187805176,-0.868907988071442,-16.272970199585,-1116.30004882812,-6.90000009536743,-868.500061035156,-2.53274963988859,0.184862655409783,0.152912028090279,NLR
17.3,1.81237316131592,-1.96370339393616,9.99855804443359,3.75764584541321,-0.975615978240967,-24.5580825805664,-1118.70007324219,-4.5,-868.500061035156,-2.45298309818289,0.185064902234108,0.177553944188851,NLR
17.3333333333333,0.913962483406067,-1.53004968166351,9.14919471740723,4.39789390563965,-0.457319974899292,-29.4666519165039,-1104.30004882812,-12.3000001907349,-868.500061035156,-2.35217694093583,0.114084879083004,0.153777500152784,NLR
