seconds,sensor_accX_m_s_,sensor_accY_m_s_,sensor_accZ_m_s_,sensor_gyroX___s_,sensor_gyroY___s_,sensor_gyroZ___s_,sensor_magX__T_,sensor_magY__T_,sensor_magZ__T_,sensor_yaw___,sensor_pitch___,sensor_roll___,label5
0.0,-0.455784946680069,-0.933103024959564,9.67257022857666,0.106707997620106,-0.121951997280121,0.426831990480423,-1106.70007324219,9.30000019073486,-870.900024414062,-3.01376293203838,-0.0467438105587577,0.0959543679631513,ST
0.0333333333333333,-0.464158952236176,-0.932504892349243,9.65043830871582,0.144817993044853,-0.190549999475479,0.442075997591019,-1101.90002441406,6.30000019073486,-863.700012207031,-3.01789079635179,-0.0475793200063477,0.0960382006142131,ST
0.0666666666666667,-0.38939106464386,-0.961215734481812,9.58165264129639,0.144817993044853,-0.167683988809586,0.381099998950958,-1118.70007324219,9.90000057220459,-875.700012207031,-3.02109475242549,-0.040207401232741,0.0996942029792917,ST
0.1,-0.418700069189072,-0.943869590759277,9.61574649810791,0.137196004390717,-0.198172003030777,0.304879993200302,-1094.70007324219,9.30000019073486,-866.100036621094,-3.02391844147269,-0.0430085276482151,0.0975868211671462,ST
0.133333333333333,-0.420494496822357,-0.913364291191101,9.5924186706543,0.121951997280121,-0.152439996600151,0.327746003866196,-1097.10009765625,14.7000007629395,-868.500061035156,-3.02711424954648,-0.0433997127260959,0.0946969567449201,ST
0.166666666666667,-0.416905641555786,-0.939084470272064,9.62292385101318,0.0762199983000755,-0.129574000835419,0.289635986089706,-1111.5,8.70000076293945,-870.900024414062,-3.02965543010311,-0.042917553176731,0.0971198810171069,ST
0.2,-0.400755792856216,-0.952243626117706,9.63249397277832,0.0609759986400604,-0.106707997620106,0.221037998795509,-1099.5,3.30000019073486,-863.700012207031,-3.0315682820621,-0.0412358266693733,0.0984110541777294,ST
0.233333333333333,-0.439635097980499,-0.940878868103027,9.61574649810791,0.0838419944047928,-0.0914639979600906,0.152439996600151,-1104.30004882812,8.10000038146973,-870.900024414062,-3.03296696655996,-0.045328552190831,0.0973807428802781,ST
0.266666666666667,-0.416905641555786,-0.970187902450562,9.70367336273193,0.175305992364883,-0.0990860015153885,0.190549999475479,-1109.10009765625,11.7000007629395,-875.700012207031,-3.0345875255593,-0.0425908099556169,0.099325701400948,ST
0.3,-0.393578082323074,-0.949252903461456,9.59600734710693,0.274392008781433,-0.205793991684914,0.121951997280121,-1099.5,5.70000028610229,-870.900024414062,-3.03576295230394,-0.0404615796546553,0.0981149360367353,ST
0.333333333333333,-0.528758406639099,-0.894821882247925,9.57866191864014,0.160062000155449,-0.0152439996600151,0.144817993044853,-1104.30004882812,14.7000007629395,-875.700012207031,-3.03719739827599,-0.0548685750495216,0.0928676139198666,ST
0.366666666666667,-0.494066089391708,-0.932504892349243,9.59720420837402,-0.0,0.0457319989800453,0.282013982534409,-1104.30004882812,6.90000009536743,-856.500061035156,-3.03937141202848,-0.0513298660435687,0.0968256079602851,ST
0.4,-0.494066089391708,-0.933701157569885,9.67556095123291,-0.0152439996600151,-0.114329993724823,0.411587983369827,-1113.90002441406,5.70000028610229,-854.100036621094,-3.04303995333798,-0.0506555294763453,0.0961940225591243,ST
0.433333333333333,-0.392979919910431,-1.04734838008881,9.6043815612793,0.0838419944047928,-0.129574000835419,0.37347799539566,-1109.10009765625,6.30000019073486,-868.500061035156,-3.04577605954673,-0.0405237801861261,0.108415970529157,ST
0.466666666666667,-0.389989227056503,-1.04076874256134,9.65342903137207,0.121951997280121,-0.0990860015153885,0.144817993044853,-1101.90002441406,5.70000028610229,-868.500061035156,-3.04711827859922,-0.0400010781083601,0.107177936821828,ST
0.5,-0.47851437330246,-0.990524768829346,9.63907432556152,0.243903994560242,-0.259148001670837,0.0914639979600906,-1113.90002441406,6.90000009536743,-866.100036621094,-3.04826512542082,-0.0488874471375336,0.101979093006163,ST
0.533333333333333,-0.476121813058853,-0.976767480373383,9.50209903717041,0.213415995240211,-0.213415995240211,0.190549999475479,-1116.30004882812,4.5,-863.700012207031,-3.04999421484858,-0.0494650539537909,0.102044220911405,ST
0.566666666666667,-0.52935653924942,-0.950449168682098,9.64684963226318,0.152439996600151,-0.213415995240211,0.365855991840363,-1109.10009765625,8.10000038146973,-856.500061035156,-3.05346045973504,-0.0542349229674966,0.0979150551909161,ST
0.6,-0.430662930011749,-0.952841758728027,9.61335372924805,0.182927995920181,-0.221037998795509,0.525918006896973,-1113.90002441406,-0.300000011920929,-866.100036621094,-3.05806600956257,-0.0442813038139613,0.0984309484025316,ST
0.633333333333333,-0.391185492277145,-0.970786035060883,9.68094444274902,0.114329993724823,-0.282013982534409,0.472563982009888,-1118.70007324219,7.50000047683716,-870.900024414062,-3.06227304118453,-0.0397878985895384,0.0997065404541747,ST
0.666666666666667,-0.331969350576401,-0.925925314426422,9.63967227935791,0.198172003030777,-0.221037998795509,0.442075997591019,-1106.70007324219,5.10000038146973,-870.900024414062,-3.0663544031633,-0.033970502449349,0.0953971509256424,ST
0.7,-0.373839348554611,-0.924130916595459,9.59600734710693,0.121951997280121,-0.175305992364883,0.236281991004944,-1109.10009765625,8.70000076293945,-875.700012207031,-3.06867028230331,-0.0384882448016439,0.09577737859468,ST
0.733333333333333,-0.399559497833252,-0.903195858001709,9.60737228393555,0.0457319989800453,-0.137196004390717,0.243903994560242,-1109.10009765625,9.90000057220459,-870.900024414062,-3.07107946203457,-0.0411798316267752,0.0936403620050904,ST
0.766666666666667,-0.382213354110718,-0.957028746604919,9.59301662445068,0.0228659994900227,-0.0457319989800453,0.320124000310898,-1109.10009765625,5.70000028610229,-866.100036621094,-3.07362957977508,-0.0396051520565741,0.0993576840806737,ST
0.8,-0.410924226045609,-0.976169347763062,9.66240119934082,0.0304879993200302,-0.0304879993200302,0.259148001670837,-1109.10009765625,7.50000047683716,-863.700012207031,-3.0758872392085,-0.042274782651653,0.100611063462296,ST
0.833333333333333,-0.468944102525711,-0.976767480373383,9.64146614074707,0.0609759986400604,-0.0533539988100529,0.213415995240211,-1113.90002441406,4.5,-866.100036621094,-3.07773084920534,-0.0482828687192097,0.100839231363175,ST
0.866666666666667,-0.506028950214386,-0.922336459159851,9.59899806976318,0.114329993724823,-0.106707997620106,0.304879993200302,-1106.70007324219,6.90000009536743,-873.300048828125,-3.0806514952171,-0.0522826476177465,0.095577480855296,ST
0.9,-0.449205368757248,-0.961215734481812,9.68333625793457,0.0457319989800453,-0.228659987449646,0.396344006061554,-1111.5,2.70000004768372,-858.900024414062,-3.08439654657014,-0.0458090127801593,0.0988235621681898,ST
0.933333333333333,-0.423485219478607,-0.927121579647064,9.54217529296875,0.0762199983000755,-0.297257989645004,0.449698001146317,-1113.90002441406,6.90000009536743,-870.900024414062,-3.08857464586574,-0.0437082536579763,0.0966922206731037,ST
0.966666666666667,-0.422288924455643,-0.99590802192688,9.60019493103027,0.0838419944047928,-0.152439996600151,0.396344006061554,-1116.30004882812,15.3000001907349,-866.100036621094,-3.09179742873654,-0.0435318206915244,0.103175066031267,ST
1.0,-0.400157660245895,-0.996506214141846,9.71444034576416,-0.0762199983000755,-0.25152599811554,0.190549999475479,-1109.10009765625,8.10000038146973,-870.900024414062,-3.09371790310326,-0.0405587216111539,0.102342161581538,ST
1.03333333333333,-0.358885794878006,-1.02222633361816,9.63847541809082,0.0076219998300075,-0.350611984729767,0.167683988809586,-1111.5,3.30000019073486,-851.700012207031,-3.09550539593722,-0.0364375711227011,0.105631511498674,ST
1.06666666666667,-0.359483927488327,-1.01983380317688,9.60916709899902,0.0228659994900227,-0.182927995920181,0.0762199983000755,-1106.70007324219,8.70000076293945,-858.900024414062,-3.09636628747533,-0.0368802938305662,0.105689408069009,ST
1.1,-0.39537250995636,-1.03538548946381,9.63907432556152,0.0457319989800453,-0.0076219998300075,0.0838419944047928,-1123.5,4.5,-866.100036621094,-3.0970510500031,-0.0407552522886148,0.106916945334291,ST
1.13333333333333,-0.491673529148102,-1.02461886405945,9.65641975402832,0.167683988809586,0.0,0.144817993044853,-1111.5,4.5,-870.900024414062,-3.09829211567557,-0.0505916509872999,0.105410352772395,ST
1.16666666666667,-0.53234726190567,-0.946860313415527,9.57208156585693,0.205793991684914,-0.0457319989800453,0.221037998795509,-1109.10009765625,12.3000001907349,-873.300048828125,-3.10056757662637,-0.0552373632309072,0.0982315107538428,ST
1.2,-0.503636360168457,-0.904392182826996,9.51286602020264,0.228659987449646,-0.144817993044853,0.358233988285065,-1111.5,5.10000038146973,-870.900024414062,-3.10386641137507,-0.0524704326433893,0.0943620195879251,ST
1.23333333333333,-0.412718653678894,-0.929514169692993,9.5266227722168,0.190549999475479,-0.403965979814529,0.327746003866196,-1106.70007324219,7.50000047683716,-866.100036621094,-3.10682411586644,-0.0424694622882233,0.0968962795054725,ST
1.26666666666667,-0.576011657714844,-0.881064593791962,9.77844142913818,0.266770005226135,-0.487807989120483,0.46494197845459,-1113.90002441406,0.300000011920929,-866.100036621094,-3.11145169316365,-0.0577881896147791,0.0893621456414025,ST
1.3,-0.381017059087753,-0.913364291191101,9.64804649353027,0.320124000310898,-0.46494197845459,0.533540010452271,-1118.70007324219,10.5,-863.700012207031,-3.11607924084402,-0.0386221204850629,0.0937783379370681,ST
1.33333333333333,-0.359483927488327,-0.851755619049072,9.69529914855957,0.228659987449646,-0.525918006896973,0.46494197845459,-1106.70007324219,5.70000028610229,-868.500061035156,-3.12091415696317,-0.0360794298533718,0.0872065429294856,ST
1.36666666666667,-0.212938904762268,-0.871494293212891,9.59959697723389,0.121951997280121,-0.693601965904236,0.548784017562866,-1116.30004882812,5.70000028610229,-866.100036621094,-3.12637544141231,-0.020991930161544,0.0902960989190507,ST
1.4,-0.156713455915451,-0.997104346752167,9.53021240234375,-0.0762199983000755,-0.746955990791321,0.3125019967556,-1106.70007324219,4.5,-866.100036621094,-3.12977808213665,-0.0151205425135492,0.104351656468544,ST
1.43333333333333,-0.449803501367569,-1.13348090648651,9.58404445648193,-0.0685980021953583,-0.106707997620106,0.152439996600151,-1111.5,6.90000009536743,-863.700012207031,-3.13080207888403,-0.0463432130531154,0.11779408675175,ST
1.46666666666667,-0.558067381381989,-1.11972367763519,9.82629299163818,0.289635986089706,-0.0533539988100529,0.160062000155449,-1111.5,10.5,-854.100036621094,-3.13233876734906,-0.0562827900218068,0.112952627582478,ST
1.5,-0.649583280086517,-1.06768524646759,9.79698371887207,0.609759986400604,-0.655492007732391,0.304879993200302,-1106.70007324219,11.7000007629395,-873.300048828125,-3.13573944373316,-0.0647254173199122,0.107454720025166,ST
1.53333333333333,-0.596348524093628,-0.744089841842651,9.44647216796875,0.861285984516144,-0.99848198890686,1.18903195858002,-1111.5,5.70000028610229,-868.500061035156,3.134743246171,-0.0612813321086314,0.0770279373988885,ST
1.56666666666667,-0.18482618033886,-0.91276615858078,9.53679180145264,0.769822001457214,-1.21189796924591,1.64635193347931,-1116.30004882812,6.30000019073486,-870.900024414062,3.11956851653906,-0.0175215669063731,0.0939940683923296,ST
1.6,0.349913626909256,-1.27643704414368,9.17431735992432,-0.106707997620106,-1.31098401546478,1.15092194080353,-1118.70007324219,8.10000038146973,-875.700012207031,3.10778466455875,0.0396083254269041,0.138409877503662,ST
1.63333333333333,0.330174922943115,-1.54619956016541,9.73417854309082,-0.701223969459534,-1.05183601379395,0.571649968624115,-1123.5,8.10000038146973,-858.900024414062,3.10022675834294,0.035146192740931,0.15877502030559,ST
1.66666666666667,0.397166937589645,-2.00617146492004,9.63309288024902,-0.92988395690918,-0.846041977405548,0.0,-1128.30004882812,4.5,-863.700012207031,3.09719936393546,0.0417765186632193,0.206883680040799,ST
1.7,0.0604124404489994,-2.32019662857056,9.59959697723389,-0.746955990791321,-0.0533539988100529,-0.510673999786377,-1123.5,0.300000011920929,-854.100036621094,3.10109612166529,0.0064615855812731,0.238408141139173,ST
1.73333333333333,-0.113049022853374,-2.42846035957336,9.60318565368652,-0.449698001146317,0.708845973014832,-0.746955990791321,-1121.10009765625,5.70000028610229,-870.900024414062,3.10884420103952,-0.0122449360903498,0.248466833246396,ST
1.76666666666667,-0.300267785787582,-2.30045795440674,9.61873722076416,0.0152439996600151,0.846041977405548,-1.03659200668335,-1128.30004882812,8.10000038146973,-851.700012207031,3.1189706846036,-0.0313190502836138,0.234826848969326,ST
1.8,-0.360680222511292,-2.0612006187439,9.49910831451416,0.853663980960846,0.769822001457214,-1.28049600124359,-1111.5,7.50000047683716,-866.100036621094,3.13144354705749,-0.0379209352922691,0.212315034863348,ST
1.83333333333333,-0.616087257862091,-1.74358677864075,9.67316818237305,1.30336201190948,0.800309956073761,-1.42531394958496,-1116.30004882812,4.5,-875.700012207031,-3.13956350168824,-0.0634727281558252,0.176319186254705,ST
1.86666666666667,-0.398961365222931,-1.25968909263611,9.51884746551514,1.265251994133,0.221037998795509,-1.02134799957275,-1118.70007324219,0.900000035762787,-868.500061035156,-3.13195631578857,-0.0417121816888478,0.129512976232877,ST
1.9,-0.179442897439003,-0.630442678928375,9.3118896484375,1.10518991947174,-0.503051996231079,-0.724089980125427,-1111.5,8.70000076293945,-856.500061035156,-3.12738438237076,-0.0183006192744107,0.0657928980457961,ST
1.93333333333333,-0.0065795728005468,-0.217724040150642,8.69041919708252,1.02134799957275,-0.602137982845306,0.198172003030777,-1125.90002441406,14.1000003814697,-858.900024414062,-3.12966938800447,0.0002489693369486,0.0233490558114362,ST
1.96666666666667,-0.276940196752548,-0.22968690097332,9.56729698181152,0.365855991840363,0.289635986089706,0.746955990791321,-1116.30004882812,5.70000028610229,-866.100036621094,-3.13598698327809,-0.0293927801276882,0.0233270428459875,ST
2.0,-0.614890992641449,-0.209350034594536,9.96147346496582,-0.106707997620106,0.693601965904236,0.411587983369827,-1113.90002441406,7.50000047683716,-866.100036621094,-3.13966440961464,-0.0627948863626157,0.0211601500112849,ST
2.03333333333333,-1.00188946723938,-0.0933103039860725,10.0978498458862,0.25152599811554,0.960371971130371,0.350611984729767,-1106.70007324219,10.5,-873.300048828125,3.13978906557994,-0.100478857535239,0.0087722346043032,ST
2.06666666666667,-1.20525813102722,-0.192602038383484,10.2689189910889,0.67835795879364,1.07470202445984,0.548784017562866,-1111.5,4.5,-861.300048828125,3.13684496534757,-0.118661897801725,0.0174384744738839,ST
2.1,-1.28301668167114,-0.266771763563156,10.0105209350586,0.663114011287689,0.937505960464478,0.342989981174469,-1109.10009765625,8.70000076293945,-861.300048828125,3.13580597863663,-0.129052475838567,0.0253938830261765,ST
2.13333333333333,-1.47681498527527,-0.279930919408798,10.0924663543701,0.579271972179413,0.815553963184357,0.137196004390717,-1113.90002441406,2.70000004768372,-856.500061035156,3.13570879975448,-0.146628205289886,0.0266857824832402,ST
2.16666666666667,-1.48578715324402,-0.324791640043259,9.74315071105957,0.640248000621796,0.647870004177094,-0.0914639979600906,-1101.90002441406,3.90000009536743,-873.300048828125,3.13831961178754,-0.152357959602323,0.0322221707687323,ST
2.2,-1.39546751976013,-0.182433605194092,9.42015361785889,0.754577994346619,0.602137982845306,-0.0762199983000755,-1089.90002441406,9.90000057220459,-882.900024414062,3.13793281682696,-0.148098611457211,0.018104610051408,ST
2.23333333333333,-1.26866126060486,0.091515876352787,9.36033916473389,0.937505960464478,0.342989981174469,0.282013982534409,-1109.10009765625,1.5,-873.300048828125,3.1324479894237,-0.13533352063025,-0.0114081185217936,ST
2.26666666666667,-1.06947958469391,0.33137121796608,9.329833984375,1.16616594791412,0.0838419944047928,0.746955990791321,-1109.10009765625,3.30000019073486,-878.100036621094,3.12394783387253,-0.114210739406899,-0.0376236924034599,ST
2.3,-1.09878861904144,0.485093951225281,9.44766807556152,1.39482593536377,-0.0838419944047928,1.16616594791412,-1109.10009765625,1.5,-866.100036621094,3.11246421999894,-0.115375081388711,-0.0539534351230858,ST
2.33333333333333,-1.20884692668915,0.328978627920151,9.5326042175293,1.05183601379395,0.182927995920181,1.40244793891907,-1094.70007324219,3.90000009536743,-870.900024414062,3.10359354547196,-0.126266402767101,-0.0366872045798466,ST
2.36666666666667,-1.39187872409821,0.13099330663681,9.8017692565918,0.228659987449646,0.510673999786377,0.990859985351562,-1101.90002441406,5.10000038146973,-863.700012207031,3.09783511789832,-0.141889400439639,-0.014046479988625,ST
2.4,-1.53124594688416,-0.276940196752548,9.59720420837402,-0.640248000621796,0.594515979290009,0.335367977619171,-1113.90002441406,11.1000003814697,-873.300048828125,3.10047675261371,-0.159186123344555,0.0298222158062374,ST
2.43333333333333,-1.54560148715973,-0.540123105049133,9.63548469543457,-0.907018005847931,0.716467976570129,-0.205793991684914,-1101.90002441406,2.10000014305115,-863.700012207031,3.10576808633955,-0.160033949040947,0.0576057702062365,ST
2.46666666666667,-1.56653642654419,-0.474327385425568,9.75870227813721,-0.182927995920181,0.396344006061554,-0.663114011287689,-1101.90002441406,0.900000035762787,-873.300048828125,3.1101511884786,-0.159619479812787,0.0490948844604657,ST
2.5,-1.5444051027298,-0.333763778209686,9.61335372924805,0.769822001457214,-0.0609759986400604,-0.861285984516144,-1101.90002441406,-0.900000035762787,-866.100036621094,3.11683463284603,-0.159040346207781,0.0336207844267165,ST
2.53333333333333,-1.39786016941071,-0.287706762552261,9.04152870178223,0.853663980960846,-0.365855991840363,-0.739333987236023,-1082.70007324219,0.300000011920929,-870.900024414062,3.12414014982146,-0.152646007609181,0.0305201684751133,ST
2.56666666666667,-1.57849931716919,-0.241051614284515,9.35675048828125,0.198172003030777,0.0228659994900227,-0.617381989955902,-1097.10009765625,0.300000011920929,-858.900024414062,3.12923856514294,-0.167063290020722,0.0256001067837375,ST
2.6,-1.7525589466095,-0.232079476118088,9.42972373962402,-0.144817993044853,0.503051996231079,-0.46494197845459,-1089.90002441406,-0.900000035762787,-866.100036621094,3.13320037506467,-0.184533805556527,0.0250154925470896,ST
2.63333333333333,-1.78306424617767,-0.0873288735747337,9.68572902679443,-0.205793991684914,0.716467976570129,-0.25152599811554,-1101.90002441406,0.300000011920929,-866.100036621094,3.13241736131418,-0.183294127580767,0.0094779001600797,ST
2.66666666666667,-2.68506383895874,0.109460160136223,9.95848274230957,-0.190549999475479,1.05945801734924,0.289635986089706,-1106.70007324219,0.900000035762787,-866.100036621094,3.12502472951318,-0.264989975537317,-0.0107494655121106,ST
2.7,-2.70121359825134,0.0963010191917419,8.78133678436279,-0.0381099991500378,2.21037983894348,0.853663980960846,-1101.90002441406,-0.900000035762787,-863.700012207031,3.11726795019907,-0.302172901063454,-0.0113752013962656,ST
2.73333333333333,-2.5678277015686,-0.0083740018308162,9.99676322937012,0.190549999475479,2.15702605247498,1.08994603157043,-1097.10009765625,2.70000004768372,-878.100036621094,3.1111708760932,-0.255268075427481,-8.97416147870511e-06,ST
2.76666666666667,-2.4577693939209,0.186022460460663,10.0212869644165,0.533540010452271,0.221037998795509,0.853663980960846,-1077.90002441406,3.90000009536743,-866.100036621094,3.10023605511929,-0.240860249554563,-0.0198110856942829,ST
2.8,-2.1652774810791,-0.0921140164136887,9.54337120056152,0.541162014007568,-1.55488801002502,0.0990860015153885,-1087.5,2.70000004768372,-873.300048828125,3.10689738290956,-0.220439377804882,0.0085930165435636,ST
2.83333333333333,-1.84706544876099,-0.345726639032364,8.99307918548584,0.129574000835419,-1.57775402069092,-0.861285984516144,-1092.30004882812,3.90000009536743,-880.500061035156,3.12040522251934,-0.199657129469884,0.0384230857377517,ST
2.86666666666667,-1.63592100143433,-0.633433401584625,9.26344013214111,0.769822001457214,-0.510673999786377,-0.99848198890686,-1092.30004882812,6.30000019073486,-878.100036621094,3.13597711666902,-0.173425312979767,0.0671889780610911,ST
2.9,-2.26815819740295,-0.820053994655609,10.1169900894165,2.04269599914551,0.449698001146317,-0.381099998950958,-1094.70007324219,-1.5,-868.500061035156,-3.13041824237023,-0.22058043904336,0.0774779476717911,ST
2.93333333333333,-1.7806715965271,-0.109460160136223,9.53380107879639,1.51677799224854,1.6768399477005,0.37347799539566,-1106.70007324219,4.5,-868.500061035156,-2.99740874601654,0.934630459443312,-0.004491163117612,ST
2.96666666666667,-1.87577641010284,-0.0520384386181831,9.42015361785889,0.99848198890686,1.63872992992401,-0.0990860015153885,-1104.30004882812,0.300000011920929,-866.100036621094,-3.00005222128039,-0.197660900006517,0.0037980180275909,ST
3.0,-1.95772194862366,-0.147143170237541,9.78262805938721,0.46494197845459,1.43293595314026,-0.510673999786377,-1104.30004882812,10.5,-863.700012207031,-2.99269072416369,-0.19997377108073,0.0143907240901653,ST
3.03333333333333,-1.73700714111328,-0.384605944156647,9.425537109375,-0.182927995920181,0.67835795879364,-0.823175966739655,-1106.70007324219,2.10000014305115,-873.300048828125,-2.98066608069054,-0.183260031678824,0.0413105153169023,ST
3.06666666666667,-1.83809340000153,-0.657957255840302,8.84354400634766,-0.739333987236023,0.335367977619171,-1.09756803512573,-1113.90002441406,3.30000019073486,-856.500061035156,-2.96505355654209,-0.204791456715735,0.0759156540635669,ST
3.1,-1.9828439950943,-0.803904175758362,9.15816688537598,-0.701223969459534,0.342989981174469,-0.952749967575073,-1106.70007324219,1.5,-873.300048828125,-2.95531824295784,-0.212856535527493,0.0891159943763436,ST
3.13333333333333,-2.2890932559967,-0.928916037082672,9.70785999298096,-0.426831990480423,0.541162014007568,-0.167683988809586,-1111.5,1.5,-870.900024414062,-2.95275084594275,-0.231418429822408,0.0962137385857561,ST
3.16666666666667,-2.38718867301941,-0.783567309379578,9.83406829833984,-0.472563982009888,0.503051996231079,0.472563982009888,-1099.5,-0.900000035762787,-863.700012207031,-2.96146172486147,-0.238349043930179,0.080172816143558,ST
3.2,-2.43324565887451,-0.860727727413177,9.94532299041748,-0.434453994035721,-0.0762199983000755,1.44055795669556,-1097.10009765625,2.10000014305115,-868.500061035156,-2.97296544472021,-0.239170972909169,0.0864600029783984,ST
3.23333333333333,-1.94217026233673,-0.932504892349243,9.82150745391846,-0.365855991840363,-0.586893975734711,1.52439999580383,-1109.10009765625,11.1000003814697,-878.100036621094,-2.98512872063788,-0.193719488903807,0.0947390830186733,ST
3.26666666666667,-1.75375521183014,-1.03418922424316,9.90405178070068,-0.0914639979600906,-0.853663980960846,1.77592599391937,-1106.70007324219,2.70000004768372,-870.900024414062,-2.99941014640434,-0.173217928883847,0.103613974390235,ST
3.3,-1.67420220375061,-1.13946235179901,9.30411434173584,0.0914639979600906,-1.2500079870224,1.79879200458527,-1106.70007324219,3.90000009536743,-870.900024414062,-3.01319050415854,-0.174953258541127,0.121070069600762,ST
3.33333333333333,-1.85185062885284,-1.02461886405945,9.7359733581543,0.419209986925125,-0.663114011287689,2.58385801315308,-1109.10009765625,9.30000019073486,-870.900024414062,-3.03946055041379,-0.186250307504784,0.103283201012257,ST
3.36666666666667,-0.581394970417023,-1.1938933134079,9.60797023773193,1.15092194080353,-0.571649968624115,3.97106194496155,-1109.10009765625,3.90000009536743,-878.100036621094,-3.07094148627364,-0.0601350074927947,0.121139769973921,ST
3.4,-0.170470744371414,-0.986337780952454,9.57985782623291,1.76068198680878,-0.914639949798584,2.69818782806396,-1097.10009765625,10.5,-868.500061035156,-3.09610122542228,-0.0166655104112389,0.0994839073312769,ST
3.43333333333333,-0.266771763563156,-0.55567479133606,9.22755146026611,1.81403601169586,-0.693601965904236,0.914639949798584,-1104.30004882812,7.50000047683716,-873.300048828125,-3.10491736739503,-0.0277064975448265,0.0570392220814419,ST
3.46666666666667,-0.70461243391037,-0.103478737175465,9.48295879364014,1.47866797447205,-0.396344006061554,-0.282013982534409,-1109.10009765625,0.300000011920929,-863.700012207031,-3.10398283177687,-0.073394929661971,0.0084424813406252,ST
3.5,-1.13049018383026,-0.114245310425758,8.89677810668945,1.08232402801514,-0.198172003030777,0.198172003030777,-1101.90002441406,2.10000014305115,-866.100036621094,-3.10441234150556,-0.125955602593444,0.0109033055061681,ST
3.53333333333333,-1.44331896305084,-0.136974737048149,9.19046688079834,0.236281991004944,0.442075997591019,1.20427596569061,-1109.10009765625,-2.10000014305115,-868.500061035156,-3.11388459278338,-0.156481715162643,0.0141536529167043,ST
3.56666666666667,-1.29976463317871,-0.162096738815308,9.43989276885986,0.228659987449646,0.388722002506256,2.08842802047729,-1111.5,0.900000035762787,-875.700012207031,-3.13110460631694,-0.137592263000846,0.0162613992439289,ST
3.6,-1.26686680316925,-0.53533798456192,9.32325458526611,-0.0685980021953583,0.830797970294952,2.22562384605408,-1113.90002441406,2.10000014305115,-863.700012207031,3.13886647616871,-0.136504775305284,0.0568548502777562,ST
3.63333333333333,-0.955832481384277,-0.745286166667938,9.42733097076416,-0.922261953353882,0.78506600856781,1.43293595314026,-1101.90002441406,-0.300000011920929,-866.100036621094,3.1290181422059,-0.102381625732151,0.0801976657083013,ST
3.66666666666667,-0.896018147468567,-0.553282260894775,10.058970451355,-0.945127964019775,-0.670735955238342,0.990859985351562,-1109.10009765625,-0.300000011920929,-870.900024414062,3.11716834821169,-0.0876746842682718,0.0564985350320273,ST
3.7,-0.65436840057373,-0.62147057056427,10.1098127365112,-0.3125019967556,-1.99696397781372,1.21189796924591,-1113.90002441406,5.10000038146973,-880.500061035156,3.10520359610976,-0.061207601854651,0.0617887225760833,ST
3.73333333333333,-0.0293090064078569,-0.839194595813751,9.28377723693848,-0.472563982009888,-1.95885396003723,0.617381989955902,-1118.70007324219,5.10000038146973,-863.700012207031,3.09908497614487,4.25900063489523e-05,0.0909151717384639,ST
3.76666666666667,-0.266173630952835,-0.903195858001709,9.57806301116943,-0.967993974685669,-0.632625997066498,0.335367977619171,-1123.5,2.70000004768372,-863.700012207031,3.09535000066661,-0.0265753047839413,0.09568434383047,ST
3.8,-0.56763768196106,-0.593955993652344,9.78502082824707,-0.655492007732391,0.388722002506256,0.731711983680725,-1106.70007324219,7.50000047683716,-854.100036621094,3.08715294689752,-0.0585462370523886,0.0617515542624108,ST
3.83333333333333,-1.06589078903198,-0.342137783765793,9.533203125,0.0228659994900227,0.396344006061554,1.40244793891907,-1118.70007324219,9.90000057220459,-863.700012207031,3.07304108830822,-0.111922592581927,0.035628510482907,ST
3.86666666666667,-1.19867849349976,-0.178844749927521,9.79459095001221,0.952749967575073,0.708845973014832,2.4847719669342,-1116.30004882812,6.30000019073486,-856.500061035156,3.05055992108027,-0.123036930618455,0.0161101415280187,ST
3.9,-0.948654770851135,-0.174059599637985,9.98001575469971,0.800309956073761,0.114329993724823,2.52288198471069,-1101.90002441406,4.5,-861.300048828125,3.0295339909024,-0.0950936221965524,0.0156219656183748,ST
3.93333333333333,-1.15920102596283,0.174657747149467,9.97582817077637,0.670735955238342,-0.716467976570129,2.25611186027527,-1104.30004882812,7.50000047683716,-868.500061035156,3.00725129442655,-0.114294280103731,-0.0190395544762446,ST
3.96666666666667,-1.13946235179901,0.110058307647705,10.3945283889771,0.533540010452271,-0.556405961513519,2.54574799537659,-1111.5,5.70000028610229,-858.900024414062,2.98609159277137,-0.108166505957925,-0.0120143735350573,ST
4.0,-0.681284844875336,0.0107665732502937,9.68632698059082,-0.144817993044853,-0.952749967575073,1.81403601169586,-1109.10009765625,12.3000001907349,-858.900024414062,2.97040849738724,-0.0686141098302103,-0.0010946261319893,ST
4.03333333333333,-0.506627082824707,-0.350511789321899,9.77485275268555,-1.00610399246216,-0.685979962348938,0.655492007732391,-1111.5,3.30000019073486,-873.300048828125,2.96602498576816,-0.0506242996039829,0.03747850470967,ST
4.06666666666667,-0.554478526115417,-0.544310092926025,9.4847526550293,-1.08994603157043,-0.724089980125427,-0.0838419944047928,-1111.5,4.5,-878.100036621094,2.96704747206286,-0.0570119711350105,0.0591779983071798,ST
4.1,-0.74648243188858,-0.631639003753662,9.69230842590332,-0.609759986400604,-0.472563982009888,-0.472563982009888,-1118.70007324219,2.10000014305115,-863.700012207031,2.97093304145517,-0.0757804990330814,0.0661822204370274,ST
4.13333333333333,-1.10417187213898,-0.837400138378143,9.32684326171875,0.289635986089706,0.480185985565186,-0.442075997591019,-1113.90002441406,6.90000009536743,-866.100036621094,2.97755413078512,-0.118032432872556,0.0890809186143531,ST
4.16666666666667,-1.20166921615601,-0.677097856998444,9.43929386138916,0.67835795879364,1.05183601379395,-0.602137982845306,-1113.90002441406,7.50000047683716,-873.300048828125,2.98243209368995,-0.128047339935193,0.0705999052171391,ST
4.2,-1.57132160663605,-0.499449372291565,9.66120529174805,1.05183601379395,0.99848198890686,-0.3125019967556,-1113.90002441406,4.5,-863.700012207031,2.9839769437692,-0.162647228928642,0.0499694418374455,ST
4.23333333333333,-1.85783207416534,-0.157311603426933,9.45903301239014,1.16616594791412,0.609759986400604,-0.259148001670837,-1109.10009765625,1.5,-866.100036621094,2.98191574016936,-0.194891487228402,0.0147736980975062,ST
4.26666666666667,-2.39496445655823,0.104076877236366,9.92678070068359,1.21189796924591,0.792688012123108,0.449698001146317,-1099.5,5.70000028610229,-863.700012207031,2.97455659323072,-0.237994256340599,-0.0127244098702524,ST
4.3,-1.79502701759338,0.2105463296175,10.3490695953369,0.952749967575073,-0.213415995240211,1.10518991947174,-1109.10009765625,2.70000004768372,-861.300048828125,2.96477299219148,-0.171454065306702,-0.0223155018382029,ST
4.33333333333333,-1.68437063694,0.527562081813812,9.49791240692139,0.731711983680725,-1.60061991214752,1.29574000835419,-1104.30004882812,3.30000019073486,-866.100036621094,2.94958127423923,-0.172332998954218,-0.0570454584600465,ST
4.36666666666667,-0.902597725391388,0.463560789823532,9.87593841552734,0.411587983369827,-1.76830399036407,1.43293595314026,-1106.70007324219,4.5,-863.700012207031,2.93960717646925,-0.0880460967915532,-0.0478556496304361,ST
4.4,-0.385204076766968,0.675303399562836,9.32086181640625,0.152439996600151,-2.33233189582825,0.78506600856781,-1106.70007324219,5.10000038146973,-870.900024414062,2.93272372547233,-0.0371624434533142,-0.0725704190243589,ST
4.43333333333333,0.159704178571701,0.763230443000793,9.353759765625,0.0685980021953583,-1.88263392448425,0.0304879993200302,-1111.5,-0.300000011920929,-870.900024414062,2.93367510594297,0.0201533973955951,-0.0815175947490771,ST
4.46666666666667,0.0825437307357788,0.828428030014038,9.17252254486084,0.137196004390717,-0.891773998737335,-0.891773998737335,-1113.90002441406,5.10000038146973,-856.500061035156,2.94214952583141,0.0103963435137264,-0.0903074734771297,ST
4.5,-0.223705470561981,0.804502308368683,9.6582145690918,0.457319974899292,0.182927995920181,-1.6615959405899,-1109.10009765625,5.10000038146973,-854.100036621094,2.9577210041361,-0.0235971940370502,-0.0838448194965726,ST
4.53333333333333,-0.28411790728569,0.580796837806702,9.65701866149902,0.46494197845459,0.754577994346619,-2.11129403114319,-1106.70007324219,-2.10000014305115,-870.900024414062,2.97731915513161,-0.0308873605879719,-0.0608066554691257,ST
4.56666666666667,-0.662742435932159,0.555076658725739,9.32564735412598,0.46494197845459,1.06708002090454,-2.9268479347229,-1104.30004882812,0.900000035762787,-868.500061035156,3.00452523051059,-0.0729350852063446,-0.0599013131635517,ST
4.6,-0.878073871135712,0.23925718665123,9.34418964385986,0.182927995920181,1.27287399768829,-2.79727387428284,-1106.70007324219,7.50000047683716,-873.300048828125,3.03271836664198,-0.0959754701016821,-0.0255093221288971,ST
4.63333333333333,-1.22080981731415,0.398961365222931,10.2216653823853,0.144817993044853,0.205793991684914,-2.52288198471069,-1109.10009765625,0.300000011920929,-868.500061035156,3.05301967081286,-0.11925170586927,-0.0387072896482736,ST
4.66666666666667,-0.950449168682098,0.203368604183197,9.60976505279541,0.327746003866196,-0.365855991840363,-1.61586391925812,-1104.30004882812,3.90000009536743,-873.300048828125,3.07043157294678,-0.0980108750546967,-0.0214737268483616,ST
4.7,-0.490477234125137,-0.20097604393959,8.99726676940918,-0.647870004177094,-0.907018005847931,-1.83690190315247,-1104.30004882812,2.70000004768372,-870.900024414062,3.09013496811354,-0.0528607723594668,0.0235634948643606,ST
4.73333333333333,-0.883457183837891,-0.472532957792282,9.72700119018555,-1.29574000835419,-0.632625997066498,-1.75305998325348,-1101.90002441406,-0.900000035762787,-863.700012207031,3.1064175273303,-0.0891417569868303,0.051015641711713,ST
4.76666666666667,-0.638816714286804,-0.674107134342194,9.62770938873291,-1.00610399246216,-0.304879993200302,-1.12043392658234,-1118.70007324219,-0.900000035762787,-863.700012207031,3.11740371933309,-0.0654600880747283,0.071752811217233,ST
4.8,-0.637620389461517,-0.724351167678833,10.4758758544922,-0.670735955238342,-0.426831990480423,-1.05183601379395,-1113.90002441406,-0.300000011920929,-863.700012207031,3.12626064627457,-0.0597829416419037,0.0703143482934269,ST
4.83333333333333,-0.860129594802856,-0.212938904762268,9.97343635559082,0.92988395690918,-0.617381989955902,-0.533540010452271,-1121.10009765625,3.90000009536743,-863.700012207031,3.12800227171733,-0.0848742794705111,0.0198804822396837,ST
4.86666666666667,-0.240453481674194,-0.380418926477432,10.006932258606,1.21951997280121,-0.167683988809586,0.0152439996600151,-1109.10009765625,-0.300000011920929,-868.500061035156,3.12907019670466,-0.0238659150553712,0.0358286926055898,ST
4.9,0.166283741593361,-0.30624920129776,9.09895133972168,1.19665396213531,-0.830797970294952,-0.434453994035721,-1116.30004882812,8.70000076293945,-868.500061035156,3.13246669555061,0.019628643685304,0.0315534912636803,ST
4.93333333333333,-0.0334960073232651,-0.363670915365219,8.89737701416016,0.0457319989800453,-0.632625997066498,-0.99848198890686,-1111.5,-2.10000014305115,-875.700012207031,3.14079451736386,-0.0025328879342657,0.0407523935906121,ST
4.96666666666667,-0.215929612517357,-0.632835268974304,9.69230842590332,-0.724089980125427,-0.0609759986400604,-1.13567793369293,-1113.90002441406,-2.10000014305115,-858.900024414062,-3.13184653262476,-0.0219597901032276,0.066466360230432,ST
5.0,-0.52038437128067,-0.751267552375793,10.4214448928833,-1.16616594791412,-0.0228659994900227,-1.08232402801514,-1101.90002441406,-0.300000011920929,-868.500061035156,-3.12271510017927,-0.0495163553024983,0.0740731393675488,ST
5.03333333333333,-0.79074501991272,-0.62147057056427,10.3861541748047,-0.777444005012512,-0.457319974899292,-0.495429992675781,-1111.5,2.70000004768372,-861.300048828125,-3.11997379847821,-0.0749404335351076,0.0612148301006175,ST
5.06666666666667,-1.04017066955566,-0.805698573589325,10.6403656005859,-0.487807989120483,0.350611984729767,0.327746003866196,-1113.90002441406,0.900000035762787,-856.500061035156,-3.12183240102866,-0.0977889671368336,0.0763531066537487,ST
5.1,-0.504234552383423,-0.812278151512146,10.1756086349487,-0.457319974899292,0.106707997620106,0.121951997280121,-1109.10009765625,-3.30000019073486,-854.100036621094,-3.12281187707873,-0.0496341280230394,0.0804389974248082,ST
5.13333333333333,-0.192003890872002,-0.75246387720108,9.43690204620361,-0.792688012123108,-0.800309956073761,-0.411587983369827,-1113.90002441406,1.5,-861.300048828125,-3.1198940902939,-0.018889127160431,0.0809621355156279,ST
5.16666666666667,-0.420494496822357,-0.594554126262665,8.33213138580322,-1.21951997280121,-0.83841997385025,-0.518296003341675,-1116.30004882812,1.5,-863.700012207031,-3.11667969579315,-0.0486969199262016,0.0734217405675251,ST
5.2,-0.765024840831757,-0.682481110095978,8.60907173156738,-1.31098401546478,0.495429992675781,0.388722002506256,-1113.90002441406,6.30000019073486,-856.500061035156,-3.12005010271292,-0.0891712681838135,0.0813239444355356,ST
5.23333333333333,-0.881662726402283,-0.86491471529007,9.68572902679443,-1.12043392658234,1.05945801734924,0.975615978240967,-1099.5,-0.900000035762787,-873.300048828125,-3.12762376556244,-0.0924068610074592,0.0908517699567058,ST
5.26666666666667,-1.22140789031982,-0.922336459159851,9.55712795257568,-0.175305992364883,1.10518991947174,1.2500079870224,-1113.90002441406,6.90000009536743,-858.900024414062,-3.13728513270912,-0.128588362073473,0.0962491824243606,ST
5.3,-1.24114668369293,-1.00846910476685,9.98180961608887,0.114329993724823,1.15854394435883,0.815553963184357,-1106.70007324219,5.10000038146973,-863.700012207031,3.14021799790275,-0.12524532255301,0.100330334850392,ST
5.33333333333333,-1.16817319393158,-0.852353751659393,9.83526515960693,0.487807989120483,-0.160062000155449,-0.190549999475479,-1106.70007324219,3.90000009536743,-861.300048828125,3.14056993468306,-0.117488056341359,0.0856548763929923,ST
5.36666666666667,-1.14903259277344,-0.886447906494141,10.1014385223389,0.243903994560242,-0.579271972179413,-0.342989981174469,-1097.10009765625,2.10000014305115,-861.300048828125,-3.13970413943638,-0.111787437793427,0.0871580646802123,ST
5.4,-1.17893981933594,-0.818259596824646,9.70785999298096,0.152439996600151,-0.777444005012512,-0.144817993044853,-1104.30004882812,7.50000047683716,-868.500061035156,-3.13925575393199,-0.11903592036852,0.0838481861409817,ST
5.43333333333333,-1.03179657459259,-0.849363029003143,9.66898155212402,0.152439996600151,-0.282013982534409,0.533540010452271,-1116.30004882812,10.5,-863.700012207031,3.13939654147282,-0.105516862596668,0.0872448787546208,ST
5.46666666666667,-0.672910869121552,-1.07187223434448,9.38905048370361,0.129574000835419,-0.0228659994900227,0.907018005847931,-1113.90002441406,2.70000004768372,-878.100036621094,3.13376141919293,-0.0712934483608042,0.113279251267035,ST
5.5,-0.66932201385498,-0.97557121515274,9.15039157867432,0.129574000835419,-0.388722002506256,0.868907988071442,-1104.30004882812,3.90000009536743,-870.900024414062,3.12504127192711,-0.0720912486563216,0.10588533106906,ST
5.53333333333333,-0.982748925685883,-0.628648281097412,9.12168025970459,0.426831990480423,-0.510673999786377,1.43293595314026,-1111.5,3.90000009536743,-866.100036621094,3.10829400969452,-0.106310548840369,0.0678395766925786,ST
5.56666666666667,-0.843979716300964,-0.60352623462677,9.56430625915527,0.800309956073761,-0.327746003866196,2.18751406669617,-1104.30004882812,2.10000014305115,-863.700012207031,3.0882189080841,-0.0875334356215102,0.0612934058542782,ST
5.6,-0.510814070701599,-0.462962657213211,10.3209571838379,1.19665396213531,-1.07470202445984,2.36281991004944,-1116.30004882812,5.10000038146973,-870.900024414062,3.06674079901403,-0.0478037572030352,0.0425802785404379,ST
5.63333333333333,-0.0173461455851793,-0.406139075756073,9.30411434173584,1.47104597091675,-1.6692179441452,2.05031800270081,-1109.10009765625,0.900000035762787,-858.900024414062,3.046860372574,0.0008410897667757,0.0410596990792277,ST
5.66666666666667,-0.0185424312949181,-0.10826388001442,10.0733261108398,1.31860601902008,-1.87501192092896,1.2576299905777,-1113.90002441406,5.10000038146973,-863.700012207031,3.03544099216482,0.0014109961732216,0.008512920890598,ST
5.7,0.223107323050499,-0.0544310100376606,9.52363204956055,1.30336201190948,-0.815553963184357,0.967993974685669,-1113.90002441406,5.10000038146973,-856.500061035156,3.02636226386384,0.0248029107839535,0.0034900187570426,ST
5.73333333333333,0.104675017297268,-0.14355431497097,9.40699481964111,0.884151995182037,-1.05945801734924,0.137196004390717,-1109.10009765625,4.5,-858.900024414062,3.02463199925916,0.0129859463853082,0.0137069009625649,ST
5.76666666666667,0.177050322294235,-0.172863319516182,9.73537540435791,0.579271972179413,-0.769822001457214,-0.365855991840363,-1118.70007324219,0.900000035762787,-861.300048828125,3.027633826332,0.0195226229663821,0.0167254271824522,ST
5.8,0.296678900718689,0.108862020075321,9.51884746551514,0.792688012123108,-1.2423859834671,-0.594515979290009,-1113.90002441406,2.70000004768372,-856.500061035156,3.03387097746591,0.0332935503540296,-0.0128180888440957,ST
5.83333333333333,0.2105463296175,0.0263182912021875,9.7539176940918,1.10518991947174,-0.304879993200302,-0.221037998795509,-1125.90002441406,5.10000038146973,-856.500061035156,3.03533771615848,0.0221402252067209,-0.0046559101226576,ST
5.86666666666667,-0.227892473340034,0.0825437307357788,10.0398302078247,1.59299790859222,0.846041977405548,-0.160062000155449,-1118.70007324219,3.30000019073486,-858.900024414062,3.03684749371736,-0.0240598146984485,-0.0109799534253396,ST
5.9,0.0227294322103262,0.226696193218231,9.4847526550293,1.57013201713562,0.815553963184357,-0.25152599811554,-1125.90002441406,3.30000019073486,-854.100036621094,3.03872897385955,0.0008996553806518,-0.0265986477204216,ST
5.93333333333333,-0.534739792346954,0.396568775177002,10.0966529846191,1.47104597091675,1.17378795146942,-0.114329993724823,-1106.70007324219,-1.5,-849.300048828125,3.03961977754163,-0.0548727065975558,-0.0418032140668608,ST
5.96666666666667,-1.16697692871094,0.431859225034714,10.8216028213501,1.14329993724823,0.99848198890686,-0.0685980021953583,-1118.70007324219,7.50000047683716,-866.100036621094,3.0409307897083,-0.109017048045698,-0.041876001279929,ST
6.0,-1.17475283145905,0.616685390472412,10.7109460830688,0.647870004177094,0.358233988285065,-0.320124000310898,-1109.10009765625,-4.5,-856.500061035156,3.042298686338,-0.109717030142296,-0.0585438935693748,ST
6.03333333333333,-0.316417634487152,0.614890992641449,9.67197227478027,0.0990860015153885,-0.92988395690918,-0.922261953353882,-1118.70007324219,-0.900000035762787,-870.900024414062,3.05042834136051,-0.0313134939289117,-0.0635940436307376,ST
6.06666666666667,-0.206957474350929,0.456981241703033,8.93864822387695,-0.335367977619171,-0.975615978240967,-1.28811800479889,-1118.70007324219,0.300000011920929,-863.700012207031,3.06226359169561,-0.0215561704152856,-0.0504760976254237,ST
6.1,-0.084936298429966,0.241649761795998,9.3118896484375,-0.609759986400604,-0.365855991840363,-1.76068198680878,-1128.30004882812,3.90000009536743,-861.300048828125,3.0778877882073,-0.0085894138696941,-0.0249164861447981,ST
6.13333333333333,-0.270360618829727,0.178844749927521,8.96616268157959,-0.663114011287689,0.0076219998300075,-1.99696397781372,-1121.10009765625,4.5,-861.300048828125,3.09510211391976,-0.0301638878852522,-0.0186980082827123,ST
6.16666666666667,-0.75246387720108,0.0436644367873669,9.49970626831055,-0.541162014007568,1.18140995502472,-1.50153398513794,-1113.90002441406,-0.900000035762787,-868.500061035156,3.10963024149358,-0.0810515943470619,-0.0034599056250983,ST
6.2,-0.504234552383423,-0.150133892893791,8.96197605133057,-1.08232402801514,0.0152439996600151,-1.41769194602966,-1111.5,-2.70000004768372,-863.700012207031,3.12387108943207,-0.0562082355668176,0.0187520460220608,ST
6.23333333333333,-0.633433401584625,-0.305651068687439,9.03195858001709,-1.40244793891907,0.228659987449646,-1.01372599601746,-1111.5,1.5,-873.300048828125,3.13344821745496,-0.0702908717379252,0.0363734854887668,ST
6.26666666666667,-0.727940022945404,-0.44322395324707,10.1935529708862,-0.899396002292633,-0.708845973014832,-0.655492007732391,-1118.70007324219,-2.70000004768372,-868.500061035156,3.13904022298315,-0.069937145875399,0.0450823507058253,ST
6.3,-0.44322395324707,-0.531749129295349,10.2868623733521,-0.320124000310898,-1.44817996025085,-0.266770005226135,-1101.90002441406,-3.30000019073486,-856.500061035156,3.14096977975221,-0.0405266418217356,0.0522010017165991,ST
6.33333333333333,-0.55866551399231,-0.538328647613525,9.87115383148193,-0.0609759986400604,-1.42531394958496,-0.137196004390717,-1113.90002441406,-5.70000028610229,-866.100036621094,-3.14158360097059,-0.0539337688741546,0.0545898307125648,ST
6.36666666666667,-0.318810194730759,-0.635825991630554,10.3317232131958,-0.754577994346619,-1.06708002090454,-0.0990860015153885,-1111.5,2.10000014305115,-861.300048828125,-3.14116697651084,-0.0289508171155231,0.0627721740741058,ST
6.4,0.0328978635370731,-0.61847984790802,10.0206890106201,-0.807931959629059,-1.41006994247437,0.365855991840363,-1109.10009765625,0.900000035762787,-863.700012207031,3.13785585978147,0.0056385429005477,0.0630559249215892,ST
6.43333333333333,0.226696193218231,-0.487486511468887,10.1732158660889,-0.221037998795509,-1.63110792636871,0.6250039935112,-1123.5,-5.10000038146973,-858.900024414062,3.13200835782074,0.0249971759610395,0.0483343963103401,ST
6.46666666666667,0.836203873157501,-0.28411790728569,9.27779579162598,0.503051996231079,-1.27287399768829,1.05945801734924,-1118.70007324219,-3.30000019073486,-861.300048828125,3.12265755667246,0.0919049373109614,0.0299399611983119,ST
6.5,0.82065212726593,-0.247033044695854,9.08280086517334,0.548784017562866,-0.228659987449646,0.754577994346619,-1118.70007324219,2.70000004768372,-861.300048828125,3.11558837664646,0.0904410116428752,0.0263593745870299,ST
6.53333333333333,0.282323479652405,-0.431859225034714,8.82799243927002,0.228659987449646,0.99848198890686,0.297257989645004,-1113.90002441406,0.300000011920929,-858.900024414062,3.1118536450734,0.0302600215126367,0.0484602105952745,ST
6.56666666666667,-0.405540943145752,-0.596348524093628,9.40938663482666,-0.182927995920181,1.08232402801514,-0.152439996600151,-1113.90002441406,-0.900000035762787,-863.700012207031,3.11396302183084,-0.0447620717361185,0.0636108788873307,ST
6.6,-0.873288750648499,-0.916355013847351,10.2246561050415,-0.403965979814529,0.320124000310898,0.0533539988100529,-1116.30004882812,-3.90000009536743,-856.500061035156,3.11517169626847,-0.0853497567377223,0.0900325766536558,ST
6.63333333333333,-0.655564725399017,-0.938486337661743,10.2922458648682,-0.259148001670837,-0.129574000835419,0.472563982009888,-1121.10009765625,0.900000035762787,-868.500061035156,3.11095847362688,-0.0632515062492872,0.091327849609506,ST
6.66666666666667,-0.0974973067641258,-0.986935913562775,9.89029407501221,0.0990860015153885,-1.40244793891907,0.87652999162674,-1111.5,0.300000011920929,-846.900024414062,3.10253883167847,-0.0076617324055122,0.0992516043366106,ST
6.7,0.613694667816162,-0.831418752670288,9.50030517578125,0.221037998795509,-2.14178204536438,0.884151995182037,-1106.70007324219,-10.5,-866.100036621094,3.09355529148717,0.0676662691552318,0.0870611142039351,ST
6.73333333333333,0.60352623462677,-0.787156164646149,8.96855545043945,-0.0838419944047928,-1.47104597091675,0.823175966739655,-1123.5,8.70000076293945,-849.300048828125,3.08537685775986,0.0693631410639914,0.0878035773822321,ST
6.76666666666667,0.0813474431633949,-0.765024840831757,9.4195556640625,-0.411587983369827,0.396344006061554,1.08232402801514,-1113.90002441406,0.900000035762787,-858.900024414062,3.07664826045398,0.0079151810932726,0.081788261218222,ST
6.8,-0.126208171248436,-0.616087257862091,9.67974758148193,-0.335367977619171,0.952749967575073,1.2500079870224,-1123.5,3.90000009536743,-861.300048828125,3.06634094351192,-0.0147552931867062,0.0641602885868617,ST
6.83333333333333,-0.386998504400253,-0.851755619049072,10.2390117645264,0.0609759986400604,0.861285984516144,1.62348592281342,-1118.70007324219,-0.900000035762787,-863.700012207031,3.05347369148994,-0.0393194267243267,0.0827387281491056,ST
6.86666666666667,-0.0837400183081627,-0.90977543592453,10.1498880386353,0.0228659994900227,0.152439996600151,1.02134799957275,-1113.90002441406,3.30000019073486,-856.500061035156,3.04496160172324,-0.0087165463936957,0.0893228835628425,ST
6.9,0.0023925718851387,-0.931308627128601,9.41536808013916,-0.198172003030777,-0.663114011287689,0.304879993200302,-1125.90002441406,-0.300000011920929,-858.900024414062,3.041433381591,0.0013422211275832,0.0989302526058572,ST
6.93333333333333,-0.187218755483627,-0.971982300281525,9.45424747467041,-0.609759986400604,-0.167683988809586,0.0,-1116.30004882812,0.900000035762787,-861.300048828125,3.04123079234392,-0.0193727272031975,0.103505632737844,ST
6.96666666666667,-0.460570096969604,-0.866111040115356,9.09416580200195,-0.579271972179413,0.297257989645004,0.358233988285065,-1121.10009765625,2.10000014305115,-866.100036621094,3.03772740496107,-0.0509008620059041,0.0959456077765089,ST
7.0,-0.504832684993744,-0.900803327560425,9.61933517456055,-0.274392008781433,0.891773998737335,0.685979962348938,-1116.30004882812,3.90000009536743,-858.900024414062,3.03199966489028,-0.0538620764330758,0.0937986120346044,ST
7.03333333333333,-0.753660142421722,-0.941477060317993,10.0021467208862,-0.0533539988100529,1.40244793891907,0.868907988071442,-1116.30004882812,9.90000057220459,-856.500061035156,3.02564709876886,-0.0773989871991013,0.0938451594539656,ST
7.06666666666667,-0.575413525104523,-0.815268874168396,9.93276214599609,0.236281991004944,0.617381989955902,0.754577994346619,-1118.70007324219,0.900000035762787,-868.500061035156,3.01889286168693,-0.058899665864692,0.0814408087160843,ST
7.1,-0.497056812047958,-0.74947315454483,9.94532299041748,0.0762199983000755,-0.632625997066498,0.670735955238342,-1123.5,6.90000009536743,-861.300048828125,3.01183577924344,-0.0487957436953924,0.0750309127159112,ST
7.13333333333333,-0.281725347042084,-0.608909547328949,9.53679180145264,0.152439996600151,-0.792688012123108,0.945127964019775,-1116.30004882812,3.90000009536743,-858.900024414062,3.00206297990745,-0.0282218955982528,0.0634608865459713,ST
7.16666666666667,0.0388792939484119,-0.61847984790802,10.2701148986816,0.106707997620106,-0.899396002292633,1.31860601902008,-1121.10009765625,0.900000035762787,-856.500061035156,2.98946406586646,0.0051554754739775,0.0599793089462085,ST
7.2,0.139965459704399,-0.674705266952515,9.76528167724609,0.457319974899292,-0.937505960464478,1.50153398513794,-1118.70007324219,4.5,-868.500061035156,2.97584266887674,0.0157260321851592,0.0682065461447277,ST
7.23333333333333,0.378026366233826,-0.500645637512207,9.65462589263916,0.655492007732391,-0.594515979290009,1.06708002090454,-1118.70007324219,6.30000019073486,-858.900024414062,2.96665060276237,0.0399639519501558,0.0507838388760014,ST
7.26666666666667,0.200377896428108,-0.257799625396729,10.1498880386353,0.899396002292633,-0.190549999475479,0.594515979290009,-1118.70007324219,4.5,-851.700012207031,2.96176730145414,0.0200714859213615,0.0238873417979764,ST
7.3,0.352306216955185,-0.43425178527832,9.14022254943848,1.13567793369293,0.198172003030777,0.525918006896973,-1128.30004882812,0.900000035762787,-861.300048828125,2.95618822673549,0.0380598749371922,0.0454836699282512,ST
7.33333333333333,0.17525589466095,-0.382811486721039,9.8256950378418,0.716467976570129,0.548784017562866,-0.221037998795509,-1121.10009765625,3.90000009536743,-863.700012207031,2.95848524765968,0.0169116270947466,0.0376950167367086,ST
7.36666666666667,0.32239904999733,-0.333165645599365,9.55712795257568,0.670735955238342,0.129574000835419,-0.533540010452271,-1101.90002441406,1.5,-861.300048828125,2.96332511589535,0.0334800872942868,0.0336507309158504,ST
7.4,0.15312460064888,-0.201574176549911,9.85021877288818,0.663114011287689,-0.282013982534409,-0.259148001670837,-1113.90002441406,5.10000038146973,-856.500061035156,2.9659428439871,0.0160633041344985,0.0193143153410183,ST
7.43333333333333,0.213537037372589,-0.187816888093948,9.50090312957764,0.564027965068817,-0.449698001146317,-0.175305992364883,-1118.70007324219,7.50000047683716,-866.100036621094,2.96728772569924,0.0232400593978373,0.0187759383797278,ST
7.46666666666667,0.0550291538238525,-0.225499898195267,9.17012977600098,0.0457319989800453,-0.259148001670837,0.144817993044853,-1130.70007324219,0.900000035762787,-861.300048828125,2.96589583193719,0.0064863602289555,0.024493605830313,ST
7.5,-0.450401663780212,-0.298473328351974,9.68154239654541,0.0990860015153885,0.846041977405548,0.571649968624115,-1123.5,-3.30000019073486,-856.500061035156,2.96133436376165,-0.0478384073446195,0.030586613282185,ST
7.53333333333333,-0.229088753461838,-0.480308800935745,10.278489112854,0.114329993724823,0.922261953353882,0.46494197845459,-1099.5,-0.300000011920929,-851.700012207031,2.95826488801675,-0.0239645279286261,0.0464390214267021,ST
7.56666666666667,-0.397166937589645,-0.346324771642685,9.90345287322998,0.739333987236023,0.0533539988100529,-0.0838419944047928,-1111.5,0.900000035762787,-856.500061035156,2.95883254367011,-0.0401062585754399,0.0337028696379397,ST
7.6,-0.594554126262665,-0.168078169226646,10.4154634475708,1.02897000312805,0.175305992364883,-0.564027965068817,-1113.90002441406,6.90000009536743,-863.700012207031,2.96375532699764,-0.0572848441578096,0.014420558569008,ST
7.63333333333333,-0.453990519046783,-0.0358885787427425,10.366415977478,0.777444005012512,-0.0228659994900227,-0.609759986400604,-1111.5,3.90000009536743,-849.300048828125,2.9687103607845,-0.0437571023848044,0.0021821034286835,ST
7.66666666666667,-0.479112505912781,0.163293033838272,9.377685546875,0.960371971130371,-0.495429992675781,-0.503051996231079,-1128.30004882812,1.5,-866.100036621094,2.9725253175883,-0.0501746610658257,-0.018990341564093,ST
7.7,-0.0526365824043751,0.0885251611471176,9.55533409118652,0.472563982009888,-0.152439996600151,-0.304879993200302,-1128.30004882812,-5.10000038146973,-861.300048828125,2.97556046862412,-0.0053359867919982,-0.0101033009614801,ST
7.73333333333333,-0.0173461455851793,-0.0699827298521996,8.97992038726807,-0.365855991840363,0.0838419944047928,-0.457319974899292,-1116.30004882812,6.90000009536743,-866.100036621094,2.97981412208084,-0.0020764818668682,0.0084043570259154,ST
7.76666666666667,-0.298473328351974,-0.17525589466095,9.32564735412598,-0.800309956073761,0.525918006896973,-0.342989981174469,-1111.5,-7.50000047683716,-863.700012207031,2.9828777935612,-0.0328189907373344,0.0201783553093575,ST
7.8,-0.52935653924942,-0.0454588644206524,9.497314453125,-0.990859985351562,0.198172003030777,-0.221037998795509,-1121.10009765625,-4.5,-870.900024414062,2.9837574558669,-0.0559655071868708,0.0065710616899725,ST
7.83333333333333,-0.738108456134796,-0.272753208875656,10.5506439208984,-0.579271972179413,0.457319974899292,0.693601965904236,-1109.10009765625,-0.900000035762787,-861.300048828125,2.97824183098143,-0.0706334602027619,0.0267480453611644,ST
7.86666666666667,-0.180041030049324,-0.215929612517357,10.2114963531494,-0.335367977619171,-0.78506600856781,0.419209986925125,-1106.70007324219,0.900000035762787,-868.500061035156,2.97417087362902,-0.0164053596592806,0.0217271537753296,ST
7.9,0.357689499855042,-0.502440094947815,9.79279708862305,-0.617381989955902,-1.46342396736145,-0.205793991684914,-1106.70007324219,2.10000014305115,-866.100036621094,2.97528715748849,0.0389623472994864,0.0522930203298474,ST
7.93333333333333,-0.208751901984215,-0.338548928499222,9.14321327209473,-0.320124000310898,-0.602137982845306,-0.3125019967556,-1123.5,-0.300000011920929,-870.900024414062,2.97809671110056,-0.0216658081619866,0.0375981104868406,ST
7.96666666666667,-0.080151155591011,-0.516795516014099,9.69470119476318,-0.297257989645004,0.579271972179413,0.25152599811554,-1123.5,2.70000004768372,-861.300048828125,2.97622412422566,-0.0093040289164986,0.0537517736282628,ST
8.0,0.0550291538238525,-0.592759668827057,9.73836612701416,-0.160062000155449,-0.381099998950958,0.663114011287689,-1106.70007324219,0.300000011920929,-868.500061035156,2.96978743880455,0.0062143755044833,0.0610710316779323,ST
8.03333333333333,0.563450694084167,-0.717173397541046,9.5032958984375,-0.0914639979600906,-0.914639949798584,0.510673999786377,-1116.30004882812,-3.90000009536743,-863.700012207031,2.96437778590186,0.0604441211187579,0.075507158950694,ST
8.06666666666667,0.37623193860054,-0.593955993652344,9.80655384063721,0.114329993724823,-0.922261953353882,0.175305992364883,-1116.30004882812,-3.30000019073486,-861.300048828125,2.96308070247758,0.039915307458852,0.0603473967532818,ST
8.1,0.305651068687439,-0.74648243188858,9.20900917053223,-0.0914639979600906,-0.396344006061554,0.213415995240211,-1125.90002441406,2.10000014305115,-870.900024414062,2.96024743396975,0.0337446003018385,0.0810063102055319,ST
8.13333333333333,0.132787734270096,-0.647190690040588,9.60976505279541,-0.403965979814529,0.144817993044853,0.335367977619171,-1118.70007324219,2.10000014305115,-863.700012207031,2.95756454132875,0.0135189728714854,0.0679746189110404,ST
8.16666666666667,-0.0735715851187706,-0.690855145454407,9.86337757110596,-0.152439996600151,0.106707997620106,1.12805593013763,-1121.10009765625,2.10000014305115,-861.300048828125,2.94730952168938,-0.0077312437019478,0.0701762194278563,ST
8.2,0.0454588644206524,-0.928916037082672,9.56191349029541,-0.190549999475479,-0.0457319989800453,1.27287399768829,-1113.90002441406,3.90000009536743,-866.100036621094,2.9363680360364,0.0045664702341146,0.0971193917434786,ST
8.23333333333333,0.0490477234125137,-0.932504892349243,9.16474628448486,-0.457319974899292,0.129574000835419,0.78506600856781,-1118.70007324219,5.70000028610229,-870.900024414062,2.92972830795372,0.0049586336981774,0.102192439118248,ST
8.26666666666667,0.116637878119946,-1.11493849754333,9.88969612121582,-0.762199997901917,0.205793991684914,0.716467976570129,-1111.5,-1.5,-856.500061035156,2.92321367315962,0.0112128811262968,0.113592939282647,ST
8.3,-0.494066089391708,-0.917551338672638,10.2557592391968,0.37347799539566,0.274392008781433,0.78506600856781,-1123.5,4.5,-856.500061035156,2.9163383912649,-0.0483977812891571,0.0885766515052008,ST
8.33333333333333,-0.465355217456818,-0.776389598846436,10.5321016311646,1.2347639799118,0.480185985565186,0.663114011287689,-1121.10009765625,4.5,-858.900024414062,2.91062767262627,-0.0449638037360223,0.0714214175083019,ST
8.36666666666667,-0.068188302218914,-0.584385693073273,10.4698944091797,1.37195992469788,-0.381099998950958,0.0,-1116.30004882812,4.5,-861.300048828125,2.91014423700036,-0.0059347229457043,0.0534076512146789,ST
8.4,0.0855344459414482,-0.473131090402603,8.96377086639404,0.983237981796265,0.0533539988100529,-0.266770005226135,-1111.5,-0.900000035762787,-863.700012207031,2.91241972959412,0.0094215724999496,0.0510191635405886,ST
8.43333333333333,-0.649583280086517,-0.185424327850342,9.50748252868652,0.731711983680725,0.830797970294952,-0.182927995920181,-1106.70007324219,3.30000019073486,-861.300048828125,2.91353276614107,-0.0694534678266008,0.0183281606598427,ST
8.46666666666667,-0.653770267963409,-0.305651068687439,9.05169773101807,0.602137982845306,1.73019397258759,0.25152599811554,-1123.5,2.10000014305115,-873.300048828125,2.91322854574953,-0.0750787422304977,0.0326428556180398,ST
8.5,-0.506028950214386,-0.26437920331955,10.3197603225708,0.0533539988100529,0.960371971130371,0.0228659994900227,-1109.10009765625,7.50000047683716,-861.300048828125,2.91283659362333,-0.050686542203398,0.0255289742568286,ST
8.53333333333333,-0.61847984790802,-0.244640469551086,9.03435134887695,0.381099998950958,-0.175305992364883,0.152439996600151,-1106.70007324219,-1.5,-863.700012207031,2.91174631690946,-0.067985566143317,0.0263864290006699,ST
8.56666666666667,-0.674107134342194,-0.410326063632965,9.52482891082764,-0.190549999475479,0.640248000621796,-0.190549999475479,-1106.70007324219,5.70000028610229,-863.700012207031,2.91467614065999,-0.0716835839730631,0.043370950038405,ST
8.6,-0.663938701152802,-0.369054228067398,9.80834865570068,-0.144817993044853,0.160062000155449,-0.0990860015153885,-1113.90002441406,1.5,-861.300048828125,2.91516477055426,-0.067819078069905,0.0378825970357806,ST
8.63333333333333,-0.359483927488327,-0.490477234125137,10.1474952697754,-0.388722002506256,-0.487807989120483,-0.137196004390717,-1111.5,-2.70000004768372,-861.300048828125,2.91657934202469,-0.0345897771057394,0.0489553465904394,ST
8.66666666666667,-0.156713455915451,-0.586778283119202,9.73058986663818,-0.503051996231079,-1.15092194080353,0.0838419944047928,-1113.90002441406,2.10000014305115,-866.100036621094,2.91548960299414,-0.0141290284181325,0.0610737540444043,ST
8.7,0.430662930011749,-0.427672237157822,8.70597076416016,-0.403965979814529,-1.64635193347931,0.137196004390717,-1109.10009765625,-1.5,-866.100036621094,2.9138643209877,0.052095318291038,0.0498313768298319,DLL
8.73333333333333,-0.230285048484802,-0.698032855987549,9.5206413269043,-0.274392008781433,0.0457319989800453,0.617381989955902,-1106.70007324219,-0.900000035762787,-866.100036621094,2.90789180877674,-0.0241576894630577,0.0736037344573359,DLL
8.76666666666667,0.0221312902867794,-0.805698573589325,10.3269386291504,-0.160062000155449,0.419209986925125,0.37347799539566,-1106.70007324219,6.90000009536743,-880.500061035156,2.9050007101176,0.0012935079227094,0.0781301237422607,DLL
8.8,-0.403148353099823,-0.576011657714844,10.4196510314941,0.830797970294952,-0.586893975734711,0.190549999475479,-1111.5,0.300000011920929,-861.300048828125,2.90283404304236,-0.0375124653680175,0.0538207547598186,DLL
8.83333333333333,-0.10527316480875,-0.477916240692139,9.55952072143555,1.14329993724823,-0.198172003030777,-0.0076219998300075,-1118.70007324219,0.900000035762787,-854.100036621094,2.90283868771139,-0.0106940766516355,0.0479658471746939,DLL
8.86666666666667,-0.56763768196106,-0.0299071483314037,9.74973011016846,1.08232402801514,-0.67835795879364,0.243903994560242,-1113.90002441406,1.5,-863.700012207031,2.89953934771418,-0.0568580504772393,0.0012697865916498,DLL
8.9,-0.600535571575165,-0.0544310100376606,9.71623420715332,0.457319974899292,-1.28811800479889,2.69056582450867,-1113.90002441406,-0.900000035762787,-866.100036621094,2.87671138912211,-0.0594941815656931,0.0045155746505846,DLL
8.93333333333333,-1.77169942855835,0.138171032071114,9.31607723236084,-0.289635986089706,-0.708845973014832,6.83693361282349,-1106.70007324219,-2.10000014305115,-861.300048828125,2.81190806007139,-0.186281120545552,-0.0165193422269274,DLL
8.96666666666667,-1.00368392467499,-0.449803501367569,8.85730075836182,-1.20427596569061,-1.6768399477005,11.8293437957764,-1116.30004882812,-2.70000004768372,-861.300048828125,2.71547141180909,-0.110933528354574,0.0503779724470075,DLL
9.0,0.92771977186203,-1.32907366752625,8.54447269439697,-2.20275783538818,-1.61586391925812,13.308012008667,-1111.5,7.50000047683716,-854.100036621094,2.60119406629171,0.105461871143178,0.160275912509945,DLL
9.03333333333333,1.60661196708679,-1.34043836593628,9.73178577423096,-1.63110792636871,-0.495429992675781,9.42079162597656,-1128.30004882812,7.50000047683716,-873.300048828125,2.5182766322266,0.160562559074486,0.142391384558567,DLL
9.06666666666667,1.23277270793915,-1.08443319797516,10.9699420928955,0.327746003866196,0.396344006061554,4.60368776321411,-1128.30004882812,9.90000057220459,-861.300048828125,2.48489569184169,0.110006270476566,0.0989502351782167,DLL
9.1,0.545506417751312,-0.57062840461731,10.8329677581787,2.80489587783813,0.129574000835419,-0.990859985351562,-1128.30004882812,14.1000003814697,-866.100036621094,2.49675632755523,0.0501763002834777,0.0477063008261922,DLL
9.13333333333333,0.0622068680822849,-0.188415035605431,10.011118888855,2.31708788871765,-0.83841997385025,-3.7957558631897,-1113.90002441406,9.30000019073486,-858.900024414062,2.53098640857947,0.0078600219068216,0.0147836144318999,DLL
9.16666666666667,-1.0634982585907,0.389989227056503,9.401611328125,1.60824191570282,-0.861285984516144,-3.66618180274963,-1118.70007324219,6.30000019073486,-863.700012207031,2.56096571815974,-0.111019348014875,-0.0434114798424566,DLL
9.2,-2.8142626285553,0.683677434921265,8.86806774139404,1.18140995502472,0.411587983369827,1.34147191047668,-1121.10009765625,3.90000009536743,-854.100036621094,2.54396555723167,-0.306729327084754,-0.0797109120208173,DLL
9.23333333333333,-4.56801795959473,0.444420218467712,8.41288089752197,-1.33385002613068,0.137196004390717,14.5122880935669,-1125.90002441406,8.10000038146973,-863.700012207031,2.42192818068846,-0.495243590165593,-0.0640862856816475,DLL
9.26666666666667,-3.34003043174744,-1.68736135959625,8.72750377655029,-4.80948209762573,-1.19665396213531,28.6053657531738,-1130.70007324219,6.90000009536743,-851.700012207031,2.27289389985264,-0.366379773383858,0.179890999803239,DLL
9.3,-2.29806518554688,-2.94346165657043,8.51157474517822,-5.89942789077759,-2.59148001670837,34.1694259643555,-1133.10009765625,20.7000007629395,-858.900024414062,2.02615180524252,-0.264751428254013,0.327107867653432,DLL
9.33333333333333,-0.340343356132507,-3.66781258583069,9.09177303314209,-6.2881498336792,-4.16161203384399,35.73193359375,-1130.70007324219,29.7000007629395,-851.700012207031,1.71249298122722,-0.0519523383527346,0.391000199039072,DLL
9.36666666666667,1.29797029495239,-3.92920112609863,9.51585674285889,-5.26680183410645,-5.32015609741211,30.6556835174561,-1118.70007324219,27.3000011444092,-851.700012207031,1.43052092255442,0.112646186532131,0.406636168571343,DLL
9.4,2.45717144012451,-3.37591886520386,10.3215551376343,-3.68142580986023,-4.85521411895752,23.8416156768799,-1109.10009765625,39.3000030517578,-854.100036621094,1.24443160999246,0.216722936511635,0.331917676207191,DLL
9.43333333333333,2.40453481674194,-2.63481974601746,10.9274740219116,0.0685980021953583,-3.7957558631897,15.1449136734009,-1101.90002441406,41.1000022888184,-839.700012207031,1.13116829979085,0.210812321404455,0.242521326568394,DLL
9.46666666666667,2.94465780258179,-2.0671820640564,10.09485912323,1.41006994247437,-3.02593398094177,7.9268798828125,-1099.5,34.5,-851.700012207031,1.06522651178276,0.280580636652796,0.203795395250002,DLL
9.5,1.93499255180359,-1.15022897720337,10.14271068573,2.40855193138123,-2.38568592071533,2.67532205581665,-1111.5,39.3000030517578,-846.900024414062,1.05786420252282,0.191180434763402,0.10994061008203,DLL
9.53333333333333,1.77169942855835,-1.22858572006226,8.74664497375488,2.42379593849182,-1.46342396736145,0.236281991004944,-1099.5,37.5,-830.100036621094,1.04446395168798,0.20042697770697,0.135443648644958,DLL
9.56666666666667,0.864316582679749,-0.997702479362488,9.19465351104736,0.434453994035721,-1.28049600124359,-1.07470202445984,-1111.5,41.7000007629395,-837.300048828125,1.05658990545907,0.0957699377718462,0.107214155235077,DLL
9.6,0.698032855987549,-1.03897428512573,9.28676795959473,-1.03659200668335,-0.762199997901917,-0.960371971130371,-1104.30004882812,36.9000015258789,-842.100036621094,1.06428635949035,0.0761191982081483,0.113092043744691,DLL
9.63333333333333,-0.245238617062569,-0.769810020923615,10.5721769332886,0.0685980021953583,0.121951997280121,0.320124000310898,-1111.5,38.7000007629395,-832.500061035156,1.06268617286399,-0.0231394357570893,0.0726547590735362,DLL
9.66666666666667,0.732725143432617,-1.22499680519104,9.86098480224609,0.0457319989800453,0.167683988809586,0.419209986925125,-1106.70007324219,41.1000022888184,-844.500061035156,1.05775611474717,0.0730743483091638,0.123483543979229,DLL
9.7,0.640611112117767,-1.06708705425262,9.11450290679932,-0.381099998950958,0.228659987449646,-0.67835795879364,-1106.70007324219,40.5,-842.100036621094,1.06466612360765,0.0694442294693163,0.117137732124386,DLL
9.73333333333333,-0.684873700141907,-0.757847130298615,10.4633150100708,0.495429992675781,0.990859985351562,-0.990859985351562,-1109.10009765625,33.3000030517578,-851.700012207031,1.07411601780269,-0.0664550845905743,0.0716706664018895,DLL
9.76666666666667,0.180041030049324,-1.51689052581787,9.71683216094971,-0.518296003341675,0.0457319989800453,-1.76068198680878,-1113.90002441406,36.9000015258789,-846.900024414062,1.09170927553893,0.0185310523543339,0.155545052197662,DLL
9.8,0.751865744590759,-1.87158930301666,8.91412448883057,-2.01982998847961,-0.87652999162674,-2.30946588516235,-1113.90002441406,33.3000030517578,-849.300048828125,1.10814958381623,0.0845296900819358,0.210037377061108,DLL
9.83333333333333,-0.442625790834427,-1.19927668571472,9.96147346496582,-1.08994603157043,-0.945127964019775,-2.33995389938354,-1113.90002441406,36.9000015258789,-837.300048828125,1.12876489060219,-0.0416355672372169,0.122089571757134,DLL
9.86666666666667,-0.0047851437702775,-1.51330173015594,10.134934425354,0.716467976570129,0.899396002292633,-0.78506600856781,-1101.90002441406,37.5,-834.900024414062,1.13765407675363,-0.0018818913673533,0.146934542588885,DLL
9.9,0.608311414718628,-1.68676316738129,8.89737701416016,-0.0838419944047928,-0.342989981174469,-1.03659200668335,-1118.70007324219,32.1000022888184,-844.500061035156,1.14512961652227,0.0678874463625701,0.187327017776844,DLL
9.93333333333333,-0.0562254376709461,-1.03598368167877,9.30949687957764,0.472563982009888,0.0152439996600151,-0.617381989955902,-1101.90002441406,41.1000022888184,-834.900024414062,1.15328547363339,-0.0058184869937427,0.11010307409434,DLL
9.96666666666667,-1.17056584358215,-0.797922730445862,10.9394369125366,1.64635193347931,2.27135586738586,0.403965979814529,-1113.90002441406,38.1000022888184,-844.500061035156,1.15024601668825,-0.11015934829909,0.0699552544140628,DLL
10.0,0.979160070419312,-1.26866126060486,8.43381595611572,-0.198172003030777,0.152439996600151,-0.167683988809586,-1109.10009765625,37.5,-842.100036621094,1.15183625977621,0.113529476968651,0.149416275734317,DLL
10.0333333333333,-0.366661638021469,-0.668125689029694,9.64206504821777,-0.0457319989800453,-0.259148001670837,0.320124000310898,-1116.30004882812,42.3000030517578,-849.300048828125,1.15194203913027,-0.037134060803683,0.069439271164668,DLL
10.0666666666667,-0.0711790099740028,-0.974973022937775,10.4154634475708,0.586893975734711,0.716467976570129,0.327746003866196,-1111.5,38.1000022888184,-844.500061035156,1.14998391658062,-0.0081303223431993,0.0922858022491802,DLL
10.1,-0.242846041917801,-1.01445043087006,9.72221565246582,0.685979962348938,0.205793991684914,-0.388722002506256,-1106.70007324219,35.1000022888184,-846.900024414062,1.15402821387286,-0.0250996886717703,0.102771388379603,DLL
10.1333333333333,0.828428030014038,-1.722651720047,8.75142955780029,-0.846041977405548,0.487807989120483,-1.60824191570282,-1121.10009765625,37.5,-839.700012207031,1.16671093666457,0.0921365879527116,0.195421094336003,DLL
10.1666666666667,-0.469542235136032,-1.24772620201111,9.58464336395264,-0.434453994035721,0.0381099991500378,-1.80641400814056,-1111.5,38.1000022888184,-837.300048828125,1.18356317920945,-0.0478477011622192,0.130515354499864,DLL
10.2,-0.724351167678833,-1.15621042251587,10.1445045471191,0.594515979290009,0.701223969459534,-0.884151995182037,-1113.90002441406,35.7000007629395,-844.500061035156,1.19110647415937,-0.0718085106402207,0.112610702508064,DLL
10.2333333333333,0.22968690097332,-1.62993955612183,8.49542427062988,0.365855991840363,-0.0533539988100529,-0.0762199983000755,-1097.10009765625,39.9000015258789,-844.500061035156,1.19339623722801,0.0264679330622671,0.188765755489223,DLL
10.2666666666667,-0.165087461471558,-1.53423666954041,9.50568771362305,-1.12805593013763,-0.388722002506256,-0.243903994560242,-1104.30004882812,38.7000007629395,-846.900024414062,1.19509858257866,-0.0163523615767872,0.162028943142534,DLL
10.3,-0.345128506422043,-1.41281366348267,10.0900735855103,-0.213415995240211,-0.556405961513519,0.541162014007568,-1121.10009765625,38.7000007629395,-858.900024414062,1.18917289364316,-0.0329903718416213,0.139508667867482,DLL
10.3333333333333,0.303856641054153,-1.81237316131592,9.62591457366943,0.0914639979600906,-0.830797970294952,0.78506600856781,-1116.30004882812,34.5,-834.900024414062,1.18124302586052,0.0320237152230161,0.18587810476995,DLL
10.3666666666667,0.430064797401428,-1.78485858440399,9.74374866485596,0.198172003030777,-1.70732796192169,0.632625997066498,-1113.90002441406,38.1000022888184,-830.100036621094,1.17332598325595,0.0460856789731045,0.18091218601933,DLL
10.4,0.718967854976654,-1.64190244674683,9.54995059967041,0.198172003030777,-1.80641400814056,0.0914639979600906,-1118.70007324219,37.5,-837.300048828125,1.17011166445589,0.0771025256653542,0.169984205775305,DLL
10.4333333333333,0.501243829727173,-1.30454981327057,9.61933517456055,1.41769194602966,-0.670735955238342,0.922261953353882,-1116.30004882812,39.3000030517578,-842.100036621094,1.16230861623536,0.0525672465387922,0.132459666162243,DLL
10.4666666666667,0.129198879003525,-0.773997008800507,9.26583290100098,1.72257196903229,-0.381099998950958,1.21951997280121,-1109.10009765625,40.5,-839.700012207031,1.15193319840909,0.0144326281880543,0.0804288383025113,DLL
10.5,0.128002598881721,-0.655564725399017,9.71623420715332,0.937505960464478,0.335367977619171,1.54726600646973,-1104.30004882812,39.9000015258789,-830.100036621094,1.13808410955228,0.0123847175351125,0.0657884870818556,DLL
10.5333333333333,0.619077980518341,-1.0634982585907,8.98709774017334,-0.411587983369827,0.426831990480423,1.12043392658234,-1109.10009765625,44.1000022888184,-849.300048828125,1.12643004745031,0.0672455877949809,0.118547864349898,DLL
10.5666666666667,-0.150133892893791,-0.847568571567535,9.52363204956055,-0.403965979814529,0.320124000310898,0.46494197845459,-1116.30004882812,31.5000019073486,-834.900024414062,1.1234361998842,-0.0161247236084704,0.0895278336015768,DLL
10.6,-0.622666835784912,-0.806894838809967,9.45783710479736,0.381099998950958,0.533540010452271,0.746955990791321,-1109.10009765625,41.1000022888184,-832.500061035156,1.11702842946075,-0.066463036016518,0.084371164534187,DLL
10.6333333333333,-0.526963949203491,-0.874485015869141,9.43690204620361,0.365855991840363,0.365855991840363,0.960371971130371,-1116.30004882812,38.7000007629395,-842.100036621094,1.10969410697178,-0.0563593954426027,0.0916551081831583,DLL
10.6666666666667,-0.816465139389038,-0.912168025970459,10.2970314025879,0.647870004177094,-0.243903994560242,1.95123195648193,-1101.90002441406,35.7000007629395,-839.700012207031,1.09285750678714,-0.0786354878447349,0.0869664676199609,DLL
10.7,0.0257201474159956,-1.15860295295715,10.6307954788208,-0.434453994035721,-2.0731840133667,1.6768399477005,-1111.5,32.7000007629395,-849.300048828125,1.07635792329812,0.0055518406365831,0.10929621301243,DLL
10.7333333333333,0.639414846897125,-1.22619307041168,10.4561376571655,-0.830797970294952,-2.82776188850403,2.0655620098114,-1109.10009765625,30.3000011444092,-837.300048828125,1.05587569015052,0.06499044465422,0.118431602591161,DLL
10.7666666666667,1.32668113708496,-1.55277919769287,9.11091327667236,-0.861285984516144,-1.82927989959717,2.25611186027527,-1123.5,39.3000030517578,-839.700012207031,1.02975564276818,0.144854067079018,0.170821464728073,DLL
10.8,0.448009073734283,-0.766221165657043,10.2808809280396,0.0228659994900227,0.0152439996600151,1.82927989959717,-1111.5,34.5,-830.100036621094,1.02309443972632,0.0434106657797214,0.0747291463803098,DLL
10.8333333333333,0.942075192928314,-0.857138872146606,9.6821403503418,1.44817996025085,0.121951997280121,2.70580983161926,-1128.30004882812,42.3000030517578,-834.900024414062,0.998100890647808,0.0958726796293751,0.0861887491990332,DLL
10.8666666666667,1.8626172542572,-1.24473547935486,8.30940246582031,0.152439996600151,-0.823175966739655,0.800309956073761,-1111.5,42.3000030517578,-832.500061035156,0.980373795090819,0.219067002069103,0.148621172331899,DLL
10.9,1.10058307647705,-1.20944511890411,9.24370193481445,-1.07470202445984,-1.16616594791412,-1.08232402801514,-1118.70007324219,41.7000007629395,-832.500061035156,0.992338069290659,0.120023847919708,0.131821156899587,DLL
10.9333333333333,1.54141438007355,-1.50253510475159,8.94462966918945,-0.6250039935112,-0.724089980125427,-1.14329993724823,-1123.5,38.1000022888184,-832.500061035156,0.996738339568122,0.169793323993582,0.167130707004,DLL
10.9666666666667,0.714780867099762,-1.19808042049408,9.76348781585693,0.503051996231079,0.0152439996600151,-1.2423859834671,-1121.10009765625,39.9000015258789,-834.900024414062,1.01315533041019,0.0729253091645569,0.121133990186211,DLL
11.0,0.529954671859741,-0.726145565509796,10.3640232086182,1.54726600646973,0.297257989645004,-0.518296003341675,-1118.70007324219,36.3000030517578,-837.300048828125,1.02039853447468,0.0505641736353947,0.0673341321577098,DLL
11.0333333333333,0.832016885280609,-0.798520863056183,10.0996437072754,1.09756803512573,0.175305992364883,-0.952749967575073,-1118.70007324219,38.1000022888184,-839.700012207031,1.02735312873806,0.0816863059779133,0.0768239610586937,DLL
11.0666666666667,0.791941285133362,-0.907382905483246,9.89747142791748,-0.114329993724823,-0.0914639979600906,-1.98934197425842,-1116.30004882812,39.9000015258789,-830.100036621094,1.04325342453858,0.0799914820124033,0.0913103064854381,DLL
11.1,0.994711756706238,-1.33565330505371,9.62412071228027,-1.27287399768829,0.0304879993200302,-2.42379593849182,-1113.90002441406,38.7000007629395,-834.900024414062,1.06062235893778,0.102497200432248,0.139572414133593,DLL
11.1333333333333,0.351708054542542,-1.46664655208588,9.41656494140625,-1.35671591758728,0.983237981796265,-2.9116039276123,-1130.70007324219,36.3000030517578,-837.300048828125,1.0861360648205,0.0361490165839855,0.156640142693405,DLL
11.1666666666667,0.299669623374939,-2.07555603981018,8.94582653045654,-0.617381989955902,2.080806016922,-2.18751406669617,-1121.10009765625,39.9000015258789,-839.700012207031,1.10619278447478,0.0299596689653733,0.228742655060192,DLL
11.2,-0.43425178527832,-1.96549785137177,9.06844520568848,-0.297257989645004,1.57775402069092,-2.34757590293884,-1113.90002441406,37.5,-834.900024414062,1.128699416894,-0.0483903577291308,0.214211174688422,DLL
11.2333333333333,-0.608311414718628,-1.86620604991913,9.2939453125,-0.0,1.79879200458527,-1.52439999580383,-1125.90002441406,34.5,-839.700012207031,1.14377187756224,-0.0665913960350185,0.198416221769295,DLL
11.2666666666667,-1.06947958469391,-1.66044485569,10.0332498550415,0.868907988071442,1.92836594581604,0.46494197845459,-1118.70007324219,39.3000030517578,-832.500061035156,1.14018845907989,-0.108190156139653,0.162499192415059,DLL
11.3,-1.04734838008881,-1.61618232727051,9.61574649810791,0.533540010452271,0.37347799539566,0.708845973014832,-1116.30004882812,38.7000007629395,-839.700012207031,1.13552463788206,-0.107850792530868,0.16546131410631,DLL
11.3333333333333,0.0239257179200649,-1.98404026031494,9.20242977142334,-1.27287399768829,-0.899396002292633,1.04421401023865,-1113.90002441406,38.1000022888184,-842.100036621094,1.1262002609074,0.0035786295088552,0.214528958157636,DLL
11.3666666666667,0.643601834774017,-2.01992893218994,8.49363040924072,-1.65397393703461,-1.60824191570282,1.49391198158264,-1116.30004882812,41.7000007629395,-842.100036621094,1.11047297991926,0.075526961844925,0.236550246441997,DLL
11.4,-0.893027484416962,-0.982748925685883,10.2043190002441,0.297257989645004,0.144817993044853,1.78354799747467,-1116.30004882812,34.5,-830.100036621094,1.09371765266598,-0.087190792053436,0.0954510469246633,DLL
11.4333333333333,0.129797026515007,-1.23636150360107,9.04392147064209,2.80489587783813,1.84452390670776,2.85062789916992,-1113.90002441406,33.3000030517578,-842.100036621094,1.07214805431716,0.0101876312800278,0.130939701297273,DLL
11.4666666666667,-0.105871304869652,-0.656760990619659,9.06545448303223,2.19513607025146,0.0609759986400604,0.617381989955902,-1121.10009765625,32.1000022888184,-830.100036621094,1.06665701312743,-0.011793880573473,0.0685741050871155,DLL
11.5,-0.97258049249649,-0.21712589263916,10.4399871826172,2.74391984939575,-0.556405961513519,1.13567793369293,-1099.5,38.7000007629395,-854.100036621094,1.05534663363347,-0.0918084586111194,0.0159051700400417,DLL
11.5333333333333,1.19628596305847,-1.10177934169769,9.28617000579834,0.541162014007568,-2.40092992782593,0.823175966739655,-1104.30004882812,40.5,-851.700012207031,1.04360141617003,0.130790482518554,0.117194821393366,DLL
11.5666666666667,0.619676113128662,-0.724949300289154,9.69589710235596,-0.914639949798584,-3.76526784896851,0.510673999786377,-1118.70007324219,36.3000030517578,-846.900024414062,1.04084601975134,0.0702260778148704,0.0763874182841188,DLL
11.6,1.18671560287476,-0.853550016880035,9.95549201965332,-0.152439996600151,-2.38568592071533,1.18140995502472,-1130.70007324219,36.3000030517578,-832.500061035156,1.02717008304831,0.122119702376322,0.0860762630886884,DLL
11.6333333333333,1.23815596103668,-0.854148149490356,10.1558694839478,1.35671591758728,-0.236281991004944,1.39482593536377,-1118.70007324219,32.1000022888184,-842.100036621094,1.01335538298188,0.121107688179121,0.0818445397854421,DLL
11.6666666666667,1.86560797691345,-1.18492126464844,8.84533786773682,0.221037998795509,-0.685979962348938,-0.213415995240211,-1111.5,41.7000007629395,-837.300048828125,1.0057826729607,0.207102684140271,0.132609952080719,DLL
11.7,1.82433605194092,-1.29856836795807,8.06177139282227,-1.31860601902008,-0.807931959629059,-1.44817996025085,-1123.5,37.5,-842.100036621094,1.01313235206866,0.221566959781676,0.161424322639078,DLL
11.7333333333333,1.31711077690125,-1.55277919769287,8.58395004272461,-1.50915598869324,-0.0533539988100529,-1.51677799224854,-1125.90002441406,37.5,-830.100036621094,1.02514388603004,0.150536081555074,0.18116691878696,DLL
11.7666666666667,1.7304276227951,-2.167072057724,8.28368186950684,-1.6768399477005,0.495429992675781,-1.11281192302704,-1125.90002441406,39.9000015258789,-846.900024414062,1.02464973708982,0.198947881314923,0.25818598525847,DLL
11.8,-0.19798532128334,-1.21482837200165,10.0296611785889,-0.182927995920181,1.52439999580383,-1.18903195858002,-1123.5,33.9000015258789,-832.500061035156,1.0490047301492,-0.0214333008407418,0.121237142360711,DLL
11.8333333333333,-0.185424327850342,-0.894223749637604,10.7300863265991,2.12653803825378,2.0579400062561,0.640248000621796,-1121.10009765625,39.3000030517578,-837.300048828125,1.0445581196746,-0.0208905540005592,0.0795201252323741,DLL
11.8666666666667,-0.185424327850342,-0.52935653924942,10.7946863174438,2.43903994560242,1.30336201190948,0.647870004177094,-1125.90002441406,33.9000015258789,-842.100036621094,1.03926703943353,-0.019482358744375,0.0448081486165402,DLL
11.9,0.0651975870132446,-0.343334078788757,9.99616527557373,1.12043392658234,0.0457319989800453,0.129574000835419,-1104.30004882812,30.3000011444092,-844.500061035156,1.03806903976831,0.0063674185493913,0.0324094806059418,DLL
11.9333333333333,0.568833947181702,-0.641209244728088,10.0398302078247,-0.411587983369827,-0.25152599811554,-0.586893975734711,-1123.5,36.3000030517578,-839.700012207031,1.04215511192903,0.0568612065059705,0.0643633067637458,DLL
11.9666666666667,0.923532724380493,-1.38111209869385,8.87046051025391,-1.28049600124359,-0.541162014007568,-1.20427596569061,-1116.30004882812,35.7000007629395,-849.300048828125,1.04544316073604,0.103655724054957,0.156264636422805,DLL
12.0,-0.41750380396843,-0.904392182826996,10.2635354995728,-1.01372599601746,-0.274392008781433,-2.0579400062561,-1121.10009765625,33.3000030517578,-839.700012207031,1.06647903917156,-0.0395199781954449,0.089877983669459,DLL
12.0333333333333,0.339147061109543,-1.51270353794098,9.36033916473389,0.114329993724823,0.510673999786377,0.365855991840363,-1113.90002441406,34.5,-837.300048828125,1.06407122177881,0.0346254792921274,0.159901278621142,DLL
12.0666666666667,0.363670915365219,-1.23396897315979,9.60019493103027,-0.0838419944047928,-0.289635986089706,0.670735955238342,-1125.90002441406,39.9000015258789,-851.700012207031,1.05881220230236,0.0379012321389948,0.128077399257324,DLL
12.1,0.69264954328537,-0.950449168682098,9.88191986083984,0.426831990480423,-0.434453994035721,1.03659200668335,-1116.30004882812,38.7000007629395,-837.300048828125,1.051072084911,0.0701600408201175,0.0953523532981645,DLL
12.1333333333333,0.754258275032043,-0.991721034049988,9.99078178405762,0.579271972179413,-0.327746003866196,0.198172003030777,-1111.5,36.3000030517578,-837.300048828125,1.04839392933312,0.0755124827901904,0.0979546931984257,DLL
12.1666666666667,0.504832684993744,-0.948056638240814,9.59540939331055,0.525918006896973,-0.0152439996600151,-0.419209986925125,-1123.5,32.1000022888184,-839.700012207031,1.05184924744969,0.0524523400998326,0.0975281889467407,DLL
12.2,0.617881715297699,-0.884653449058533,8.9595832824707,0.647870004177094,0.434453994035721,-0.556405961513519,-1116.30004882812,36.9000015258789,-839.700012207031,1.05664321413432,0.0678237252488182,0.0972187328923937,DLL
12.2333333333333,0.133385881781578,-0.650181412696838,10.0577735900879,0.960371971130371,0.518296003341675,-0.426831990480423,-1116.30004882812,38.1000022888184,-854.100036621094,1.06181425738117,0.0125145233951465,0.0629525388443931,DLL
12.2666666666667,0.35709136724472,-0.753660142421722,9.65462589263916,0.983237981796265,0.0304879993200302,0.121951997280121,-1113.90002441406,33.9000015258789,-834.900024414062,1.0601463215804,0.0367408342250329,0.0761695589033176,DLL
12.3,0.814072608947754,-0.760239720344543,9.15577411651611,-0.3125019967556,-0.884151995182037,-0.304879993200302,-1123.5,38.7000007629395,-851.700012207031,1.06190032585947,0.0898287347029642,0.0833356246961253,DLL
12.3333333333333,0.778183996677399,-0.902597725391388,9.55712795257568,-0.335367977619171,-0.144817993044853,-0.0685980021953583,-1123.5,34.5,-851.700012207031,1.06170461123022,0.0811605752749241,0.0947265120895948,DLL
12.3666666666667,0.79373574256897,-1.25310957431793,9.4727897644043,-0.78506600856781,0.274392008781433,-0.541162014007568,-1121.10009765625,37.5,-849.300048828125,1.06407376119089,0.0825237416621006,0.132715276910134,DLL
12.4,0.0819455906748772,-1.1418548822403,9.44707012176514,-0.792688012123108,0.6250039935112,-0.685979962348938,-1118.70007324219,38.7000007629395,-844.500061035156,1.07127409209347,0.0078583722786496,0.121684221082321,DLL
12.4333333333333,0.0352904349565506,-1.24593186378479,9.53738975524902,-0.442075997591019,0.670735955238342,0.0152439996600151,-1121.10009765625,36.3000030517578,-844.500061035156,1.07191292017487,0.0025115040378326,0.130661062284063,DLL
12.4666666666667,0.250621914863586,-1.57132160663605,9.52901554107666,-0.602137982845306,0.259148001670837,0.663114011287689,-1104.30004882812,34.5,-846.900024414062,1.06624686266426,0.0252533805640249,0.164422192222193,DLL
12.5,-0.35410064458847,-1.53184413909912,9.69709396362305,-0.495429992675781,0.297257989645004,0.282013982534409,-1121.10009765625,35.1000022888184,-849.300048828125,1.06410404203268,-0.036490650050336,0.157542029667412,DLL
12.5333333333333,0.301464051008224,-1.74478304386139,9.61514854431152,-0.365855991840363,0.365855991840363,0.419209986925125,-1109.10009765625,29.7000007629395,-846.900024414062,1.06121651746411,0.029916281728441,0.180109032903866,DLL
12.5666666666667,0.0921140164136887,-1.88534665107727,9.28258037567139,-0.114329993724823,0.274392008781433,0.46494197845459,-1109.10009765625,34.5,-849.300048828125,1.05735394803312,0.0091449477227267,0.20053595738192,DLL
12.6,-0.416905641555786,-1.57251787185669,9.43510723114014,0.487807989120483,0.190549999475479,0.937505960464478,-1116.30004882812,38.7000007629395,-846.900024414062,1.04916311318882,-0.044023460259102,0.164319128782178,DLL
12.6333333333333,-0.652574002742767,-1.42597281932831,9.96027660369873,0.533540010452271,0.365855991840363,1.08232402801514,-1104.30004882812,35.1000022888184,-839.700012207031,1.03940150458327,-0.065611112782218,0.141209109020183,DLL
12.6666666666667,-0.317015767097473,-1.50133883953094,9.36751747131348,0.46494197845459,0.228659987449646,1.56251001358032,-1101.90002441406,34.5,-844.500061035156,1.02737679169693,-0.034302878477948,0.157975140061971,DLL
12.7,-0.253014475107193,-1.52646088600159,9.473388671875,0.144817993044853,-0.320124000310898,1.46342396736145,-1121.10009765625,39.9000015258789,-844.500061035156,1.01336534202287,-0.0262254887719206,0.159435060205902,DLL
12.7333333333333,0.337352633476257,-1.51689052581787,9.23532772064209,-0.868907988071442,-1.49391198158264,0.945127964019775,-1111.5,37.5,-839.700012207031,1.00337210880123,0.0381735185028547,0.16437608055986,DLL
12.7666666666667,0.117834165692329,-1.37393438816071,9.06964206695557,-0.0609759986400604,-1.07470202445984,1.44817996025085,-1111.5,39.3000030517578,-832.500061035156,0.989128496417728,0.0143572593886843,0.150512646001003,DLL
12.8,0.009570287540555,-1.12570512294769,9.67914962768555,1.34147191047668,-0.381099998950958,1.16616594791412,-1106.70007324219,32.7000007629395,-837.300048828125,0.978343022778648,0.0014319462897773,0.113501652700217,DLL
12.8333333333333,0.597544848918915,-1.12091994285583,9.99676322937012,1.43293595314026,-0.3125019967556,0.83841997385025,-1116.30004882812,42.9000015258789,-842.100036621094,0.970390481618988,0.0595710961748112,0.109260489291116,DLL
12.8666666666667,-0.386400371789932,-0.631639003753662,10.8550987243652,1.79879200458527,-0.0990860015153885,0.495429992675781,-1111.5,42.9000015258789,-844.500061035156,0.966514655404894,-0.0353036515985135,0.0550060013772699,DLL
12.9,0.738706588745117,-0.886447906494141,9.53679180145264,1.09756803512573,-1.73781597614288,0.381099998950958,-1099.5,38.1000022888184,-839.700012207031,0.960655843805889,0.0796504815540506,0.0907532626542121,DLL
12.9333333333333,0.697434723377228,-0.768015563488007,9.08818435668945,-0.0609759986400604,-1.61586391925812,-0.0685980021953583,-1123.5,41.7000007629395,-849.300048828125,0.960530777261003,0.0791405001938473,0.0844287147209084,DLL
12.9666666666667,1.07007777690887,-1.24533367156982,9.03614616394043,-0.274392008781433,-0.472563982009888,0.121951997280121,-1121.10009765625,31.5000019073486,-842.100036621094,0.954044638936202,0.117472973838214,0.137339918007478,DLL
13.0,0.0933103039860725,-1.04435765743256,9.29035663604736,-0.0914639979600906,0.144817993044853,-0.274392008781433,-1109.10009765625,32.1000022888184,-832.500061035156,0.958476190780133,0.0098883806494828,0.112122106666816,DLL
13.0333333333333,0.248229339718819,-1.06230187416077,9.40878868103027,0.556405961513519,0.769822001457214,0.304879993200302,-1123.5,39.3000030517578,-849.300048828125,0.956506186344287,0.0247789648821271,0.111468942007568,DLL
13.0666666666667,-0.35709136724472,-0.748276829719543,9.80236721038818,0.983237981796265,0.708845973014832,0.586893975734711,-1135.5,37.5,-832.500061035156,0.951931758381913,-0.0374644938600941,0.0745297148188379,DLL
13.1,-0.205761179327965,-0.82663357257843,10.054783821106,0.403965979814529,-0.297257989645004,0.495429992675781,-1111.5,40.5,-844.500061035156,0.947470420298505,-0.0199727929523289,0.0812946489257253,DLL
13.1333333333333,0.655564725399017,-1.3458217382431,9.7838249206543,-0.381099998950958,-0.914639949798584,0.525918006896973,-1113.90002441406,32.1000022888184,-851.700012207031,0.940807630655432,0.06752291436668,0.137299189186572,DLL
13.1666666666667,1.29677391052246,-1.6323322057724,9.79698371887207,-2.37044191360474,-2.13416004180908,-0.823175966739655,-1109.10009765625,39.3000030517578,-834.900024414062,0.944276509171547,0.13361396994069,0.169066198888629,DLL
13.2,-1.03000223636627,-0.79672646522522,11.1087112426758,0.83841997385025,-0.579271972179413,0.830797970294952,-1118.70007324219,33.9000015258789,-834.900024414062,0.938476034844995,-0.0910349877189203,0.0701230886360836,DLL
13.2333333333333,1.69154834747314,-1.6664263010025,8.80765533447266,0.114329993724823,-0.762199997901917,0.3125019967556,-1123.5,33.3000030517578,-825.300048828125,0.928997297321502,0.187023672581938,0.18663824257812,DLL
13.2666666666667,0.714780867099762,-0.991721034049988,9.2760009765625,-0.106707997620106,-0.663114011287689,-0.0076219998300075,-1118.70007324219,32.7000007629395,-832.500061035156,0.939010944288753,0.0778928221574925,0.106897612129709,DLL
13.3,0.692051410675049,-1.0276095867157,9.38905048370361,0.861285984516144,-0.320124000310898,0.403965979814529,-1113.90002441406,32.1000022888184,-834.900024414062,0.934519957995548,0.0736283804322484,0.107565434069281,DLL
13.3333333333333,0.788950562477112,-1.2357634305954,8.89139556884766,0.121951997280121,-0.297257989645004,-0.114329993724823,-1116.30004882812,38.1000022888184,-839.700012207031,0.932626378255735,0.0881673430590411,0.137800811145412,DLL
13.3666666666667,0.509019672870636,-1.20525813102722,9.35316181182861,-0.274392008781433,0.0457319989800453,-0.266770005226135,-1113.90002441406,37.5,-834.900024414062,0.935753912629686,0.0539885318748793,0.128630568365171,DLL
13.4,-0.230883181095123,-0.827829897403717,9.89208889007568,0.769822001457214,0.487807989120483,0.411587983369827,-1116.30004882812,36.3000030517578,-854.100036621094,0.933163154593248,-0.0240404634927572,0.082205532804501,DLL
13.4333333333333,0.0568235814571381,-0.818259596824646,10.1875715255737,0.952749967575073,0.434453994035721,1.03659200668335,-1130.70007324219,36.3000030517578,-842.100036621094,0.924242349698711,0.0046055785271488,0.0784992282323177,DLL
13.4666666666667,0.253612607717514,-1.12690138816833,9.86337757110596,0.0838419944047928,-0.0076219998300075,1.39482593536377,-1113.90002441406,30.9000015258789,-849.300048828125,0.910624009026581,0.0252531055310328,0.113628682713385,DLL
13.5,1.02103006839752,-1.41999137401581,8.75202751159668,-1.98934197425842,-1.08994603157043,0.152439996600151,-1106.70007324219,35.7000007629395,-839.700012207031,0.905934756151543,0.116342334548539,0.164303759062345,DLL
13.5333333333333,0.084936298429966,-1.34283101558685,9.75571155548096,-0.282013982534409,0.426831990480423,1.30336201190948,-1121.10009765625,33.3000030517578,-837.300048828125,0.896730538879513,0.0077881015427131,0.137350562037993,DLL
13.5666666666667,0.750669419765472,-1.71487593650818,9.72101974487305,0.0076219998300075,0.3125019967556,0.861285984516144,-1123.5,34.5,-851.700012207031,0.887683446320791,0.0750195606872496,0.174656217399541,DLL
13.6,0.084936298429966,-1.37692511081696,9.29035663604736,0.67835795879364,0.297257989645004,0.685979962348938,-1116.30004882812,38.1000022888184,-839.700012207031,0.882943237105197,0.0084596120439881,0.146009869747371,DLL
13.6333333333333,-0.104675017297268,-0.933103024959564,9.79518890380859,1.21189796924591,0.564027965068817,0.952749967575073,-1123.5,39.3000030517578,-842.100036621094,0.874558783014185,-0.0117479164526989,0.0929072278784669,DLL
13.6666666666667,0.113049022853374,-0.754258275032043,9.64086818695068,1.31860601902008,0.541162014007568,2.11129403114319,-1113.90002441406,35.7000007629395,-844.500061035156,0.855574329739691,0.0104336389271625,0.075838518208411,DLL
13.7,0.0891233012080193,-0.729734420776367,9.82808685302734,0.25152599811554,0.114329993724823,1.6692179441452,-1113.90002441406,40.5,-839.700012207031,0.841264842000956,0.0086339194146668,0.0737051727898262,DLL
13.7333333333333,0.434849947690964,-0.997702479362488,9.66539192199707,-0.121951997280121,-0.0685980021953583,1.6768399477005,-1104.30004882812,33.9000015258789,-832.500061035156,0.826055210160381,0.0444534459735771,0.103128784050073,DLL
13.7666666666667,0.812278151512146,-1.41879510879517,9.1569709777832,-1.57775402069092,-0.426831990480423,0.114329993724823,-1111.5,41.7000007629395,-842.100036621094,0.822089675155646,0.0880558504942307,0.156395068671689,DLL
13.8,-0.256603330373764,-1.38051402568817,9.95608997344971,-0.259148001670837,0.0076219998300075,0.846041977405548,-1113.90002441406,31.5000019073486,-851.700012207031,0.815416437867314,-0.0254607061298449,0.138243919853393,DLL
13.8333333333333,0.548497080802917,-1.72803509235382,9.521240234375,-0.495429992675781,-0.327746003866196,0.548784017562866,-1113.90002441406,38.7000007629395,-839.700012207031,0.809775855533287,0.0568092912174054,0.180357110623868,DLL
13.8666666666667,0.613096535205841,-1.66941702365875,9.66658878326416,-0.586893975734711,-0.945127964019775,0.564027965068817,-1113.90002441406,39.3000030517578,-849.300048828125,0.804033473726944,0.0638634298809714,0.17212995462367,DLL
13.9,0.365465342998505,-1.49834811687469,9.87474250793457,0.990859985351562,-0.121951997280121,0.914639949798584,-1109.10009765625,38.1000022888184,-839.700012207031,0.796370514666612,0.0365908659996628,0.14895289608409,DLL
13.9333333333333,0.742893576622009,-1.50791847705841,9.14261531829834,0.525918006896973,-0.548784017562866,-0.0228659994900227,-1113.90002441406,35.7000007629395,-839.700012207031,0.794688878490244,0.080844299232044,0.162519194941692,DLL
13.9666666666667,-0.122021168470383,-1.20346367359161,9.50927734375,0.640248000621796,0.472563982009888,0.198172003030777,-1111.5,41.1000022888184,-839.700012207031,0.794768304805218,-0.013358768749695,0.12486007996543,DLL
14.0,-0.0263182912021875,-1.1777435541153,9.25267314910889,0.640248000621796,0.381099998950958,0.37347799539566,-1109.10009765625,37.5,-846.900024414062,0.791930645150113,-0.0035823556760836,0.125485267397764,DLL
14.0333333333333,-0.106469452381134,-1.02701151371002,9.74315071105957,0.693601965904236,0.480185985565186,0.708845973014832,-1109.10009765625,35.7000007629395,-834.900024414062,0.786184406432985,-0.0118088610562514,0.103850155286252,DLL
14.0666666666667,-0.102282449603081,-1.18791198730469,9.91541576385498,0.586893975734711,0.594515979290009,0.914639949798584,-1109.10009765625,41.1000022888184,-849.300048828125,0.779150838718169,-0.0114610624843744,0.11815987811333,DLL
14.1,-0.372643083333969,-0.976169347763062,9.65522384643555,0.0533539988100529,0.0990860015153885,0.632625997066498,-1109.10009765625,39.3000030517578,-844.500061035156,0.773383553555944,-0.0385967413443074,0.100669014975114,DLL
14.1333333333333,0.324193477630615,-1.23396897315979,9.49970626831055,-0.236281991004944,-0.114329993724823,0.960371971130371,-1109.10009765625,29.1000003814697,-846.900024414062,0.765139758995654,0.0336330539675286,0.129568440166271,DLL
14.1666666666667,-0.212340757250786,-1.04675018787384,10.0027446746826,-0.228659987449646,-0.403965979814529,0.899396002292633,-1106.70007324219,32.7000007629395,-842.100036621094,0.756930136767738,-0.0204667391103318,0.104682372984924,DLL
14.2,0.0376830063760281,-1.00667464733124,9.66240119934082,-0.137196004390717,-0.198172003030777,0.495429992675781,-1109.10009765625,33.3000030517578,-832.500061035156,0.752220296054797,0.0040947219480451,0.10405411019641,DLL
14.2333333333333,0.37324121594429,-1.03478729724884,9.68154239654541,0.350611984729767,0.282013982534409,0.945127964019775,-1099.5,38.1000022888184,-834.900024414062,0.744227845125783,0.0375683828004144,0.105920678211259,DLL
14.2666666666667,0.156713455915451,-0.759641587734222,9.29932880401611,0.754577994346619,0.228659987449646,0.670735955238342,-1109.10009765625,42.3000030517578,-839.700012207031,0.739180469905157,0.0163548601786295,0.0802719093307985,DLL
14.3,0.108862020075321,-0.527562081813812,9.53798770904541,1.12805593013763,0.396344006061554,0.152439996600151,-1123.5,42.3000030517578,-846.900024414062,0.738278320973357,0.0107017283218644,0.0533419720500859,DLL
14.3333333333333,-0.244640469551086,-0.617283523082733,10.0380353927612,1.09756803512573,0.670735955238342,0.205793991684914,-1111.5,41.1000022888184,-844.500061035156,0.737058799449791,-0.02542144063721,0.0594791715887126,DLL
14.3666666666667,0.840988993644714,-1.22738933563232,9.27241230010986,-0.137196004390717,-0.731711983680725,-0.480185985565186,-1104.30004882812,45.3000030517578,-846.900024414062,0.738151029233106,0.0907602311552108,0.131605398376519,DLL
14.4,-0.347521066665649,-0.568833947181702,10.3227510452271,-0.3125019967556,-0.983237981796265,-1.88263392448425,-1106.70007324219,44.1000022888184,-842.100036621094,0.75648044046618,-0.0314612622623665,0.0558401965047673,DLL
14.4333333333333,1.16338813304901,-1.34283101558685,10.0021467208862,0.426831990480423,0.121951997280121,-0.815553963184357,-1109.10009765625,41.7000007629395,-854.100036621094,0.76047469753878,0.114519266597165,0.13242593683259,DLL
14.4666666666667,0.974374890327454,-1.22080981731415,9.52303409576416,-0.0152439996600151,0.609759986400604,-2.80489587783813,-1125.90002441406,30.9000015258789,-849.300048828125,0.786381340348002,0.100732976859942,0.127031936069011,DLL
14.5,1.71547400951385,-1.52047944068909,9.47039794921875,0.0533539988100529,1.14329993724823,-4.43600368499756,-1121.10009765625,36.3000030517578,-846.900024414062,0.82092851456307,0.176034105889534,0.157613921050645,DLL
14.5333333333333,2.04026556015015,-1.58507883548737,9.50209903717041,-0.175305992364883,1.11281192302704,-8.429931640625,-1121.10009765625,33.9000015258789,-851.700012207031,0.892162142504286,0.209088040571614,0.162442865832605,DLL
14.5666666666667,2.01634001731873,-1.9188426733017,8.92429351806641,0.190549999475479,1.30336201190948,-13.8872833251953,-1116.30004882812,32.7000007629395,-844.500061035156,0.999390860133423,0.220093610483737,0.205936915534016,DLL
14.6,1.6903520822525,-2.14434266090393,8.62821197509766,0.25152599811554,1.87501192092896,-18.6510334014893,-1123.5,29.7000007629395,-837.300048828125,1.14976772347311,0.192401690715746,0.236743417566908,DLL
14.6333333333333,0.78775429725647,-2.02052688598633,9.10852146148682,0.335367977619171,2.65245604515076,-22.5153865814209,-1123.5,25.5000019073486,-851.700012207031,1.36336048045914,0.0882091073069379,0.214204026809957,DLL
14.6666666666667,-0.536534249782562,-1.64549136161804,10.5506439208984,1.18140995502472,3.12502002716064,-23.2852096557617,-1137.90002441406,25.5000019073486,-844.500061035156,1.56702747660612,-0.0489428290705181,0.154720868250702,DLL
14.7,-0.248229339718819,-1.73521280288696,10.6038789749146,1.96647596359253,2.95733594894409,-22.6754493713379,-1135.5,21.9000015258789,-844.500061035156,1.7644143813774,-0.0219601627146164,0.159638760606379,DLL
14.7333333333333,-0.0161498598754406,-1.44870233535767,9.43570518493652,1.02134799957275,1.94360995292664,-23.2547206878662,-1135.5,17.7000007629395,-856.500061035156,1.96482416990001,0.0010000181633157,0.150543587218552,DLL
14.7666666666667,-0.805698573589325,-0.715378999710083,9.5565299987793,0.724089980125427,1.89025592803955,-20.9223899841309,-1135.5,15.9000005722046,-870.900024414062,2.14283447236465,-0.0841078329273871,0.0766785206103333,DLL
14.8,-1.5180869102478,-0.294884473085403,9.94771575927734,1.15092194080353,2.56099200248718,-15.6479654312134,-1130.70007324219,15.9000005722046,-861.300048828125,2.27332537905826,-0.154765727499891,0.0319894069677402,DLL
14.8333333333333,-1.13407909870148,-0.334960073232651,9.21259784698486,0.975615978240967,2.37044191360474,-10.983302116394,-1123.5,8.70000076293945,-854.100036621094,2.37846386191379,-0.125861025239654,0.0370822607162035,DLL
14.8666666666667,-0.907981038093567,-0.345726639032364,9.69470119476318,0.411587983369827,2.05031800270081,-7.21041202545166,-1130.70007324219,14.1000003814697,-868.500061035156,2.44505592345374,-0.0964918043334394,0.0361630972825436,DLL
14.9,-0.565245091915131,-0.270360618829727,9.43450927734375,0.632625997066498,1.06708002090454,-3.58996200561523,-1123.5,5.10000038146973,-861.300048828125,2.47597228825083,-0.061588287756712,0.0279577575372086,DLL
14.9333333333333,0.230285048484802,-0.485093951225281,8.84354400634766,0.175305992364883,0.403965979814529,-2.14178204536438,-1116.30004882812,8.70000076293945,-858.900024414062,2.49509007503272,0.0252775188304397,0.0543365294319338,DLL
14.9666666666667,0.128002598881721,-0.613096535205841,9.48236083984375,-0.167683988809586,0.548784017562866,-1.88263392448425,-1118.70007324219,13.5000009536743,-861.300048828125,2.5114389303959,0.0127574094025422,0.0647901820632315,DLL
15.0,-0.810483753681183,-0.389989227056503,10.0852890014648,0.0990860015153885,0.815553963184357,-1.48628997802734,-1111.5,6.30000019073486,-851.700012207031,2.52371257139647,-0.0812194693290175,0.0387533106641843,DLL
15.0333333333333,-1.55158281326294,-0.291893780231476,11.3802680969238,0.952749967575073,1.64635193347931,-0.327746003866196,-1118.70007324219,5.10000038146973,-851.700012207031,2.52646726641247,-0.138206855416915,0.0240988200446446,DLL
15.0666666666667,-0.452196091413498,-0.316417634487152,9.86337757110596,1.55488801002502,0.472563982009888,0.175305992364883,-1099.5,4.5,-868.500061035156,2.52636029868053,-0.046737475496451,0.0293356394436044,DLL
15.1,-0.178246602416039,-0.209350034594536,9.29035663604736,1.12805593013763,-0.472563982009888,0.114329993724823,-1101.90002441406,-0.900000035762787,-861.300048828125,2.52523131752498,-0.018428383181708,0.0205789727331248,DLL
15.1333333333333,-0.37623193860054,-0.101684302091599,9.45903301239014,0.884151995182037,-0.388722002506256,0.335367977619171,-1097.10009765625,9.30000019073486,-863.700012207031,2.52223735608815,-0.0390279370756394,0.0092115082046643,DLL
15.1666666666667,0.0478514358401299,-0.227892473340034,9.07681941986084,0.396344006061554,-0.25152599811554,0.693601965904236,-1113.90002441406,-2.70000004768372,-858.900024414062,2.51646480075501,0.0055697395206505,0.0243786224100905,DLL
15.2,0.324791640043259,-0.447410941123962,8.77116870880127,0.0228659994900227,-0.426831990480423,0.358233988285065,-1113.90002441406,-0.900000035762787,-851.700012207031,2.5125281110519,0.0376138986643721,0.0508976132706001,DLL
15.2333333333333,-0.0245238617062569,-0.336156338453293,9.53978252410889,-0.114329993724823,-0.304879993200302,-0.144817993044853,-1111.5,8.10000038146973,-873.300048828125,2.51395818264185,-0.0019307075200132,0.0354606962075231,ST
15.2666666666667,-0.407933503389359,-0.577806115150452,10.3377046585083,0.114329993724823,0.129574000835419,0.25152599811554,-1104.30004882812,3.30000019073486,-870.900024414062,2.51223293463287,-0.0395549159060372,0.0555791655680085,ST
15.3,0.0968991592526436,-0.74947315454483,10.0386333465576,-0.0533539988100529,-0.449698001146317,0.106707997620106,-1106.70007324219,5.10000038146973,-866.100036621094,2.51128032266546,0.010296241853987,0.0745787522340381,ST
15.3333333333333,0.562852561473846,-0.82065212726593,9.94831371307373,-0.434453994035721,-1.70732796192169,-0.297257989645004,-1125.90002441406,6.30000019073486,-861.300048828125,2.51267277632581,0.0592783715161254,0.0830370095361264,ST
15.3666666666667,0.60352623462677,-0.822446584701538,9.20003700256348,-0.640248000621796,-2.080806016922,-0.266770005226135,-1116.30004882812,-0.300000011920929,-861.300048828125,2.51328075204224,0.0688823056039461,0.0902489983624677,ST
15.4,0.492869794368744,-0.940280735492706,9.20362567901611,-0.800309956073761,-0.83841997385025,0.525918006896973,-1118.70007324219,3.30000019073486,-854.100036621094,2.50719172553423,0.0546028733364228,0.103249801681181,ST
15.4333333333333,0.45937380194664,-1.0054783821106,9.16235446929932,-0.617381989955902,-0.0304879993200302,1.14329993724823,-1137.90002441406,4.5,-863.700012207031,2.49725008017116,0.0496420872597907,0.110461512166344,ST
15.4666666666667,-0.153722748160362,-1.21004319190979,9.26702880859375,-0.434453994035721,1.64635193347931,1.89787793159485,-1113.90002441406,0.900000035762787,-856.500061035156,2.48245071653782,-0.0195554971211529,0.130495651609898,ST
15.5,-0.644798099994659,-1.1597992181778,9.57985782623291,-0.266770005226135,1.74543797969818,2.0579400062561,-1118.70007324219,5.70000028610229,-858.900024414062,2.46609937764562,-0.0700534402927176,0.120747795528409,ST
15.5333333333333,-1.18791198730469,-1.18193054199219,10.4268283843994,0.137196004390717,1.79879200458527,2.53050398826599,-1111.5,4.5,-870.900024414062,2.44558254577519,-0.116224435864595,0.112186433164604,ST
15.5666666666667,-1.05093717575073,-1.15920102596283,10.4196510314941,0.46494197845459,0.503051996231079,2.64483404159546,-1099.5,10.5,-858.900024414062,2.42293644637048,-0.101315514627772,0.109532057791838,ST
15.6,-0.512608528137207,-0.902597725391388,9.92977142333984,0.647870004177094,-0.434453994035721,2.21800184249878,-1111.5,6.30000019073486,-861.300048828125,2.40118788087548,-0.0510357253755573,0.0893471065842409,ST
15.6333333333333,-0.567039549350739,-0.77878212928772,10.0368394851685,0.78506600856781,-0.716467976570129,2.32470989227295,-1101.90002441406,4.5,-870.900024414062,2.37853063484985,-0.055322823699945,0.0758544025032392,ST
15.6666666666667,-0.341539651155472,-0.683677434921265,9.93036937713623,0.807931959629059,-0.518296003341675,2.27135586738586,-1106.70007324219,6.30000019073486,-873.300048828125,2.35675095160351,-0.0336894479583341,0.0672030295066409,ST
15.7,0.200377896428108,-0.505430817604065,9.52901554107666,0.746955990791321,-0.853663980960846,1.76068198680878,-1118.70007324219,4.5,-868.500061035156,2.34099652987709,0.0221859803818104,0.051793005015091,ST
15.7333333333333,-0.278136491775513,-0.274547636508942,9.1509895324707,1.21951997280121,-0.807931959629059,1.71494996547699,-1109.10009765625,3.90000009536743,-858.900024414062,2.32473882612498,-0.0289821534143179,0.0278076104956899,ST
15.7666666666667,0.099889874458313,-0.257201462984085,9.27839374542236,1.54726600646973,-0.0609759986400604,1.45580196380615,-1125.90002441406,1.5,-863.700012207031,2.31093028439338,0.0107548599230617,0.0250427346019264,ST
15.8,0.270958751440048,-0.238659039139748,9.59959697723389,1.2500079870224,-0.152439996600151,0.655492007732391,-1109.10009765625,0.900000035762787,-878.100036621094,2.3050164783728,0.0284063511054551,0.0227126651172685,ST
15.8333333333333,-0.2613884806633,-0.120226740837097,10.0422220230103,0.907018005847931,-0.403965979814529,0.0304879993200302,-1118.70007324219,9.30000019073486,-866.100036621094,2.30483178746633,-0.0252502470546084,0.0104022417748642,ST
15.8666666666667,-0.390587359666824,-0.0550291538238525,9.81193733215332,0.685979962348938,-0.403965979814529,0.0533539988100529,-1125.90002441406,3.30000019073486,-870.900024414062,2.30435184770809,-0.0390640055907595,0.0044147042586056,ST
15.9,-0.0651975870132446,0.0771604403853416,10.0176982879639,0.327746003866196,-0.503051996231079,0.396344006061554,-1121.10009765625,3.90000009536743,-866.100036621094,2.3003975779298,-0.0056657447524449,-0.008262670861331,ST
15.9333333333333,-0.084936298429966,-0.252416342496872,9.25626277923584,-0.320124000310898,-0.121951997280121,0.884151995182037,-1092.30004882812,8.10000038146973,-870.900024414062,2.29251331582049,-0.0089966775755623,0.0277515665096275,ST
15.9666666666667,0.239855334162712,-0.439036935567856,9.18927001953125,-1.05945801734924,-0.114329993724823,0.388722002506256,-1116.30004882812,5.10000038146973,-866.100036621094,2.28891019388128,0.0261768740411234,0.0495735329773887,ST
16.0,-0.284716039896011,-0.502440094947815,9.29633808135986,-0.922261953353882,0.388722002506256,0.221037998795509,-1116.30004882812,8.10000038146973,-863.700012207031,2.28686517108322,-0.0312002452959925,0.055586104399098,ST
16.0333333333333,-0.0185424312949181,-0.699827253818512,9.65283107757568,-0.602137982845306,0.121951997280121,0.152439996600151,-1118.70007324219,5.70000028610229,-866.100036621094,2.28588065285974,-0.0022191395747056,0.0733794519159041,ST
16.0666666666667,-0.0370848625898361,-0.748875021934509,10.1211776733398,0.0914639979600906,-1.11281192302704,0.243903994560242,-1118.70007324219,0.300000011920929,-868.500061035156,2.28290372297586,-0.0017492025954377,0.0736951878782341,ST
16.1,-0.0675901547074318,-0.595750391483307,10.0834941864014,0.342989981174469,-1.10518991947174,0.243903994560242,-1111.5,11.1000003814697,-863.700012207031,2.28009604133197,-0.0047846520409082,0.0584419608627085,ST
16.1333333333333,-0.101684302091599,-0.540123105049133,10.1941509246826,0.617381989955902,0.0076219998300075,0.868907988071442,-1116.30004882812,5.70000028610229,-866.100036621094,2.27237655801911,-0.0100421471328852,0.0518544433010929,ST
16.1666666666667,-0.102880589663982,-0.446214646100998,9.86397552490234,0.594515979290009,0.358233988285065,0.762199997901917,-1123.5,5.10000038146973,-866.100036621094,2.26552743431023,-0.0111007146060568,0.0441659404427077,ST
16.2,-0.164489313960075,-0.139367312192917,9.81253528594971,0.586893975734711,0.0838419944047928,0.701223969459534,-1118.70007324219,5.10000038146973,-858.900024414062,2.25876954208687,-0.0169137344973439,0.0132055316555555,ST
16.2333333333333,-0.750071287155151,-0.0460570082068443,9.72879505157471,0.823175966739655,-0.121951997280121,0.99848198890686,-1121.10009765625,3.30000019073486,-861.300048828125,2.25014564651043,-0.0765908410784908,0.0031898006392402,ST
16.2666666666667,-0.385204076766968,-0.0412718653678894,9.88431262969971,0.647870004177094,0.830797970294952,1.05945801734924,-1118.70007324219,5.70000028610229,-878.100036621094,2.24127758356327,-0.0404957226330008,0.0029695977450853,ST
16.3,0.0364867225289345,-0.18183545768261,9.68273830413818,0.320124000310898,-0.449698001146317,0.541162014007568,-1109.10009765625,3.90000009536743,-856.500061035156,2.23683067704102,0.0044245161658536,0.0181844889524488,ST
16.3333333333333,-0.157909750938416,0.266771763563156,9.11629676818848,0.274392008781433,-1.28049600124359,0.137196004390717,-1116.30004882812,6.30000019073486,-861.300048828125,2.23559025572228,-0.0150411918303186,-0.0296614137438581,ST
16.3666666666667,-0.158507883548737,0.134582161903381,9.57327842712402,0.0609759986400604,-0.205793991684914,0.609759986400604,-1109.10009765625,3.90000009536743,-870.900024414062,2.23060361269161,-0.0161768589880369,-0.0142187985943758,ST
16.4,0.0257201474159956,0.0759641602635384,9.71922492980957,-0.320124000310898,-0.442075997591019,0.25152599811554,-1118.70007324219,3.30000019073486,-863.700012207031,2.22837720021093,0.0033903934396852,-0.007266481911195,ST
16.4333333333333,0.188415035605431,-0.265575468540192,10.0793075561523,-0.78506600856781,-0.426831990480423,0.160062000155449,-1118.70007324219,7.50000047683716,-866.100036621094,2.226630993652,0.0193822777210765,0.0276322913028551,ST
16.4666666666667,-0.340343356132507,0.0143554313108325,9.89208889007568,-0.160062000155449,0.0762199983000755,-0.205793991684914,-1121.10009765625,5.10000038146973,-854.100036621094,2.22831905049011,-0.0344585790930565,-0.0011239224050065,ST
16.5,-0.541917502880096,-0.219518467783928,10.2701148986816,0.236281991004944,0.975615978240967,0.167683988809586,-1128.30004882812,2.10000014305115,-866.100036621094,2.22809153165423,-0.0543649035735634,0.0208905991093429,ST
16.5333333333333,-0.294884473085403,-0.0526365824043751,10.3562469482422,0.350611984729767,0.221037998795509,0.0,-1113.90002441406,6.90000009536743,-863.700012207031,2.22752742713485,-0.0289146003711987,0.0045110511441202,ST
16.5666666666667,0.276342064142227,0.149535745382309,9.26164531707764,0.358233988285065,-0.937505960464478,-0.0533539988100529,-1128.30004882812,2.70000004768372,-861.300048828125,2.22811654264192,0.0313999572474338,-0.0167524151278361,ST
16.6,0.177648469805717,0.0400755777955055,9.60557842254639,0.525918006896973,0.396344006061554,-0.0381099991500378,-1121.10009765625,5.10000038146973,-849.300048828125,2.22804058016459,0.0178334278035477,-0.0051198258294104,ST
16.6333333333333,0.542515695095062,0.0077758585102856,9.93336009979248,0.411587983369827,0.807931959629059,-0.800309956073761,-1123.5,5.10000038146973,-858.900024414062,2.23464219560685,0.0530619329408284,-0.0015833085932225,ST
16.6666666666667,0.308641761541367,0.177050322294235,9.42194843292236,0.266770005226135,-0.198172003030777,-1.29574000835419,-1113.90002441406,3.90000009536743,-868.500061035156,2.24720536087584,0.0330741559820576,-0.0193024263917263,ST
16.7,0.266771763563156,0.362474650144577,9.1390266418457,0.274392008781433,-0.0762199983000755,-0.975615978240967,-1118.70007324219,2.10000014305115,-863.700012207031,2.25622493980655,0.0292338533841282,-0.0401190158542703,ST
16.7333333333333,-0.243444189429283,0.223705470561981,9.38426494598389,0.175305992364883,0.792688012123108,-0.3125019967556,-1116.30004882812,-0.300000011920929,-856.500061035156,2.25882207180023,-0.0272137718343417,-0.0241577076742215,ST
16.7666666666667,-0.434849947690964,0.0448607243597507,10.0440168380737,0.190549999475479,0.960371971130371,-0.228659987449646,-1118.70007324219,3.30000019073486,-861.300048828125,2.26154989278389,-0.0449103281200415,-0.0048195490615473,ST
16.8,0.544310092926025,-0.319408357143402,9.36691856384277,-0.609759986400604,-0.46494197845459,-1.21951997280121,-1118.70007324219,3.30000019073486,-875.700012207031,2.27189309384699,0.0586387737645195,0.0349322289792946,ST
16.8333333333333,-0.364867210388184,-0.216527760028839,9.7658805847168,-0.777444005012512,-0.327746003866196,-1.62348592281342,-1125.90002441406,-2.10000014305115,-861.300048828125,2.28584638998561,-0.0364603465094506,0.0236519529340986,ST
16.8666666666667,-0.660947978496552,-0.537730515003204,10.1600561141968,-0.731711983680725,0.480185985565186,-1.08994603157043,-1116.30004882812,2.70000004768372,-863.700012207031,2.29661403094738,-0.0655344610079758,0.054204839287463,ST
16.9,-0.151330173015594,-0.620872378349304,9.43331241607666,-0.967993974685669,-0.396344006061554,-1.15092194080353,-1113.90002441406,5.70000028610229,-863.700012207031,2.3069218997273,-0.015279988890614,0.0674168800320942,ST
16.9333333333333,-0.453990519046783,-0.693845868110657,9.0134162902832,-0.967993974685669,0.274392008781433,-0.823175966739655,-1113.90002441406,5.10000038146973,-861.300048828125,2.31418982053632,-0.0504557040341734,0.0785630867480714,ST
16.9666666666667,-0.802109718322754,-1.00009500980377,10.0141096115112,-1.2500079870224,1.19665396213531,-0.358233988285065,-1113.90002441406,2.10000014305115,-870.900024414062,2.31897607654037,-0.0814715385153292,0.101730354933009,ST
17.0,-0.41451308131218,-1.09041464328766,9.65582180023193,-1.11281192302704,-0.0152439996600151,0.0152439996600151,-1106.70007324219,4.5,-863.700012207031,2.31911305521498,-0.0426848831557361,0.114367909831,ST
17.0333333333333,-0.334361910820007,-0.988132178783417,9.43450927734375,-0.952749967575073,-0.708845973014832,-0.213415995240211,-1116.30004882812,5.10000038146973,-875.700012207031,2.31975608998578,-0.0339741126186233,0.106036881584346,ST
17.0666666666667,-0.572422802448273,-0.996506214141846,9.92618274688721,-0.693601965904236,-0.0762199983000755,0.152439996600151,-1125.90002441406,6.30000019073486,-870.900024414062,2.31779622184766,-0.0571656775253193,0.101260624379956,ST
17.1,-0.550291538238525,-1.16338813304901,9.44407939910889,-0.190549999475479,0.144817993044853,0.823175966739655,-1097.10009765625,5.70000028610229,-866.100036621094,2.31140370192997,-0.0581922238161604,0.122794148460989,ST
17.1333333333333,-0.823044717311859,-0.867307305335999,10.5422697067261,0.350611984729767,-0.335367977619171,1.13567793369293,-1104.30004882812,7.50000047683716,-863.700012207031,2.29882050621637,-0.0771840519515758,0.0814189307744455,ST
17.1666666666667,-0.430662930011749,-0.556272983551025,9.46800518035889,1.41769194602966,-1.08994603157043,1.77592599391937,-1111.5,3.30000019073486,-863.700012207031,2.28064528657282,-0.0436933835110851,0.0561012706222104,ST
17.2,-0.202770471572876,-0.317015767097473,9.13005447387695,2.03507399559021,-0.449698001146317,1.95123195648193,-1118.70007324219,4.5,-861.300048828125,2.26179444874598,-0.0215418102377495,0.031112688744622,ST
17.2333333333333,-0.227294325828552,-0.426475942134857,9.50628662109375,1.6920839548111,0.236281991004944,1.44817996025085,-1111.5,2.10000014305115,-868.500061035156,2.2499688423097,-0.0243916407901149,0.0417918299480128,ST
17.2666666666667,-0.574815392494202,-0.0693845823407173,10.1403179168701,1.21189796924591,-0.708845973014832,0.457319974899292,-1118.70007324219,-1.5,-875.700012207031,2.24498715372239,-0.05531518303239,0.0047742939542211,ST
17.3,-0.51739364862442,-0.0305052921175957,9.99796009063721,0.899396002292633,-0.617381989955902,0.426831990480423,-1125.90002441406,2.70000004768372,-858.900024414062,2.24151770678307,-0.0506387371996364,0.0014516215686201,ST
17.3333333333333,-0.541917502880096,-0.0669920146465302,10.1977396011353,0.647870004177094,-0.0228659994900227,0.632625997066498,-1123.5,0.900000035762787,-858.900024414062,2.23655572965407,-0.0530499106163036,0.0053701915659456,ST
17.3666666666667,0.0346922911703587,0.0693845823407173,9.31488037109375,0.899396002292633,-1.82165801525116,0.457319974899292,-1109.10009765625,0.900000035762787,-858.900024414062,2.23240891983116,0.0067629703779174,-0.0089785167800418,ST
17.4,0.718369722366333,-0.250023752450943,9.69290637969971,0.403965979814529,-1.34147191047668,0.175305992364883,-1123.5,8.70000076293945,-858.900024414062,2.22899578940031,0.0761497020860882,0.0250440670725215,ST
