seconds,sensor_accX_m_s_,sensor_accY_m_s_,sensor_accZ_m_s_,sensor_gyroX___s_,sensor_gyroY___s_,sensor_gyroZ___s_,sensor_magX__T_,sensor_magY__T_,sensor_magZ__T_,sensor_yaw___,sensor_pitch___,sensor_roll___,label2
0.0,1.04854464530945,-1.16458439826965,9.68453311920166,0.106707997620106,-0.602137982845306,0.320124000310898,-1197.90002441406,10.5,-866.100036621094,-0.395694523172363,0.108025897930011,0.119544533666592,ST
0.0333333333333333,1.03179657459259,-1.1316864490509,9.63010215759277,0.198172003030777,-0.6250039935112,0.25152599811554,-1183.5,15.3000001907349,-858.900024414062,-0.397366494599532,0.107061769155319,0.116745660970792,ST
0.0666666666666667,1.02222633361816,-1.11194777488708,9.59421348571777,0.259148001670837,-0.442075997591019,0.205793991684914,-1193.10009765625,12.9000005722046,-854.100036621094,-0.39894886075449,0.106180640805477,0.114998562464972,ST
0.1,0.967197179794312,-1.07426476478577,9.60497951507568,0.236281991004944,-0.304879993200302,0.228659987449646,-1185.90002441406,15.9000005722046,-858.900024414062,-0.400278878171718,0.100306113506782,0.111068886329932,ST
0.133333333333333,0.948056638240814,-1.05572235584259,9.50808048248291,0.25152599811554,-0.152439996600151,0.442075997591019,-1185.90002441406,17.7000007629395,-849.300048828125,-0.403204363021663,0.0989741490947559,0.110231160917116,ST
0.166666666666667,0.959421336650848,-1.06947958469391,9.68931770324707,-0.0228659994900227,-0.434453994035721,0.670735955238342,-1193.10009765625,9.30000019073486,-870.900024414062,-0.407643745701795,0.0987326437496204,0.110097170456074,ST
0.2,1.02222633361816,-1.10237753391266,9.48415470123291,0.0533539988100529,-0.594515979290009,0.975615978240967,-1190.70007324219,17.7000007629395,-858.900024414062,-0.414192482774466,0.10733051088915,0.11571107705729,ST
0.233333333333333,1.09998488426208,-1.17236018180847,9.5326042175293,-0.167683988809586,-0.495429992675781,1.05183601379395,-1188.30004882812,18.9000015258789,-858.900024414062,-0.421180575648933,0.114532579201532,0.122752459403688,ST
0.266666666666667,1.05632042884827,-1.15920102596283,9.60258769989014,-0.236281991004944,-0.25152599811554,1.05945801734924,-1190.70007324219,9.90000057220459,-854.100036621094,-0.427005779665645,0.109093544395925,0.12079244125162,ST
0.3,1.07486295700073,-1.23935222625732,9.62591457366943,-0.0990860015153885,-0.144817993044853,1.11281192302704,-1188.30004882812,8.70000076293945,-851.700012207031,-0.434188427825453,0.110280839309128,0.12829744477225,ST
0.333333333333333,1.06290006637573,-1.23396897315979,9.56669902801514,-0.0381099991500378,-0.121951997280121,1.03659200668335,-1193.10009765625,16.5,-839.700012207031,-0.440345904077142,0.109736402615534,0.128540984992598,ST
0.366666666666667,1.03538548946381,-1.25550210475922,9.57148361206055,0.0457319989800453,-0.152439996600151,0.907018005847931,-1197.90002441406,18.9000015258789,-861.300048828125,-0.446329408698281,0.106937335524365,0.130496257147964,ST
0.4,1.05452609062195,-1.25131511688232,9.60497951507568,0.114329993724823,-0.243903994560242,0.78506600856781,-1202.70007324219,12.3000001907349,-858.900024414062,-0.451360846500952,0.108667342896322,0.129514171952458,ST
0.433333333333333,1.04854464530945,-1.2238005399704,9.57088565826416,0.228659987449646,-0.327746003866196,0.67835795879364,-1195.5,12.9000005722046,-849.300048828125,-0.455573208791016,0.108663521918686,0.126948858024752,ST
0.466666666666667,1.02342259883881,-1.21423017978668,9.56430625915527,0.25152599811554,-0.403965979814529,0.670735955238342,-1195.5,17.1000003814697,-863.700012207031,-0.459726822485655,0.106351522519788,0.125991224814421,ST
0.5,1.05452609062195,-1.18551933765411,9.58583927154541,0.213415995240211,-0.304879993200302,0.594515979290009,-1190.70007324219,8.10000038146973,-849.300048828125,-0.463115905371249,0.109096036936645,0.122854748851677,ST
0.533333333333333,1.04076874256134,-1.17834162712097,9.74315071105957,0.243903994560242,-0.175305992364883,0.541162014007568,-1195.5,16.5,-846.900024414062,-0.466266646573425,0.105894423553789,0.12007826813991,ST
0.566666666666667,0.946860313415527,-1.1095552444458,9.57925987243652,0.388722002506256,-0.167683988809586,0.571649968624115,-1193.10009765625,13.5000009536743,-858.900024414062,-0.46964454144235,0.0981413000550404,0.114799386965502,ST
0.6,1.05273163318634,-1.13587355613708,9.50987529754639,0.160062000155449,-0.175305992364883,0.602137982845306,-1193.10009765625,7.50000047683716,-861.300048828125,-0.473905848949183,0.109502526683109,0.118664203289043,ST
0.633333333333333,0.984543323516846,-1.09519982337952,9.49492168426514,0.0533539988100529,-0.221037998795509,0.685979962348938,-1185.90002441406,19.5,-854.100036621094,-0.47796092586422,0.102968539176198,0.114916737992315,ST
0.666666666666667,0.974973022937775,-1.14604198932648,9.4847526550293,-0.0457319989800453,-0.167683988809586,0.830797970294952,-1193.10009765625,17.1000003814697,-866.100036621094,-0.483773622618275,0.101829395224839,0.120413439450377,ST
0.7,1.00368392467499,-1.23396897315979,9.4907341003418,-0.137196004390717,-0.182927995920181,0.937505960464478,-1197.90002441406,18.3000011444092,-856.500061035156,-0.490586423465831,0.104563366784197,0.129599614610666,ST
0.733333333333333,0.966000914573669,-1.27882969379425,9.60976505279541,-0.0457319989800453,-0.0609759986400604,0.990859985351562,-1193.10009765625,11.1000003814697,-858.900024414062,-0.496529076309938,0.0992917921316644,0.132497490515948,ST
0.766666666666667,0.943271458148956,-1.28361487388611,9.67496299743652,-0.0152439996600151,-0.121951997280121,0.92988395690918,-1197.90002441406,15.9000005722046,-851.700012207031,-0.50234479481583,0.09638111358592,0.132093322632394,ST
0.8,0.910971760749817,-1.29737210273743,9.6522331237793,0.0990860015153885,-0.25152599811554,0.899396002292633,-1183.5,15.9000005722046,-849.300048828125,-0.507840416579664,0.0935456783442143,0.133562329265763,ST
0.833333333333333,0.904990315437317,-1.25131511688232,9.50628662109375,0.152439996600151,-0.205793991684914,0.884151995182037,-1197.90002441406,16.5,-849.300048828125,-0.512845563336361,0.0942477053667449,0.130811863336995,ST
0.866666666666667,0.923532724380493,-1.21064138412476,9.50688457489014,0.175305992364883,-0.106707997620106,0.899396002292633,-1188.30004882812,9.90000057220459,-844.500061035156,-0.518051236418202,0.0960306656269359,0.126566046765007,ST
0.9,1.01145970821381,-1.31711077690125,9.55593204498291,0.282013982534409,-0.0304879993200302,0.853663980960846,-1190.70007324219,19.5,-854.100036621094,-0.524384584083779,0.104212263400591,0.13649534295033,ST
0.933333333333333,0.871494293212891,-1.30096101760864,9.83825588226318,0.297257989645004,0.221037998795509,0.617381989955902,-1190.70007324219,23.7000007629395,-842.100036621094,-0.527372220302985,0.0873818317470636,0.131142790502125,ST
0.966666666666667,0.826035439968109,-1.3320643901825,9.73358058929443,0.46494197845459,0.381099998950958,0.525918006896973,-1185.90002441406,12.3000001907349,-844.500061035156,-0.530641363412724,0.0831790073425272,0.1351895067034,ST
1.0,0.57361912727356,-1.19508969783783,9.93276214599609,0.655492007732391,0.182927995920181,0.411587983369827,-1197.90002441406,12.3000001907349,-851.700012207031,-0.53196283412248,0.0573507122985955,0.118939367433003,ST
1.03333333333333,0.644798099994659,-1.04076874256134,9.45424747467041,0.92988395690918,-0.0152439996600151,0.716467976570129,-1195.5,16.5,-854.100036621094,-0.536282047392697,0.0674790094875087,0.108210812545537,ST
1.06666666666667,0.729734420776367,-1.02282452583313,9.41656494140625,0.495429992675781,-0.0381099991500378,0.602137982845306,-1197.90002441406,14.1000003814697,-868.500061035156,-0.540232645724385,0.0767351695510256,0.107420494951982,ST
1.1,0.314623206853867,-1.23935222625732,9.58942794799805,0.655492007732391,-0.0533539988100529,0.87652999162674,-1185.90002441406,14.7000007629395,-863.700012207031,-0.551861697227083,0.032425909709956,0.127434313206809,ST
1.13333333333333,0.171068891882896,-1.4301598072052,9.69111251831055,0.708845973014832,-0.121951997280121,1.21951997280121,-1200.30004882812,15.3000001907349,-851.700012207031,-0.559440766960908,0.0176414376602643,0.144993155607142,ST
1.16666666666667,0.0634031519293785,-1.51748871803284,9.69350528717041,0.655492007732391,-0.579271972179413,1.33385002613068,-1188.30004882812,12.3000001907349,-856.500061035156,-0.567687810223591,0.0072975031571383,0.153994788517476,ST
1.2,-0.55866551399231,-1.38589727878571,9.91780853271484,1.01372599601746,-1.08232402801514,1.58537602424622,-1181.10009765625,15.9000005722046,-856.500061035156,-0.577775881167112,-0.0531168131211658,0.137233243918992,ST
1.23333333333333,-0.65436840057373,-1.23277270793915,9.77365589141846,1.37195992469788,-1.85976791381836,2.04269599914551,-1190.70007324219,14.1000003814697,-839.700012207031,-0.591123948302025,-0.0633581429191654,0.123090155025291,ST
1.26666666666667,-0.288304924964905,-1.10716259479523,9.71862697601318,1.47866797447205,-3.3460578918457,2.40092992782593,-1193.10009765625,17.7000007629395,-846.900024414062,-0.607280188246163,-0.024845036368491,0.110946353989066,ST
1.3,0.229088753461838,-0.668125689029694,9.76468372344971,1.82165801525116,-6.10522174835205,2.63721203804016,-1202.70007324219,12.9000005722046,-844.500061035156,-0.625183809076738,0.0326473701960412,0.0661253169710126,ST
1.33333333333333,0.727940022945404,-0.547300815582275,8.68742847442627,1.75305998325348,-7.22565603256226,2.88111591339111,-1202.70007324219,14.1000003814697,-854.100036621094,-0.644682706587204,0.0945631672363305,0.0604896412313723,ST
1.36666666666667,1.4080286026001,-0.765622973442078,8.1305570602417,0.411587983369827,-5.9375376701355,2.26373386383057,-1217.10009765625,15.9000005722046,-842.100036621094,-0.666734517153366,0.179695567330536,0.0936493808348255,ST
1.4,1.62156558036804,-0.895420014858246,9.03614616394043,-0.297257989645004,-4.77137184143066,1.2347639799118,-1231.5,12.3000001907349,-825.300048828125,-0.677125293592585,0.184695773766337,0.0997296683121126,ST
1.43333333333333,2.19458651542664,-1.48040390014648,9.31787109375,-0.663114011287689,-5.09149599075317,-0.0685980021953583,-1238.70007324219,17.7000007629395,-844.500061035156,-0.692099553364011,0.236385678521977,0.15792581157035,ST
1.46666666666667,1.77110135555267,-1.47262799739838,9.99257659912109,-1.08232402801514,-5.7698540687561,-1.80641400814056,-1245.90002441406,14.7000007629395,-837.300048828125,-0.683615477469704,0.184964393560622,0.14807324540165,ST
1.5,1.64489316940308,-1.41281366348267,9.45125675201416,0.152439996600151,-4.96954393386841,-2.01982998847961,-1250.70007324219,12.3000001907349,-827.700012207031,-0.676538151911801,0.179653450868517,0.147724857172671,ST
1.53333333333333,1.71906292438507,-1.17953789234161,9.09895133972168,0.670735955238342,-4.42838191986084,-2.27897787094116,-1238.70007324219,18.9000015258789,-825.300048828125,-0.664075220161276,0.193140758548561,0.127545242904665,ST
1.56666666666667,1.45647811889648,-0.83261501789093,9.186279296875,1.22714197635651,-4.39027214050293,-2.41617393493652,-1248.30004882812,13.5000009536743,-827.700012207031,-0.647141277392599,0.165143149695381,0.0883805926580766,ST
1.6,1.5061240196228,-0.875681281089783,8.48406028747559,1.08994603157043,-4.00917196273804,-1.95123195648193,-1265.10009765625,10.5,-803.700012207031,-0.641481035214607,0.181777395220975,0.10023906508478,ST
1.63333333333333,1.35060679912567,-0.986337780952454,8.66768932342529,0.967993974685669,-3.55185198783875,-1.81403601169586,-1272.30004882812,9.30000019073486,-813.300048828125,-0.635959648915689,0.160452940162632,0.111048197548367,ST
1.66666666666667,1.62395811080933,-1.18252861499786,8.79868316650391,0.800309956073761,-2.75916385650635,-1.80641400814056,-1269.90002441406,7.50000047683716,-796.500061035156,-0.631866446345183,0.185706767187027,0.131411250070247,ST
1.7,2.19937181472778,-1.3841028213501,8.62282943725586,0.708845973014832,-2.36281991004944,-2.02745199203491,-1265.10009765625,15.9000005722046,-806.100036621094,-0.629018889598176,0.250135560971534,0.156726211879203,ST
1.73333333333333,3.28619742393494,-1.7184647321701,8.94044303894043,0.0838419944047928,-1.6615959405899,-2.67532205581665,-1277.10009765625,8.70000076293945,-798.900024414062,-0.625554079710711,0.348291163161392,0.187708109165203,ST
1.76666666666667,5.04294347763062,-1.34043836593628,9.61754035949707,-0.342989981174469,-2.88111591339111,-2.33233189582825,-1281.90002441406,3.90000009536743,-796.500061035156,-0.595080212222752,0.482052047611635,0.13834140747843,ST
1.8,5.87555837631226,-0.189013183116913,9.73956203460693,1.55488801002502,-2.24086785316467,-0.952749967575073,-1286.70007324219,6.30000019073486,-796.500061035156,-0.53625041980201,0.545552642888617,0.0180475752454638,ST
1.83333333333333,6.91214036941528,0.179442897439003,9.62292385101318,1.74543797969818,-0.708845973014832,-0.205793991684914,-1272.30004882812,9.90000057220459,-806.100036621094,-0.519283825065718,0.622614974778457,-0.0212067467107074,ST
1.86666666666667,7.18309879302979,0.711790144443512,9.3836669921875,1.27287399768829,-0.266770005226135,0.160062000155449,-1272.30004882812,7.50000047683716,-786.900024414062,-0.491396343255286,0.651981809963516,-0.0768406102358583,ST
1.9,7.07064819335938,0.935495615005493,9.54636192321777,1.12805593013763,-0.266770005226135,0.853663980960846,-1284.30004882812,5.70000028610229,-786.900024414062,-0.486466937441674,0.63607788118488,-0.098251123078008,ST
1.93333333333333,7.65383768081665,0.982150733470917,8.60309028625488,0.739333987236023,-0.640248000621796,1.05183601379395,-1281.90002441406,11.1000003814697,-803.700012207031,-0.484700206813917,0.724140229013867,-0.113282399374995,ST
1.96666666666667,7.10175132751465,0.716575264930725,8.01511573791504,-0.259148001670837,0.746955990791321,-0.198172003030777,-1281.90002441406,7.50000047683716,-798.900024414062,-0.499000076070245,0.721792360533759,-0.0893579995198098,ST
2.0,5.01303625106812,0.797922730445862,9.83227443695068,0.114329993724823,2.79727387428284,-1.27287399768829,-1277.10009765625,3.30000019073486,-798.900024414062,-0.498288520714832,0.469765688165704,-0.0822568292582754,ST
2.03333333333333,2.92731165885925,1.01744115352631,10.1211776733398,-0.342989981174469,2.4847719669342,-1.34909391403198,-1291.5,9.30000019073486,-798.900024414062,-0.485109699477461,0.279182580101651,-0.0998668542817425,ST
2.06666666666667,3.5673246383667,0.290697485208511,9.54217529296875,-1.59299790859222,1.28811800479889,0.0457319989800453,-1279.5,5.10000038146973,-825.300048828125,-0.504792400913138,0.353981141665323,-0.0289727207264327,ST
2.1,3.85921835899353,-0.530552804470062,9.28437519073486,-2.25611186027527,0.937505960464478,-0.358233988285065,-1272.30004882812,4.5,-810.900024414062,-0.529669335367316,0.391267547693629,0.0594989257954149,ST
2.13333333333333,4.06856870651245,-1.37632691860199,10.1253643035889,-1.99696397781372,0.0457319989800453,-0.487807989120483,-1272.30004882812,4.5,-806.100036621094,-0.551538810033926,0.37912873623554,0.13718767651902,ST
2.16666666666667,3.87895727157593,-1.08204066753387,9.16355037689209,-0.0838419944047928,0.0228659994900227,-0.0228659994900227,-1267.5,-0.300000011920929,-803.700012207031,-0.543905768627612,0.397665921973319,0.117929437583306,ST
2.2,2.89979720115662,-0.590965270996094,8.25317668914795,0.335367977619171,2.67532205581665,0.777444005012512,-1265.10009765625,8.70000076293945,-808.500061035156,-0.531377914286537,0.333081706879038,0.0717765537216752,ST
2.23333333333333,2.82921624183655,-1.30096101760864,8.72152233123779,-1.43293595314026,2.77440786361694,0.815553963184357,-1267.5,5.70000028610229,-810.900024414062,-0.555841186259069,0.305798298753141,0.149890141927884,ST
2.26666666666667,3.10077309608459,-1.70291304588318,8.512770652771,-1.6692179441452,2.20275783538818,0.586893975734711,-1253.10009765625,6.90000009536743,-820.500061035156,-0.569310381904933,0.338634910415971,0.199748705132186,ST
2.3,2.59055709838867,-0.62147057056427,9.2640380859375,0.0228659994900227,3.26983785629272,0.739333987236023,-1236.30004882812,3.90000009536743,-818.100036621094,-0.532532357177365,0.267473170386653,0.0692229820338945,ST
2.33333333333333,2.7682056427002,0.55866551399231,8.51994895935059,1.37958192825317,3.15550804138184,1.50153398513794,-1245.90002441406,4.5,-830.100036621094,-0.505622722532338,0.30746681085494,-0.0644283840217059,ST
2.36666666666667,2.4978449344635,0.792539417743683,10.058970451355,0.708845973014832,2.72105383872986,1.84452390670776,-1253.10009765625,15.3000001907349,-820.500061035156,-0.51418164323441,0.239451974189005,-0.0787142078471909,ST
2.4,2.10785579681396,1.01684308052063,7.37570095062256,0.564027965068817,2.05031800270081,1.92836594581604,-1245.90002441406,11.7000007629395,-827.700012207031,-0.51401599300114,0.272464758011455,-0.136341462115533,ST
2.43333333333333,-0.455784946680069,-0.730930685997009,11.6219177246094,-0.807931959629059,6.24241781234741,2.29422187805176,-1238.70007324219,6.90000009536743,-839.700012207031,-0.550593486290277,-0.0464238574134798,0.061807432832846,ST
2.46666666666667,0.51739364862442,-2.12460374832153,10.3562469482422,-2.00458598136902,5.07625198364258,1.43293595314026,-1226.70007324219,6.90000009536743,-842.100036621094,-0.553251791301974,0.0381477697329163,0.203219186223677,ST
2.5,-0.0400755777955055,-2.18023109436035,10.8897905349731,-2.67532205581665,3.19361782073975,-1.00610399246216,-1231.5,11.7000007629395,-837.300048828125,-0.543780235536159,-0.0078618092887919,0.202297079815687,ST
2.53333333333333,0.480906963348389,-2.29028940200806,9.07861423492432,-0.807931959629059,2.11129403114319,-0.442075997591019,-1229.10009765625,6.30000019073486,-849.300048828125,-0.539219827949504,0.0469113854259756,0.247610949851794,ST
2.56666666666667,0.507823407649994,-1.82194352149963,9.31488037109375,-0.853663980960846,1.41006994247437,-0.564027965068817,-1214.70007324219,11.1000003814697,-842.100036621094,-0.531552314121495,0.0511575641072975,0.195538870510693,ST
2.6,0.293688207864761,-0.833213150501251,9.58942794799805,0.3125019967556,1.47866797447205,-0.274392008781433,-1217.10009765625,18.3000011444092,-851.700012207031,-0.524761117489734,0.0284051847388708,0.0880971081990891,ST
2.63333333333333,0.790146887302399,-0.546104550361633,8.86089038848877,1.14329993724823,2.24086785316467,0.304879993200302,-1205.10009765625,9.90000057220459,-830.100036621094,-0.524510067762626,0.083804113440867,0.060102506340251,ST
2.66666666666667,0.41451308131218,-0.498253107070923,8.7340841293335,-0.0914639979600906,2.21800184249878,-0.228659987449646,-1207.5,11.1000003814697,-854.100036621094,-0.522241074076149,0.0442393273475092,0.0571702030470118,ST
2.7,-0.154320880770683,-0.893625617027283,9.54097843170166,-0.945127964019775,2.28659987449646,-0.594515979290009,-1200.30004882812,9.90000057220459,-846.900024414062,-0.517786339081987,-0.0192388814520443,0.0946251429279195,ST
2.73333333333333,-0.224303618073463,-1.16039741039276,9.6641960144043,-0.655492007732391,0.46494197845459,-1.62348592281342,-1197.90002441406,13.5000009536743,-856.500061035156,-0.507732850944489,-0.0234326124339372,0.120235781176236,ST
2.76666666666667,-0.526963949203491,-1.03598368167877,10.3400974273682,-0.0152439996600151,-2.10367202758789,-2.79727387428284,-1202.70007324219,13.5000009536743,-844.500061035156,-0.493694986998463,-0.0460975409922801,0.100452690995123,ST
2.8,-0.219518467783928,-0.823044717311859,9.42733097076416,0.541162014007568,-2.78202986717224,-2.56099200248718,-1205.10009765625,6.30000019073486,-834.900024414062,-0.480822971018871,-0.0184783457774263,0.0864789871851881,ST
2.83333333333333,-0.113049022853374,-0.439635097980499,9.82031154632568,0.175305992364883,-1.2347639799118,-1.97409796714783,-1207.5,11.1000003814697,-846.900024414062,-0.470436684794429,-0.0093522742181025,0.0452304161894038,ST
2.86666666666667,-0.187816888093948,-0.304454773664474,10.4639129638672,-0.0381099991500378,0.510673999786377,-1.2423859834671,-1209.90002441406,5.70000028610229,-846.900024414062,-0.463409062475951,-0.0185929398903777,0.029485811138201,ST
2.9,-0.0281127188354731,-0.497654944658279,9.79399299621582,-1.47866797447205,3.04117798805237,-1.32622802257538,-1190.70007324219,8.10000038146973,-851.700012207031,-0.453718925346667,-0.0081503825062606,0.0531363217037709,ST
2.93333333333333,-0.326586067676544,-0.751267552375793,9.85859203338623,-2.59148001670837,4.94667768478394,-1.70732796192169,-1193.10009765625,14.1000003814697,-854.100036621094,-0.441660284616991,-0.040786694752076,0.0802186143475526,ST
2.96666666666667,-0.339745193719864,-1.40264523029327,10.2276468276978,-3.17075204849243,6.02900171279907,-1.56251001358032,-1190.70007324219,11.7000007629395,-844.500061035156,-0.426694273246478,-0.04291028563345,0.140876490562553,ST
3.0,0.303856641054153,-1.85304689407349,9.71982288360596,-2.62196803092957,6.12808799743652,-0.594515979290009,-1185.90002441406,17.1000003814697,-866.100036621094,-0.416464676360397,0.0192326220255594,0.191965019860104,ST
3.03333333333333,0.565843224525452,-2.06299519538879,9.4967155456543,-1.6920839548111,5.73936605453491,-0.381099998950958,-1178.70007324219,5.70000028610229,-866.100036621094,-0.407883972670803,0.0479803142893063,0.216281789770331,ST
3.06666666666667,0.38939106464386,-2.18441820144653,9.49492168426514,-0.731711983680725,4.80185985565186,-0.411587983369827,-1173.90002441406,6.30000019073486,-858.900024414062,-0.399713606765844,0.0322319594977678,0.227117462184791,ST
3.1,0.450999796390533,-2.21013832092285,8.80645942687988,0.0381099991500378,3.39941191673279,0.175305992364883,-1173.90002441406,9.90000057220459,-868.500061035156,-0.39674258568811,0.0435894597177113,0.245433156014824,ST
3.13333333333333,0.409727931022644,-2.21552157402039,8.29684162139893,0.274392008781433,3.62807202339172,0.617381989955902,-1152.30004882812,16.5,-866.100036621094,-0.395585249212074,0.0413211211454388,0.260166223148809,ST
3.16666666666667,-0.232677608728409,-2.16168880462646,8.95599460601807,0.259148001670837,4.76375007629395,0.937505960464478,-1137.90002441406,10.5,-870.900024414062,-0.394056059355116,-0.0325381420025872,0.236768745114023,ST
3.2,-1.3320643901825,-2.24662494659424,8.78911304473877,1.01372599601746,6.08235597610474,1.63110792636871,-1128.30004882812,14.1000003814697,-878.100036621094,-0.392839326723584,-0.155346976672774,0.248328822794529,ST
3.23333333333333,-1.79203629493713,-2.05880808830261,9.83705902099609,0.92988395690918,6.23479604721069,1.96647596359253,-1130.70007324219,17.7000007629395,-878.100036621094,-0.402485035778589,-0.187220280673797,0.205281342466199,ST
3.26666666666667,-2.08572459220886,-1.60960268974304,10.0266704559326,1.29574000835419,4.03203773498535,1.41006994247437,-1121.10009765625,8.70000076293945,-878.100036621094,-0.414356925593186,-0.209500019275977,0.157524921545389,ST
3.3,-2.07615423202515,-1.21542656421661,9.5146598815918,0.937505960464478,2.44666194915771,0.663114011287689,-1106.70007324219,15.9000005722046,-890.100036621094,-0.421755707360327,-0.217396413372332,0.125872846999793,ST
3.33333333333333,-2.32079482078552,-1.11194777488708,9.0792121887207,0.609759986400604,2.70580983161926,0.663114011287689,-1116.30004882812,11.7000007629395,-882.900024414062,-0.423972688899943,-0.252741301746398,0.120735522956771,ST
3.36666666666667,-2.47332119941711,-1.15860295295715,8.50020980834961,-0.236281991004944,3.04879999160767,-0.533540010452271,-1106.70007324219,12.9000005722046,-880.500061035156,-0.414650916961388,-0.285458834980344,0.136178180318546,ST
3.4,-3.24791622161865,-1.12151801586151,9.15876483917236,-0.647870004177094,3.04879999160767,-0.670735955238342,-1094.70007324219,17.7000007629395,-873.300048828125,-0.413538879601091,-0.342914931371779,0.123768129541194,ST
3.43333333333333,-3.22518682479858,-0.996506214141846,8.91053581237793,-0.213415995240211,1.98934197425842,-0.0609759986400604,-1092.30004882812,3.90000009536743,-885.300048828125,-0.416328854857558,-0.348630966872257,0.112139324056121,ST
3.46666666666667,-3.25808477401733,-1.06708705425262,9.53559494018555,-0.0,-0.121951997280121,0.884151995182037,-1094.70007324219,11.1000003814697,-897.300048828125,-0.421585120506439,-0.327689023283391,0.110933058402453,ST
3.5,-2.85194563865662,-0.913364291191101,9.11749362945557,0.0762199983000755,-2.04269599914551,0.510673999786377,-1101.90002441406,9.30000019073486,-899.700012207031,-0.42890555410497,-0.298815589082397,0.0995359388354151,ST
3.53333333333333,-2.32557988166809,-0.787156164646149,9.70068264007568,0.0304879993200302,-2.04269599914551,0.0,-1111.5,14.7000007629395,-878.100036621094,-0.434666095455073,-0.232231891199197,0.0811794809436291,ST
3.56666666666667,-1.96310520172119,-0.910373628139496,10.0302591323853,0.152439996600151,-2.28659987449646,-0.716467976570129,-1099.5,9.30000019073486,-875.700012207031,-0.429692541810916,-0.189214572446492,0.0902539252615436,ST
3.6,-1.87757074832916,-1.16338813304901,9.67436408996582,0.0076219998300075,-1.99696397781372,-1.29574000835419,-1109.10009765625,13.5000009536743,-882.900024414062,-0.417424748119613,-0.186653409888819,0.119719429402661,ST
3.63333333333333,-2.48468589782715,-1.49236667156219,9.58942794799805,-0.137196004390717,-0.693601965904236,-0.891773998737335,-1104.30004882812,11.7000007629395,-878.100036621094,-0.405754775490269,-0.248067063642707,0.154312123783159,ST
3.66666666666667,-2.89321756362915,-1.36197149753571,9.12287616729736,-0.0533539988100529,1.06708002090454,0.495429992675781,-1104.30004882812,15.9000005722046,-882.900024414062,-0.409325220480173,-0.304856617222325,0.148225634447442,ST
3.7,-3.14264321327209,-1.44152450561523,9.14141941070557,0.0533539988100529,2.15702605247498,1.63110792636871,-1097.10009765625,10.5,-885.300048828125,-0.414183016723042,-0.331106559520769,0.155432412401825,ST
3.73333333333333,-2.9320969581604,-1.25849282741547,8.60787582397461,-0.129574000835419,2.24848985671997,1.95123195648193,-1094.70007324219,14.1000003814697,-875.700012207031,-0.426637079654499,-0.329494814701829,0.144641893662461,ST
3.76666666666667,-2.46733975410461,-1.17714536190033,9.26284217834473,-0.403965979814529,1.72257196903229,1.57013201713562,-1092.30004882812,19.5,-880.500061035156,-0.439859986513234,-0.262906184420005,0.126795481604246,ST
3.8,-1.94994604587555,-1.04734838008881,9.66000938415527,-0.0152439996600151,1.15092194080353,0.716467976570129,-1099.5,10.5,-882.900024414062,-0.447441121944951,-0.201326448544951,0.108153960486812,ST
3.83333333333333,-1.44690787792206,-0.909177303314209,9.33820819854736,0.548784017562866,0.87652999162674,-0.381099998950958,-1087.5,8.70000076293945,-882.900024414062,-0.446158313573858,-0.155098825972099,0.0963855490711099,ST
3.86666666666667,-1.47801125049591,-0.459971934556961,9.2167854309082,0.25152599811554,1.19665396213531,-0.99848198890686,-1094.70007324219,12.3000001907349,-885.300048828125,-0.447033928234439,-0.160704338075301,0.0505751142669433,ST
3.9,-1.43315052986145,-0.262584775686264,9.6103630065918,-0.297257989645004,1.61586391925812,-0.160062000155449,-1092.30004882812,11.7000007629395,-880.500061035156,-0.449524429091088,-0.150972422472048,0.0283023194246886,ST
3.93333333333333,-1.9308055639267,-0.592161536216736,9.66060733795166,-0.701223969459534,2.27897787094116,0.731711983680725,-1082.70007324219,17.7000007629395,-885.300048828125,-0.448136337117828,-0.200278507118091,0.0617758883025095,ST
3.96666666666667,-2.33275747299194,-1.05213344097137,9.63847541809082,-0.92988395690918,2.79727387428284,1.10518991947174,-1068.30004882812,12.3000001907349,-885.300048828125,-0.443673501131104,-0.240424544454672,0.109127398792762,ST
4.0,-2.90577864646912,-1.0335910320282,9.08100700378418,-0.472563982009888,2.82776188850403,0.922261953353882,-1063.5,9.30000019073486,-880.500061035156,-0.446500659229364,-0.311585680850636,0.113739488340846,ST
4.03333333333333,-3.43034982681274,-1.31471824645996,8.74425220489502,0.243903994560242,2.30946588516235,0.891773998737335,-1073.10009765625,12.9000005722046,-882.900024414062,-0.437670628364837,-0.373295397380263,0.147884936765327,ST
4.06666666666667,-3.87357378005981,-1.287801861763,8.1185941696167,0.480185985565186,1.34147191047668,0.121951997280121,-1068.30004882812,14.7000007629395,-880.500061035156,-0.432490666873419,-0.442028839614697,0.156459782231898,ST
4.1,-3.38309669494629,-2.14135193824768,8.58095932006836,-0.449698001146317,-0.0381099991500378,-0.792688012123108,-1063.5,15.3000001907349,-887.700012207031,-0.394777271292963,-0.366385852144181,0.244273996936346,ST
4.13333333333333,-3.90288281440735,-2.167072057724,8.77475738525391,-0.495429992675781,-1.55488801002502,-2.19513607025146,-1061.10009765625,17.1000003814697,-878.100036621094,-0.386035220436763,-0.403558636224297,0.244292355075842,ST
4.16666666666667,-4.43523025512695,-1.96848857402802,9.15637302398682,0.967993974685669,-1.2500079870224,-1.81403601169586,-1063.5,11.7000007629395,-878.100036621094,-0.388566787567072,-0.438994301432476,0.211757168938427,ST
4.2,-3.80000233650208,-2.2310733795166,8.72152233123779,1.44055795669556,-0.609759986400604,-1.95885396003723,-1065.90002441406,15.3000001907349,-887.700012207031,-0.360572019970909,-0.398208734879545,0.248643319230706,ST
4.23333333333333,-3.74437499046326,-2.1832218170166,8.97573375701904,1.82165801525116,-0.0228659994900227,-2.78965187072754,-1068.30004882812,6.30000019073486,-894.900024414062,-0.346413996621307,-0.384180755789595,0.237541337054612,ST
4.26666666666667,-3.56852102279663,-2.17424964904785,8.76937389373779,2.00458598136902,-0.564027965068817,-3.16313004493713,-1051.5,11.7000007629395,-887.700012207031,-0.324359163976084,-0.374050375436554,0.241488333661398,ST
4.3,-3.07206225395203,-2.39855337142944,9.28497314453125,1.06708002090454,-1.98934197425842,-3.37654590606689,-1058.70007324219,11.1000003814697,-873.300048828125,-0.303582242504692,-0.306440189849635,0.252295006559464,ST
4.33333333333333,-2.37642192840576,-2.1533145904541,9.49492168426514,1.06708002090454,-3.97106194496155,-2.98020195960999,-1063.5,8.70000076293945,-885.300048828125,-0.298476663270934,-0.23266359134671,0.22247080797503,ST
4.36666666666667,-1.78186786174774,-2.06897664070129,8.78612232208252,1.6615959405899,-3.30794787406921,-1.65397393703461,-1075.5,6.90000009536743,-882.900024414062,-0.290385117759274,-0.189425454552079,0.228548138147116,ST
4.4,-1.24294114112854,-1.85843026638031,9.24250507354736,1.71494996547699,-1.31860601902008,0.0838419944047928,-1089.90002441406,5.70000028610229,-882.900024414062,-0.296120854012136,-0.129961591883386,0.195956005463669,ST
4.43333333333333,-1.07665729522705,-1.78784930706024,9.25387001037598,1.75305998325348,-0.403965979814529,1.43293595314026,-1065.90002441406,8.10000038146973,-882.900024414062,-0.304872276657091,-0.113737872691878,0.187605416128071,ST
4.46666666666667,-1.42657101154327,-1.6203693151474,9.44647216796875,1.69970595836639,0.205793991684914,2.62196803092957,-1073.10009765625,8.10000038146973,-878.100036621094,-0.32119456068899,-0.148324875855476,0.166590940960684,ST
4.5,-1.94635725021362,-1.53543305397034,9.80356311798096,1.34909391403198,-0.0533539988100529,3.65093803405762,-1077.90002441406,15.9000005722046,-878.100036621094,-0.342744678891307,-0.193720874710887,0.15205330809233,ST
4.53333333333333,-2.14613699913025,-1.23695969581604,8.77655220031738,0.846041977405548,-0.830797970294952,3.81862187385559,-1094.70007324219,5.10000038146973,-878.100036621094,-0.368612877839962,-0.236544332530749,0.137088794701492,ST
4.56666666666667,-2.06239700317383,-1.27344644069672,7.79200839996338,-0.716467976570129,-0.0533539988100529,3.18599581718445,-1073.10009765625,6.30000019073486,-890.100036621094,-0.381873075679833,-0.255991701271042,0.161423376236592,ST
4.6,-2.36386108398438,-1.39666378498077,8.49422836303711,-1.44817996025085,0.777444005012512,2.08842802047729,-1080.30004882812,8.70000076293945,-887.700012207031,-0.394397313244776,-0.269713450817521,0.164514484707721,ST
4.63333333333333,-2.79751467704773,-1.35180306434631,8.47927474975586,-0.541162014007568,0.327746003866196,0.884151995182037,-1070.70007324219,10.5,-885.300048828125,-0.402189919781146,-0.315318046607696,0.158633531043062,ST
4.66666666666667,-3.20245742797852,-1.29198884963989,9.04571628570557,-0.0152439996600151,0.106707997620106,0.830797970294952,-1073.10009765625,14.1000003814697,-890.100036621094,-0.412028527364194,-0.33708337023257,0.141720628177171,ST
4.7,-3.16716694831848,-1.11852741241455,8.89917087554932,0.320124000310898,-0.602137982845306,0.708845973014832,-1082.70007324219,8.70000076293945,-870.900024414062,-0.421425073672594,-0.338534041126555,0.124319605502738,ST
4.73333333333333,-3.34122657775879,-1.24952065944672,9.00324821472168,-0.0762199983000755,-0.967993974685669,0.868907988071442,-1075.5,4.5,-890.100036621094,-0.423228799322146,-0.350671230782893,0.137274454079335,ST
4.76666666666667,-3.49674391746521,-1.18133234977722,10.0775127410889,-0.228659987449646,-0.99848198890686,1.41006994247437,-1073.10009765625,9.90000057220459,-878.100036621094,-0.438859918036845,-0.33080668750693,0.116560501450329,ST
4.8,-3.41300368309021,-0.913364291191101,10.0517930984497,0.724089980125427,-2.38568592071533,2.01982998847961,-1087.5,9.90000057220459,-894.900024414062,-0.458738014295664,-0.322406414415958,0.088571066492146,ST
4.83333333333333,-3.53741765022278,-0.685471832752228,10.7617883682251,1.30336201190948,-2.9192259311676,2.45428395271301,-1097.10009765625,5.70000028610229,-882.900024414062,-0.47971152591269,-0.312345327387073,0.0603690528445271,ST
4.86666666666667,-2.66532516479492,-0.589768946170807,10.3831634521484,1.36433792114258,-3.61282801628113,1.94360995292664,-1104.30004882812,11.7000007629395,-882.900024414062,-0.491444414643641,-0.246001587725167,0.0535319679571189,ST
4.9,-1.12271440029144,-0.432457357645035,9.48714542388916,0.0914639979600906,-3.49849796295166,0.0914639979600906,-1104.30004882812,15.3000001907349,-873.300048828125,-0.494367194722715,-0.113387412806487,0.0454493256566995,ST
4.93333333333333,-0.342137783765793,-0.313426911830902,9.59421348571777,-1.03659200668335,-1.75305998325348,-0.396344006061554,-1106.70007324219,13.5000009536743,-887.700012207031,-0.493445785709546,-0.0334767312593723,0.034613407355135,ST
4.96666666666667,0.464158952236176,-0.433055520057678,9.52482891082764,-1.10518991947174,-0.983237981796265,0.137196004390717,-1104.30004882812,15.9000005722046,-880.500061035156,-0.494488114880329,0.0493783908676503,0.0472308975356908,ST
5.0,1.27404451370239,-0.601133704185486,9.0493049621582,-1.2347639799118,-0.419209986925125,0.693601965904236,-1111.5,12.9000005722046,-880.500061035156,-0.499976222685991,0.138989156627102,0.06836582697437,ST
5.03333333333333,0.453392386436462,-0.586180090904236,9.00623893737793,-1.07470202445984,0.564027965068817,1.09756803512573,-1099.5,9.90000057220459,-868.500061035156,-0.505451153164497,0.0507229388287219,0.0669976979267752,ST
5.06666666666667,-0.814670741558075,-0.647190690040588,9.50150108337402,-0.746955990791321,1.97409796714783,1.83690190315247,-1094.70007324219,9.90000057220459,-897.300048828125,-0.515384837423334,-0.0864373394998054,0.0690437241295023,ST
5.1,-1.82792496681213,-0.753660142421722,9.35914325714111,-0.289635986089706,3.23934984207153,1.86738991737366,-1106.70007324219,15.9000005722046,-897.300048828125,-0.524095286232229,-0.196875072155995,0.0801830989726014,ST
5.13333333333333,-2.2131290435791,-0.973178625106812,9.07203483581543,-0.609759986400604,3.49849796295166,1.07470202445984,-1097.10009765625,11.1000003814697,-882.900024414062,-0.523316876586579,-0.243595170145167,0.107255714323813,ST
5.16666666666667,-3.05531430244446,-1.24054849147797,9.34239482879639,-0.617381989955902,3.70429182052612,-0.0381099991500378,-1087.5,15.3000001907349,-899.700012207031,-0.514405526403151,-0.318701343369718,0.132973285093055,ST
5.2,-3.07505297660828,-1.62395811080933,8.90275955200195,-0.701223969459534,3.30794787406921,-0.541162014007568,-1097.10009765625,12.3000001907349,-890.100036621094,-0.493741032858888,-0.332906117320851,0.181757209297443,ST
5.23333333333333,-3.84486293792725,-1.8907299041748,10.1145973205566,-0.480185985565186,2.00458598136902,-0.701223969459534,-1092.30004882812,11.1000003814697,-885.300048828125,-0.487453348472022,-0.36029660182623,0.186245229039852,ST
5.26666666666667,-3.5332305431366,-2.05282664299011,9.40041446685791,0.282013982534409,0.83841997385025,-0.304879993200302,-1068.30004882812,16.5,-882.900024414062,-0.474198708067771,-0.35332006551381,0.214487377240778,ST
5.3,-3.15460610389709,-2.27772831916809,9.11390399932861,0.137196004390717,0.396344006061554,-0.137196004390717,-1073.10009765625,14.1000003814697,-897.300048828125,-0.462801568172536,-0.325111818181882,0.244251013745253,ST
5.33333333333333,-2.84476804733276,-2.52655601501465,9.10672664642334,0.0685980021953583,0.556405961513519,-0.350611984729767,-1070.70007324219,12.9000005722046,-885.300048828125,-0.452092518731503,-0.293741690668914,0.270292388291376,ST
5.36666666666667,-2.49186372756958,-2.71138215065002,9.42972373962402,-0.228659987449646,0.190549999475479,-0.92988395690918,-1063.5,7.50000047683716,-885.300048828125,-0.444391490473812,-0.249401486624305,0.280617675328323,ST
5.4,-2.28610253334045,-2.68326926231384,8.85311412811279,0.342989981174469,-0.655492007732391,-1.2576299905777,-1080.30004882812,11.1000003814697,-885.300048828125,-0.434429903425674,-0.240642916092481,0.293967881324867,ST
5.43333333333333,-2.41948843002319,-2.54868721961975,9.19943904876709,0.556405961513519,-0.541162014007568,-0.685979962348938,-1080.30004882812,14.1000003814697,-887.700012207031,-0.436390242788689,-0.246913926853143,0.269854487425676,ST
5.46666666666667,-2.56005191802979,-1.99600315093994,9.31428241729736,1.20427596569061,-1.08232402801514,0.571649968624115,-1082.70007324219,13.5000009536743,-882.900024414062,-0.454185156531773,-0.260663025808088,0.209754698036736,ST
5.5,-2.44520854949951,-1.47023546695709,8.35545921325684,1.89025592803955,-1.58537602424622,1.50153398513794,-1085.10009765625,12.9000005722046,-880.500061035156,-0.471870937743648,-0.278102777477086,0.170544686507526,ST
5.53333333333333,-2.75444841384888,-1.16458439826965,8.10304260253906,1.59299790859222,-0.87652999162674,1.87501192092896,-1087.5,20.7000007629395,-887.700012207031,-0.489164731380074,-0.32269007215505,0.139402127405042,ST
5.56666666666667,-2.8722825050354,-1.20944511890411,8.73707485198975,0.868907988071442,-0.304879993200302,1.46342396736145,-1087.5,18.3000011444092,-868.500061035156,-0.497062413462754,-0.314777219850232,0.135264280873826,ST
5.6,-2.38120722770691,-1.43374872207642,9.24250507354736,0.350611984729767,-1.49391198158264,0.259148001670837,-1085.10009765625,9.90000057220459,-880.500061035156,-0.494483278659861,-0.247570036116982,0.152870593206689,ST
5.63333333333333,-2.82861804962158,-1.20107114315033,9.61574649810791,0.716467976570129,-2.55336999893188,-0.655492007732391,-1077.90002441406,4.5,-890.100036621094,-0.49922583645368,-0.278861798160927,0.123724262509768,ST
5.66666666666667,-3.18989658355713,-0.542515695095062,9.51944541931152,1.56251001358032,-1.82165801525116,0.0381099991500378,-1085.10009765625,9.90000057220459,-882.900024414062,-0.51758278153684,-0.318939468165631,0.0554056727581096,ST
5.7,-2.47870445251465,-0.132787734270096,9.34538555145264,1.44817996025085,-1.16616594791412,1.88263392448425,-1087.5,7.50000047683716,-897.300048828125,-0.539499785760571,-0.257854711781818,0.0112323054564629,ST
5.73333333333333,-2.09768748283386,-0.0107665732502937,10.0577735900879,0.564027965068817,-1.33385002613068,2.20275783538818,-1092.30004882812,6.30000019073486,-870.900024414062,-0.554611866483062,-0.204022747796708,-0.0005599692591121,ST
5.76666666666667,-1.34941053390503,0.0759641602635384,10.1612529754639,-0.403965979814529,-2.22562384605408,1.34909391403198,-1094.70007324219,9.90000057220459,-887.700012207031,-0.564128632737841,-0.129144966580829,-0.0069943752796488,ST
5.8,-1.1657806634903,-0.0352904349565506,10.158860206604,-1.2423859834671,-1.17378795146942,0.548784017562866,-1094.70007324219,12.3000001907349,-868.500061035156,-0.566868883635899,-0.11243871909042,0.005363926880012,ST
5.83333333333333,-0.924130916595459,-0.433055520057678,10.1014385223389,-1.75305998325348,0.350611984729767,0.0381099991500378,-1106.70007324219,9.90000057220459,-878.100036621094,-0.563941577462873,-0.0921400378693267,0.0451624636510138,ST
5.86666666666667,-1.03299295902252,-0.592759668827057,9.50508975982666,-1.65397393703461,1.57013201713562,-0.67835795879364,-1097.10009765625,7.50000047683716,-875.700012207031,-0.558529948336647,-0.110366063334207,0.0649491352550625,ST
5.9,-1.338045835495,-0.894223749637604,9.56610012054443,-1.59299790859222,2.4923939704895,-0.724089980125427,-1101.90002441406,12.3000001907349,-885.300048828125,-0.550530093790658,-0.142002036076942,0.0956507726068677,ST
5.93333333333333,-1.64070618152618,-1.11673295497894,8.6862325668335,-0.967993974685669,1.64635193347931,-0.342989981174469,-1089.90002441406,12.9000005722046,-882.900024414062,-0.542970381296352,-0.187133343112664,0.129105237854661,ST
5.96666666666667,-2.05342483520508,-1.17594909667969,8.08450031280518,-0.46494197845459,0.769822001457214,0.274392008781433,-1097.10009765625,19.5,-892.500061035156,-0.541101678108522,-0.246541853962314,0.144889693008933,ST
6.0,-2.52835035324097,-1.41042113304138,8.32495403289795,-0.228659987449646,0.685979962348938,0.891773998737335,-1085.10009765625,8.70000076293945,-878.100036621094,-0.539742406910241,-0.291544769651835,0.167405666155644,ST
6.03333333333333,-2.60251998901367,-1.66702449321747,8.66948413848877,-0.746955990791321,1.07470202445984,0.632625997066498,-1085.10009765625,7.50000047683716,-878.100036621094,-0.536951410408647,-0.288756220631877,0.190781899646465,ST
6.06666666666667,-2.70779323577881,-1.78007352352142,9.0672492980957,-0.990859985351562,1.265251994133,0.327746003866196,-1087.5,13.5000009536743,-890.100036621094,-0.537671215936046,-0.287363471715487,0.19545605252139,ST
6.1,-2.97097611427307,-2.24542880058289,8.96197605133057,-0.243903994560242,1.86738991737366,-0.0533539988100529,-1065.90002441406,4.5,-882.900024414062,-0.520396207603177,-0.313959025690229,0.245617114003911,ST
6.13333333333333,-2.95063924789429,-2.49724698066711,9.11031532287598,0.350611984729767,2.64483404159546,-0.297257989645004,-1080.30004882812,8.70000076293945,-885.300048828125,-0.507902485119698,-0.30719878203133,0.267077650804165,ST
6.16666666666667,-2.65515661239624,-2.515789270401,9.18747615814209,0.518296003341675,1.20427596569061,-0.777444005012512,-1065.90002441406,12.9000005722046,-882.900024414062,-0.501005475847257,-0.274033530830117,0.266902508957557,ST
6.2,-2.78256106376648,-2.42188096046448,8.99367809295654,0.739333987236023,-0.259148001670837,-0.548784017562866,-1063.5,18.9000015258789,-892.500061035156,-0.49848076941089,-0.289378457543386,0.26207345060566,ST
6.23333333333333,-2.4978449344635,-2.61149215698242,9.23831844329834,0.777444005012512,-0.899396002292633,-0.182927995920181,-1075.5,14.1000003814697,-890.100036621094,-0.494467285965332,-0.253513633149225,0.27391882254308,ST
6.26666666666667,-2.03069543838501,-2.51698565483093,8.72630786895752,0.914639949798584,-1.28811800479889,-0.0762199983000755,-1073.10009765625,6.90000009536743,-887.700012207031,-0.493660199203073,-0.218338525654393,0.279027874300924,ST
6.3,-2.32318735122681,-2.39436626434326,9.26284217834473,1.15854394435883,-0.754577994346619,0.160062000155449,-1080.30004882812,12.9000005722046,-882.900024414062,-0.500387872010379,-0.236759206174527,0.251169624300471,ST
6.33333333333333,-3.11991381645203,-2.23765277862549,10.4884366989136,1.79879200458527,0.403965979814529,0.739333987236023,-1063.5,15.9000005722046,-882.900024414062,-0.512353311076569,-0.2832000025355,0.207551113637331,ST
6.36666666666667,-3.05890321731567,-1.87697267532349,9.77604866027832,2.37044191360474,0.884151995182037,0.6250039935112,-1068.30004882812,14.1000003814697,-880.500061035156,-0.517012315694589,-0.299655726156858,0.185567631135287,ST
6.4,-2.47332119941711,-1.29497957229614,8.62462329864502,2.21037983894348,1.07470202445984,-0.0152439996600151,-1065.90002441406,11.7000007629395,-892.500061035156,-0.523379232150002,-0.278440180047096,0.145727809762827,ST
6.43333333333333,-2.37462759017944,-0.906186580657959,8.93386363983154,2.22562384605408,0.3125019967556,-0.632625997066498,-1056.30004882812,9.30000019073486,-885.300048828125,-0.528916142315556,-0.259315138689446,0.0983849426510379,ST
6.46666666666667,-2.59235167503357,-0.36725977063179,8.64196968078613,2.81251788139343,-1.21189796924591,-1.03659200668335,-1075.5,8.10000038146973,-870.900024414062,-0.535102139694483,-0.288457252877617,0.0391762175330846,ST
6.5,-2.55885553359985,-0.175854027271271,8.0294713973999,2.68294382095337,-0.754577994346619,-1.02897000312805,-1065.90002441406,10.5,-878.100036621094,-0.530527531651017,-0.306838309255621,0.018061332646979,ST
6.53333333333333,-2.72035431861877,0.391185492277145,8.65153980255127,1.57775402069092,0.739333987236023,-0.78506600856781,-1065.90002441406,7.50000047683716,-882.900024414062,-0.542854768770452,-0.305728783278063,-0.04649590900134,ST
6.56666666666667,-2.67130661010742,0.385802209377289,9.68572902679443,1.31860601902008,0.457319974899292,0.129574000835419,-1070.70007324219,17.1000003814697,-878.100036621094,-0.54025943226212,-0.270108787415943,-0.0422318746421195,ST
6.6,-2.37881469726562,0.258995920419693,10.3030128479004,0.480185985565186,-1.50153398513794,0.282013982534409,-1063.5,5.70000028610229,-882.900024414062,-0.537036134878928,-0.225043549278686,-0.0263594017270192,ST
6.63333333333333,-2.55526685714722,0.21712589263916,11.015998840332,0.137196004390717,-1.71494996547699,0.442075997591019,-1070.70007324219,5.70000028610229,-880.500061035156,-0.537943642126561,-0.224879703949087,-0.0201819854216648,ST
6.66666666666667,-2.02291941642761,-0.18482618033886,10.3652191162109,-0.67835795879364,-1.08994603157043,0.320124000310898,-1063.5,9.30000019073486,-882.900024414062,-0.532835139315311,-0.191212857794221,0.0184504436420041,ST
6.7,-2.10366892814636,-0.374437510967255,9.94831371307373,-1.37958192825317,-0.236281991004944,0.167683988809586,-1077.90002441406,9.30000019073486,-878.100036621094,-0.531381719604797,-0.207622415896812,0.0396734634944852,ST
6.73333333333333,-2.26397109031677,-0.626255691051483,9.48834228515625,-1.50153398513794,0.525918006896973,0.594515979290009,-1063.5,6.90000009536743,-885.300048828125,-0.530321548330914,-0.234226720158887,0.0677724294367989,ST
6.76666666666667,-1.91704821586609,-0.686668157577515,8.50499534606934,-1.37195992469788,0.274392008781433,1.01372599601746,-1075.5,10.5,-880.500061035156,-0.534356817631944,-0.221853187253522,0.0822969834338528,ST
6.8,-1.56175124645233,-0.945664048194885,7.69271659851074,-1.2576299905777,-0.175305992364883,1.02134799957275,-1061.10009765625,6.90000009536743,-892.500061035156,-0.533280658010346,-0.199113990283753,0.1234902606082,ST
6.83333333333333,-1.86560797691345,-1.32249414920807,8.03246212005615,-1.73019397258759,-0.449698001146317,0.472563982009888,-1065.90002441406,3.90000009536743,-870.900024414062,-0.529675225269951,-0.22417795531404,0.16520744727163,ST
6.86666666666667,-2.69224143028259,-1.72145545482635,9.04451942443848,-1.61586391925812,0.0152439996600151,0.594515979290009,-1061.10009765625,14.7000007629395,-873.300048828125,-0.529092650854852,-0.283599180163957,0.190142180506956,ST
6.9,-2.87168431282043,-2.35309433937073,9.44886493682861,-1.39482593536377,0.952749967575073,0.960371971130371,-1058.70007324219,8.10000038146973,-882.900024414062,-0.519819543310288,-0.288707966432071,0.245117079532511,ST
6.93333333333333,-3.32029151916504,-2.6037163734436,9.23114013671875,-1.12043392658234,1.87501192092896,0.884151995182037,-1063.5,15.9000005722046,-873.300048828125,-0.514694302935583,-0.336358647732599,0.27634905877817,ST
6.96666666666667,-3.78863763809204,-2.65754914283752,10.3101902008057,-0.403965979814529,2.27897787094116,1.71494996547699,-1051.5,11.7000007629395,-875.700012207031,-0.529202380113521,-0.346282912977605,0.252727356068191,ST
7.0,-3.07924008369446,-2.50263023376465,9.64864444732666,0.472563982009888,0.518296003341675,1.6768399477005,-1068.30004882812,18.3000011444092,-887.700012207031,-0.537625777049682,-0.301665215126721,0.252150326237329,ST
7.03333333333333,-2.73770046234131,-2.35070180892944,9.09895133972168,0.800309956073761,-0.480185985565186,0.87652999162674,-1073.10009765625,14.7000007629395,-880.500061035156,-0.54200642621737,-0.283378973369311,0.250952408421289,ST
7.06666666666667,-2.575603723526,-2.06957459449768,8.06416320800781,1.06708002090454,-1.10518991947174,-0.205793991684914,-1063.5,12.9000005722046,-878.100036621094,-0.540970881187131,-0.297897936270029,0.249332647600672,ST
7.1,-3.07086610794067,-2.01095676422119,8.36084270477295,0.975615978240967,-1.02134799957275,-0.327746003866196,-1061.10009765625,12.3000001907349,-885.300048828125,-0.543342353723081,-0.340336728155795,0.234658951833721,ST
7.13333333333333,-3.5733060836792,-2.25081205368042,8.78672027587891,0.830797970294952,-0.182927995920181,0.167683988809586,-1053.90002441406,8.10000038146973,-890.100036621094,-0.537765133603347,-0.374411137867211,0.248906898756099,ST
7.16666666666667,-3.32447862625122,-2.08632278442383,9.04152870178223,0.701223969459534,-0.190549999475479,0.701223969459534,-1063.5,6.90000009536743,-880.500061035156,-0.548521517500322,-0.344534154095288,0.225528671258261,ST
7.2,-3.17255020141602,-1.80758810043335,9.00922966003418,1.17378795146942,-1.05183601379395,1.47104597091675,-1061.10009765625,8.70000076293945,-873.300048828125,-0.56547489847888,-0.331362951261434,0.195444956606717,ST
7.23333333333333,-2.97635936737061,-1.32847559452057,9.91003227233887,1.95123195648193,-1.95123195648193,1.78354799747467,-1068.30004882812,12.9000005722046,-894.900024414062,-0.593391081576571,-0.287189488875349,0.130000412955872,ST
7.26666666666667,-2.69224143028259,-0.650181412696838,9.28437519073486,2.29422187805176,-3.03355598449707,1.56251001358032,-1063.5,12.3000001907349,-875.700012207031,-0.617528995702521,-0.276692357068888,0.0662138025585683,ST
7.3,-2.49724698066711,0.123815596103668,8.2202787399292,1.35671591758728,-3.12502002716064,1.28811800479889,-1082.70007324219,9.90000057220459,-885.300048828125,-0.646253337214191,-0.289277577211178,-0.0170951733458907,ST
7.33333333333333,-2.1252019405365,0.392979919910431,8.4469747543335,0.685979962348938,-2.33995389938354,1.43293595314026,-1070.70007324219,15.3000001907349,-880.500061035156,-0.660774931867198,-0.242890131245921,-0.0477027775718647,ST
7.36666666666667,-1.58328449726105,0.336156338453293,10.3969211578369,0.182927995920181,-2.27135586738586,1.69970595836639,-1077.90002441406,5.10000038146973,-878.100036621094,-0.667762399041092,-0.148088585595462,-0.0332397259100997,ST
7.4,-1.16996765136719,0.577207982540131,10.0529890060425,0.0914639979600906,-3.39941191673279,0.800309956073761,-1075.5,6.90000009536743,-878.100036621094,-0.67459589342456,-0.110185737289853,-0.057304838394421,ST
7.43333333333333,-1.59823799133301,0.705808699131012,9.77604866027832,-0.388722002506256,-2.22562384605408,0.586893975734711,-1101.90002441406,14.1000003814697,-882.900024414062,-0.679258249495024,-0.156824392706696,-0.0712478036879032,ST
7.46666666666667,-1.33445692062378,-0.0789548754692078,10.5638027191162,-1.69970595836639,-0.0228659994900227,1.08994603157043,-1099.5,7.50000047683716,-873.300048828125,-0.675508403034628,-0.126197787134364,0.008715983565605,ST
7.5,-1.32488667964935,-0.528160214424133,10.1534767150879,-1.90549993515015,0.685979962348938,0.25152599811554,-1089.90002441406,8.70000076293945,-892.500061035156,-0.672345305281026,-0.130715744377721,0.0543983019445127,ST
7.53333333333333,-1.45707631111145,-0.698032855987549,10.0344467163086,-1.56251001358032,0.868907988071442,-0.0990860015153885,-1080.30004882812,11.1000003814697,-882.900024414062,-0.670309945189686,-0.14509059731242,0.0718940680578713,ST
7.56666666666667,-1.43195426464081,-1.02043187618256,8.48465824127197,-0.693601965904236,0.533540010452271,-0.746955990791321,-1075.5,10.5,-873.300048828125,-0.65862670877714,-0.166500618115217,0.120472913182187,ST
7.6,-1.67779099941254,-1.18791198730469,8.00255489349365,-0.960371971130371,0.571649968624115,-0.983237981796265,-1080.30004882812,14.1000003814697,-885.300048828125,-0.648015201949115,-0.204773560390293,0.149085825928845,ST
7.63333333333333,-2.30943012237549,-1.63352847099304,8.48047065734863,-1.17378795146942,0.846041977405548,-0.891773998737335,-1082.70007324219,12.3000001907349,-892.500061035156,-0.633551583833956,-0.261784076394909,0.192309719272734,ST
7.66666666666667,-2.89381575584412,-2.09649109840393,8.68204498291016,-1.31860601902008,1.71494996547699,-0.640248000621796,-1089.90002441406,11.1000003814697,-897.300048828125,-0.616989610765512,-0.314986570288109,0.238938463278102,ST
7.7,-3.3149082660675,-2.52416324615479,9.1629524230957,-1.00610399246216,2.9344699382782,-0.297257989645004,-1075.5,10.5,-875.700012207031,-0.602999606651723,-0.339926500788735,0.270626027809157,ST
7.73333333333333,-3.11213779449463,-3.09299731254578,10.1570653915405,-0.67835795879364,2.56099200248718,-0.182927995920181,-1068.30004882812,17.7000007629395,-890.100036621094,-0.591071591296291,-0.290232390475324,0.296786025491553,ST
7.76666666666667,-2.66951203346252,-3.21561670303345,10.0254745483398,0.0762199983000755,0.777444005012512,-0.663114011287689,-1075.5,10.5,-887.700012207031,-0.582498993818904,-0.250003152828607,0.31038701365569,ST
7.8,-2.53193926811218,-2.924320936203,9.41297626495361,1.2423859834671,-0.762199997901917,-1.02134799957275,-1080.30004882812,13.5000009536743,-906.900024414062,-0.579228332251935,-0.24964606681042,0.299581507295839,ST
7.83333333333333,-2.23466205596924,-2.59893131256104,8.90634918212891,1.57013201713562,-0.945127964019775,-0.945127964019775,-1070.70007324219,12.9000005722046,-875.700012207031,-0.577779009839332,-0.234594422503871,0.281781320781555,ST
7.86666666666667,-2.38060903549194,-2.23944735527039,8.79987907409668,1.79879200458527,-0.990859985351562,-0.396344006061554,-1065.90002441406,6.30000019073486,-880.500061035156,-0.582966742876654,-0.254192146684539,0.246772043926621,ST
7.9,-2.55227613449097,-2.14075374603271,9.3118896484375,1.76830399036407,-0.556405961513519,0.0304879993200302,-1068.30004882812,7.50000047683716,-868.500061035156,-0.587218300238744,-0.259984188740338,0.22324744671481,ST
7.93333333333333,-2.527752161026,-1.81835460662842,8.46372318267822,1.85214591026306,-0.403965979814529,0.190549999475479,-1082.70007324219,10.5,-882.900024414062,-0.589757929428426,-0.283048265399448,0.208528231244888,ST
7.96666666666667,-2.54689288139343,-1.32069969177246,8.4350118637085,1.88263392448425,0.0228659994900227,0.6250039935112,-1070.70007324219,8.70000076293945,-882.900024414062,-0.605828778322501,-0.289989812893954,0.152744804658997,ST
8.0,-2.68506383895874,-0.889438569545746,9.77844142913818,1.6768399477005,-0.274392008781433,1.12805593013763,-1063.5,8.10000038146973,-882.900024414062,-0.627297230703263,-0.267071879455659,0.0884195623217208,ST
8.03333333333333,-2.40094590187073,-0.442625790834427,9.64146614074707,1.58537602424622,-0.899396002292633,0.891773998737335,-1056.30004882812,10.5,-880.500061035156,-0.641849301987323,-0.242650324983059,0.0433173438950977,ST
8.06666666666667,-2.18202567100525,0.0992917343974113,9.13663387298584,1.57013201713562,-0.617381989955902,0.937505960464478,-1075.5,11.7000007629395,-890.100036621094,-0.658266238049313,-0.233498909150953,-0.0129510798800818,ST
8.1,-2.07435989379883,0.425877809524536,9.43869590759277,1.38720393180847,0.495429992675781,1.50915598869324,-1087.5,6.90000009536743,-887.700012207031,-0.672797304850406,-0.217168958433602,-0.0474632971997945,ST
8.13333333333333,-1.70949256420135,0.273351341485977,9.61933517456055,0.960371971130371,0.0533539988100529,1.2500079870224,-1068.30004882812,1.5,-890.100036621094,-0.676116069053223,-0.176310584704114,-0.0306716485731102,ST
8.16666666666667,-1.81476581096649,0.199779748916626,9.38785362243652,0.0838419944047928,-0.434453994035721,-0.106707997620106,-1080.30004882812,11.1000003814697,-882.900024414062,-0.673649840781924,-0.189972124451909,-0.0215103897339473,ST
8.2,-2.30823373794556,0.157311603426933,9.93635082244873,-0.46494197845459,0.160062000155449,-0.320124000310898,-1070.70007324219,3.90000009536743,-885.300048828125,-0.671016024758704,-0.227994519953891,-0.014980901802583,ST
8.23333333333333,-2.0731635093689,-0.0963010191917419,9.32923603057861,-0.777444005012512,0.78506600856781,-0.121951997280121,-1075.5,10.5,-873.300048828125,-0.665473653441242,-0.220171985809581,0.0112438786996566,ST
8.26666666666667,-2.53134107589722,-0.571824669837952,10.2288427352905,-1.49391198158264,1.06708002090454,0.144817993044853,-1061.10009765625,9.30000019073486,-882.900024414062,-0.657393954900214,-0.243673149025037,0.0575514622101022,ST
8.3,-2.19398832321167,-0.906186580657959,9.49791240692139,-1.82165801525116,0.228659987449646,-0.266770005226135,-1065.90002441406,12.9000005722046,-894.900024414062,-0.648850902682925,-0.226610842750305,0.0978679911484202,ST
8.33333333333333,-1.92721664905548,-1.40683221817017,8.87644195556641,-1.96647596359253,0.0076219998300075,-0.449698001146317,-1075.5,8.10000038146973,-897.300048828125,-0.635302494949035,-0.211378483092851,0.159798188963369,ST
8.36666666666667,-1.98703098297119,-1.79323267936707,8.68084907531738,-1.90549993515015,0.0762199983000755,-0.609759986400604,-1063.5,12.9000005722046,-880.500061035156,-0.624187270007697,-0.22029472359795,0.206526443979329,ST
8.4,-2.21791410446167,-2.28490614891052,8.59770679473877,-1.28811800479889,0.541162014007568,-1.2576299905777,-1063.5,16.5,-887.700012207031,-0.605700551747919,-0.244242267254363,0.261559236565812,ST
8.43333333333333,-2.5217707157135,-2.44939541816711,8.14551067352295,-0.685979962348938,1.13567793369293,-1.18140995502472,-1075.5,14.1000003814697,-894.900024414062,-0.5903310672297,-0.28870062127595,0.293450859751607,ST
8.46666666666667,-2.28969120979309,-2.71855974197388,8.1544828414917,-0.716467976570129,0.83841997385025,-1.01372599601746,-1073.10009765625,9.30000019073486,-890.100036621094,-0.576582553387026,-0.261664119312318,0.323075699000173,ST
8.5,-2.34292602539062,-2.75863528251648,9.08638954162598,-0.579271972179413,-1.08232402801514,-0.762199997901917,-1056.30004882812,11.1000003814697,-882.900024414062,-0.581757894593856,-0.240103844980463,0.296437161449691,ST
8.53333333333333,-2.76641130447388,-2.63242721557617,9.79279708862305,0.571649968624115,-1.49391198158264,0.327746003866196,-1058.70007324219,9.90000057220459,-885.300048828125,-0.593514752822235,-0.263528027382843,0.261921863433342,ST
8.56666666666667,-2.69403600692749,-2.36445927619934,9.68094444274902,1.34147191047668,-1.47104597091675,1.57013201713562,-1063.5,14.7000007629395,-885.300048828125,-0.608489576646211,-0.262202793390844,0.236795645601685,ST
8.6,-2.46135830879211,-2.20236253738403,9.20542049407959,1.78354799747467,-0.670735955238342,2.21800184249878,-1075.5,9.30000019073486,-882.900024414062,-0.620303746653712,-0.254303816042526,0.230779927728269,ST
8.63333333333333,-2.61149215698242,-1.98463833332062,9.24729061126709,1.28811800479889,0.25152599811554,1.92074394226074,-1065.90002441406,8.70000076293945,-885.300048828125,-0.634209929175606,-0.270239143750436,0.208695122088038,ST
8.66666666666667,-3.06907153129578,-1.54380702972412,10.0015487670898,1.28811800479889,0.525918006896973,1.63872992992401,-1068.30004882812,3.90000009536743,-890.100036621094,-0.656593855838451,-0.295339359036193,0.151162836039927,ST
8.7,-2.91953587532043,-1.05632042884827,9.54935264587402,1.44817996025085,-0.617381989955902,1.95885396003723,-1068.30004882812,12.9000005722046,-885.300048828125,-0.678605164387361,-0.294329096966597,0.107175829081434,ST
8.73333333333333,-2.26696181297302,-0.78775429725647,8.66170883178711,0.945127964019775,-1.65397393703461,1.80641400814056,-1065.90002441406,4.5,-890.100036621094,-0.693982811378439,-0.252863099139789,0.0883805610896061,ST
8.76666666666667,-2.20834374427795,-0.339745193719864,8.77356147766113,0.846041977405548,-1.45580196380615,1.36433792114258,-1063.5,8.10000038146973,-885.300048828125,-0.713564769611362,-0.244105141715843,0.0374203948607699,ST
8.8,-1.95233869552612,0.156115308403969,8.73647594451904,0.708845973014832,-1.2347639799118,0.99848198890686,-1082.70007324219,14.1000003814697,-875.700012207031,-0.731041747767814,-0.21813019420663,-0.018452722958696,ST
8.83333333333333,-2.04684519767761,0.0526365824043751,9.88909816741943,0.449698001146317,-1.46342396736145,1.08994603157043,-1082.70007324219,8.70000076293945,-880.500061035156,-0.734615327742386,-0.201719353709877,-0.0066323261864656,ST
8.86666666666667,-1.31053125858307,0.198583468794823,9.11868953704834,0.0685980021953583,-2.45428395271301,0.297257989645004,-1068.30004882812,7.50000047683716,-894.900024414062,-0.738694763033886,-0.139144517607881,-0.0217795048390191,ST
8.9,-1.68018364906311,0.0526365824043751,9.75212287902832,-1.21189796924591,-2.18751406669617,-0.739333987236023,-1073.10009765625,14.7000007629395,-890.100036621094,-0.732689354763531,-0.166295652066103,-0.0034062552035476,ST
8.93333333333333,-1.81775653362274,-0.235668331384659,10.5452604293823,-1.80641400814056,-1.37958192825317,-0.739333987236023,-1094.70007324219,15.9000005722046,-878.100036621094,-0.725287797552097,-0.168200800872482,0.0254204812978229,ST
8.96666666666667,-2.04684519767761,-0.613096535205841,10.3107881546021,-1.58537602424622,-0.37347799539566,0.0914639979600906,-1089.90002441406,12.9000005722046,-880.500061035156,-0.721112164100007,-0.194501759934783,0.061448320323414,ST
9.0,-1.53124594688416,-0.914560616016388,9.70486927032471,-1.73781597614288,0.0304879993200302,0.304879993200302,-1092.30004882812,15.9000005722046,-897.300048828125,-0.718491630044971,-0.156521488803617,0.0963554152182622,ST
9.03333333333333,-1.17535090446472,-1.24413740634918,8.02468585968018,-1.63110792636871,0.335367977619171,0.106707997620106,-1087.5,15.9000005722046,-885.300048828125,-0.711334940451087,-0.144571755651444,0.155548874282878,ST
9.06666666666667,-1.54619956016541,-1.80519545078278,8.87404918670654,-2.05031800270081,1.22714197635651,-0.236281991004944,-1082.70007324219,16.5,-868.500061035156,-0.703091651272658,-0.170644335721245,0.203511921981152,ST
9.1,-2.05761170387268,-2.37402939796448,9.79758167266846,-2.11129403114319,1.60061991214752,-0.571649968624115,-1085.10009765625,15.3000001907349,-885.300048828125,-0.693145163001956,-0.2032983982435,0.241141023363319,ST
9.13333333333333,-2.02172327041626,-2.82084226608276,8.53968715667725,-1.65397393703461,1.2347639799118,-1.17378795146942,-1082.70007324219,16.5,-885.300048828125,-0.669979346258668,-0.222189610282877,0.321021464819302,ST
9.16666666666667,-2.00198459625244,-3.02241635322571,8.32854270935059,-1.2423859834671,1.28049600124359,-1.00610399246216,-1075.5,16.5,-882.900024414062,-0.657357679288507,-0.223699554255754,0.350292539844101,ST
9.2,-2.01634001731873,-3.24253296852112,9.63189601898193,-0.548784017562866,0.274392008781433,-0.556405961513519,-1068.30004882812,12.9000005722046,-882.900024414062,-0.659521711198558,-0.196502193276621,0.326342855763596,ST
9.23333333333333,-1.81835460662842,-2.71915793418884,9.1569709777832,1.69970595836639,-1.71494996547699,-0.426831990480423,-1075.5,20.1000003814697,-885.300048828125,-0.665701828807652,-0.18514206407175,0.286062910179414,ST
9.26666666666667,-1.49296486377716,-2.15451097488403,8.28846740722656,2.55336999893188,-1.89787793159485,0.0914639979600906,-1070.70007324219,15.9000005722046,-887.700012207031,-0.672805449349813,-0.169642069456434,0.250174842948451,ST
9.3,-1.74956822395325,-2.01035857200623,8.77655220031738,2.21800184249878,-1.03659200668335,0.640248000621796,-1087.5,14.1000003814697,-880.500061035156,-0.680707602358413,-0.190165539628594,0.221355105244425,ST
9.33333333333333,-2.42487168312073,-2.03667688369751,10.04700756073,1.49391198158264,0.137196004390717,0.861285984516144,-1070.70007324219,18.9000015258789,-880.500061035156,-0.688407255146641,-0.232026734303698,0.197509743142625,ST
9.36666666666667,-2.89082503318787,-1.8105788230896,10.0691385269165,1.57013201713562,1.18903195858002,1.33385002613068,-1082.70007324219,12.9000005722046,-882.900024414062,-0.698294294321557,-0.277385687353298,0.17485576388415,ST
9.4,-2.86689925193787,-1.67898726463318,10.3466768264771,0.945127964019775,1.50915598869324,1.60061991214752,-1063.5,11.7000007629395,-875.700012207031,-0.709125774524993,-0.270106702507053,0.158761390657583,ST
9.43333333333333,-2.23167133331299,-1.03299295902252,9.28497314453125,0.769822001457214,0.655492007732391,1.53202199935913,-1082.70007324219,11.7000007629395,-880.500061035156,-0.728624260438035,-0.236460476117347,0.109617663519951,ST
9.46666666666667,-1.8847484588623,-0.455784946680069,8.71135425567627,1.08994603157043,0.0304879993200302,1.73019397258759,-1077.90002441406,14.7000007629395,-880.500061035156,-0.750070319786603,-0.213438829906904,0.0508013005133667,ST
9.5,-1.20286548137665,-0.0245238617062569,8.33213138580322,1.2423859834671,-0.411587983369827,1.62348592281342,-1082.70007324219,9.90000057220459,-870.900024414062,-0.766980236519839,-0.143960181239547,0.0012635685503315,ST
9.53333333333333,-0.558067381381989,0.0257201474159956,7.60538768768311,1.12805593013763,-1.08232402801514,1.04421401023865,-1082.70007324219,11.7000007629395,-885.300048828125,-0.773062227175984,-0.072672313547162,-0.0053671317220952,ST
9.56666666666667,-1.02461886405945,-0.222509190440178,8.70058727264404,0.388722002506256,-0.990859985351562,-0.213415995240211,-1075.5,17.1000003814697,-890.100036621094,-0.768917995629423,-0.114669770138283,0.0243718448348694,ST
9.6,-1.7525589466095,-0.329576790332794,9.84603118896484,0.0381099991500378,-0.221037998795509,-1.37195992469788,-1087.5,11.7000007629395,-894.900024414062,-0.758830885641274,-0.174989128490353,0.0337155196694814,ST
9.63333333333333,-2.34651494026184,-0.799717128276825,10.7193202972412,-0.0533539988100529,0.800309956073761,-1.28811800479889,-1075.5,13.5000009536743,-882.900024414062,-0.74348411043666,-0.215410229899692,0.0743077384422367,ST
9.66666666666667,-2.5738091468811,-1.36615860462189,10.4286222457886,-0.701223969459534,1.87501192092896,-1.6692179441452,-1077.90002441406,14.1000003814697,-882.900024414062,-0.720038338943628,-0.242551837811749,0.131626327027071,ST
9.7,-3.12768959999084,-1.84766364097595,11.0776081085205,-1.30336201190948,2.23324584960938,-1.50915598869324,-1080.30004882812,15.3000001907349,-887.700012207031,-0.702537063193733,-0.274433346542463,0.167776173890977,ST
9.73333333333333,-2.58995914459229,-1.59823799133301,9.27659893035889,-1.04421401023865,0.708845973014832,-0.891773998737335,-1070.70007324219,15.9000005722046,-882.900024414062,-0.697243023597214,-0.269538555779939,0.172823178931432,ST
9.76666666666667,-2.07435989379883,-1.56952714920044,7.57488250732422,-1.02897000312805,-0.541162014007568,0.137196004390717,-1068.30004882812,18.9000015258789,-882.900024414062,-0.691579739743857,-0.261266830494895,0.205388356302129,ST
9.8,-2.09230422973633,-1.80519545078278,8.20472717285156,-1.76068198680878,-1.47104597091675,1.73019397258759,-1051.5,18.3000011444092,-885.300048828125,-0.701980449349206,-0.242582239444257,0.218526996943684,ST
9.83333333333333,-2.05581736564636,-2.50861167907715,9.13723182678223,-1.94360995292664,-2.34757590293884,2.67532205581665,-1070.70007324219,14.1000003814697,-890.100036621094,-0.710893298248689,-0.211510434204568,0.269190579114752,ST
9.86666666666667,-2.13417410850525,-2.57261300086975,8.87165641784668,-1.31860601902008,-1.47866797447205,2.71343183517456,-1080.30004882812,15.9000005722046,-885.300048828125,-0.726488345443071,-0.225636435534352,0.283077917772587,ST
9.9,-2.30404663085938,-2.62883830070496,9.49013614654541,-0.350611984729767,0.274392008781433,2.99544596672058,-1061.10009765625,17.1000003814697,-882.900024414062,-0.74568041561843,-0.231587423018803,0.269931822356816,ST
9.93333333333333,-1.87458002567291,-2.41649770736694,9.31727313995361,0.724089980125427,0.243903994560242,2.69818782806396,-1075.5,12.3000001907349,-906.900024414062,-0.764262080124083,-0.194366653103566,0.251828290512713,ST
9.96666666666667,-1.84108412265778,-2.34830927848816,10.1528787612915,1.18140995502472,-0.815553963184357,1.6692179441452,-1070.70007324219,17.7000007629395,-887.700012207031,-0.778489694213129,-0.174452766130838,0.225100554657369,ST
10.0,-1.68556690216064,-2.09948182106018,9.1749153137207,1.74543797969818,-2.37044191360474,-0.0228659994900227,-1077.90002441406,19.5,-890.100036621094,-0.780270020393148,-0.173178449051969,0.221792967113895,ST
10.0333333333333,-2.16168880462646,-1.8949168920517,8.94403171539307,1.36433792114258,-2.24086785316467,-0.160062000155449,-1085.10009765625,13.5000009536743,-880.500061035156,-0.783406246538078,-0.227287593356176,0.20655796316748,ST
10.0666666666667,-2.48408770561218,-1.32129776477814,8.86986255645752,1.85976791381836,-0.647870004177094,1.01372599601746,-1094.70007324219,14.7000007629395,-878.100036621094,-0.801888223472276,-0.268609393230408,0.145258951425638,ST
10.1,-2.5175838470459,-1.53423666954041,9.96266937255859,2.09605002403259,0.617381989955902,2.13416004180908,-1077.90002441406,14.7000007629395,-885.300048828125,-0.80988497270276,-0.246667854487592,0.148211696411174,ST
10.1333333333333,-1.53662931919098,-0.962412059307098,7.80098056793213,1.83690190315247,0.0304879993200302,1.47866797447205,-1080.30004882812,14.1000003814697,-882.900024414062,-0.822200732133741,-0.194397801757571,0.119562255366434,ST
10.1666666666667,-2.33395385742188,-1.1316864490509,9.991379737854,0.823175966739655,0.83841997385025,0.99848198890686,-1089.90002441406,15.3000001907349,-875.700012207031,-0.828105909432891,-0.229167652381941,0.111121516165407,ST
10.2,-2.98951864242554,-0.539524972438812,9.95190238952637,0.830797970294952,0.541162014007568,0.617381989955902,-1077.90002441406,14.1000003814697,-899.700012207031,-0.844848675642253,-0.291271655575984,0.0534980231654493,ST
10.2333333333333,-2.33335566520691,-0.69564026594162,9.47637939453125,0.83841997385025,0.739333987236023,1.34147191047668,-1085.10009765625,13.5000009536743,-885.300048828125,-0.846202563285288,-0.24314867412322,0.0709334388802092,ST
10.2666666666667,-1.26806306838989,-0.901401460170746,9.00863170623779,-0.167683988809586,-0.396344006061554,-0.274392008781433,-1075.5,7.50000047683716,-878.100036621094,-0.839415018958931,-0.13962802688805,0.0997514125130155,ST
10.3,-1.76930689811707,-0.675901532173157,9.77963733673096,0.0304879993200302,-1.12043392658234,-1.55488801002502,-1075.5,4.5,-892.500061035156,-0.835757839998293,-0.17575014344497,0.0699582376901865,ST
10.3333333333333,-1.65865051746368,-0.0783567279577255,8.73886871337891,0.83841997385025,-1.6692179441452,-1.49391198158264,-1085.10009765625,6.30000019073486,-894.900024414062,-0.837575691530439,-0.184460297311495,0.0091146169958832,ST
10.3666666666667,-1.8626172542572,0.0005981429712846,9.26583290100098,0.922261953353882,-1.61586391925812,-0.663114011287689,-1087.5,12.3000001907349,-892.500061035156,-0.834784365001475,-0.195354497477715,-0.0012532882906291,ST
10.4,-1.28062415122986,-0.0980954468250275,8.84234714508057,0.6250039935112,-1.94360995292664,-0.0990860015153885,-1085.10009765625,14.7000007629395,-882.900024414062,-0.831778036953211,-0.141059097982084,0.0098941636755032,ST
10.4333333333333,-1.42298209667206,-0.171068891882896,9.12526893615723,-0.0609759986400604,-1.13567793369293,-0.304879993200302,-1092.30004882812,6.30000019073486,-875.700012207031,-0.828801083059922,-0.15251816082305,0.0188049401941274,ST
10.4666666666667,-1.98882532119751,-0.569432079792023,10.1163921356201,-0.693601965904236,0.990859985351562,-0.403965979814529,-1075.5,11.1000003814697,-878.100036621094,-0.820404367360404,-0.194725212789824,0.05688304680609,ST
10.5,-2.01933073997498,-0.797324597835541,10.5123624801636,-1.02897000312805,1.89025592803955,-0.701223969459534,-1087.5,12.3000001907349,-878.100036621094,-0.812875550482563,-0.192487269452525,0.0774032586728898,ST
10.5333333333333,-2.43324565887451,-1.05572235584259,10.5793542861938,-1.08232402801514,2.0655620098114,-1.08232402801514,-1082.70007324219,10.5,-887.700012207031,-0.801867631092521,-0.227823415643068,0.101479483830141,ST
10.5666666666667,-2.64797902107239,-1.1376678943634,10.5171480178833,-0.724089980125427,1.92074394226074,-0.99848198890686,-1082.70007324219,5.70000028610229,-880.500061035156,-0.794302844713404,-0.24804479883495,0.109397815909461,ST
10.6,-1.746577501297,-0.842783451080322,8.24779319763184,-0.137196004390717,0.792688012123108,-0.975615978240967,-1068.30004882812,15.3000001907349,-885.300048828125,-0.790100591195662,-0.209545103294785,0.102588654530029,ST
10.6333333333333,-1.66822075843811,-1.12091994285583,8.21908283233643,-0.0685980021953583,0.160062000155449,-0.861285984516144,-1077.90002441406,18.3000011444092,-894.900024414062,-0.778598020921479,-0.198739694970586,0.1353653254337,ST
10.6666666666667,-2.04564905166626,-1.48100197315216,8.60368824005127,-0.0609759986400604,0.0076219998300075,-1.37958192825317,-1061.10009765625,17.1000003814697,-894.900024414062,-0.763311141123228,-0.229289117835572,0.170557204512071,ST
10.7,-2.08931350708008,-1.58986401557922,7.94513320922852,-0.0,0.716467976570129,-1.57775402069092,-1065.90002441406,8.10000038146973,-875.700012207031,-0.746509915998699,-0.252773480912652,0.197933485229579,ST
10.7333333333333,-2.26397109031677,-1.75913846492767,7.46063709259033,0.693601965904236,2.14940404891968,-1.62348592281342,-1065.90002441406,12.9000005722046,-885.300048828125,-0.725224553768244,-0.289521518581545,0.230801424987089,ST
10.7666666666667,-2.9141526222229,-2.04564905166626,9.10612869262695,0.861285984516144,2.31708788871765,-1.50915598869324,-1068.30004882812,11.7000007629395,-875.700012207031,-0.715779679722062,-0.305714236401266,0.220747946293986,ST
10.8,-3.5571563243866,-2.44640469551086,11.6153383255005,0.807931959629059,1.05183601379395,-1.36433792114258,-1056.30004882812,15.3000001907349,-902.100036621094,-0.709255706609545,-0.29263900958037,0.207176518959081,ST
10.8333333333333,-2.72573757171631,-2.30225229263306,11.0500936508179,0.769822001457214,-2.98020195960999,-1.71494996547699,-1068.30004882812,11.7000007629395,-904.500061035156,-0.702428279374406,-0.232072112761833,0.204549178560264,ST
10.8666666666667,-2.0552191734314,-2.07794857025146,9.61574649810791,1.47866797447205,-4.73326206207275,-1.20427596569061,-1070.70007324219,14.1000003814697,-892.500061035156,-0.698346933976672,-0.198064212741499,0.210205394696601,ST
10.9,-1.76870882511139,-1.93319809436798,9.39144325256348,1.81403601169586,-3.31556987762451,-0.541162014007568,-1073.10009765625,13.5000009536743,-875.700012207031,-0.699042790012253,-0.17680319736108,0.199921654211482,ST
10.9333333333333,-1.4481041431427,-1.70710003376007,8.98171520233154,1.84452390670776,-1.05945801734924,0.0152439996600151,-1077.90002441406,8.70000076293945,-878.100036621094,-0.701047992022514,-0.155667712884291,0.184825638631669,ST
10.9666666666667,-1.5964435338974,-1.36855113506317,8.09885597229004,1.53964400291443,0.594515979290009,0.434453994035721,-1073.10009765625,11.7000007629395,-885.300048828125,-0.704734121098513,-0.192436780499096,0.164971688705711,ST
11.0,-2.31840205192566,-1.2297819852829,8.71913051605225,0.937505960464478,2.0731840133667,1.14329993724823,-1070.70007324219,9.90000057220459,-880.500061035156,-0.713998567721222,-0.260053618929134,0.138596128192627,ST
11.0333333333333,-2.58337950706482,-1.31112945079803,9.27121639251709,0.358233988285065,2.18751406669617,1.38720393180847,-1073.10009765625,15.3000001907349,-885.300048828125,-0.719686139565057,-0.273166847123021,0.139332929972553,ST
11.0666666666667,-2.74368190765381,-1.43195426464081,9.94891166687012,-0.0228659994900227,1.13567793369293,1.20427596569061,-1053.90002441406,12.3000001907349,-875.700012207031,-0.724618905195717,-0.268813599503193,0.142435558020837,ST
11.1,-2.49066734313965,-1.17714536190033,9.5625114440918,0.152439996600151,0.0076219998300075,0.388722002506256,-1061.10009765625,2.70000004768372,-870.900024414062,-0.731706219849568,-0.253356653799489,0.122413432825556,ST
11.1333333333333,-2.20236253738403,-0.57361912727356,8.81423473358154,0.815553963184357,-1.48628997802734,0.0304879993200302,-1077.90002441406,2.70000004768372,-880.500061035156,-0.745613491168906,-0.241956690585249,0.0644303769693253,ST
11.1666666666667,-1.93140363693237,-0.24882747232914,8.91352653503418,1.70732796192169,-3.45276594161987,0.990859985351562,-1068.30004882812,-0.900000035762787,-875.700012207031,-0.758651411559857,-0.207870977521051,0.0251476626261082,ST
11.2,-1.66822075843811,-0.0927121639251709,8.62103462219238,1.95885396003723,-4.57319974899292,1.63872992992401,-1080.30004882812,12.9000005722046,-875.700012207031,-0.769604730226865,-0.183625849685382,0.0071179564984065,ST
11.2333333333333,-1.17654716968536,0.167480036616325,9.36811542510986,1.30336201190948,-3.39178991317749,2.14940404891968,-1092.30004882812,7.50000047683716,-885.300048828125,-0.785053586318701,-0.119943633997064,-0.0201699690159886,ST
11.2666666666667,-1.54201257228851,-0.0550291538238525,10.3101902008057,0.510673999786377,-1.29574000835419,2.37044191360474,-1075.5,15.9000005722046,-880.500061035156,-0.795020579109897,-0.145727779283553,0.0034032919176908,ST
11.3,-1.61079907417297,-0.193798318505287,10.7492275238037,-0.518296003341675,0.640248000621796,1.90549993515015,-1092.30004882812,5.70000028610229,-873.300048828125,-0.804759652306711,-0.149841325306419,0.0182306749698684,ST
11.3333333333333,-1.93618881702423,-0.629246413707733,11.489727973938,-1.08994603157043,1.90549993515015,1.37195992469788,-1070.70007324219,15.3000001907349,-880.500061035156,-0.807148151143333,-0.169780342897139,0.0555422729791744,ST
11.3666666666667,-2.01992893218994,-0.407335370779037,10.7677698135376,-0.78506600856781,1.35671591758728,0.724089980125427,-1085.10009765625,6.30000019073486,-882.900024414062,-0.814767453151544,-0.187441469564995,0.0392213973323574,ST
11.4,-0.854148149490356,-0.161498606204987,8.35605716705322,-0.365855991840363,-0.175305992364883,0.495429992675781,-1087.5,5.70000028610229,-899.700012207031,-0.820645793181358,-0.103124906369831,0.0202180441114785,ST
11.4333333333333,-0.581394970417023,-0.122021168470383,6.56043195724487,-0.289635986089706,-0.746955990791321,0.0609759986400604,-1070.70007324219,12.3000001907349,-882.900024414062,-0.821336900161762,-0.0873664920305787,0.0191118299979387,ST
11.4666666666667,-1.01744115352631,-0.502440094947815,6.58615207672119,-0.716467976570129,0.282013982534409,-0.0076219998300075,-1089.90002441406,12.9000005722046,-882.900024414062,-0.814908579949094,-0.152121236412933,0.0763256117544382,ST
11.5,-2.53074288368225,-1.275838971138,8.17721271514893,-1.57775402069092,1.94360995292664,-0.129574000835419,-1077.90002441406,9.30000019073486,-885.300048828125,-0.797078915060547,-0.298360269503202,0.156781599702802,ST
11.5333333333333,-2.99729442596436,-2.27892470359802,9.3358154296875,-1.80641400814056,3.31556987762451,0.0,-1085.10009765625,15.9000005722046,-878.100036621094,-0.77080901276628,-0.307838405689494,0.241846089009759,ST
11.5666666666667,-3.46384596824646,-2.98234081268311,10.6182336807251,-1.6615959405899,2.4847719669342,-0.868907988071442,-1075.5,14.1000003814697,-880.500061035156,-0.754507702996426,-0.308069055123399,0.277072021761201,ST
11.6,-3.58766150474548,-3.5033233165741,11.2959299087524,-0.160062000155449,1.13567793369293,-1.52439999580383,-1065.90002441406,10.5,-899.700012207031,-0.736741197136525,-0.295778852108457,0.301682175653375,ST
11.6333333333333,-2.92491912841797,-3.32567501068115,10.3030128479004,0.899396002292633,-1.15854394435883,-3.13264203071594,-1068.30004882812,11.7000007629395,-897.300048828125,-0.717979284461817,-0.260912360172844,0.311709250784311,ST
11.6666666666667,-3.04933285713196,-2.97336864471436,9.09476375579834,1.60061991214752,-1.73781597614288,-2.62196803092957,-1080.30004882812,6.90000009536743,-890.100036621094,-0.70301161743086,-0.303628536206978,0.314208540730449,ST
11.7,-2.15211844444275,-2.5815851688385,8.1544828414917,1.86738991737366,-1.16616594791412,-0.175305992364883,-1061.10009765625,14.7000007629395,-887.700012207031,-0.704161891308213,-0.245537120722432,0.303461630320691,ST
11.7333333333333,-1.84168219566345,-2.29268193244934,8.29026126861572,1.92836594581604,-0.0685980021953583,0.746955990791321,-1065.90002441406,10.5,-890.100036621094,-0.714171321728503,-0.211786537217112,0.26683865863605,ST
11.7666666666667,-2.03488230705261,-1.89850580692291,8.70357799530029,2.04269599914551,-0.190549999475479,1.265251994133,-1056.30004882812,8.10000038146973,-880.500061035156,-0.730864905205121,-0.224519981660123,0.211575234373784,ST
11.8,-1.87697267532349,-1.25011885166168,8.70298004150391,1.52439999580383,-1.44055795669556,1.41006994247437,-1073.10009765625,11.1000003814697,-878.100036621094,-0.753372942473783,-0.208493933705101,0.140724049865158,ST
11.8333333333333,-1.77289581298828,-0.951047301292419,8.54925727844238,1.42531394958496,-1.84452390670776,1.47104597091675,-1061.10009765625,5.70000028610229,-899.700012207031,-0.767764162393345,-0.200489585556257,0.108309169474793,ST
11.8666666666667,-2.07974314689636,-0.981552600860596,9.32504844665527,1.00610399246216,-1.28811800479889,1.48628997802734,-1082.70007324219,5.70000028610229,-875.700012207031,-0.777521740135957,-0.216116607935675,0.102568411312779,ST
11.9,-2.70360612869263,-0.679490387439728,9.93216419219971,1.05183601379395,-0.480185985565186,1.14329993724823,-1068.30004882812,11.1000003814697,-875.700012207031,-0.791478959681622,-0.26382579533625,0.0664220066921116,ST
11.9333333333333,-2.89142322540283,0.0556272976100445,9.4375,1.43293595314026,0.289635986089706,1.89025592803955,-1068.30004882812,7.50000047683716,-885.300048828125,-0.820750153500344,-0.297330992122155,-0.0083686262164943,ST
11.9666666666667,-2.88364720344543,0.254210770130157,10.0601663589478,1.09756803512573,0.46494197845459,2.43903994560242,-1089.90002441406,9.90000057220459,-887.700012207031,-0.838851651065323,-0.280004037972801,-0.0281432715541553,ST
12.0,-2.56124830245972,0.0275145769119263,10.0769147872925,0.205793991684914,-0.777444005012512,2.30184388160706,-1070.70007324219,5.70000028610229,-878.100036621094,-0.845163095602525,-0.248112118340092,-0.0045481046943968,ST
12.0333333333333,-2.43324565887451,-0.101684302091599,9.91601371765137,-0.663114011287689,0.0762199983000755,1.60824191570282,-1065.90002441406,4.5,-878.100036621094,-0.851730362785363,-0.240894235049253,0.0104818668698868,ST
12.0666666666667,-1.63352847099304,-0.0011962859425693,9.34538555145264,-0.792688012123108,0.586893975734711,1.21189796924591,-1068.30004882812,0.900000035762787,-892.500061035156,-0.861820558533858,-0.174974754837012,0.0012545254497812,ST
12.1,-1.51629245281219,-0.187816888093948,9.21738338470459,-1.40244793891907,0.769822001457214,0.160062000155449,-1070.70007324219,2.70000004768372,-882.900024414062,-0.860434020866225,-0.16455328608398,0.0223873430562793,ST
12.1333333333333,-1.86740231513977,-0.0550291538238525,9.38486289978027,-1.61586391925812,-0.3125019967556,-0.0228659994900227,-1068.30004882812,8.70000076293945,-882.900024414062,-0.864459235514681,-0.195296079508424,0.0089438314204502,ST
12.1666666666667,-1.61857485771179,-0.647190690040588,9.33641338348389,-1.98171997070312,-1.27287399768829,1.18140995502472,-1085.10009765625,8.10000038146973,-880.500061035156,-0.862252917455563,-0.169655978198134,0.0711338844387745,ST
12.2,-1.38350474834442,-1.18731379508972,8.42125511169434,-2.30946588516235,-2.16464805603027,1.18903195858002,-1092.30004882812,9.90000057220459,-899.700012207031,-0.860975248299733,-0.158030645538973,0.14236168879556,ST
12.2333333333333,-1.79084002971649,-1.66283750534058,8.28667259216309,-2.75916385650635,-1.56251001358032,1.06708002090454,-1077.90002441406,10.5,-878.100036621094,-0.861812101500452,-0.205935008151526,0.201663186104295,ST
12.2666666666667,-2.66353058815002,-2.2831118106842,9.03554725646973,-3.49849796295166,0.457319974899292,0.960371971130371,-1087.5,7.50000047683716,-878.100036621094,-0.859676103595477,-0.278409157654781,0.252385924709074,ST
12.3,-2.34591674804688,-2.63481974601746,8.01092910766602,-3.31556987762451,1.73019397258759,0.731711983680725,-1075.5,16.5,-882.900024414062,-0.846838152376417,-0.274664379025001,0.322171336160624,ST
12.3333333333333,-2.89381575584412,-3.42556476593018,10.0966529846191,-2.9116039276123,2.39330792427063,0.365855991840363,-1075.5,19.5,-887.700012207031,-0.846426776979032,-0.269254142973677,0.332258014761105,ST
12.3666666666667,-3.03019237518311,-3.79521703720093,10.6780481338501,-1.08994603157043,0.960371971130371,-0.0304879993200302,-1068.30004882812,17.7000007629395,-885.300048828125,-0.843175342158136,-0.262925790703967,0.3434121801845,ST
12.4,-2.70839142799377,-3.73480463027954,9.92498588562012,0.3125019967556,-0.92988395690918,-0.190549999475479,-1075.5,13.5000009536743,-880.500061035156,-0.839581277725381,-0.248684722703472,0.359012686801852,ST
12.4333333333333,-2.64917516708374,-3.12051177024841,9.29873085021973,1.94360995292664,-2.080806016922,0.144817993044853,-1082.70007324219,15.3000001907349,-882.900024414062,-0.850913085883862,-0.26022341629247,0.320724871523786,ST
12.4666666666667,-2.08452820777893,-2.61687541007996,8.53609848022461,2.54574799537659,-2.46952795982361,0.693601965904236,-1075.5,14.1000003814697,-873.300048828125,-0.861979755119635,-0.2262268575186,0.292977747660693,ST
12.5,-1.95772194862366,-2.47033047676086,8.2202787399292,2.66770005226135,-2.56099200248718,1.19665396213531,-1082.70007324219,9.30000019073486,-887.700012207031,-0.870531526270003,-0.220655692627355,0.286654042806213,ST
12.5333333333333,-1.44571161270142,-2.11981868743896,8.70537281036377,1.6692179441452,-3.10215401649475,0.914639949798584,-1070.70007324219,9.30000019073486,-873.300048828125,-0.887675299049127,-0.156291237962502,0.236412157583986,ST
12.5666666666667,-1.64130425453186,-1.75196075439453,8.48764896392822,1.70732796192169,-2.45428395271301,0.846041977405548,-1092.30004882812,12.9000005722046,-882.900024414062,-0.899948738527602,-0.182905059871073,0.200639910062548,ST
12.6,-1.98703098297119,-1.12391066551208,9.37230205535889,1.79117000102997,-0.525918006896973,1.28049600124359,-1089.90002441406,15.9000005722046,-875.700012207031,-0.922213742455472,-0.206560812747344,0.116721109084018,ST
12.6333333333333,-2.12998723983765,-0.569432079792023,9.32564735412598,1.95885396003723,-0.388722002506256,1.53202199935913,-1094.70007324219,10.5,-887.700012207031,-0.94103476406174,-0.22332643141942,0.0580477134034131,ST
12.6666666666667,-1.7065018415451,-0.0825437307357788,9.04272556304932,1.82927989959717,-0.975615978240967,1.21951997280121,-1092.30004882812,12.9000005722046,-870.900024414062,-0.956805198247074,-0.18535121809927,0.0062327918081478,ST
12.7,-1.746577501297,0.336754500865936,9.98001575469971,1.17378795146942,-1.01372599601746,1.02897000312805,-1101.90002441406,8.70000076293945,-875.700012207031,-0.968698146466468,-0.17158705516806,-0.0353104977694236,ST
12.7333333333333,-1.36316788196564,0.455186814069748,10.7145347595215,1.21189796924591,-1.6920839548111,0.983237981796265,-1101.90002441406,11.1000003814697,-890.100036621094,-0.974309808575011,-0.124286037618471,-0.0446032631414178,ST
12.7666666666667,-0.68965882062912,0.39537250995636,8.90933990478516,-0.297257989645004,-2.08842802047729,0.0076219998300075,-1101.90002441406,12.9000005722046,-887.700012207031,-0.973879579290923,-0.074219854465181,-0.0438284914104834,ST
12.8,-1.27763342857361,-0.163293033838272,9.67556095123291,-1.54726600646973,-0.0152439996600151,-0.403965979814529,-1097.10009765625,12.9000005722046,-880.500061035156,-0.966110642344649,-0.13046563681546,0.0188063434028457,ST
12.8333333333333,-1.27464270591736,-0.883457183837891,10.0715312957764,-1.85976791381836,1.88263392448425,-0.571649968624115,-1099.5,15.9000005722046,-878.100036621094,-0.954121687510416,-0.128629037008458,0.0899353768463161,ST
12.8666666666667,-1.89192616939545,-1.27165198326111,10.8311729431152,-1.21189796924591,2.080806016922,-0.868907988071442,-1092.30004882812,8.70000076293945,-894.900024414062,-0.944507891224436,-0.174471844266569,0.118858919212593,ST
12.9,-1.6084064245224,-1.02402079105377,9.30231952667236,0.236281991004944,0.899396002292633,-1.19665396213531,-1089.90002441406,12.3000001907349,-885.300048828125,-0.938066115195386,-0.171572926686299,0.10974246551429,ST
12.9333333333333,-1.72205364704132,-1.07605922222137,8.51037788391113,0.967993974685669,0.899396002292633,-1.08994603157043,-1077.90002441406,15.3000001907349,-878.100036621094,-0.927609829570215,-0.19893233356297,0.124229574081488,ST
12.9666666666667,-1.61139714717865,-1.83988773822784,8.68144702911377,0.205793991684914,1.50915598869324,-1.41769194602966,-1089.90002441406,12.9000005722046,-887.700012207031,-0.902160931535462,-0.182032223643143,0.207492025577169,ST
13.0,-2.31541132926941,-2.06419134140015,8.80586051940918,-0.114329993724823,1.59299790859222,-2.40855193138123,-1085.10009765625,9.30000019073486,-882.900024414062,-0.882065794518453,-0.251084360959318,0.231199543408353,ST
13.0333333333333,-2.5558648109436,-2.50621914863586,8.44518089294434,-0.0304879993200302,2.01220798492432,-2.36281991004944,-1082.70007324219,8.10000038146973,-882.900024414062,-0.851244794290873,-0.283986037487897,0.288891880095811,ST
13.0666666666667,-2.52296710014343,-3.11811923980713,10.1534767150879,-0.137196004390717,1.44055795669556,-1.63872992992401,-1080.30004882812,7.50000047683716,-880.500061035156,-0.837433527240927,-0.235545241149152,0.29888203819296,ST
13.1,-2.26038217544556,-3.07624936103821,10.3508644104004,1.31860601902008,-0.419209986925125,-1.50153398513794,-1080.30004882812,12.3000001907349,-880.500061035156,-0.830932739344911,-0.205459517493231,0.287281378898751,ST
13.1333333333333,-2.14613699913025,-2.51459312438965,9.14799880981445,2.83538389205933,-2.02745199203491,-0.541162014007568,-1070.70007324219,9.90000057220459,-875.700012207031,-0.832235771560672,-0.218652711302617,0.263575415395888,ST
13.1666666666667,-1.79383075237274,-2.2472231388092,8.93625640869141,2.39330792427063,-1.63872992992401,0.602137982845306,-1082.70007324219,11.7000007629395,-880.500061035156,-0.839421006462822,-0.190275495355546,0.242248843740581,ST
13.2,-1.77708280086517,-2.01813435554504,9.67436408996582,1.63872992992401,-0.731711983680725,1.16616594791412,-1089.90002441406,4.5,-885.300048828125,-0.85221369265349,-0.177324592975847,0.203116626560215,ST
13.2333333333333,-1.90568351745605,-1.55218100547791,9.56131553649902,1.96647596359253,-0.525918006896973,1.64635193347931,-1073.10009765625,6.30000019073486,-882.900024414062,-0.868870127916436,-0.193617192628083,0.157454934522682,ST
13.2666666666667,-1.86800050735474,-1.29677391052246,9.28377723693848,1.85214591026306,-0.144817993044853,1.79117000102997,-1089.90002441406,10.5,-880.500061035156,-0.881470504263696,-0.19682481882695,0.135280950099169,ST
13.3,-2.35070180892944,-0.666929423809052,9.51765060424805,1.39482593536377,-0.221037998795509,1.52439999580383,-1089.90002441406,2.70000004768372,-902.100036621094,-0.902851062958643,-0.240568566230678,0.0681347140600428,ST
13.3333333333333,-2.73411154747009,-0.313426911830902,9.92020130157471,0.647870004177094,-1.31098401546478,2.20275783538818,-1082.70007324219,0.300000011920929,-890.100036621094,-0.925452697597289,-0.266383397622342,0.0297742306973843,ST
13.3666666666667,-1.73162388801575,0.159106031060219,8.52533149719238,0.114329993724823,-2.73629784584045,2.59910202026367,-1085.10009765625,6.90000009536743,-890.100036621094,-0.951484168172767,-0.196621890058606,-0.0189966518210408,ST
13.4,-1.26746499538422,0.538328647613525,8.96257400512695,-0.106707997620106,-3.15550804138184,2.78202986717224,-1097.10009765625,3.30000019073486,-892.500061035156,-0.974645765358913,-0.135175686174082,-0.0599585786557817,ST
13.4333333333333,-0.360082060098648,0.467747807502747,9.17072772979736,-0.381099998950958,-4.25307607650757,2.22562384605408,-1099.5,9.30000019073486,-878.100036621094,-0.986522822594582,-0.0327786186839444,-0.0505351876631382,ST
13.4666666666667,-0.860129594802856,0.230883181095123,10.3389015197754,-1.27287399768829,-3.45276594161987,1.49391198158264,-1106.70007324219,9.90000057220459,-899.700012207031,-0.993375155747213,-0.076092834898054,-0.0208411254070414,ST
13.5,-0.491075366735458,0.0167480036616325,9.64326095581055,-1.90549993515015,-1.89025592803955,0.792688012123108,-1104.30004882812,11.7000007629395,-882.900024414062,-0.997738942155202,-0.0478628195786373,0.001301200802851,ST
13.5333333333333,-1.07546103000641,-0.449803501367569,10.2820777893066,-2.33233189582825,-0.236281991004944,0.815553963184357,-1106.70007324219,10.5,-882.900024414062,-1.00055305066728,-0.103016202003174,0.0470178648945398,ST
13.5666666666667,-1.49296486377716,-1.04017066955566,10.5500459671021,-2.5076379776001,-0.320124000310898,1.00610399246216,-1109.10009765625,12.3000001907349,-882.900024414062,-1.00172660779093,-0.138860575193239,0.101390806890393,ST
13.6,-1.35957896709442,-1.37453258037567,9.34598350524902,-2.5000159740448,0.533540010452271,1.48628997802734,-1099.5,15.9000005722046,-890.100036621094,-1.00530612587904,-0.144159337082463,0.149271749824876,ST
13.6333333333333,-1.04316139221191,-1.734614610672,8.79090690612793,-2.68294382095337,1.88263392448425,1.60061991214752,-1109.10009765625,11.1000003814697,-875.700012207031,-1.00781488391116,-0.12011160364579,0.198331607717727,ST
13.6666666666667,-0.877475738525391,-2.28610253334045,9.01222038269043,-2.81251788139343,1.28049600124359,0.754577994346619,-1113.90002441406,12.9000005722046,-878.100036621094,-1.00612630454933,-0.0970187090877671,0.252262820029522,ST
13.7,-1.15202331542969,-2.2532045841217,7.68314647674561,-1.49391198158264,0.739333987236023,0.0990860015153885,-1109.10009765625,11.7000007629395,-878.100036621094,-1.00243581731494,-0.14332663788308,0.287249737950488,ST
13.7333333333333,-1.27763342857361,-2.60491275787354,7.62572479248047,-0.83841997385025,1.28049600124359,0.586893975734711,-1097.10009765625,15.3000001907349,-892.500061035156,-0.997663026750224,-0.159386834072131,0.329798899563574,ST
13.7666666666667,-1.72624063491821,-2.9063766002655,10.099045753479,0.0838419944047928,0.701223969459534,0.556405961513519,-1089.90002441406,18.3000011444092,-875.700012207031,-1.00748830915582,-0.1641931556564,0.280641478245896,ST
13.8,-1.60481762886047,-2.81665515899658,9.89627552032471,1.48628997802734,-0.739333987236023,0.487807989120483,-1106.70007324219,21.9000015258789,-880.500061035156,-1.01092220836216,-0.153903609259559,0.274620853411041,ST
13.8333333333333,-1.81835460662842,-2.6396050453186,9.97343635559082,2.25611186027527,-0.25152599811554,0.160062000155449,-1097.10009765625,14.7000007629395,-882.900024414062,-1.01315787845562,-0.173789678865029,0.255039168574938,ST
13.8666666666667,-1.89312255382538,-2.34412240982056,9.87653636932373,2.23324584960938,0.87652999162674,-0.160062000155449,-1109.10009765625,2.70000004768372,-882.900024414062,-1.01293872100989,-0.185667641848202,0.229547401957092,ST
13.9,-1.77050316333771,-2.07794857025146,9.64565372467041,1.94360995292664,0.327746003866196,-0.602137982845306,-1109.10009765625,6.30000019073486,-873.300048828125,-1.01035597715512,-0.177978821233197,0.209236835443856,ST
13.9333333333333,-1.72025918960571,-1.56534016132355,8.88062858581543,2.26373386383057,-0.579271972179413,-0.541162014007568,-1097.10009765625,15.9000005722046,-882.900024414062,-1.01242066722899,-0.187175256727214,0.171367389226091,ST
13.9666666666667,-2.12998723983765,-1.11673295497894,9.76408576965332,1.80641400814056,-1.02134799957275,0.266770005226135,-1089.90002441406,11.1000003814697,-882.900024414062,-1.02435193295545,-0.211271135389887,0.111695672889572,ST
14.0,-1.42058956623077,-0.520982503890991,9.27420711517334,1.73781597614288,-1.18140995502472,0.884151995182037,-1099.5,2.10000014305115,-885.300048828125,-1.03857811208325,-0.150913243106969,0.053890379050917,ST
14.0333333333333,-0.721360445022583,-0.361278355121613,8.97393894195557,0.983237981796265,-0.983237981796265,1.12805593013763,-1109.10009765625,8.10000038146973,-880.500061035156,-1.04647184483119,-0.0798303977194321,0.038631725534555,ST
14.0666666666667,-0.550889670848846,0.171068891882896,9.04093074798584,0.586893975734711,-0.548784017562866,0.609759986400604,-1099.5,9.30000019073486,-875.700012207031,-1.05377553254425,-0.060238650197962,-0.0189395101112561,ST
14.1,-0.490477234125137,0.347521066665649,9.26702880859375,0.609759986400604,-0.891773998737335,0.716467976570129,-1111.5,10.5,-878.100036621094,-1.05861367326465,-0.0514033259351266,-0.0382508351343404,ST
14.1333333333333,-0.693247675895691,0.163891181349754,9.82090950012207,0.137196004390717,-0.861285984516144,0.586893975734711,-1101.90002441406,9.90000057220459,-878.100036621094,-1.06085251308964,-0.0687385560730636,-0.0172393813660139,ST
14.1666666666667,-1.36017715930939,-0.180639177560806,10.6379728317261,-0.823175966739655,0.525918006896973,0.541162014007568,-1101.90002441406,6.30000019073486,-880.500061035156,-1.06133975079607,-0.127400749428922,0.0178869388736771,ST
14.2,-1.45588004589081,-0.338548928499222,9.82390022277832,-0.647870004177094,1.88263392448425,0.655492007732391,-1097.10009765625,14.1000003814697,-873.300048828125,-1.06301595929348,-0.150003616256605,0.0351486599647346,ST
14.2333333333333,-1.37094366550446,-0.729136288166046,9.98061370849609,-0.899396002292633,2.33233189582825,0.602137982845306,-1111.5,11.1000003814697,-875.700012207031,-1.06077123448463,-0.140462026548064,0.0736740286858988,ST
14.2666666666667,-1.1556122303009,-1.07605922222137,9.32624530792236,-1.14329993724823,1.43293595314026,-0.114329993724823,-1109.10009765625,11.1000003814697,-875.700012207031,-1.05445887503398,-0.125183906428591,0.116251330581818,ST
14.3,-1.30634427070618,-1.65506160259247,8.53609848022461,-1.47104597091675,0.87652999162674,-0.640248000621796,-1087.5,14.7000007629395,-892.500061035156,-1.04045615424007,-0.150079931789377,0.19323390583964,ST
14.3333333333333,-1.97865700721741,-2.37462759017944,9.61275577545166,-2.16464805603027,1.61586391925812,-0.693601965904236,-1101.90002441406,9.30000019073486,-894.900024414062,-1.02739807753972,-0.199105676260218,0.24571152089846,ST
14.3666666666667,-1.79203629493713,-2.67848420143127,8.60548305511475,-1.98171997070312,2.26373386383057,-1.08994603157043,-1085.10009765625,14.7000007629395,-882.900024414062,-1.00819206663921,-0.199479903689847,0.304868830010776,ST
14.4,-1.84108412265778,-2.98832225799561,8.21369934082031,-1.60061991214752,2.34757590293884,-0.640248000621796,-1092.30004882812,18.3000011444092,-880.500061035156,-0.99221264398493,-0.210939772757957,0.351704232280195,ST
14.4333333333333,-1.98104953765869,-3.29935669898987,9.31547832489014,-0.693601965904236,0.640248000621796,-0.167683988809586,-1080.30004882812,18.9000015258789,-892.500061035156,-0.992826563951416,-0.198956254855419,0.34186928377792,ST
14.4666666666667,-2.02351760864258,-3.16058754920959,9.29873085021973,0.937505960464478,-1.34147191047668,-0.0304879993200302,-1089.90002441406,14.7000007629395,-882.900024414062,-0.997255388733863,-0.200931458999961,0.32608003341431,ST
14.5,-2.08452820777893,-2.71317648887634,8.65512847900391,2.63721203804016,-2.70580983161926,1.265251994133,-1082.70007324219,21.3000011444092,-875.700012207031,-1.01108473868123,-0.22165363169933,0.298888438814181,ST
14.5333333333333,-1.9469553232193,-2.49066734313965,8.86208629608154,2.77440786361694,-1.98171997070312,2.54574799537659,-1094.70007324219,8.10000038146973,-878.100036621094,-1.03101957717507,-0.206565758863086,0.268602108457708,ST
14.5666666666667,-2.01095676422119,-1.89013183116913,9.93395805358887,2.14178204536438,-0.442075997591019,2.9116039276123,-1080.30004882812,8.70000076293945,-873.300048828125,-1.06290356891176,-0.196640752540543,0.184406662574984,ST
14.6,-2.1772403717041,-1.51928317546844,10.4686985015869,2.34757590293884,0.0228659994900227,3.07166600227356,-1089.90002441406,11.7000007629395,-897.300048828125,-1.08617811873058,-0.203658929089446,0.139761371081372,ST
14.6333333333333,-2.14135193824768,-1.29198884963989,10.4346036911011,2.41617393493652,0.419209986925125,2.65245604515076,-1087.5,16.5,-880.500061035156,-1.10222489119457,-0.20222152276047,0.118445861701246,ST
14.6666666666667,-1.59285473823547,-0.491075366735458,9.48415470123291,2.37044191360474,-0.259148001670837,1.82165801525116,-1087.5,8.70000076293945,-882.900024414062,-1.12308882495931,-0.166561342481498,0.048346766716968,ST
14.7,-1.41400992870331,0.0622068680822849,9.3477783203125,2.60672402381897,-1.12043392658234,1.61586391925812,-1101.90002441406,5.10000038146973,-882.900024414062,-1.13926473792139,-0.148490163163058,-0.0105349079545334,ST
14.7333333333333,-0.660947978496552,0.765024840831757,8.15149211883545,2.52288198471069,-2.37806391716003,1.51677799224854,-1087.5,16.5,-878.100036621094,-1.15524560780847,-0.077506510643502,-0.0965731568811358,ST
14.7666666666667,-0.949851036071777,0.96958976984024,8.31897258758545,1.71494996547699,-2.03507399559021,1.08232402801514,-1101.90002441406,6.90000009536743,-873.300048828125,-1.16117940440368,-0.108602526443125,-0.118765031467475,ST
14.8,-0.687864422798157,0.470140367746353,9.27719783782959,0.0228659994900227,-1.21189796924591,0.602137982845306,-1101.90002441406,10.5,-890.100036621094,-1.15808406075326,-0.0724212796438352,-0.0519800419231307,ST
14.8333333333333,-0.788950562477112,0.236266478896141,9.77844142913818,-0.914639949798584,-0.922261953353882,-0.731711983680725,-1111.5,9.30000019073486,-890.100036621094,-1.15193373499873,-0.0787897385962053,-0.0229956712488782,ST
14.8666666666667,-1.51928317546844,-0.372044920921326,10.9292688369751,-1.06708002090454,0.564027965068817,-1.75305998325348,-1104.30004882812,20.1000003814697,-878.100036621094,-1.13629347896849,-0.137840041250324,0.035220276331643,ST
14.9,-0.339745193719864,-1.28839993476868,10.6176357269287,-1.34147191047668,1.00610399246216,-4.83234786987305,-1092.30004882812,9.90000057220459,-878.100036621094,-1.10020981401326,-0.034166025844703,0.122069783062558,ST
14.9333333333333,-2.17783856391907,-0.907981038093567,11.2175731658936,0.221037998795509,0.967993974685669,-7.53053569793701,-1089.90002441406,12.3000001907349,-875.700012207031,-1.06103828254409,-0.188834485661706,0.0835154515645748,ST
14.9666666666667,-2.45717144012451,-1.01504862308502,9.32026386260986,0.708845973014832,0.67835795879364,-5.3506441116333,-1106.70007324219,10.5,-878.100036621094,-1.02422233767288,-0.255266240721053,0.109175620590174,ST
15.0,-1.91166496276855,-1.44391715526581,8.91532135009766,-0.457319974899292,0.556405961513519,-3.85673189163208,-1097.10009765625,8.10000038146973,-882.900024414062,-0.989402294798045,-0.209109239127556,0.16210924516269,ST
15.0333333333333,-2.18441820144653,-1.80698990821838,9.03255653381348,-0.411587983369827,0.0228659994900227,-2.67532205581665,-1097.10009765625,11.1000003814697,-882.900024414062,-0.965835507528009,-0.231700908850153,0.198812474520242,ST
15.0666666666667,-1.94934797286987,-2.09828543663025,8.08210754394531,-0.0838419944047928,-0.381099998950958,-1.14329993724823,-1087.5,6.90000009536743,-878.100036621094,-0.947337706814865,-0.228257074992891,0.253819360591136,ST
15.1,-1.49176859855652,-2.13417410850525,8.31478500366211,-0.739333987236023,-1.6920839548111,0.434453994035721,-1092.30004882812,15.3000001907349,-875.700012207031,-0.953536665683067,-0.17018177461026,0.252302632393956,ST
15.1333333333333,-1.72504436969757,-2.12400579452515,9.79937648773193,-0.297257989645004,-3.27745985984802,1.82165801525116,-1087.5,10.5,-885.300048828125,-0.974463155160889,-0.165557021308213,0.213955210543437,ST
15.1666666666667,-1.7065018415451,-1.75674593448639,9.18807411193848,0.800309956073761,-4.43600368499756,3.26983785629272,-1104.30004882812,12.3000001907349,-875.700012207031,-1.00132529796225,-0.173753997423192,0.186791663176285,ST
15.2,-1.10297560691833,-1.77528834342957,9.87354564666748,0.411587983369827,-3.24697184562683,4.51984596252441,-1099.5,10.5,-892.500061035156,-1.03378976823237,-0.106107002350208,0.176344200413716,ST
15.2333333333333,-0.702817976474762,-1.48997414112091,9.67675685882568,0.457319974899292,-2.66770005226135,3.95581793785095,-1109.10009765625,7.50000047683716,-878.100036621094,-1.06055727870135,-0.0688084974395195,0.151893319550299,ST
15.2666666666667,-1.04734838008881,-1.36735486984253,10.186972618103,0.228659987449646,-1.62348592281342,2.94971394538879,-1099.5,5.10000038146973,-873.300048828125,-1.08061218932822,-0.0989462121881769,0.132800325191928,ST
15.3,-0.939682602882385,-0.961813926696777,10.5913171768188,1.14329993724823,-1.81403601169586,2.04269599914551,-1123.5,8.70000076293945,-875.700012207031,-1.09751285413804,-0.0854855147939319,0.0888363458325123,ST
15.3333333333333,-1.0276095867157,-0.667527556419373,10.210898399353,1.21189796924591,-1.71494996547699,2.46952795982361,-1123.5,11.7000007629395,-880.500061035156,-1.11400941609754,-0.0971641904059195,0.0632079435599197,ST
15.3666666666667,-0.715378999710083,-0.146545022726059,9.6641960144043,1.08232402801514,-2.01982998847961,2.24848985671997,-1113.90002441406,7.50000047683716,-870.900024414062,-1.13088722521375,-0.07091192277611,0.0138996016966948,ST
15.4,-0.169274464249611,0.419896364212036,9.1330451965332,0.846041977405548,-2.10367202758789,2.11129403114319,-1128.30004882812,6.90000009536743,-875.700012207031,-1.14513774578671,-0.0157158059678668,-0.0463680321331217,ST
15.4333333333333,0.807493031024933,0.828428030014038,8.46671390533447,0.78506600856781,-2.82013988494873,1.71494996547699,-1118.70007324219,6.30000019073486,-875.700012207031,-1.15180201424767,0.097704289833578,-0.0977167476427577,ST
15.4666666666667,0.399559497833252,0.598741114139557,9.1091194152832,-0.0304879993200302,-2.37044191360474,1.14329993724823,-1130.70007324219,10.5,-880.500061035156,-1.15981656558235,0.0487845275232301,-0.0659979699881114,ST
15.5,-0.119030453264713,0.438438802957535,9.83466720581055,-1.08232402801514,-1.35671591758728,0.685979962348938,-1137.90002441406,5.10000038146973,-880.500061035156,-1.16400828697422,-0.0088845423197809,-0.0429832122834689,ST
15.5333333333333,0.259594053030014,-0.115441590547562,9.43032169342041,-2.15702605247498,-0.182927995920181,0.327746003866196,-1135.5,12.3000001907349,-870.900024414062,-1.16636684424941,0.0274071182379334,0.0153394202624359,ST
15.5666666666667,0.168078169226646,-0.97557121515274,10.4112768173218,-3.09453201293945,0.663114011287689,0.137196004390717,-1147.5,12.3000001907349,-878.100036621094,-1.16828464192373,0.0151272541301091,0.0973099608621717,ST
15.6,-0.436644375324249,-1.68855762481689,10.7270956039429,-3.07166600227356,1.04421401023865,0.243903994560242,-1145.10009765625,12.9000005722046,-880.500061035156,-1.16850574816424,-0.0412829232781009,0.160619500973737,ST
15.6333333333333,-0.430662930011749,-2.2370548248291,10.8574914932251,-2.66007804870605,1.76830399036407,0.472563982009888,-1128.30004882812,14.1000003814697,-878.100036621094,-1.1679578641903,-0.0420075367499404,0.207088211527234,ST
15.6666666666667,-0.43425178527832,-2.37462759017944,10.0793075561523,-1.59299790859222,2.76678586006165,0.685979962348938,-1121.10009765625,19.5,-882.900024414062,-1.16747324749955,-0.0467967496610646,0.233659029490305,ST
15.7,-0.46236452460289,-2.59594058990479,9.17252254486084,-0.67835795879364,2.90398192405701,0.586893975734711,-1123.5,5.10000038146973,-875.700012207031,-1.16444130494596,-0.0534968786150289,0.276213988175059,ST
15.7333333333333,-0.665134966373444,-2.54868721961975,7.93556261062622,0.0076219998300075,2.60672402381897,0.297257989645004,-1123.5,8.70000076293945,-885.300048828125,-1.15931074268865,-0.0835672354943075,0.31019399969018,ST
15.7666666666667,-1.08323693275452,-2.25380277633667,7.98102188110352,0.960371971130371,1.62348592281342,0.983237981796265,-1118.70007324219,15.9000005722046,-880.500061035156,-1.16556249557806,-0.132505677198049,0.273863181965409,ST
15.8,-1.57371413707733,-2.21193265914917,9.65582180023193,1.96647596359253,0.3125019967556,2.17989206314087,-1097.10009765625,19.5,-873.300048828125,-1.18332096145639,-0.15851681792319,0.222021417317364,ST
15.8333333333333,-0.805100440979004,-1.4421226978302,8.25317668914795,3.353679895401,-1.73019397258759,2.61434602737427,-1113.90002441406,13.5000009536743,-887.700012207031,-1.2058954294072,-0.094345043381103,0.167283483576173,ST
15.8666666666667,-1.65326714515686,-1.19688403606415,10.1092147827148,3.05642199516296,-0.731711983680725,2.75154185295105,-1121.10009765625,12.3000001907349,-875.700012207031,-1.22725241931364,-0.159396768251434,0.112492425973173,ST
15.9,-1.67420220375061,-0.659751713275909,9.95369720458984,2.62196803092957,-0.129574000835419,2.21037983894348,-1111.5,10.5,-866.100036621094,-1.24555776405677,-0.166183145495529,0.0619039086288269,ST
15.9333333333333,-1.45049667358398,-0.861325860023499,11.0704298019409,1.76830399036407,0.724089980125427,1.84452390670776,-1116.30004882812,12.9000005722046,-875.700012207031,-1.25279725489011,-0.131937659020284,0.0739524765267954,ST
15.9666666666667,-1.48160016536713,-0.774595141410828,11.1691236495972,0.182927995920181,0.0914639979600906,0.25152599811554,-1109.10009765625,13.5000009536743,-878.100036621094,-1.25479068890479,-0.131761133250648,0.0689332591802723,ST
16.0,-1.45647811889648,-0.485692083835602,10.206711769104,0.396344006061554,-0.137196004390717,-0.0381099991500378,-1106.70007324219,9.90000057220459,-878.100036621094,-1.2572320231166,-0.141212096220013,0.0471632510261689,ST
16.0333333333333,-1.15860295295715,0.374437510967255,8.1784086227417,0.640248000621796,0.282013982534409,0.388722002506256,-1109.10009765625,11.1000003814697,-878.100036621094,-1.2721370104123,-0.141058536974518,-0.0456984646639685,ST
16.0666666666667,-0.917551338672638,0.601133704185486,8.55045413970947,0.777444005012512,0.983237981796265,1.05945801734924,-1111.5,10.5,-882.900024414062,-1.28157996753665,-0.108665294940257,-0.0714131549274286,ST
16.1,-0.374437510967255,0.983347058296204,8.04322814941406,0.693601965904236,-0.358233988285065,0.990859985351562,-1123.5,8.70000076293945,-882.900024414062,-1.29068712931358,-0.0465087757869625,-0.122010284985386,ST
16.1333333333333,-0.28710862994194,0.820053994655609,8.60608100891113,0.114329993724823,-1.80641400814056,0.411587983369827,-1116.30004882812,10.5,-878.100036621094,-1.29093974683552,-0.0302922515105998,-0.0957016217877324,ST
16.1666666666667,-0.744089841842651,0.729734420776367,9.86397552490234,-1.18140995502472,-2.33995389938354,-0.182927995920181,-1109.10009765625,3.30000019073486,-882.900024414062,-1.28804816896428,-0.0702962053474068,-0.0721787127333639,ST
16.2,-0.647190690040588,0.206359326839447,9.73058986663818,-1.33385002613068,-1.86738991737366,-0.602137982845306,-1121.10009765625,10.5,-878.100036621094,-1.28121944720408,-0.063295751484483,-0.0197766628626806,ST
16.2333333333333,-1.1717621088028,-1.11852741241455,12.4635047912598,-2.59910202026367,0.388722002506256,-0.830797970294952,-1121.10009765625,11.7000007629395,-870.900024414062,-1.26882894819426,-0.0933679287504822,0.0920945315346048,ST
16.2666666666667,-0.786558032035828,-1.56713461875916,11.5274114608765,-2.47714996337891,-0.175305992364883,-2.22562384605408,-1123.5,7.50000047683716,-880.500061035156,-1.2528653679383,-0.0670366855734697,0.139065204379983,ST
16.3,-0.802109718322754,-1.68377244472504,9.5984001159668,-2.05031800270081,0.114329993724823,-2.34757590293884,-1130.70007324219,14.1000003814697,-878.100036621094,-1.23756882964734,-0.081345513410578,0.176860262548281,DLL
16.3333333333333,-1.08862018585205,-2.07495808601379,9.25925350189209,-1.70732796192169,1.33385002613068,-0.769822001457214,-1123.5,6.90000009536743,-868.500061035156,-1.2275579941812,-0.115859395059115,0.223180542483882,DLL
16.3666666666667,-0.940878868103027,-2.1090521812439,8.14371681213379,-0.800309956073761,1.27287399768829,0.693601965904236,-1106.70007324219,8.70000076293945,-885.300048828125,-1.22675119387372,-0.113862979133283,0.254312794868311,DLL
16.4,-1.24952065944672,-2.21432518959045,7.70946455001831,-0.457319974899292,1.88263392448425,1.82165801525116,-1118.70007324219,14.1000003814697,-875.700012207031,-1.23080565746534,-0.157751433844694,0.279681070233676,DLL
16.4333333333333,-0.96958976984024,-2.13178157806396,6.8900089263916,0.411587983369827,1.38720393180847,2.99544596672058,-1109.10009765625,15.9000005722046,-866.100036621094,-1.24177083991938,-0.13785210974531,0.298395494672138,DLL
16.4666666666667,-1.69812786579132,-2.18082928657532,9.37708759307861,0.411587983369827,0.342989981174469,3.87959790229797,-1123.5,9.30000019073486,-868.500061035156,-1.27326467734178,-0.176028285279414,0.227975523664971,DLL
16.5,-2.25200819969177,-1.95233869552612,10.5560274124146,1.55488801002502,-1.40244793891907,5.32777786254883,-1111.5,13.5000009536743,-890.100036621094,-1.31180145089287,-0.205514435769654,0.179103142250162,DLL
16.5333333333333,-3.14563393592834,-0.82663357257843,9.19644832611084,2.0731840133667,-2.44666194915771,10.0305519104004,-1128.30004882812,12.3000001907349,-875.700012207031,-1.3918679159838,-0.323733718363505,0.0817858142357612,DLL
16.5666666666667,-3.04335141181946,-1.03418922424316,10.134934425354,0.739333987236023,-1.57775402069092,15.2058897018433,-1111.5,15.9000005722046,-882.900024414062,-1.47143180413507,-0.290604765429473,0.0921626249031834,DLL
16.6,-2.04445266723633,-1.83988773822784,11.4263248443604,-1.03659200668335,-0.92988395690918,16.6616916656494,-1109.10009765625,18.9000015258789,-882.900024414062,-1.55727951324415,-0.179183966206791,0.155184283720006,DLL
16.6333333333333,-1.06648886203766,-1.71487593650818,10.0721292495728,-2.94971394538879,-1.97409796714783,14.5580196380615,-1123.5,20.1000003814697,-870.900024414062,-1.64098168935559,-0.106263887709157,0.170635976208296,DLL
16.6666666666667,-0.681284844875336,-1.26746499538422,8.85191822052002,-3.00306797027588,-1.55488801002502,13.155571937561,-1123.5,19.5,-880.500061035156,-1.72054252900279,-0.0772805635990962,0.146076111428666,DLL
16.7,-1.5001425743103,-0.712986409664154,10.5021944046021,-2.38568592071533,-1.08994603157043,13.0183753967285,-1125.90002441406,17.7000007629395,-875.700012207031,-1.80498187412581,-0.140205310506485,0.0702593209358374,DLL
16.7333333333333,0.188415035605431,-0.319408357143402,8.692214012146,-1.37958192825317,-3.58234000205994,13.0869741439819,-1123.5,22.5,-882.900024414062,-1.88310793904229,0.0238690584813191,0.0399925140447441,DLL
16.7666666666667,-0.809287428855896,0.519188106060028,8.20472717285156,-1.44817996025085,-5.29728984832764,13.1479501724243,-1133.10009765625,29.7000007629395,-868.500061035156,-1.96121061204789,-0.085614424649591,-0.060510858391971,DLL
16.8,-1.17475283145905,-0.0089721446856856,7.98281621932983,-3.89484190940857,-4.09301376342773,18.5062160491943,-1140.30004882812,33.3000030517578,-868.500061035156,-2.07517952036369,-0.13842748530416,0.0028562140307306,DLL
16.8333333333333,-0.123217448592186,-1.06529259681702,9.02777194976807,-6.82931184768677,-3.87197589874268,20.1449451446533,-1125.90002441406,32.1000022888184,-858.900024414062,-2.18495252588789,-0.0133188367736919,0.126278214810197,DLL
16.8666666666667,0.47851437330246,-1.97147917747498,10.4968109130859,-6.87504386901855,-2.4847719669342,18.3461532592773,-1130.70007324219,33.3000030517578,-858.900024414062,-2.29125712918851,0.0418704186779402,0.197536551755172,DLL
16.9,1.27942776679993,-2.56244444847107,11.4945135116577,-5.05338573455811,0.548784017562866,10.6326894760132,-1118.70007324219,33.9000015258789,-856.500061035156,-2.34990111956616,0.101985129502461,0.229322234539288,DLL
16.9333333333333,1.08622765541077,-2.5618462562561,9.93814563751221,-2.74391984939575,0.937505960464478,3.7957558631897,-1111.5,38.7000007629395,-863.700012207031,-2.37198272877906,0.102185864449509,0.257308484582806,DLL
16.9666666666667,-1.29617583751678,-2.10845398902893,10.0182962417603,-0.640248000621796,2.62196803092957,-0.381099998950958,-1116.30004882812,39.9000015258789,-861.300048828125,-2.36703417923647,-0.127113458064872,0.209419951022477,DLL
17.0,-2.1030707359314,-2.20415687561035,9.55533409118652,0.510673999786377,2.47714996337891,-1.06708002090454,-1104.30004882812,43.5,-866.100036621094,-2.35469275399432,-0.213455999583002,0.226090427871307,DLL
17.0333333333333,-3.22099995613098,-1.72803509235382,8.82260894775391,1.08994603157043,1.84452390670776,0.487807989120483,-1111.5,39.9000015258789,-863.700012207031,-2.36272630550846,-0.3460300098016,0.191797643511215,DLL
17.0666666666667,-3.20903706550598,-1.90927231311798,8.50499534606934,1.01372599601746,1.6615959405899,1.80641400814056,-1113.90002441406,43.5,-854.100036621094,-2.35992484441035,-0.356146780959331,0.217845571143771,DLL
17.1,-2.54091143608093,-2.36386108398438,7.67716503143311,-0.0152439996600151,0.350611984729767,1.37958192825317,-1106.70007324219,36.3000030517578,-873.300048828125,-2.34110285963658,-0.308417035912133,0.296805262555804,DLL
17.1333333333333,-1.83988773822784,-2.70240998268127,7.83985996246338,-0.937505960464478,-1.90549993515015,0.426831990480423,-1092.30004882812,35.7000007629395,-866.100036621094,-2.3387479090776,-0.217130748625711,0.3325336477724,DLL
17.1666666666667,-1.91585195064545,-2.51638746261597,8.51336860656738,-0.739333987236023,-3.86435389518738,0.396344006061554,-1109.10009765625,41.1000022888184,-858.900024414062,-2.35738630954664,-0.206492836071851,0.288954076754059,DLL
17.2,-2.2591860294342,-1.98703098297119,8.90096569061279,0.243903994560242,-3.52898597717285,1.03659200668335,-1116.30004882812,44.7000007629395,-854.100036621094,-2.38360474995887,-0.236873082712125,0.219286473946554,DLL
17.2333333333333,-1.15800476074219,-2.30464482307434,9.40520000457764,0.823175966739655,-2.78202986717224,1.91312193870544,-1125.90002441406,46.5,-851.700012207031,-2.3950864102906,-0.116493931825666,0.238117097805694,DLL
17.2666666666667,-1.0575168132782,-2.14972591400146,10.9107255935669,-0.0076219998300075,-2.94971394538879,0.25152599811554,-1123.5,48.9000015258789,-846.900024414062,-2.40441342610869,-0.09033742344225,0.195213433622079,DLL
17.3,-1.01445043087006,-2.155109167099,11.0788040161133,1.03659200668335,-2.62959003448486,-0.564027965068817,-1130.70007324219,41.1000022888184,-849.300048828125,-2.40401662645567,-0.0850465084671971,0.190413699244512,DLL
17.3333333333333,-1.39546751976013,-1.68377244472504,11.389838218689,0.78506600856781,-1.81403601169586,-0.297257989645004,-1118.70007324219,41.7000007629395,-854.100036621094,-2.4079447301312,-0.116816929990576,0.14622772450942,DLL
17.3666666666667,0.30325847864151,-1.73700714111328,8.77296257019043,0.640248000621796,-1.97409796714783,0.411587983369827,-1133.10009765625,42.3000030517578,-856.500061035156,-2.41031422581104,0.0343260258744538,0.193512162805516,DLL
17.4,0.12441373616457,-1.09400343894958,9.30411434173584,0.46494197845459,-0.907018005847931,0.0838419944047928,-1128.30004882812,47.1000022888184,-866.100036621094,-2.4096942429037,0.0151899264227545,0.117648509983027,DLL
17.4333333333333,1.29079258441925,-1.24473547935486,8.1072301864624,0.327746003866196,-0.937505960464478,-0.228659987449646,-1135.5,45.3000030517578,-844.500061035156,-2.41223570195104,0.156120016531622,0.151351466842401,DLL
17.4666666666667,1.24533367156982,-1.21841728687286,7.69750165939331,-0.548784017562866,-0.586893975734711,-0.754577994346619,-1113.90002441406,44.7000007629395,-863.700012207031,-2.40875302793085,0.159625270950054,0.157673077549697,DLL
17.5,-0.57660984992981,-1.14723825454712,9.35794639587402,-1.14329993724823,1.2576299905777,0.0685980021953583,-1140.30004882812,41.7000007629395,-854.100036621094,-2.40648519385686,-0.0602490793086163,0.124453491371997,DLL
