seconds,sensor_accX_m_s_,sensor_accY_m_s_,sensor_accZ_m_s_,sensor_gyroX___s_,sensor_gyroY___s_,sensor_gyroZ___s_,sensor_magX__T_,sensor_magY__T_,sensor_magZ__T_,sensor_yaw___,sensor_pitch___,sensor_roll___,label3
0.0,1.75614774227142,-0.853550016880035,9.53798770904541,0.365855991840363,-0.297257989645004,0.487807989120483,-1207.5,12.3000001907349,-849.300048828125,0.0498636671260414,0.181809494463861,0.0887815122120172,ST
0.0333333333333333,1.76093292236328,-0.803904175758362,9.51585674285889,0.335367977619171,-0.282013982534409,0.510673999786377,-1212.30004882812,8.10000038146973,-844.500061035156,0.0460358994338906,0.182759575900516,0.0838848745916893,ST
0.0666666666666667,1.7746901512146,-0.742893576622009,9.52363204956055,0.335367977619171,-0.243903994560242,0.541162014007568,-1214.70007324219,18.3000011444092,-834.900024414062,0.0422829891191568,0.184033899453402,0.0774673893093993,ST
0.1,1.78904557228088,-0.784165441989899,9.48355674743652,0.3125019967556,-0.25152599811554,0.564027965068817,-1212.30004882812,10.5,-832.500061035156,0.036343268339705,0.18618517046171,0.0821281350457417,ST
0.133333333333333,1.7746901512146,-0.765622973442078,9.521240234375,0.182927995920181,-0.0838419944047928,0.518296003341675,-1202.70007324219,6.30000019073486,-851.700012207031,0.0322977868567447,0.183780770357575,0.0800974948180942,ST
0.166666666666667,1.72743690013885,-0.754856407642365,9.63847541809082,0.175305992364883,-0.0228659994900227,0.541162014007568,-1209.90002441406,12.9000005722046,-842.100036621094,0.0278475825876386,0.176793092234816,0.0780253499085264,ST
0.2,1.73581087589264,-0.84158718585968,9.4847526550293,0.198172003030777,0.0076219998300075,0.594515979290009,-1224.30004882812,7.50000047683716,-834.900024414062,0.0204361139442734,0.180204528492585,0.0883249228104154,ST
0.233333333333333,1.76631617546082,-0.870298027992249,9.7000846862793,-0.0990860015153885,-0.0685980021953583,0.358233988285065,-1212.30004882812,11.1000003814697,-839.700012207031,0.0174421428199451,0.179480046217765,0.0897636418852366,ST
0.266666666666667,1.77050316333771,-0.909177303314209,9.55952072143555,0.137196004390717,-0.198172003030777,0.274392008781433,-1212.30004882812,8.10000038146973,-834.900024414062,0.0140472796654761,0.182616256189597,0.0946583344964361,ST
0.3,1.74956822395325,-0.931906759738922,9.51705265045166,0.0609759986400604,-0.121951997280121,0.106707997620106,-1205.10009765625,8.70000076293945,-837.300048828125,0.0125033092621913,0.181157694487387,0.0975292602472723,ST
0.333333333333333,1.68676316738129,-0.896018147468567,9.44288349151611,0.129574000835419,-0.0609759986400604,0.121951997280121,-1221.90002441406,14.1000003814697,-844.500061035156,0.0117887434968085,0.176087562847923,0.0944257646992595,ST
0.366666666666667,1.63113594055176,-0.933103024959564,9.47817325592041,0.0381099991500378,-0.0381099991500378,0.266770005226135,-1214.70007324219,10.5,-844.500061035156,0.0088261838145389,0.169656399142528,0.098136435585991,ST
0.4,1.65506160259247,-0.96958976984024,9.48236083984375,0.0914639979600906,-0.0914639979600906,0.403965979814529,-1221.90002441406,10.5,-846.900024414062,0.0048027178475459,0.172000162825363,0.101849098156179,ST
0.433333333333333,1.69872605800629,-0.994113624095917,9.51107120513916,0.213415995240211,-0.236281991004944,0.472563982009888,-1214.70007324219,12.9000005722046,-849.300048828125,-0.0002943794352104,0.176121801226657,0.103921458442808,ST
0.466666666666667,1.7364090681076,-0.996506214141846,9.58344650268555,0.274392008781433,-0.25152599811554,0.381099998950958,-1214.70007324219,12.9000005722046,-837.300048828125,-0.003784033307451,0.178661578965084,0.103260849194012,ST
0.5,1.76452171802521,-0.973178625106812,9.53738975524902,0.335367977619171,-0.259148001670837,0.266770005226135,-1214.70007324219,16.5,-842.100036621094,-0.0062161622296855,0.182407286556821,0.101202452547032,ST
0.533333333333333,1.69992232322693,-0.907382905483246,9.57985782623291,0.358233988285065,-0.144817993044853,0.190549999475479,-1212.30004882812,2.70000004768372,-834.900024414062,-0.0070407782339353,0.175100240892669,0.0939005419901823,ST
0.566666666666667,1.67599666118622,-0.873288750648499,9.4967155456543,0.342989981174469,-0.0990860015153885,0.213415995240211,-1205.10009765625,9.30000019073486,-844.500061035156,-0.0088073412720561,0.174105796881126,0.0911784691652931,ST
0.6,1.58747148513794,-0.860129594802856,9.46202373504639,0.297257989645004,-0.0533539988100529,0.342989981174469,-1200.30004882812,5.10000038146973,-844.500061035156,-0.0118024111501981,0.165624774997989,0.0902399963591388,ST
0.633333333333333,1.63592100143433,-0.866111040115356,9.5924186706543,0.137196004390717,0.0762199983000755,0.457319974899292,-1221.90002441406,14.1000003814697,-849.300048828125,-0.0155040300643403,0.168033403408398,0.0899414644297923,ST
0.666666666666667,1.63412654399872,-0.846970438957214,9.61395168304443,0.365855991840363,-0.198172003030777,0.457319974899292,-1217.10009765625,12.3000001907349,-844.500061035156,-0.0193292912246814,0.168002908168656,0.0873820863382272,ST
0.7,1.7525589466095,-0.86491471529007,9.57866191864014,0.396344006061554,-0.457319974899292,0.388722002506256,-1205.10009765625,9.30000019073486,-830.100036621094,-0.0237771775935478,0.180941632252479,0.0894902865033538,ST
0.733333333333333,1.72743690013885,-0.814072608947754,9.57567119598389,0.411587983369827,-0.480185985565186,0.304879993200302,-1217.10009765625,10.5,-839.700012207031,-0.0261611390459534,0.178649659902976,0.084220400980299,ST
0.766666666666667,1.78007352352142,-0.799118995666504,9.56490421295166,0.411587983369827,-0.25152599811554,0.327746003866196,-1224.30004882812,6.90000009536743,-834.900024414062,-0.0292548481731072,0.18374654230403,0.0827531352848947,ST
0.8,1.73521280288696,-0.742295444011688,9.50449180603027,0.388722002506256,-0.106707997620106,0.403965979814529,-1217.10009765625,8.70000076293945,-834.900024414062,-0.0323437589471713,0.180182191770551,0.0774063674556537,ST
0.833333333333333,1.70590376853943,-0.750669419765472,9.49791240692139,0.266770005226135,-0.0076219998300075,0.472563982009888,-1212.30004882812,8.70000076293945,-849.300048828125,-0.0366708941445423,0.177132348977025,0.0785488587459529,ST
0.866666666666667,1.67300593852997,-0.745286166667938,9.53499698638916,0.205793991684914,-0.0152439996600151,0.472563982009888,-1214.70007324219,8.10000038146973,-849.300048828125,-0.0405774025937972,0.173150936938995,0.0777924829807374,ST
0.9,1.7184647321701,-0.837998330593109,9.45783710479736,0.0914639979600906,-0.0533539988100529,0.472563982009888,-1224.30004882812,8.70000076293945,-839.700012207031,-0.0465646636551785,0.179056040788453,0.0883378628310046,ST
0.933333333333333,1.62156558036804,-0.851755619049072,9.53499698638916,0.0457319989800453,-0.106707997620106,0.37347799539566,-1209.90002441406,12.9000005722046,-846.900024414062,-0.0497944460462522,0.167965713112344,0.0891232542150234,ST
0.966666666666667,1.46545028686523,-0.913364291191101,9.48953819274902,0.0381099991500378,-0.0838419944047928,0.411587983369827,-1207.5,3.90000009536743,-856.500061035156,-0.0542630344124823,0.152657105042395,0.0959746877092133,ST
1.0,1.33864402770996,-1.10118126869202,9.71503829956055,-0.0609759986400604,-0.0990860015153885,0.503051996231079,-1205.10009765625,8.70000076293945,-846.900024414062,-0.0609754024543232,0.136180899913668,0.113054167350827,ST
1.03333333333333,1.17295837402344,-1.16278994083405,9.74255275726318,0.213415995240211,-0.167683988809586,0.632625997066498,-1212.30004882812,1.5,-854.100036621094,-0.0672330682318498,0.11919310333467,0.118536696351544,ST
1.06666666666667,1.03239476680756,-1.21961355209351,9.64924240112305,0.419209986925125,-0.152439996600151,0.830797970294952,-1212.30004882812,6.30000019073486,-849.300048828125,-0.0750996636402659,0.105884073085967,0.125128926316456,ST
1.1,0.920542061328888,-1.26866126060486,9.60557842254639,0.617381989955902,-0.259148001670837,0.99848198890686,-1197.90002441406,9.30000019073486,-851.700012207031,-0.0853793612747994,0.0949636472814022,0.130400105160661,ST
1.13333333333333,0.477916240692139,-1.05332982540131,9.77545070648193,1.08232402801514,-0.655492007732391,1.30336201190948,-1200.30004882812,4.5,-844.500061035156,-0.0951214573553319,0.0496337328306257,0.105660749595391,ST
1.16666666666667,0.487486511468887,-0.925327181816101,9.61455059051514,1.28049600124359,-0.952749967575073,1.74543797969818,-1209.90002441406,14.1000003814697,-851.700012207031,-0.109784941805357,0.051788334875375,0.0939205732830328,ST
1.2,0.466551512479782,-0.789548695087433,9.4195556640625,1.41006994247437,-1.42531394958496,2.0655620098114,-1202.70007324219,9.90000057220459,-844.500061035156,-0.127262942456724,0.0515035709662764,0.0814057032719697,ST
1.23333333333333,0.685471832752228,-0.793137550354004,9.48834228515625,1.13567793369293,-2.01982998847961,1.91312193870544,-1217.10009765625,6.90000009536743,-846.900024414062,-0.144582054611362,0.0750229635941154,0.0816842951618134,ST
1.26666666666667,0.662144243717194,-0.729136288166046,9.62471866607666,1.04421401023865,-2.72105383872986,1.46342396736145,-1229.10009765625,9.30000019073486,-854.100036621094,-0.158868209938034,0.073044173484934,0.0740208496310475,ST
1.3,0.674705266952515,-0.70162171125412,9.24788856506348,1.14329993724823,-3.62807202339172,1.10518991947174,-1219.5,3.30000019073486,-837.300048828125,-0.170589256638732,0.0787722359758155,0.0739175387144697,ST
1.33333333333333,0.638218522071838,-0.771006286144257,9.11031532287598,0.884151995182037,-3.55185198783875,0.579271972179413,-1229.10009765625,2.70000004768372,-825.300048828125,-0.178785988440199,0.0757973111555882,0.0829686072062805,ST
1.36666666666667,0.248229339718819,-0.709995687007904,9.6402702331543,0.762199997901917,-3.37654590606689,0.182927995920181,-1236.30004882812,3.90000009536743,-825.300048828125,-0.181958281733985,0.0316913612160678,0.072249785037334,ST
1.4,0.127404451370239,-0.29009935259819,9.05708122253418,1.41769194602966,-4.04728174209595,0.663114011287689,-1255.5,6.30000019073486,-837.300048828125,-0.187709177069326,0.02112309653692,0.0297310116363387,ST
1.43333333333333,0.748276829719543,-0.310436189174652,8.96377086639404,1.06708002090454,-4.81710386276245,0.975615978240967,-1243.5,7.50000047683716,-820.500061035156,-0.197632460023805,0.0913231914378507,0.032923977484261,ST
1.46666666666667,1.18851006031036,-0.533543527126312,8.26573753356934,0.426831990480423,-5.73174381256104,0.6250039935112,-1257.90002441406,6.30000019073486,-832.500061035156,-0.209727545400892,0.152248890241099,0.0638852790363423,ST
1.5,1.44750595092773,-0.675901532173157,8.95659255981445,0.213415995240211,-5.46497392654419,0.205793991684914,-1262.70007324219,9.90000057220459,-827.700012207031,-0.216593509806658,0.169203664223022,0.0750908872521828,ST
1.53333333333333,2.01933073997498,-0.714780867099762,9.01042556762695,0.724089980125427,-5.29728984832764,0.67835795879364,-1267.5,9.90000057220459,-820.500061035156,-0.227046438152769,0.228704274465602,0.0783290631153967,ST
1.56666666666667,2.66412878036499,-0.714182734489441,8.86627292633057,0.914639949798584,-4.71039581298828,1.11281192302704,-1286.70007324219,11.1000003814697,-813.300048828125,-0.242147150469239,0.298910653131549,0.079575731163565,ST
1.6,3.2287757396698,-0.299669623374939,9.3597412109375,1.71494996547699,-3.12502002716064,1.61586391925812,-1272.30004882812,5.10000038146973,-806.100036621094,-0.244476665680943,0.337247175344351,0.0302441038199779,ST
1.63333333333333,4.47291326522827,-0.196190893650055,8.90275955200195,1.79117000102997,-3.23172783851624,1.36433792114258,-1279.5,0.900000035762787,-803.700012207031,-0.25717667583605,0.470578742453042,0.0202108341329451,ST
1.66666666666667,5.50949478149414,-0.288903057575226,8.620436668396,1.01372599601746,-2.30946588516235,0.228659987449646,-1291.5,15.3000001907349,-813.300048828125,-0.269381489032506,0.572073872782368,0.0320254380761039,ST
1.7,6.55684328079224,-0.553282260894775,9.16654109954834,-0.335367977619171,-2.53050398826599,-1.39482593536377,-1286.70007324219,0.300000011920929,-810.900024414062,-0.274844945057039,0.624421094809986,0.0592095489937046,ST
1.73333333333333,6.90256977081299,-0.57660984992981,9.91900444030762,-0.670735955238342,-2.72105383872986,-1.76830399036407,-1284.30004882812,10.5,-803.700012207031,-0.2600056766527,0.612137407149333,0.0572737695948879,ST
1.76666666666667,7.46482419967651,-0.575413525104523,9.79100227355957,-0.861285984516144,-1.71494996547699,-1.78354799747467,-1305.90002441406,10.5,-791.700012207031,-0.243594416178408,0.653673386812056,0.057959817101602,ST
1.8,7.72621297836304,-0.453392386436462,9.32684326171875,-0.792688012123108,-0.571649968624115,-1.50915598869324,-1277.10009765625,2.10000014305115,-798.900024414062,-0.224026485775253,0.692211621004709,0.0478567508729482,ST
1.83333333333333,7.2925591468811,-0.0293090064078569,9.353759765625,-0.815553963184357,0.472563982009888,-1.12043392658234,-1289.10009765625,9.90000057220459,-794.100036621094,-0.184823936524161,0.661497289206733,0.0031909751848038,ST
1.86666666666667,6.40132617950439,0.41750380396843,7.80875635147095,-0.571649968624115,2.75154185295105,-0.335367977619171,-1286.70007324219,2.70000004768372,-784.500061035156,-0.145758841743246,0.681093987427091,-0.0525139184181379,ST
1.9,5.32287406921387,0.678294122219086,7.63409852981567,-0.899396002292633,4.50460195541382,-0.708845973014832,-1291.5,2.10000014305115,-810.900024414062,-0.118461634715701,0.599396205183191,-0.0872972843955966,ST
1.93333333333333,3.61218547821045,0.87687760591507,9.78621673583984,-1.21189796924591,4.73326206207275,-1.18903195858002,-1274.70007324219,1.5,-818.100036621094,-0.108660066239017,0.34482141274026,-0.0877366888802359,ST
1.96666666666667,3.31251573562622,1.04196500778198,8.89259147644043,-0.769822001457214,3.51374197006226,-0.243903994560242,-1262.70007324219,10.5,-815.700012207031,-0.0983233517133586,0.34820255201355,-0.115090131816542,ST
2.0,3.7192530632019,0.483897656202316,8.83816051483154,-2.55336999893188,2.96495795249939,-0.701223969459534,-1269.90002441406,8.70000076293945,-810.900024414062,-0.110077389495508,0.392396830754329,-0.0508675895660967,ST
2.03333333333333,3.52306199073792,-0.491673529148102,9.76468372344971,-3.353679895401,2.5076379776001,-1.265251994133,-1257.90002441406,4.5,-813.300048828125,-0.128562297240329,0.341796534770691,0.0549135206577001,ST
2.06666666666667,2.83759021759033,-1.17415463924408,9.96745491027832,-2.53812599182129,2.22562384605408,-1.53202199935913,-1260.30004882812,8.10000038146973,-810.900024414062,-0.126707355394177,0.272113073075419,0.120717809590967,ST
2.1,2.34651494026184,-1.90329098701477,9.79817962646484,-1.77592599391937,3.14788603782654,-0.731711983680725,-1248.30004882812,11.1000003814697,-825.300048828125,-0.130637976120582,0.225864483901638,0.19425383624729,ST
2.13333333333333,2.06060242652893,-1.82493424415588,9.81851673126221,-1.61586391925812,3.55947399139404,-0.495429992675781,-1255.5,8.10000038146973,-825.300048828125,-0.116865781186813,0.19761971823582,0.186214975291757,ST
2.16666666666667,2.97755575180054,-1.70052051544189,9.00025749206543,-1.88263392448425,3.46038794517517,-0.693601965904236,-1241.10009765625,5.70000028610229,-825.300048828125,-0.101747957863626,0.308383876262164,0.189287622126976,ST
2.2,3.43812584877014,-1.43973016738892,8.23463439941406,-2.16464805603027,2.69056582450867,-1.63872992992401,-1241.10009765625,10.5,-844.500061035156,-0.0743612967493393,0.385839011523697,0.175442816325253,ST
2.23333333333333,2.76521492004395,-1.16039741039276,8.12577247619629,-1.74543797969818,2.85824990272522,-1.41769194602966,-1257.90002441406,8.70000076293945,-827.700012207031,-0.0448915463969686,0.320603823809156,0.143952463870554,ST
2.26666666666667,1.56175124645233,-0.594554126262665,7.92838525772095,-0.0609759986400604,4.12350177764893,0.144817993044853,-1231.5,7.50000047683716,-825.300048828125,-0.0256887198606103,0.187258431384564,0.0751469656426904,ST
2.3,0.711790144443512,-0.149535745382309,8.33512210845947,0.175305992364883,4.29880809783936,0.830797970294952,-1231.5,8.10000038146973,-832.500061035156,-0.0238809362017233,0.0780503367511633,0.0179460718818076,ST
2.33333333333333,-2.63063287734985,-0.772202551364899,12.1716117858887,0.594515979290009,5.67076778411865,3.27745985984802,-1207.5,10.5,-834.900024414062,-0.0457284330922101,-0.222076446931576,0.0611003031454768,ST
2.36666666666667,-2.4476010799408,-1.67719292640686,11.4047918319702,-0.594515979290009,5.07625198364258,2.9116039276123,-1217.10009765625,10.5,-861.300048828125,-0.0458553380154691,-0.218734731099251,0.145906946521534,ST
2.4,-0.389989227056503,-2.29746723175049,9.5326042175293,-3.43752193450928,2.74391984939575,0.518296003341675,-1200.30004882812,14.7000007629395,-858.900024414062,-0.0346012501126087,-0.0452628888915086,0.242160841937125,ST
2.43333333333333,-0.0556272976100445,-1.82912123203278,9.55413722991943,-1.44817996025085,-0.121951997280121,-1.60824191570282,-1202.70007324219,14.1000003814697,-858.900024414062,-0.023517990485498,-0.0051197515138231,0.191887610227934,ST
2.46666666666667,0.194396466016769,-2.11862230300903,8.26454162597656,-1.55488801002502,-1.36433792114258,-1.15092194080353,-1207.5,12.3000001907349,-856.500061035156,-0.0175156899837298,0.0254754123874179,0.253399621198422,ST
2.5,0.482701390981674,-2.31062626838684,8.68144702911377,-1.53964400291443,-0.396344006061554,-0.754577994346619,-1219.5,5.70000028610229,-851.700012207031,-0.0120672616091416,0.0546023884472319,0.262726339663063,ST
2.53333333333333,0.0161498598754406,-1.89790761470795,9.12467098236084,-1.04421401023865,-0.274392008781433,-1.61586391925812,-1195.5,11.7000007629395,-854.100036621094,0.0018895663861678,0.0029742699992206,0.207090254860298,ST
2.56666666666667,-0.0317015759646893,-2.69104528427124,9.91063117980957,-1.50915598869324,-0.266770005226135,-2.45428395271301,-1193.10009765625,18.3000011444092,-856.500061035156,0.0204437674056046,-0.0014932328588294,0.267554693189383,ST
2.6,0.138171032071114,-3.07026791572571,9.91721057891846,-1.34147191047668,-0.548784017562866,-2.66007804870605,-1200.30004882812,11.1000003814697,-854.100036621094,0.0395584617406602,0.0155399932963013,0.302380924693394,ST
2.63333333333333,0.38939106464386,-3.18750381469727,10.4417819976807,-0.907018005847931,-1.17378795146942,-3.23934984207153,-1200.30004882812,15.3000001907349,-851.700012207031,0.0621017231722112,0.0391818786687247,0.297693292760469,ST
2.66666666666667,0.32239904999733,-2.73112082481384,10.6828336715698,0.205793991684914,-1.40244793891907,-2.78965187072754,-1214.70007324219,13.5000009536743,-856.500061035156,0.0825855505281477,0.0328335099010495,0.249974987304695,ST
2.7,0.853550016880035,-2.50920987129211,10.1851787567139,1.13567793369293,-2.19513607025146,-1.79117000102997,-1202.70007324219,12.3000001907349,-863.700012207031,0.0922893724153702,0.0854611207030026,0.239426013734832,ST
2.73333333333333,0.829026162624359,-1.77110135555267,9.47817325592041,1.10518991947174,-1.45580196380615,-1.265251994133,-1202.70007324219,15.9000005722046,-842.100036621094,0.10413496870199,0.0886581988047438,0.182858721397894,ST
2.76666666666667,0.522776961326599,-1.54201257228851,9.12227821350098,0.846041977405548,0.274392008781433,-0.853663980960846,-1217.10009765625,11.1000003814697,-854.100036621094,0.112688665678107,0.0562828925286786,0.165923473648676,ST
2.8,-0.270360618829727,-1.60780835151672,8.77057075500488,0.670735955238342,1.93598794937134,-0.182927995920181,-1209.90002441406,11.1000003814697,-851.700012207031,0.117071638541966,-0.0333623879421785,0.180130276409059,ST
2.83333333333333,-1.09819054603577,-1.66044485569,9.05229568481445,0.0381099991500378,1.70732796192169,-0.297257989645004,-1195.5,2.10000014305115,-858.900024414062,0.12246140915055,-0.121430193506668,0.181469149509834,ST
2.86666666666667,-1.72982943058014,-2.02172327041626,9.23652362823486,0.129574000835419,1.53202199935913,0.87652999162674,-1207.5,4.5,-854.100036621094,0.122958612318461,-0.183790480939281,0.215035118927155,ST
2.9,-0.724351167678833,-2.41889023780823,9.98180961608887,-0.365855991840363,0.411587983369827,1.73781597614288,-1205.10009765625,6.90000009536743,-854.100036621094,0.112428191411211,-0.0721553977703236,0.238111607631567,ST
2.93333333333333,0.0137572884559631,-2.22210121154785,9.95967864990234,-0.182927995920181,-1.21189796924591,2.38568592071533,-1197.90002441406,16.5,-851.700012207031,0.0908467396303311,0.0022285213132276,0.219904916509702,ST
2.96666666666667,1.25729656219482,-2.67429733276367,9.45424747467041,0.0457319989800453,-2.04269599914551,3.59758400917053,-1200.30004882812,8.70000076293945,-863.700012207031,0.0549769711134271,0.128531696029155,0.276265404843743,ST
3.0,2.32557988166809,-2.38718867301941,8.64555835723877,0.579271972179413,-1.76068198680878,3.97868394851685,-1207.5,15.9000005722046,-851.700012207031,0.020169219773652,0.254430489141042,0.270350839732764,ST
3.03333333333333,2.36386108398438,-2.23466205596924,8.6862325668335,0.754577994346619,0.0,4.03965997695923,-1195.5,15.3000001907349,-854.100036621094,-0.0082804000348098,0.255930386458615,0.252327678112887,ST
3.06666666666667,2.06000447273254,-2.095294713974,8.94821929931641,0.716467976570129,0.503051996231079,3.59758400917053,-1219.5,11.1000003814697,-854.100036621094,-0.0309499072060373,0.218354964944436,0.230160221677772,ST
3.1,1.47621691226959,-2.20176434516907,9.210205078125,0.975615978240967,0.853663980960846,3.10977602005005,-1209.90002441406,11.7000007629395,-856.500061035156,-0.0554086904981056,0.152181199812522,0.233700088768162,ST
3.13333333333333,1.41640257835388,-2.13477230072021,9.74374866485596,0.647870004177094,1.18140995502472,2.23324584960938,-1209.90002441406,17.7000007629395,-849.300048828125,-0.0688054061561995,0.138258124386762,0.215090488642127,ST
3.16666666666667,1.08084440231323,-2.50203204154968,9.99437046051025,0.92988395690918,1.6920839548111,1.77592599391937,-1200.30004882812,14.1000003814697,-851.700012207031,-0.0836894071830153,0.101050160681284,0.2438078791669,ST
3.2,1.06469452381134,-2.95662069320679,9.60019493103027,0.609759986400604,2.32470989227295,1.36433792114258,-1205.10009765625,9.90000057220459,-849.300048828125,-0.0955225977186265,0.101019983370947,0.297718599252685,ST
3.23333333333333,0.65735912322998,-2.39137554168701,9.6043815612793,0.952749967575073,4.04728174209595,1.2500079870224,-1190.70007324219,15.9000005722046,-875.700012207031,-0.0932508436679361,0.0590624079411267,0.242551492818483,ST
3.26666666666667,0.0023925718851387,-1.76511991024017,9.67257022857666,1.57013201713562,5.0000319480896,1.46342396736145,-1178.70007324219,13.5000009536743,-856.500061035156,-0.0956011424461899,-0.0085496880598107,0.177991066847362,ST
3.3,-0.224303618073463,-1.4660484790802,8.69400787353516,1.83690190315247,5.22106981277466,1.37195992469788,-1185.90002441406,13.5000009536743,-878.100036621094,-0.0993894199457813,-0.0347202093554012,0.163872769817409,ST
3.33333333333333,-0.675901532173157,-1.672407746315,8.51456546783447,0.731711983680725,6.707359790802,0.708845973014832,-1164.30004882812,14.7000007629395,-858.900024414062,-0.0921058024155385,-0.0893788492459518,0.192718890194349,ST
3.36666666666667,-1.14305126667023,-1.50791847705841,9.08459568023682,0.548784017562866,6.32626008987427,0.198172003030777,-1169.10009765625,14.1000003814697,-868.500061035156,-0.0873435778182207,-0.134334572539984,0.163796162740622,ST
3.4,-1.9068797826767,-1.18432307243347,9.35555458068848,1.44055795669556,4.87807989120483,0.617381989955902,-1157.10009765625,18.3000011444092,-880.500061035156,-0.0917331837480882,-0.207830370580517,0.123556127331268,ST
3.43333333333333,-2.2053530216217,-0.888242304325104,9.72042179107666,1.58537602424622,4.07014799118042,1.50153398513794,-1154.70007324219,10.5,-863.700012207031,-0.105282569718735,-0.229435475098213,0.0880323947007909,ST
3.46666666666667,-2.33814096450806,-0.394176214933395,10.2611427307129,1.73019397258759,3.18599581718445,1.94360995292664,-1133.10009765625,11.1000003814697,-878.100036621094,-0.128304935795138,-0.229558426920585,0.0348296931245433,ST
3.5,-2.2711489200592,-0.509617805480957,10.0727272033691,1.21189796924591,1.94360995292664,1.94360995292664,-1135.5,4.5,-878.100036621094,-0.137797539184773,-0.225059436757108,0.0476517095000156,ST
3.53333333333333,-2.21611976623535,-0.406139075756073,10.1098127365112,0.236281991004944,1.09756803512573,1.54726600646973,-1130.70007324219,13.5000009536743,-873.300048828125,-0.151402020544142,-0.217665574752138,0.0391839472060383,ST
3.56666666666667,-1.96190893650055,-0.339147061109543,9.98121166229248,-0.228659987449646,0.121951997280121,1.31098401546478,-1135.5,8.10000038146973,-880.500061035156,-0.163163399769404,-0.194353213176054,0.0339341491437148,ST
3.6,-1.77947533130646,-0.44322395324707,9.61096096038818,-0.6250039935112,-0.0914639979600906,0.967993974685669,-1130.70007324219,14.1000003814697,-868.500061035156,-0.169373358913435,-0.182849032773757,0.0468134875185362,ST
3.63333333333333,-1.67599666118622,-0.497654944658279,9.3118896484375,-0.381099998950958,-0.0076219998300075,1.08994603157043,-1128.30004882812,11.1000003814697,-880.500061035156,-0.177603625831459,-0.177932875534949,0.0536948914913871,ST
3.66666666666667,-1.38290655612946,-0.465953379869461,9.18807411193848,-0.365855991840363,0.25152599811554,0.762199997901917,-1130.70007324219,14.7000007629395,-870.900024414062,-0.184636305706518,-0.149791235733875,0.0511178820371508,ST
3.7,-1.00308573246002,-0.500047504901886,9.14560604095459,-0.609759986400604,1.15092194080353,-0.0990860015153885,-1125.90002441406,13.5000009536743,-885.300048828125,-0.183329044425293,-0.111219474252887,0.0557009280258793,ST
3.73333333333333,-0.753660142421722,-0.237462759017944,9.51047325134277,-0.990859985351562,2.01220798492432,-1.49391198158264,-1125.90002441406,10.5,-875.700012207031,-0.174283428293691,-0.0826002250232359,0.0270224968889371,ST
3.76666666666667,-1.07127404212952,-0.687266290187836,9.31308650970459,-1.2347639799118,2.24086785316467,-1.92074394226074,-1130.70007324219,12.3000001907349,-892.500061035156,-0.152514761777203,-0.117796453679268,0.0761501674050777,ST
3.8,-0.991721034049988,-0.989328503608704,9.49013614654541,-1.6920839548111,2.14178204536438,-2.17989206314087,-1121.10009765625,18.3000011444092,-878.100036621094,-0.131416716359585,-0.106917785317691,0.107160437644314,ST
3.83333333333333,-0.881064593791962,-1.1478363275528,9.71982288360596,-1.6615959405899,1.63872992992401,-2.18751406669617,-1111.5,9.30000019073486,-873.300048828125,-0.112353493392347,-0.0922135440073284,0.120780445774027,ST
3.86666666666667,-0.994711756706238,-1.66343557834625,9.09596061706543,-0.914639949798584,1.59299790859222,-1.78354799747467,-1109.10009765625,11.1000003814697,-878.100036621094,-0.0906608947438269,-0.109271651687224,0.182634944276382,ST
3.9,-1.43554317951202,-1.64489316940308,8.98889255523682,-0.663114011287689,2.09605002403259,-1.27287399768829,-1113.90002441406,20.1000003814697,-882.900024414062,-0.0784376567861933,-0.158831270983106,0.182600008356608,ST
3.93333333333333,-2.07735061645508,-1.38709354400635,9.46321964263916,0.0076219998300075,2.45428395271301,-0.388722002506256,-1113.90002441406,12.9000005722046,-887.700012207031,-0.0792878662527535,-0.217797022497185,0.145949229111933,ST
3.96666666666667,-2.39197373390198,-1.20645439624786,9.04691219329834,0.381099998950958,2.72105383872986,0.0304879993200302,-1097.10009765625,18.3000011444092,-873.300048828125,-0.0791763417335649,-0.260867938496321,0.13211259219627,ST
4.0,-3.12230634689331,-1.05392789840698,9.25865459442139,0.0381099991500378,2.86587190628052,-0.182927995920181,-1099.5,12.3000001907349,-875.700012207031,-0.0802332096047644,-0.328081284066238,0.113622682702898,ST
4.03333333333333,-3.58227825164795,-1.51270353794098,9.11689472198486,-0.78506600856781,2.63721203804016,-0.198172003030777,-1092.30004882812,14.1000003814697,-878.100036621094,-0.0599272669321877,-0.37411015036566,0.166027605272247,ST
4.06666666666667,-3.99499678611755,-1.82553231716156,9.22575759887695,-1.41769194602966,1.83690190315247,-0.579271972179413,-1099.5,9.90000057220459,-892.500061035156,-0.0452499084887922,-0.404527004599112,0.198394121957029,ST
4.1,-3.82512426376343,-2.31002807617188,8.66410064697266,-1.33385002613068,1.21189796924591,-0.6250039935112,-1080.30004882812,13.5000009536743,-892.500061035156,-0.0172094300440612,-0.404977289866364,0.263332946307662,ST
4.13333333333333,-3.74975824356079,-2.77657961845398,8.41826438903809,-0.99848198890686,0.922261953353882,-1.16616594791412,-1075.5,14.7000007629395,-882.900024414062,0.013336231213274,-0.401084439126797,0.321256448036923,ST
4.16666666666667,-3.65884065628052,-2.92970418930054,8.54626655578613,-0.472563982009888,0.952749967575073,-1.54726600646973,-1073.10009765625,19.5,-882.900024414062,0.0293476349405027,-0.385546989942123,0.332291550655272,ST
4.2,-3.70190691947937,-3.2509069442749,9.49851036071777,0.137196004390717,0.685979962348938,-1.81403601169586,-1087.5,21.9000015258789,-887.700012207031,0.0438233813334679,-0.353490645210142,0.330774237853834,ST
4.23333333333333,-4.06677389144897,-2.87048816680908,9.49312686920166,2.18751406669617,-0.67835795879364,-1.02897000312805,-1087.5,19.5,-882.900024414062,0.0420308031489386,-0.387395772533399,0.290498541202302,ST
4.26666666666667,-3.61697053909302,-2.68984889984131,9.32803916931152,3.14788603782654,-0.975615978240967,0.0533539988100529,-1075.5,14.1000003814697,-892.500061035156,0.043028140742758,-0.355150233028473,0.275100299190563,ST
4.3,-2.86570286750793,-2.31122446060181,8.93745231628418,3.15550804138184,-1.2500079870224,0.6250039935112,-1080.30004882812,14.1000003814697,-890.100036621094,0.0347913151108902,-0.299358019355951,0.247155613926079,ST
4.33333333333333,-2.33993530273438,-1.90209460258484,9.99496936798096,3.05642199516296,-2.27135586738586,1.29574000835419,-1082.70007324219,11.1000003814697,-892.500061035156,0.0104425159984857,-0.222852791293824,0.182282481689861,ST
4.36666666666667,-1.33445692062378,-1.78605496883392,8.97932243347168,2.64483404159546,-3.32319188117981,1.56251001358032,-1094.70007324219,10.5,-887.700012207031,-0.0018074251027423,-0.139870485801301,0.191156320454982,ST
4.4,-0.852353751659393,-1.82852303981781,8.47628402709961,2.47714996337891,-2.95733594894409,1.75305998325348,-1080.30004882812,8.10000038146973,-887.700012207031,-0.0163920228189437,-0.0937320494757525,0.207695859983514,ST
4.43333333333333,-0.86491471529007,-1.7746901512146,8.24958801269531,2.27897787094116,-1.22714197635651,2.23324584960938,-1082.70007324219,9.30000019073486,-875.700012207031,-0.0341529182139219,-0.100823720343945,0.207487919178135,ST
4.46666666666667,-1.22080981731415,-1.6664263010025,8.65213775634766,2.0731840133667,-0.548784017562866,2.68294382095337,-1104.30004882812,17.1000003814697,-873.300048828125,-0.0564313896701191,-0.137469026495902,0.186075329642566,ST
4.5,-1.69693160057068,-1.27344644069672,8.23164367675781,1.74543797969818,-0.754577994346619,2.35519790649414,-1092.30004882812,12.9000005722046,-885.300048828125,-0.0803033842366118,-0.200136533105902,0.149664998065091,ST
4.53333333333333,-2.56065011024475,-0.801511585712433,8.43919944763184,1.44817996025085,-0.495429992675781,1.43293595314026,-1087.5,9.90000057220459,-880.500061035156,-0.102784952966983,-0.292380402884212,0.0916120990147152,ST
4.56666666666667,-2.98772406578064,-0.593357801437378,8.46671390533447,1.13567793369293,0.419209986925125,0.884151995182037,-1101.90002441406,2.10000014305115,-878.100036621094,-0.113790996408906,-0.339132182663186,0.0675505410525838,ST
4.6,-3.11811923980713,-0.592759668827057,9.08160495758057,0.541162014007568,1.15092194080353,0.282013982534409,-1106.70007324219,7.50000047683716,-878.100036621094,-0.115067278876269,-0.332143188007184,0.0641217309445133,ST
4.63333333333333,-3.18810200691223,-0.489879101514816,9.25327205657959,0.0762199983000755,0.670735955238342,-0.731711983680725,-1099.5,8.10000038146973,-885.300048828125,-0.11237678250592,-0.332469619173068,0.0532529110032664,ST
4.66666666666667,-3.57031536102295,-0.35110992193222,9.53140830993652,-0.198172003030777,-0.0457319989800453,-0.708845973014832,-1087.5,8.10000038146973,-887.700012207031,-0.112851124770951,-0.357962989518618,0.0376852971083419,ST
4.7,-3.66063499450684,-0.628648281097412,10.4681005477905,-0.282013982534409,-1.37195992469788,0.167683988809586,-1092.30004882812,11.1000003814697,-878.100036621094,-0.107812354016027,-0.333559417214901,0.0602402848786357,ST
4.73333333333333,-3.54818415641785,-0.347521066665649,9.82808685302734,0.0762199983000755,-1.70732796192169,0.952749967575073,-1087.5,9.90000057220459,-887.700012207031,-0.123848056201123,-0.343307873153583,0.0346754569733566,ST
4.76666666666667,-3.46384596824646,-0.169274464249611,10.3101902008057,0.640248000621796,-0.777444005012512,2.57623600959778,-1092.30004882812,7.50000047683716,-885.300048828125,-0.149880671222923,-0.32283188010053,0.0138365593191375,ST
4.8,-2.62345504760742,-0.254210770130157,9.55294132232666,0.426831990480423,-0.388722002506256,2.39330792427063,-1097.10009765625,3.30000019073486,-882.900024414062,-0.166006721417878,-0.267457188342359,0.024687388828567,ST
4.83333333333333,-1.8045973777771,-0.634629666805267,9.47159385681152,-0.945127964019775,-0.426831990480423,0.396344006061554,-1104.30004882812,6.90000009536743,-880.500061035156,-0.161460026101448,-0.187318753118197,0.0683288369354642,ST
4.86666666666667,-1.2297819852829,-0.738108456134796,9.5086784362793,-1.91312193870544,-0.0838419944047928,-0.87652999162674,-1097.10009765625,6.90000009536743,-873.300048828125,-0.15410795405656,-0.128060406087328,0.0809843936778198,ST
4.9,-0.665733098983765,-0.449205368757248,9.06784725189209,-1.73019397258759,0.365855991840363,-1.57775402069092,-1106.70007324219,14.7000007629395,-880.500061035156,-0.144596098091062,-0.073818480040259,0.0527925438748715,ST
4.93333333333333,-0.391185492277145,-0.269762486219406,8.86148834228516,-1.2423859834671,1.18903195858002,-0.823175966739655,-1089.90002441406,13.5000009536743,-887.700012207031,-0.139341599829281,-0.0462238954652683,0.0327449082569373,ST
4.96666666666667,-0.700425446033478,-0.0418700091540813,9.89627552032471,-1.08232402801514,1.21189796924591,0.228659987449646,-1092.30004882812,10.5,-885.300048828125,-0.143228307684185,-0.072678696884654,0.0061898355525697,ST
5.0,-1.08024621009827,-0.590367138385773,9.10553073883057,-0.823175966739655,0.213415995240211,0.87652999162674,-1101.90002441406,11.1000003814697,-892.500061035156,-0.14610729397976,-0.118240189575125,0.0659109732978896,ST
5.03333333333333,-1.85364508628845,-1.04914271831512,8.61624908447266,-0.647870004177094,-0.419209986925125,0.358233988285065,-1101.90002441406,13.5000009536743,-880.500061035156,-0.141128177698473,-0.209408331483363,0.121937608028338,ST
5.06666666666667,-2.39915156364441,-1.49894630908966,8.52174282073975,-0.175305992364883,0.396344006061554,0.335367977619171,-1104.30004882812,9.90000057220459,-887.700012207031,-0.131150757586184,-0.271036537786966,0.174099225869026,ST
5.1,-2.75385022163391,-2.24961566925049,9.14082050323486,-0.442075997591019,1.57013201713562,0.0,-1092.30004882812,8.10000038146973,-875.700012207031,-0.110693329997427,-0.287202661941564,0.242023551929498,ST
5.13333333333333,-3.42556476593018,-2.45657324790955,8.65512847900391,-0.632625997066498,2.47714996337891,-1.11281192302704,-1089.90002441406,14.1000003814697,-885.300048828125,-0.0861057627882248,-0.367296884712056,0.278771899687577,ST
5.16666666666667,-4.12359762191772,-3.05651068687439,9.44228458404541,-0.792688012123108,3.30032587051392,-1.11281192302704,-1082.70007324219,15.9000005722046,-875.700012207031,-0.0593505436199404,-0.398548395860936,0.315828175409176,ST
5.2,-3.77009510993958,-3.06249189376831,9.42314434051514,-0.525918006896973,3.01831197738647,-1.30336201190948,-1085.10009765625,17.7000007629395,-868.500061035156,-0.0429072180314693,-0.367940637779823,0.31660815889185,ST
5.23333333333333,-3.6253445148468,-3.18630766868591,9.51824951171875,0.0381099991500378,2.14178204536438,-1.18140995502472,-1065.90002441406,17.1000003814697,-892.500061035156,-0.0253064499200813,-0.349525614990596,0.324096856181138,ST
5.26666666666667,-3.7192530632019,-3.22997212409973,9.50449180603027,0.548784017562866,1.30336201190948,-0.769822001457214,-1070.70007324219,17.1000003814697,-897.300048828125,-0.0136525432724204,-0.356525319386179,0.327370382635488,ST
5.3,-3.61278343200684,-2.93269491195679,8.82918834686279,0.846041977405548,0.685979962348938,0.449698001146317,-1087.5,12.3000001907349,-875.700012207031,-0.0157212916709607,-0.371728668712805,0.319104039007936,ST
5.33333333333333,-3.16058754920959,-2.8782639503479,9.58763408660889,0.663114011287689,-0.518296003341675,1.63872992992401,-1063.5,12.9000005722046,-892.500061035156,-0.0369916337702069,-0.306020298833151,0.289643700075545,ST
5.36666666666667,-2.40991806983948,-2.53253722190857,8.67008209228516,0.99848198890686,-1.82927989959717,1.38720393180847,-1051.5,9.90000057220459,-875.700012207031,-0.0514171503008121,-0.258516779442906,0.281627090753198,ST
5.4,-2.11204290390015,-2.22628808021545,7.91702032089233,1.76830399036407,-3.04117798805237,1.28049600124359,-1082.70007324219,15.9000005722046,-878.100036621094,-0.0679392088881715,-0.246885363159391,0.27015483546044,ST
5.43333333333333,-2.42546963691711,-1.94516098499298,7.3523736000061,2.46952795982361,-3.96343994140625,0.746955990791321,-1077.90002441406,15.3000001907349,-885.300048828125,-0.0805769466719801,-0.302221191420088,0.253423936888225,ST
5.46666666666667,-3.00387406349182,-1.80579364299774,7.41757106781006,2.33233189582825,-3.10215401649475,0.693601965904236,-1080.30004882812,12.9000005722046,-890.100036621094,-0.0911059893156524,-0.369637704609477,0.233854830220493,ST
5.5,-3.77129149436951,-1.18851006031036,8.51516342163086,1.89787793159485,-1.17378795146942,1.265251994133,-1092.30004882812,11.7000007629395,-894.900024414062,-0.133688912088338,-0.411516955762149,0.134591601546322,ST
5.53333333333333,-3.97765064239502,-0.961215734481812,9.12586688995361,1.86738991737366,-0.632625997066498,1.94360995292664,-1085.10009765625,15.3000001907349,-882.900024414062,-0.156168191600825,-0.408279700704266,0.100299237248467,ST
5.56666666666667,-3.73061776161194,-0.684275567531586,8.86627292633057,1.21951997280121,-0.78506600856781,2.03507399559021,-1089.90002441406,14.7000007629395,-887.700012207031,-0.178392161383365,-0.396160473292762,0.0734686665470663,ST
5.6,-3.64508318901062,-0.160302311182022,9.49312686920166,0.228659987449646,-0.846041977405548,1.89787793159485,-1080.30004882812,6.30000019073486,-894.900024414062,-0.214166639200073,-0.365235627062979,0.0153791350257122,ST
5.63333333333333,-3.2867956161499,-0.290697485208511,10.940034866333,0.205793991684914,-1.39482593536377,2.27897787094116,-1094.70007324219,6.90000009536743,-904.500061035156,-0.228353783334241,-0.289704146912217,0.0249625256211843,ST
5.66666666666667,-2.4296567440033,-0.467747807502747,10.0601663589478,-0.0914639979600906,-3.30032587051392,1.08994603157043,-1101.90002441406,3.30000019073486,-880.500061035156,-0.232698320322416,-0.231276487745104,0.0460320889744391,ST
5.7,-2.15989422798157,-0.0364867225289345,9.72819709777832,-0.403965979814529,-2.99544596672058,0.701223969459534,-1104.30004882812,9.90000057220459,-892.500061035156,-0.24842717726483,-0.213323837932492,0.0043389334456291,ST
5.73333333333333,-1.40443968772888,-0.0239257179200649,9.61514854431152,-0.571649968624115,-1.88263392448425,1.31860601902008,-1109.10009765625,11.7000007629395,-882.900024414062,-0.260253057330561,-0.141973548154517,0.0031568060764671,ST
5.76666666666667,-0.598741114139557,-0.0861325860023499,9.11988544464111,-1.2423859834671,-1.34147191047668,1.39482593536377,-1094.70007324219,8.70000076293945,-882.900024414062,-0.271523524038659,-0.0635309080677614,0.011422420114013,ST
5.8,-0.193798318505287,-0.191405743360519,10.1139993667603,-1.70732796192169,-0.518296003341675,1.50153398513794,-1113.90002441406,10.5,-878.100036621094,-0.284042912535462,-0.0184427179180869,0.0218209440048913,ST
5.83333333333333,0.349913626909256,-0.333763778209686,9.36931133270264,-1.57013201713562,-1.14329993724823,0.777444005012512,-1106.70007324219,12.9000005722046,-875.700012207031,-0.290457290011846,0.0390362263245452,0.0383418054775059,ST
5.86666666666667,-0.191405743360519,-0.632237136363983,9.186279296875,-1.40244793891907,-1.47104597091675,-0.0457319989800453,-1111.5,5.70000028610229,-870.900024414062,-0.291259186115808,-0.0180066967245722,0.0710411931056375,ST
5.9,-1.36436414718628,-0.958225011825562,8.76219654083252,-0.983237981796265,-1.85214591026306,-0.342989981174469,-1116.30004882812,20.1000003814697,-870.900024414062,-0.287682409936868,-0.149801955693305,0.110530828778466,ST
5.93333333333333,-2.1491277217865,-1.10118126869202,8.70896148681641,-0.594515979290009,-0.693601965904236,0.358233988285065,-1104.30004882812,17.1000003814697,-885.300048828125,-0.28909436092101,-0.238649080069832,0.126565947252211,ST
5.96666666666667,-2.26157855987549,-1.86441159248352,8.80346870422363,-0.503051996231079,1.29574000835419,1.22714197635651,-1101.90002441406,12.9000005722046,-882.900024414062,-0.278188658757611,-0.248854564395864,0.208963039886761,ST
6.0,-2.77837419509888,-2.55706119537354,9.84842395782471,-1.14329993724823,2.58385801315308,0.182927995920181,-1111.5,9.30000019073486,-897.300048828125,-0.264991954834058,-0.270925131935239,0.2560816500503,ST
6.03333333333333,-2.50502276420593,-3.18152236938477,9.97881889343262,-1.63110792636871,2.46190595626831,-1.56251001358032,-1106.70007324219,12.3000001907349,-885.300048828125,-0.236668976767134,-0.238140187008022,0.312229793409747,ST
6.06666666666667,-2.98712611198425,-2.98832225799561,9.6761589050293,-0.762199997901917,0.746955990791321,-2.99544596672058,-1106.70007324219,12.9000005722046,-887.700012207031,-0.214956053418095,-0.286424208176831,0.302472565499491,ST
6.1,-2.46135830879211,-3.13845610618591,8.97094821929932,0.777444005012512,0.175305992364883,-2.11129403114319,-1097.10009765625,20.7000007629395,-880.500061035156,-0.188404627440801,-0.252612519869193,0.335985158397302,ST
6.13333333333333,-1.95174050331116,-2.71616721153259,9.1749153137207,1.31860601902008,-1.13567793369293,-1.73019397258759,-1099.5,11.1000003814697,-894.900024414062,-0.186896946297645,-0.198658037044626,0.286174273417183,ST
6.16666666666667,-1.76930689811707,-2.40513277053833,8.53430366516113,1.96647596359253,-1.81403601169586,-0.846041977405548,-1094.70007324219,17.7000007629395,-894.900024414062,-0.184151800025611,-0.193530967912566,0.271427535217676,ST
6.2,-1.65147268772125,-2.14553880691528,8.5067892074585,1.85976791381836,-1.55488801002502,0.236281991004944,-1097.10009765625,7.50000047683716,-878.100036621094,-0.191435928215073,-0.183567695608282,0.243720596707427,ST
6.23333333333333,-1.3458217382431,-1.92422592639923,8.63120269775391,1.56251001358032,-1.21951997280121,1.22714197635651,-1113.90002441406,11.1000003814697,-887.700012207031,-0.205683457622871,-0.149538197903956,0.21633849690893,ST
6.26666666666667,-1.42118775844574,-1.64070618152618,8.92728424072266,1.34147191047668,-1.59299790859222,1.18903195858002,-1104.30004882812,8.10000038146973,-878.100036621094,-0.221319424073684,-0.152936421144782,0.179161094274029,ST
6.3,-2.07017278671265,-1.57790112495422,9.36512470245361,0.815553963184357,-1.21951997280121,0.297257989645004,-1101.90002441406,4.5,-885.300048828125,-0.226450340543457,-0.212388568828584,0.165361345489774,ST
6.33333333333333,-2.84476804733276,-1.26866126060486,10.3556489944458,0.236281991004944,0.274392008781433,-0.640248000621796,-1109.10009765625,5.10000038146973,-873.300048828125,-0.230696071076683,-0.26640620026431,0.121913276532564,ST
6.36666666666667,-2.54150938987732,-0.884653449058533,9.47817325592041,0.754577994346619,0.236281991004944,-0.602137982845306,-1111.5,9.90000057220459,-873.300048828125,-0.23203307597178,-0.261230490883962,0.092148885450437,ST
6.4,-2.18800687789917,-0.397166937589645,9.04212760925293,0.670735955238342,-0.182927995920181,-0.137196004390717,-1104.30004882812,10.5,-882.900024414062,-0.241810559014444,-0.23693912931357,0.0429257059279011,ST
6.43333333333333,-1.94516098499298,-0.111852735280991,9.95549201965332,0.114329993724823,-0.259148001670837,0.868907988071442,-1118.70007324219,14.7000007629395,-878.100036621094,-0.255573483238359,-0.192640248718221,0.0108323632833966,ST
6.46666666666667,-0.983945190906525,0.0460570082068443,9.5445671081543,-0.282013982534409,-0.236281991004944,0.800309956073761,-1104.30004882812,9.90000057220459,-885.300048828125,-0.264502538560743,-0.102639105294009,-0.0044235777689246,ST
6.5,-0.901999592781067,-0.148937597870827,9.82390022277832,-0.846041977405548,1.01372599601746,0.754577994346619,-1116.30004882812,11.7000007629395,-890.100036621094,-0.269266668409369,-0.0933677614633574,0.016452936882034,ST
6.53333333333333,-0.818259596824646,-0.269762486219406,9.69051456451416,-1.12043392658234,1.74543797969818,0.525918006896973,-1111.5,15.9000005722046,-882.900024414062,-0.272858644959692,-0.0872972925889431,0.0296737113167996,ST
6.56666666666667,-1.29318511486053,-0.619077980518341,10.242600440979,-1.06708002090454,2.25611186027527,0.396344006061554,-1101.90002441406,14.7000007629395,-882.900024414062,-0.272564843031139,-0.129183042349707,0.0620521040405131,ST
6.6,-1.72025918960571,-0.977963745594025,11.0560750961304,-0.640248000621796,1.77592599391937,0.236281991004944,-1099.5,18.3000011444092,-882.900024414062,-0.27016657460824,-0.156787677966713,0.0892204518948443,ST
6.63333333333333,-2.06179881095886,-1.18910825252533,10.2581520080566,-0.221037998795509,1.02134799957275,0.0762199983000755,-1099.5,12.9000005722046,-882.900024414062,-0.265523508974613,-0.198767827229859,0.115751939231309,ST
6.66666666666667,-1.90388906002045,-1.05512416362762,8.10304260253906,0.0533539988100529,1.15092194080353,0.442075997591019,-1104.30004882812,9.90000057220459,-894.900024414062,-0.265055816009167,-0.230937946775135,0.129246541096795,ST
6.7,-2.09290218353271,-1.50373148918152,8.512770652771,-0.114329993724823,1.75305998325348,1.09756803512573,-1099.5,15.3000001907349,-885.300048828125,-0.260915580244413,-0.240844552496471,0.174540103152734,ST
6.73333333333333,-2.11084651947021,-1.97207736968994,8.16584777832031,-0.167683988809586,1.50153398513794,0.78506600856781,-1092.30004882812,13.5000009536743,-904.500061035156,-0.249519554354949,-0.24901621379109,0.2368455621596,ST
6.76666666666667,-2.55885553359985,-2.13417410850525,7.66998720169067,-0.0457319989800453,1.95885396003723,-0.0533539988100529,-1087.5,15.3000001907349,-875.700012207031,-0.235614626848459,-0.314009610972384,0.271659448216903,ST
6.8,-3.18929839134216,-2.70599889755249,8.64256763458252,0.175305992364883,2.85062789916992,-0.221037998795509,-1075.5,14.1000003814697,-890.100036621094,-0.216867085223602,-0.343127526140688,0.303668812938105,ST
6.83333333333333,-3.45906090736389,-3.31131958961487,10.6164398193359,-0.381099998950958,3.01068997383118,-0.556405961513519,-1065.90002441406,13.5000009536743,-892.500061035156,-0.206791900240109,-0.306415451992281,0.30379705317674,ST
6.86666666666667,-3.30773067474365,-2.88663792610168,9.3477783203125,0.716467976570129,0.304879993200302,-0.975615978240967,-1070.70007324219,11.1000003814697,-887.700012207031,-0.19867309204425,-0.325967978859546,0.298884809391483,ST
6.9,-3.00088334083557,-3.07445478439331,9.61455059051514,1.17378795146942,0.160062000155449,-0.0152439996600151,-1068.30004882812,15.3000001907349,-882.900024414062,-0.19282048670839,-0.289361868884853,0.307448847992677,ST
6.93333333333333,-2.77897214889526,-2.900395154953,9.89747142791748,1.12043392658234,-0.67835795879364,0.221037998795509,-1073.10009765625,12.3000001907349,-892.500061035156,-0.200231617252652,-0.262265902189083,0.283008030762759,ST
6.96666666666667,-2.5558648109436,-2.44700288772583,9.28617000579834,1.81403601169586,-1.47104597091675,0.830797970294952,-1075.5,7.50000047683716,-892.500061035156,-0.21314460606349,-0.258015846798031,0.254051113187268,ST
7.0,-2.26217675209045,-1.93439435958862,8.14551067352295,1.90549993515015,-1.65397393703461,1.31098401546478,-1077.90002441406,15.9000005722046,-892.500061035156,-0.228506974161899,-0.261602034443289,0.229152297057667,ST
7.03333333333333,-2.17006278038025,-1.25430583953857,6.92529916763306,1.65397393703461,-1.34147191047668,1.83690190315247,-1073.10009765625,10.5,-904.500061035156,-0.255399280288514,-0.297215643913079,0.175398160298561,ST
7.06666666666667,-2.82144045829773,-0.717771589756012,8.16824054718018,1.05945801734924,-0.289635986089706,2.44666194915771,-1080.30004882812,8.70000076293945,-887.700012207031,-0.299566925469651,-0.331143499229456,0.0846623991715963,ST
7.1,-2.91654515266418,-0.524571359157562,8.73228931427002,0.975615978240967,0.152439996600151,2.44666194915771,-1077.90002441406,7.50000047683716,-892.500061035156,-0.324536351433172,-0.322350213326853,0.0569805287947336,ST
7.13333333333333,-2.89740467071533,-0.345726639032364,9.02777194976807,0.46494197845459,0.746955990791321,1.78354799747467,-1080.30004882812,6.90000009536743,-892.500061035156,-0.34393446874189,-0.311788607272258,0.0365279563846937,ST
7.16666666666667,-2.86929178237915,-0.0478514358401299,9.6462516784668,-0.182927995920181,1.2347639799118,0.762199997901917,-1077.90002441406,19.5,-894.900024414062,-0.35949939153937,-0.291351946374063,0.0049991108996524,ST
7.2,-3.11991381645203,0.0442625805735588,11.2438917160034,0.0990860015153885,0.739333987236023,0.571649968624115,-1080.30004882812,14.1000003814697,-878.100036621094,-0.366331090395942,-0.272022450720292,-0.0043552488813047,ST
7.23333333333333,-2.57620167732239,0.0508421510457993,10.3054056167603,0.160062000155449,-0.731711983680725,0.144817993044853,-1075.5,10.5,-880.500061035156,-0.367348426258339,-0.243787767143623,-0.0052708776850071,ST
7.26666666666667,-2.18262362480164,0.217724040150642,10.1738138198853,-0.92988395690918,-0.342989981174469,-0.175305992364883,-1070.70007324219,10.5,-897.300048828125,-0.370786445095685,-0.210812647743988,-0.0196534596804947,ST
7.3,-1.47322618961334,0.193200185894966,9.26583290100098,-1.12805593013763,-0.37347799539566,-0.167683988809586,-1080.30004882812,11.1000003814697,-873.300048828125,-0.370778046998956,-0.157079551955917,-0.0188317447432764,ST
7.33333333333333,-1.23097825050354,-0.173461467027664,9.32684326171875,-1.01372599601746,-0.800309956073761,-0.205793991684914,-1063.5,18.3000011444092,-880.500061035156,-0.36470629582051,-0.129879356565183,0.0202924907619632,ST
7.36666666666667,-1.4080286026001,-0.747080564498901,8.42663860321045,-0.868907988071442,-0.99848198890686,-0.556405961513519,-1082.70007324219,7.50000047683716,-890.100036621094,-0.351822441932636,-0.162985015216649,0.0898177943611606,ST
7.4,-2.10546326637268,-1.55995690822601,7.98939561843872,-2.11891603469849,0.365855991840363,-0.937505960464478,-1073.10009765625,14.1000003814697,-887.700012207031,-0.325968536945902,-0.253081263624948,0.196567769052164,ST
7.43333333333333,-2.60730528831482,-2.36625361442566,8.87404918670654,-2.70580983161926,1.33385002613068,-0.975615978240967,-1063.5,14.1000003814697,-887.700012207031,-0.303656508464083,-0.278344687829399,0.265741049347699,ST
7.46666666666667,-3.08701586723328,-3.13725996017456,8.73049449920654,-2.27897787094116,1.98171997070312,-1.63110792636871,-1068.30004882812,17.7000007629395,-875.700012207031,-0.266553743995903,-0.323425178130707,0.350075695503122,ST
7.5,-3.25808477401733,-3.57210993766785,8.24540042877197,-1.48628997802734,2.86587190628052,-1.74543797969818,-1073.10009765625,10.5,-878.100036621094,-0.229163364207273,-0.351100458529204,0.412926095346988,ST
7.53333333333333,-3.36993741989136,-4.0117449760437,10.0595684051514,-0.708845973014832,2.46190595626831,-1.41769194602966,-1068.30004882812,13.5000009536743,-887.700012207031,-0.223660011493172,-0.304903889691143,0.382046460358007,ST
7.56666666666667,-3.29397344589233,-3.81375956535339,9.85500335693359,0.716467976570129,0.259148001670837,-1.27287399768829,-1070.70007324219,13.5000009536743,-878.100036621094,-0.216061676800062,-0.301803159101223,0.368732752274573,ST
7.6,-2.74846696853638,-3.65704607963562,8.37340354919434,1.76068198680878,-1.2347639799118,-0.708845973014832,-1053.90002441406,10.5,-887.700012207031,-0.198348527011996,-0.289742727101922,0.408722968448598,ST
7.63333333333333,-2.89860081672668,-3.46683669090271,8.92608737945557,2.26373386383057,-1.15854394435883,0.0076219998300075,-1061.10009765625,20.1000003814697,-890.100036621094,-0.208569226590653,-0.292046844243994,0.366442060364782,ST
7.66666666666667,-3.17912983894348,-3.06548261642456,9.03853797912598,2.60672402381897,-0.967993974685669,0.541162014007568,-1065.90002441406,6.90000009536743,-899.700012207031,-0.221768640540366,-0.320181459678244,0.322043141995335,ST
7.7,-3.5433988571167,-2.49126553535461,9.35914325714111,2.90398192405701,-1.07470202445984,1.43293595314026,-1058.70007324219,12.3000001907349,-873.300048828125,-0.249277681645659,-0.349500745172091,0.254160843858315,ST
7.73333333333333,-3.20006489753723,-1.70111858844757,8.59710884094238,2.97257995605469,-1.20427596569061,2.09605002403259,-1073.10009765625,12.3000001907349,-894.900024414062,-0.28079788316783,-0.348740413176722,0.188946361084415,ST
7.76666666666667,-3.15759682655334,-0.828428030014038,8.97094821929932,2.21037983894348,-1.82927989959717,2.88873791694641,-1075.5,9.30000019073486,-885.300048828125,-0.333066912305944,-0.334423663445511,0.0866828353023345,ST
7.8,-2.67011022567749,-0.334361910820007,8.91292858123779,1.34147191047668,-2.24848985671997,2.88111591339111,-1073.10009765625,9.30000019073486,-887.700012207031,-0.36905239721686,-0.287304133155475,0.0338154259663449,ST
7.83333333333333,-1.82074725627899,0.0968991592526436,7.72382020950317,0.792688012123108,-2.37806391716003,2.56861400604248,-1073.10009765625,9.30000019073486,-885.300048828125,-0.39994861060405,-0.227496362884996,-0.0147819003087148,ST
7.86666666666667,-1.77409207820892,0.0693845823407173,8.65094184875488,0.236281991004944,-1.47104597091675,2.58385801315308,-1077.90002441406,11.7000007629395,-882.900024414062,-0.418682536367549,-0.19975673752511,-0.0093635524738147,ST
7.9,-1.51509618759155,-0.0897214487195015,10.2372169494629,-0.190549999475479,-1.51677799224854,1.69970595836639,-1097.10009765625,11.7000007629395,-890.100036621094,-0.429441991591733,-0.144507815455815,0.0085929988235047,ST
7.93333333333333,-1.68377244472504,-0.122619308531284,10.0846900939941,0.0685980021953583,-1.6768399477005,1.18903195858002,-1089.90002441406,14.7000007629395,-880.500061035156,-0.438495328810856,-0.162456679891667,0.0116819102497638,ST
7.96666666666667,-1.94276833534241,-0.388194799423218,10.4238376617432,0.304879993200302,0.144817993044853,1.2423859834671,-1082.70007324219,8.10000038146973,-899.700012207031,-0.443640484779347,-0.184388062483057,0.0361993051696709,ST
8.0,-2.01035857200623,-0.317613929510117,10.8592853546143,0.182927995920181,0.0076219998300075,1.34909391403198,-1099.5,12.3000001907349,-894.900024414062,-0.455464223471208,-0.183064762144022,0.0285131405943037,ST
8.03333333333333,-1.81237316131592,-0.489280939102173,10.1086158752441,0.411587983369827,-1.47104597091675,1.32622802257538,-1092.30004882812,8.70000076293945,-885.300048828125,-0.462586503219586,-0.174776502176259,0.0471471185585252,ST
8.06666666666667,-1.51389980316162,-0.866111040115356,8.58036136627197,-0.114329993724823,-2.11129403114319,0.967993974685669,-1089.90002441406,14.7000007629395,-887.700012207031,-0.463056651325264,-0.170290374025806,0.100288378952695,ST
8.1,-1.68975389003754,-1.1376678943634,8.47807884216309,-1.265251994133,0.548784017562866,-0.0685980021953583,-1087.5,12.9000005722046,-887.700012207031,-0.457480258632816,-0.195866300357423,0.135519079085933,ST
8.13333333333333,-1.87099123001099,-1.59345293045044,8.47628402709961,-1.56251001358032,2.43141794204712,-0.914639949798584,-1101.90002441406,12.9000005722046,-887.700012207031,-0.438468742904568,-0.217429713648118,0.188906985064457,ST
8.16666666666667,-2.33275747299194,-2.179034948349,8.11979103088379,-1.44817996025085,3.81099987030029,-1.96647596359253,-1073.10009765625,9.90000057220459,-882.900024414062,-0.39818086640451,-0.276095290622952,0.266014541124119,ST
8.2,-2.59713673591614,-2.86570286750793,7.82251358032227,-1.15092194080353,3.71953582763672,-1.95123195648193,-1073.10009765625,3.90000009536743,-880.500061035156,-0.351859224875982,-0.307002831225268,0.354554637957327,ST
8.23333333333333,-3.2527015209198,-3.35797452926636,9.70427131652832,-1.20427596569061,2.63721203804016,-2.02745199203491,-1065.90002441406,11.7000007629395,-882.900024414062,-0.338741876979315,-0.309921305709477,0.336853941628422,ST
8.26666666666667,-3.32567501068115,-3.13606357574463,9.50927734375,0.0228659994900227,0.762199997901917,-1.60061991214752,-1058.70007324219,12.9000005722046,-885.300048828125,-0.330560135821793,-0.321014545561405,0.31960204349572,ST
8.3,-2.88783431053162,-2.99550008773804,8.87225437164307,0.815553963184357,-0.457319974899292,-0.617381989955902,-1063.5,22.5,-906.900024414062,-0.323746164211246,-0.298118958315734,0.32440340191553,ST
8.33333333333333,-3.07505297660828,-2.98353719711304,9.63129806518555,1.27287399768829,-0.830797970294952,0.480185985565186,-1061.10009765625,13.5000009536743,-894.900024414062,-0.333951431156923,-0.294891812472862,0.297902986750924,ST
8.36666666666667,-3.20963525772095,-2.64020299911499,9.5326042175293,2.01982998847961,-1.04421401023865,0.746955990791321,-1063.5,15.3000001907349,-892.500061035156,-0.346165650934463,-0.312289807036367,0.266222246624789,ST
8.4,-3.54758596420288,-1.71906292438507,9.49611759185791,3.24697184562683,-0.724089980125427,1.83690190315247,-1058.70007324219,14.7000007629395,-887.700012207031,-0.382645464501517,-0.351449063090975,0.172533273264055,ST
8.43333333333333,-3.10316562652588,-0.938486337661743,8.69939136505127,3.3613018989563,-1.53202199935913,2.55336999893188,-1061.10009765625,8.10000038146973,-890.100036621094,-0.418662212838692,-0.338660640587864,0.100200473460633,ST
8.46666666666667,-2.98353719711304,-0.208751901984215,9.28975868225098,1.78354799747467,-2.9192259311676,3.353679895401,-1070.70007324219,12.9000005722046,-875.700012207031,-0.466861780824239,-0.305829322737917,0.017768567768589,ST
8.5,-2.47511553764343,0.590367138385773,8.69699859619141,0.716467976570129,-2.5152599811554,3.3689239025116,-1080.30004882812,2.70000004768372,-885.300048828125,-0.51615352433053,-0.271978481709609,-0.0703233708423674,ST
8.53333333333333,-1.13527536392212,1.01026344299316,6.97673940658569,0.0304879993200302,-1.2576299905777,3.05642199516296,-1082.70007324219,10.5,-875.700012207031,-0.556062495077404,-0.157015504607329,-0.144476450433837,ST
8.56666666666667,-1.07845175266266,0.652574002742767,8.30820560455322,-1.2347639799118,-0.243903994560242,2.02745199203491,-1070.70007324219,8.70000076293945,-880.500061035156,-0.565307324447778,-0.128050120495583,-0.0768114775418745,ST
8.6,-1.76033473014832,-0.284716039896011,9.77485275268555,-2.21800184249878,-0.175305992364883,-0.411587983369827,-1087.5,10.5,-882.900024414062,-0.548299691712526,-0.177658785639054,0.0328508947036193,ST
8.63333333333333,-2.82443118095398,-0.996506214141846,11.3312206268311,-1.88263392448425,0.853663980960846,-1.44055795669556,-1082.70007324219,9.30000019073486,-885.300048828125,-0.527684740803976,-0.244392820845559,0.0914391075490637,ST
8.66666666666667,-2.88304901123047,-0.736313998699188,10.8347616195679,-0.449698001146317,0.685979962348938,-0.663114011287689,-1065.90002441406,8.10000038146973,-882.900024414062,-0.528647660246643,-0.26054935224481,0.0690511590646859,ST
8.7,-2.92910623550415,-0.943869590759277,10.9783163070679,0.228659987449646,-0.6250039935112,0.0914639979600906,-1085.10009765625,11.1000003814697,-892.500061035156,-0.525127395350462,-0.258752377591791,0.0852393233699194,ST
8.73333333333333,-2.62285685539246,-1.25071692466736,9.8316764831543,-0.297257989645004,-1.53964400291443,-0.205793991684914,-1085.10009765625,13.5000009536743,-887.700012207031,-0.514949211063756,-0.256012261898015,0.126903101706029,ST
8.76666666666667,-1.79801774024963,-1.5001425743103,8.77057075500488,-0.685979962348938,-0.640248000621796,-1.34147191047668,-1089.90002441406,12.9000005722046,-887.700012207031,-0.496565703747021,-0.198102709278365,0.170868263007678,ST
8.8,-1.68616509437561,-2.20176434516907,7.64307069778442,-0.670735955238342,-0.205793991684914,-2.9420919418335,-1077.90002441406,9.90000057220459,-897.300048828125,-0.453206495878826,-0.20710498628948,0.282252613720093,ST
8.83333333333333,-2.4416196346283,-2.75863528251648,7.69869804382324,-0.525918006896973,0.731711983680725,-2.90398192405701,-1075.5,6.90000009536743,-887.700012207031,-0.415428201620744,-0.289318176628059,0.346289045355321,ST
8.86666666666667,-2.56124830245972,-2.81904792785645,7.55574178695679,-0.175305992364883,0.609759986400604,-2.33995389938354,-1063.5,13.5000009536743,-875.700012207031,-0.393693011434539,-0.30701884840374,0.358693665142349,ST
8.9,-2.22090482711792,-3.08163261413574,8.5546407699585,-0.0304879993200302,-0.304879993200302,-0.739333987236023,-1097.10009765625,17.1000003814697,-880.500061035156,-0.392249868508447,-0.238784851840863,0.346094134633559,ST
8.93333333333333,-2.01753616333008,-3.15939116477966,9.15936374664307,0.37347799539566,-1.28049600124359,-0.663114011287689,-1082.70007324219,15.9000005722046,-873.300048828125,-0.3931640698544,-0.202938991716941,0.331632578080263,ST
8.96666666666667,-2.61149215698242,-2.85553455352783,9.72460842132568,1.6692179441452,-1.60824191570282,0.0,-1065.90002441406,11.7000007629395,-885.300048828125,-0.404631102695429,-0.249396393093295,0.282593183630966,ST
9.0,-2.82801985740662,-2.86749744415283,10.4920263290405,1.56251001358032,-1.05945801734924,1.21189796924591,-1089.90002441406,11.1000003814697,-882.900024414062,-0.417551333594724,-0.253126038839349,0.263477065411608,ST
9.03333333333333,-2.27533578872681,-2.04445266723633,9.33761024475098,1.49391198158264,-1.6768399477005,2.0731840133667,-1094.70007324219,9.90000057220459,-890.100036621094,-0.445818976839075,-0.231672026294851,0.21214470385276,ST
9.06666666666667,-2.57022023200989,-1.5001425743103,9.96924877166748,1.53964400291443,-1.02134799957275,2.83538389205933,-1101.90002441406,10.5,-880.500061035156,-0.48180316029195,-0.248527673614911,0.14560776635608,ST
9.1,-2.47631192207336,-0.923532724380493,9.7000846862793,1.70732796192169,-0.99848198890686,3.13264203071594,-1085.10009765625,10.5,-882.900024414062,-0.517058565202706,-0.247640849524797,0.0907271018994713,ST
9.13333333333333,-1.79024195671082,-0.425279647111893,8.29863548278809,0.503051996231079,-0.3125019967556,2.64483404159546,-1087.5,14.1000003814697,-897.300048828125,-0.547113250659494,-0.211994337464038,0.0494457608419238,ST
9.16666666666667,-1.93559062480927,-0.148937597870827,8.73228931427002,-0.0228659994900227,0.259148001670837,2.00458598136902,-1092.30004882812,9.90000057220459,-878.100036621094,-0.569932607844435,-0.218589300193076,0.0164412156420592,ST
9.2,-1.36556041240692,0.0909177288413048,8.21070861816406,-0.0914639979600906,-1.04421401023865,1.04421401023865,-1073.10009765625,7.50000047683716,-882.900024414062,-0.584305557455237,-0.163061678104791,-0.011157612840572,ST
9.23333333333333,-1.38470101356506,-0.314623206853867,8.63180160522461,-0.518296003341675,-1.88263392448425,0.167683988809586,-1094.70007324219,11.7000007629395,-890.100036621094,-0.57925484721833,-0.155701263770564,0.0371794549995434,ST
9.26666666666667,-2.04505085945129,-0.581394970417023,9.70486927032471,-0.724089980125427,-2.27897787094116,-0.556405961513519,-1094.70007324219,9.30000019073486,-897.300048828125,-0.572641345365114,-0.203153719380107,0.0611778666348562,ST
9.3,-2.05761170387268,-0.776987731456757,10.696590423584,-0.144817993044853,-1.00610399246216,-0.25152599811554,-1089.90002441406,17.1000003814697,-882.900024414062,-0.569107358565481,-0.187806407852943,0.0727954207626819,ST
9.33333333333333,-1.59823799133301,-0.437840640544891,11.0243730545044,0.327746003866196,0.0685980021953583,-0.152439996600151,-1087.5,20.7000007629395,-882.900024414062,-0.573003463609543,-0.144128471795867,0.0392850253207256,ST
9.36666666666667,-1.12809765338898,-1.12749946117401,11.1338329315186,-1.13567793369293,1.57013201713562,-1.10518991947174,-1092.30004882812,5.70000028610229,-885.300048828125,-0.555383747805241,-0.103075724432715,0.103011024229779,ST
9.4,-0.899008870124817,-1.16697692871094,9.11330604553223,-2.33233189582825,1.47104597091675,-2.37806391716003,-1082.70007324219,9.90000057220459,-885.300048828125,-0.53338253829011,-0.099551643856422,0.131787779842859,ST
9.43333333333333,-1.23516523838043,-1.31471824645996,8.49961185455322,-2.27897787094116,2.24848985671997,-1.43293595314026,-1080.30004882812,14.1000003814697,-882.900024414062,-0.517953723602699,-0.1460098603202,0.157828313543329,ST
9.46666666666667,-1.80998063087463,-1.96131074428558,8.9236946105957,-1.52439999580383,2.33233189582825,-0.182927995920181,-1085.10009765625,21.3000011444092,-885.300048828125,-0.504248070159687,-0.199370210425407,0.21912656533651,ST
9.5,-2.2651674747467,-1.8889354467392,8.42783451080322,-0.579271972179413,1.44055795669556,0.297257989645004,-1077.90002441406,18.9000015258789,-894.900024414062,-0.504642170046733,-0.258836087915184,0.221500841353583,ST
9.53333333333333,-2.38838481903076,-2.35309433937073,7.32904577255249,0.0304879993200302,0.609759986400604,0.541162014007568,-1080.30004882812,13.5000009536743,-894.900024414062,-0.48269400603328,-0.302005187724354,0.310104056817673,ST
9.56666666666667,-2.80887937545776,-3.36754488945007,9.84603118896484,-0.487807989120483,0.114329993724823,-0.0457319989800453,-1068.30004882812,17.1000003814697,-882.900024414062,-0.477468468937868,-0.263949003982068,0.330363913570012,ST
9.6,-2.70300817489624,-3.66482210159302,9.94532299041748,0.67835795879364,-0.685979962348938,-1.02134799957275,-1073.10009765625,11.1000003814697,-892.500061035156,-0.464494200104542,-0.248001064874714,0.352140133634475,ST
9.63333333333333,-2.99789261817932,-3.85144257545471,9.95549201965332,1.35671591758728,-0.907018005847931,-1.2500079870224,-1065.90002441406,15.3000001907349,-890.100036621094,-0.451192191062418,-0.271446661917684,0.367115907270178,ST
9.66666666666667,-3.04753851890564,-3.41719079017639,9.41656494140625,2.13416004180908,-1.00610399246216,-1.03659200668335,-1068.30004882812,14.7000007629395,-887.700012207031,-0.447352053495396,-0.292999761514304,0.344786679586128,ST
9.7,-3.92441606521606,-3.61397981643677,11.1846752166748,2.66007804870605,0.381099998950958,0.442075997591019,-1080.30004882812,10.5,-887.700012207031,-0.454186649293931,-0.323000824984542,0.307846372093428,ST
9.73333333333333,-3.00148153305054,-2.76999998092651,8.94403171539307,2.63721203804016,-0.975615978240967,1.30336201190948,-1075.5,4.5,-887.700012207031,-0.463430412580942,-0.309300737682325,0.29492435356558,ST
9.76666666666667,-2.08034133911133,-1.80878436565399,7.43611335754395,2.63721203804016,-3.13264203071594,2.47714996337891,-1087.5,11.7000007629395,-878.100036621094,-0.499829416038109,-0.261286140239786,0.23275992579679,ST
9.8,-1.8045973777771,-1.22021162509918,7.75013828277588,1.92836594581604,-3.38416790962219,2.72867584228516,-1077.90002441406,11.7000007629395,-887.700012207031,-0.541906196742489,-0.221092501487268,0.151768708022394,ST
9.83333333333333,-1.23636150360107,-0.0466551519930363,7.68314647674561,2.15702605247498,-2.95733594894409,2.63721203804016,-1092.30004882812,6.30000019073486,-887.700012207031,-0.589895675372172,-0.154569274929511,0.0019395839193902,ST
9.86666666666667,-2.05820989608765,-0.223705470561981,9.7359733581543,2.17989206314087,-1.2576299905777,3.29270386695862,-1106.70007324219,13.5000009536743,-887.700012207031,-0.609808582061941,-0.206001049317189,0.0179021376452795,ST
9.9,-1.52586269378662,0.282323479652405,8.76518726348877,1.89025592803955,-0.556405961513519,2.67532205581665,-1097.10009765625,9.90000057220459,-878.100036621094,-0.638340912135197,-0.171262582742033,-0.036103837391015,ST
9.93333333333333,-1.14305126667023,0.669920146465302,9.62950325012207,0.92988395690918,-0.205793991684914,2.36281991004944,-1099.5,3.90000009536743,-882.900024414062,-0.66121053180592,-0.11741700193492,-0.0714371906225491,ST
9.96666666666667,-1.36735486984253,0.611302137374878,10.2037210464478,0.289635986089706,-1.09756803512573,1.94360995292664,-1094.70007324219,6.90000009536743,-892.500061035156,-0.674554964054986,-0.130808083094867,-0.0608126686335914,ST
10.0,-0.951047301292419,0.150133892893791,10.2085056304932,-0.716467976570129,-1.6920839548111,1.21951997280121,-1089.90002441406,9.30000019073486,-882.900024414062,-0.680011374429367,-0.0899992523260432,-0.0137574171933145,ST
10.0333333333333,-1.15441596508026,-0.506028950214386,10.5655975341797,-1.31860601902008,-0.449698001146317,0.564027965068817,-1092.30004882812,5.70000028610229,-890.100036621094,-0.68000386521016,-0.107936629398418,0.0499246909895754,ST
10.0666666666667,-0.464158952236176,-0.405540943145752,8.76817798614502,-1.91312193870544,-0.0304879993200302,-0.907018005847931,-1099.5,3.90000009536743,-890.100036621094,-0.673743806922408,-0.0529023986207502,0.0496435641743084,ST
10.1,-1.78784930706024,-0.739304721355438,9.90165901184082,-1.02134799957275,1.69970595836639,-0.198172003030777,-1101.90002441406,13.5000009536743,-882.900024414062,-0.669360220919408,-0.180609744671401,0.0763117197831896,ST
10.1333333333333,-1.7483719587326,-1.28421294689178,9.87474250793457,-1.29574000835419,1.53202199935913,-0.411587983369827,-1109.10009765625,10.5,-875.700012207031,-0.656692730202422,-0.176379050813147,0.131570777178398,ST
10.1666666666667,-1.88175773620605,-1.38051402568817,9.66359806060791,-1.53202199935913,1.12043392658234,-0.365855991840363,-1092.30004882812,8.70000076293945,-880.500061035156,-0.652482661423493,-0.192218875851468,0.144699158634965,ST
10.2,-2.50442457199097,-1.80100846290588,10.3149757385254,-0.83841997385025,2.55336999893188,0.403965979814529,-1085.10009765625,12.3000001907349,-875.700012207031,-0.64747470220136,-0.239104711216566,0.174229822613923,ST
10.2333333333333,-2.18082928657532,-1.80280292034149,9.96266937255859,-0.266770005226135,2.5076379776001,0.754577994346619,-1087.5,12.9000005722046,-885.300048828125,-0.649384915366221,-0.216744934323339,0.1793604077028,ST
10.2666666666667,-1.76392364501953,-2.23884916305542,9.03435134887695,-0.426831990480423,1.44817996025085,0.221037998795509,-1087.5,12.3000001907349,-875.700012207031,-0.636152947436702,-0.189904360640544,0.243557195478585,ST
10.3,-1.77768087387085,-2.32438349723816,8.24719524383545,-0.701223969459534,0.472563982009888,-0.983237981796265,-1082.70007324219,8.10000038146973,-894.900024414062,-0.622403708501637,-0.204837141504817,0.276205712008332,ST
10.3333333333333,-2.10785579681396,-2.44221782684326,7.50071287155151,-0.586893975734711,0.586893975734711,-1.2500079870224,-1082.70007324219,9.30000019073486,-882.900024414062,-0.603616462102452,-0.26120148228755,0.316284244366201,ST
10.3666666666667,-2.47092866897583,-2.46135830879211,8.27052307128906,-0.266770005226135,1.33385002613068,-0.327746003866196,-1070.70007324219,12.9000005722046,-878.100036621094,-0.60574871755454,-0.280882941435135,0.29017093443625,ST
10.4,-2.78794431686401,-2.50801348686218,8.3698148727417,0.952749967575073,1.34147191047668,0.632625997066498,-1092.30004882812,11.7000007629395,-885.300048828125,-0.605398224359515,-0.311313498427309,0.289351501260425,ST
10.4333333333333,-3.9459490776062,-2.94465780258179,11.2947340011597,1.2423859834671,2.55336999893188,1.50915598869324,-1068.30004882812,5.70000028610229,-887.700012207031,-0.619926475457518,-0.330903124238385,0.252512819837759,ST
10.4666666666667,-3.80957269668579,-2.44999361038208,10.0165023803711,2.26373386383057,2.09605002403259,1.14329993724823,-1065.90002441406,10.5,-882.900024414062,-0.623893630891842,-0.357847457940194,0.235576079922205,ST
10.5,-3.38249850273132,-2.59952926635742,10.4914274215698,2.30184388160706,1.70732796192169,1.59299790859222,-1061.10009765625,11.7000007629395,-899.700012207031,-0.626196142868568,-0.306965475412146,0.238232614435944,ST
10.5333333333333,-3.38429284095764,-1.86142086982727,10.6188325881958,2.47714996337891,-0.480185985565186,1.34909391403198,-1065.90002441406,14.1000003814697,-894.900024414062,-0.652002970754461,-0.303766102950807,0.168691415865285,ST
10.5666666666667,-2.49724698066711,-1.41939330101013,8.58275318145752,2.65245604515076,-2.70580983161926,1.76068198680878,-1065.90002441406,9.30000019073486,-880.500061035156,-0.665862465740168,-0.275474832511815,0.158226877939044,ST
10.6,-2.20236253738403,-0.769211888313293,6.69860315322876,2.79727387428284,-3.88721990585327,2.22562384605408,-1075.5,5.10000038146973,-897.300048828125,-0.694140466398821,-0.309267044279099,0.108156812615505,ST
10.6333333333333,-2.40692734718323,-0.0939084440469742,6.27810859680176,2.59910202026367,-2.34757590293884,3.63569402694702,-1077.90002441406,9.30000019073486,-885.300048828125,-0.749741923182884,-0.361930997602219,0.008196082859688,ST
10.6666666666667,-2.88783431053162,-0.151928320527077,8.98410701751709,1.06708002090454,-0.350611984729767,3.55185198783875,-1080.30004882812,11.1000003814697,-885.300048828125,-0.774869425460468,-0.310535714832856,0.013041841575318,ST
10.7,-2.19219398498535,0.0155517170205712,9.97702503204346,0.182927995920181,-0.426831990480423,1.6844619512558,-1082.70007324219,8.70000076293945,-885.300048828125,-0.792177646837666,-0.215818144518659,-0.0024809289638247,ST
10.7333333333333,-1.98224580287933,0.712388277053833,9.66479396820068,0.586893975734711,-1.41769194602966,-0.365855991840363,-1077.90002441406,11.7000007629395,-885.300048828125,-0.802462077025259,-0.199402719632114,-0.0741715007903987,ST
10.7666666666667,-2.2591860294342,0.915158748626709,9.98001575469971,0.823175966739655,-1.37195992469788,-1.03659200668335,-1087.5,9.90000057220459,-885.300048828125,-0.794784043638867,-0.219462561051455,-0.0923945511629995,ST
10.8,-1.69334280490875,0.491075366735458,10.4268283843994,-0.792688012123108,-2.27897787094116,-1.63110792636871,-1092.30004882812,9.90000057220459,-880.500061035156,-0.771933571094007,-0.157099663963782,-0.045286970077416,ST
10.8333333333333,-1.9068797826767,0.52636581659317,10.0326519012451,-1.15854394435883,-2.69818782806396,-1.6768399477005,-1092.30004882812,7.50000047683716,-882.900024414062,-0.76000522879497,-0.182922482499646,-0.0497934345887597,ST
10.8666666666667,-2.28370976448059,0.0113647161051631,10.4226408004761,-1.17378795146942,-1.54726600646973,-0.480185985565186,-1087.5,6.90000009536743,-875.700012207031,-0.747933753963812,-0.212929239027325,0.0010167723349589,ST
10.9,-1.7423905134201,-0.327184200286865,9.74255275726318,-1.51677799224854,-0.739333987236023,0.282013982534409,-1094.70007324219,7.50000047683716,-897.300048828125,-0.74581300833268,-0.175740268010156,0.0359939346859225,ST
10.9333333333333,-1.6263507604599,-0.464158952236176,9.62053108215332,-1.47104597091675,-0.586893975734711,0.190549999475479,-1089.90002441406,18.9000015258789,-892.500061035156,-0.747038907969426,-0.166304705441576,0.0506586053425018,ST
10.9666666666667,-0.802707850933075,-0.55866551399231,8.17182922363281,-1.28811800479889,-1.20427596569061,-0.304879993200302,-1099.5,8.10000038146973,-882.900024414062,-0.743723471040674,-0.0956909579197205,0.0705060394507589,ST
11.0,-0.727341830730438,-0.655564725399017,7.51387214660645,-0.99848198890686,-0.823175966739655,-0.304879993200302,-1089.90002441406,3.90000009536743,-892.500061035156,-0.74087486656777,-0.0946621119415022,0.0887408235563333,ST
11.0333333333333,-0.894821882247925,-0.576011657714844,7.16515445709229,-0.708845973014832,-0.152439996600151,0.0152439996600151,-1101.90002441406,12.3000001907349,-882.900024414062,-0.742557558937414,-0.123477351571134,0.0814764289915159,ST
11.0666666666667,-1.98463833332062,-1.35539197921753,8.9296760559082,-0.92988395690918,1.21189796924591,0.518296003341675,-1092.30004882812,12.9000005722046,-878.100036621094,-0.735285288610112,-0.218377402661252,0.152019064336497,ST
11.1,-2.59414601325989,-2.19877362251282,9.94891166687012,-1.53964400291443,1.91312193870544,-0.213415995240211,-1089.90002441406,9.30000019073486,-887.700012207031,-0.717510328409842,-0.252419090218451,0.220343038993757,ST
11.1333333333333,-2.81545901298523,-2.69104528427124,8.85490894317627,-1.53964400291443,2.77440786361694,-0.518296003341675,-1089.90002441406,13.5000009536743,-885.300048828125,-0.689846333676077,-0.299547408628127,0.298187161761743,ST
11.1666666666667,-2.97097611427307,-3.80897450447083,10.9669513702393,-2.18751406669617,4.17685604095459,-1.39482593536377,-1068.30004882812,11.1000003814697,-880.500061035156,-0.661885589376449,-0.256728808593974,0.339210878662086,ST
11.2,-2.84177732467651,-3.97107124328613,10.7749471664429,-0.823175966739655,2.19513607025146,-1.82927989959717,-1065.90002441406,17.1000003814697,-882.900024414062,-0.63902419525863,-0.245103834349547,0.355579648750652,DLL
11.2333333333333,-2.78914070129395,-3.12828779220581,9.41417217254639,1.56251001358032,-0.746955990791321,-1.47104597091675,-1073.10009765625,20.7000007629395,-892.500061035156,-0.635030267951927,-0.271983967675575,0.318725018499455,DLL
11.2666666666667,-2.76461672782898,-2.31959843635559,8.26454162597656,2.82013988494873,-1.06708002090454,0.221037998795509,-1080.30004882812,8.70000076293945,-887.700012207031,-0.646547648013024,-0.30975167792056,0.268613045869709,DLL
11.3,-2.61268854141235,-1.77768087387085,8.20412921905518,2.94971394538879,-0.121951997280121,1.96647596359253,-1075.5,15.3000001907349,-892.500061035156,-0.672849287820478,-0.302269151031741,0.207399159838289,DLL
11.3333333333333,-2.4416196346283,-1.64429497718811,8.31119632720947,2.24086785316467,0.205793991684914,2.40855193138123,-1073.10009765625,5.10000038146973,-875.700012207031,-0.690649087301815,-0.281813580832343,0.190295539312349,DLL
11.3666666666667,-2.29268193244934,-1.48937594890594,8.52652835845947,1.62348592281342,-0.137196004390717,2.17227005958557,-1082.70007324219,14.1000003814697,-882.900024414062,-0.710542523816958,-0.259390208219864,0.16914503948918,DLL
11.4,-2.71317648887634,-1.25490391254425,8.74425220489502,1.69970595836639,-0.663114011287689,1.52439999580383,-1058.70007324219,9.90000057220459,-866.100036621094,-0.727874891153846,-0.297122971022877,0.138790291425807,DLL
11.4333333333333,-2.87587141990662,-1.14484560489655,9.20063495635986,1.91312193870544,-0.282013982534409,1.81403601169586,-1075.5,6.30000019073486,-887.700012207031,-0.743121615160046,-0.300650172583648,0.119534047513087,DLL
11.4666666666667,-2.8202440738678,-0.842185318470001,9.68154239654541,1.79879200458527,-0.37347799539566,1.96647596359253,-1085.10009765625,7.50000047683716,-885.300048828125,-0.765006207992504,-0.282153369277031,0.0827573410248995,DLL
11.5,-2.71018576622009,0.0269164331257343,9.20123291015625,1.6615959405899,-0.320124000310898,1.62348592281342,-1080.30004882812,6.30000019073486,-894.900024414062,-0.798799694405049,-0.285862657007529,-0.0063280496332941,DLL
11.5333333333333,-2.55227613449097,0.468944102525711,8.96915340423584,1.19665396213531,-0.198172003030777,1.53964400291443,-1073.10009765625,3.90000009536743,-882.900024414062,-0.821479597935615,-0.276420327313543,-0.0549027646426327,DLL
11.5666666666667,-2.37582397460938,0.588572680950165,9.52841758728027,0.556405961513519,-0.137196004390717,1.6692179441452,-1082.70007324219,9.90000057220459,-885.300048828125,-0.835488190928071,-0.243609900883621,-0.0633526667856487,DLL
11.6,-1.87278568744659,0.436046212911606,9.49910831451416,-0.221037998795509,-0.983237981796265,0.914639949798584,-1082.70007324219,0.900000035762787,-890.100036621094,-0.838888338987748,-0.192857021745225,-0.0458471732709765,DLL
11.6333333333333,-2.12041687965393,0.101086162030697,10.0015487670898,-0.807931959629059,-0.556405961513519,1.05183601379395,-1080.30004882812,8.10000038146973,-887.700012207031,-0.841149000158675,-0.207860900894363,-0.0092167202396353,DLL
11.6666666666667,-1.70889449119568,0.16269488632679,9.71563625335693,-1.32622802257538,-0.769822001457214,1.30336201190948,-1077.90002441406,15.3000001907349,-890.100036621094,-0.855112682574896,-0.172794182530698,-0.0148103232281931,DLL
11.7,-1.33445692062378,-0.472532957792282,9.78920745849609,-1.51677799224854,-1.38720393180847,1.13567793369293,-1075.5,2.70000004768372,-887.700012207031,-0.857373451898101,-0.133086668173753,0.0504729902224617,DLL
11.7333333333333,-1.30514800548553,-0.44322395324707,9.21499061584473,-1.2347639799118,-2.02745199203491,0.46494197845459,-1080.30004882812,16.5,-902.100036621094,-0.863655500032578,-0.137034233986487,0.0500819784674272,DLL
11.7666666666667,-1.45288932323456,-0.679490387439728,8.20472717285156,-0.442075997591019,-1.41006994247437,0.304879993200302,-1092.30004882812,4.5,-885.300048828125,-0.862767835298217,-0.172200155967161,0.0832080774214827,DLL
11.8,-2.47930264472961,-0.875681281089783,8.3871603012085,-0.525918006896973,-0.0228659994900227,-0.0228659994900227,-1085.10009765625,11.1000003814697,-882.900024414062,-0.858840868801483,-0.285632714764482,0.104905535061545,DLL
11.8333333333333,-3.25030899047852,-1.32847559452057,8.59531402587891,-0.861285984516144,0.670735955238342,0.449698001146317,-1094.70007324219,8.70000076293945,-892.500061035156,-0.848141799617259,-0.35864828506212,0.154438172285782,DLL
11.8666666666667,-4.28509616851807,-1.93559062480927,9.94472503662109,-1.55488801002502,1.31860601902008,1.2347639799118,-1073.10009765625,9.90000057220459,-880.500061035156,-0.845441977105352,-0.402647636615355,0.194084743080148,DLL
11.9,-4.54229784011841,-1.80818617343903,9.14560604095459,-1.49391198158264,0.388722002506256,2.40092992782593,-1085.10009765625,15.3000001907349,-880.500061035156,-0.866466399547937,-0.454670055738782,0.195853916708321,DLL
11.9333333333333,-4.57758808135986,-1.97446990013123,8.61266040802002,-2.04269599914551,-1.2500079870224,4.6341757774353,-1099.5,17.7000007629395,-892.500061035156,-0.895497477594305,-0.477572936074814,0.224485995256199,DLL
11.9666666666667,-4.54110145568848,-2.19219398498535,10.0027446746826,-2.47714996337891,-3.7881338596344,9.4970121383667,-1087.5,11.7000007629395,-870.900024414062,-0.982970577489131,-0.414670530301519,0.212336948987816,DLL
12.0,-3.87357378005981,-2.16408133506775,8.22566223144531,-2.20275783538818,-6.53967571258545,12.667763710022,-1089.90002441406,15.9000005722046,-897.300048828125,-1.07681399288661,-0.421730098263723,0.250057941041258,DLL
12.0333333333333,-3.30174922943115,-2.45477867126465,7.82849502563477,-3.58996200561523,-6.95126390457153,16.9589500427246,-1099.5,15.9000005722046,-892.500061035156,-1.2184867063217,-0.37975268158971,0.297270219022727,DLL
12.0666666666667,-3.79880595207214,-2.30643939971924,8.13294982910156,-4.87807989120483,-6.50156593322754,21.6769676208496,-1118.70007324219,15.9000005722046,-890.100036621094,-1.42899770642487,-0.421314182814898,0.267182382096187,DLL
12.1,-3.11034345626831,-3.32447862625122,9.77066516876221,-6.75309181213379,-5.26680183410645,25.8995552062988,-1104.30004882812,22.5,-880.500061035156,-1.6390995061,-0.29871315496714,0.325379287421033,DLL
12.1333333333333,-0.87388688325882,-3.72583246231079,8.3817777633667,-6.50918769836426,-5.31253385543823,23.9330787658691,-1128.30004882812,32.1000022888184,-878.100036621094,-1.82459748687225,-0.104289928308766,0.424779229199444,DLL
12.1666666666667,-0.0968991592526436,-3.28260850906372,8.57617378234863,-5.54881572723389,-3.97868394851685,20.4117164611816,-1113.90002441406,33.3000030517578,-870.900024414062,-1.99839991073305,-0.0174353851703807,0.374684237593544,DLL
12.2,0.0107665732502937,-2.61747360229492,9.66957950592041,-3.11739802360535,-3.01068997383118,14.7028379440308,-1135.5,38.1000022888184,-870.900024414062,-2.12707607964594,-0.0007935793043593,0.270011191494431,DLL
12.2333333333333,0.401952087879181,-2.06778025627136,9.25626277923584,-1.96647596359253,-3.41465592384338,10.5564699172974,-1118.70007324219,36.3000030517578,-873.300048828125,-2.21457850690893,0.0438824323182983,0.22421003173738,DLL
12.2666666666667,-0.595750391483307,-1.1777435541153,10.0685405731201,-0.693601965904236,-1.84452390670776,6.48632192611694,-1118.70007324219,39.3000030517578,-868.500061035156,-2.2692399223438,-0.0564849532461647,0.11741833730205,DLL
12.3,-0.0783567279577255,-1.12151801586151,9.47757530212402,-0.495429992675781,-1.46342396736145,4.39789390563965,-1118.70007324219,30.3000011444092,-868.500061035156,-2.30585908503319,-0.006765767926023,0.11858415178041,DLL
12.3333333333333,0.243444189429283,-1.07845175266266,8.51396751403809,-0.990859985351562,-2.22562384605408,2.45428395271301,-1116.30004882812,32.7000007629395,-854.100036621094,-2.32963048492766,0.0315917775224034,0.127856132768513,DLL
12.3666666666667,-0.460570096969604,-1.27942776679993,10.0200910568237,-1.60061991214752,-1.80641400814056,1.74543797969818,-1104.30004882812,44.1000022888184,-861.300048828125,-2.34678347999756,-0.0426511146983324,0.129646405943658,DLL
12.4,-0.427074074745178,-1.78725123405457,10.6995811462402,-1.89787793159485,-0.221037998795509,1.07470202445984,-1121.10009765625,44.1000022888184,-863.700012207031,-2.35520148768962,-0.0392909336167856,0.168654259148583,DLL
12.4333333333333,-0.126806303858757,-2.06060242652893,10.7940883636475,-0.724089980125427,0.434453994035721,-0.350611984729767,-1113.90002441406,37.5,-861.300048828125,-2.35133610043839,-0.0122680230791802,0.189826777274683,DLL
12.4666666666667,-0.132787734270096,-1.96848857402802,10.0147075653076,0.518296003341675,0.693601965904236,-0.983237981796265,-1116.30004882812,45.3000030517578,-854.100036621094,-2.34238363166545,-0.013862439232421,0.193194923180017,DLL
12.5,-0.433653652667999,-1.7244461774826,9.50987529754639,0.434453994035721,0.92988395690918,-1.50915598869324,-1125.90002441406,38.7000007629395,-858.900024414062,-2.32895318144524,-0.0458710736900382,0.178798214692902,DLL
12.5333333333333,-0.759043455123901,-1.75136256217957,8.19455909729004,-0.487807989120483,1.6692179441452,-1.17378795146942,-1118.70007324219,45.3000030517578,-861.300048828125,-2.31434129074739,-0.0926423804667187,0.21156801104699,DLL
12.5666666666667,-1.54380702972412,-1.82912123203278,8.68204498291016,-1.12805593013763,2.22562384605408,-0.617381989955902,-1113.90002441406,42.3000030517578,-844.500061035156,-2.30706628896069,-0.175646644508936,0.209942723021694,DLL
12.6,-2.18441820144653,-1.83928966522217,9.03076267242432,-0.960371971130371,2.35519790649414,-0.0609759986400604,-1113.90002441406,42.3000030517578,-851.700012207031,-2.30579768710397,-0.236612726293429,0.202834296930944,DLL
12.6333333333333,-3.07565116882324,-2.07854676246643,9.65342903137207,0.259148001670837,2.43141794204712,0.0762199983000755,-1097.10009765625,44.7000007629395,-875.700012207031,-2.2990881404904,-0.305987372492287,0.211849539487611,DLL
12.6666666666667,-3.08701586723328,-2.1610906124115,8.32614994049072,0.259148001670837,2.32470989227295,-0.891773998737335,-1106.70007324219,42.3000030517578,-868.500061035156,-2.27280997163573,-0.348010654225477,0.254329810184632,DLL
12.7,-3.15460610389709,-2.95303177833557,8.3698148727417,-0.0609759986400604,1.51677799224854,-1.72257196903229,-1101.90002441406,42.3000030517578,-863.700012207031,-2.22776644091968,-0.343024460095725,0.340301917244012,DLL
12.7333333333333,-3.55237102508545,-3.15998935699463,9.85560131072998,-0.685979962348938,0.0457319989800453,-1.99696397781372,-1097.10009765625,44.1000022888184,-858.900024414062,-2.22411461369757,-0.329684234467068,0.31271611780121,DLL
12.7666666666667,-3.14503574371338,-3.30533814430237,8.86029148101807,-0.365855991840363,-1.57013201713562,-1.52439999580383,-1101.90002441406,44.1000022888184,-858.900024414062,-2.20375634553742,-0.317612041591084,0.358037821440405,DLL
12.8,-3.02301454544067,-2.94405961036682,9.16115760803223,0.564027965068817,-1.80641400814056,0.327746003866196,-1113.90002441406,37.5,-846.900024414062,-2.22389382855904,-0.301627649107528,0.309662282702828,DLL
12.8333333333333,-2.29627084732056,-2.79272961616516,8.89618015289307,0.556405961513519,-1.71494996547699,1.36433792114258,-1106.70007324219,39.3000030517578,-868.500061035156,-2.238872058833,-0.23954579569875,0.302460065663325,DLL
12.8666666666667,-2.22210121154785,-2.4655454158783,9.62950325012207,0.586893975734711,-1.60824191570282,1.60824191570282,-1111.5,39.3000030517578,-858.900024414062,-2.26585426127043,-0.217972349553559,0.249032627669624,DLL
12.9,-1.43793570995331,-2.29926156997681,8.55165004730225,0.899396002292633,-1.54726600646973,0.754577994346619,-1106.70007324219,47.7000007629395,-846.900024414062,-2.27136117628197,-0.158923363880443,0.260725806377835,DLL
12.9333333333333,-2.23406410217285,-1.63532292842865,9.3358154296875,1.39482593536377,-0.975615978240967,0.289635986089706,-1099.5,38.7000007629395,-856.500061035156,-2.29009707459537,-0.229759473534805,0.170965509673548,DLL
12.9666666666667,-1.30155909061432,-1.87577641010284,9.67675685882568,1.6768399477005,-1.50915598869324,0.144817993044853,-1121.10009765625,37.5,-868.500061035156,-2.28830207655138,-0.129118075656464,0.188382315602862,DLL
13.0,-0.887046039104462,-1.60063064098358,9.7240104675293,1.47104597091675,-2.0731840133667,-1.08994603157043,-1104.30004882812,40.5,-870.900024414062,-2.28427149547277,-0.0860508288150171,0.160789531924537,DLL
13.0333333333333,-0.462962657213211,-1.263876080513,8.55523872375488,1.35671591758728,-2.15702605247498,-2.23324584960938,-1116.30004882812,36.3000030517578,-854.100036621094,-2.26952240463871,-0.0493296791013822,0.14452798278294,DLL
13.0666666666667,-0.541917502880096,-0.948654770851135,8.55344486236572,1.41006994247437,-1.15854394435883,-2.67532205581665,-1116.30004882812,41.1000022888184,-861.300048828125,-2.25052832522243,-0.0603285233127163,0.108395254319222,DLL
13.1,0.099889874458313,-1.16398620605469,8.56241703033447,0.495429992675781,-0.868907988071442,-1.83690190315247,-1121.10009765625,41.7000007629395,-863.700012207031,-2.23611430391326,0.013218236569022,0.134119196150803,DLL
13.1333333333333,-0.206957474350929,-1.32488667964935,9.46561241149902,-0.3125019967556,-1.05945801734924,-0.381099998950958,-1130.70007324219,41.1000022888184,-851.700012207031,-2.23415442407815,-0.0196468449615564,0.139604903892523,DLL
13.1666666666667,-0.447410941123962,-1.68915569782257,10.2641334533691,-0.815553963184357,0.259148001670837,1.51677799224854,-1125.90002441406,35.7000007629395,-861.300048828125,-2.24608509014797,-0.0438048381893672,0.164360025844263,DLL
13.2,-0.943869590759277,-1.80100846290588,10.6660852432251,-1.21951997280121,1.2423859834671,2.71343183517456,-1130.70007324219,36.3000030517578,-858.900024414062,-2.2682656679849,-0.0898813431651748,0.169009429386756,DLL
13.2333333333333,-1.68377244472504,-1.76990509033203,11.4867372512817,-0.503051996231079,1.89025592803955,3.15550804138184,-1121.10009765625,41.7000007629395,-854.100036621094,-2.2932419720174,-0.147761456686623,0.153088161609311,DLL
13.2666666666667,-1.20824885368347,-1.8787670135498,9.36931133270264,0.335367977619171,1.69970595836639,2.55336999893188,-1099.5,39.9000015258789,-875.700012207031,-2.30437402268352,-0.129618080771679,0.196657905304732,DLL
13.3,-1.12151801586151,-1.72743690013885,8.17481994628906,0.434453994035721,1.53202199935913,1.61586391925812,-1111.5,40.5,-854.100036621094,-2.31265883482955,-0.136600777517094,0.207148287177626,DLL
13.3333333333333,-1.75614774227142,-1.58986401557922,7.39244890213013,0.396344006061554,1.78354799747467,1.02897000312805,-1104.30004882812,30.9000015258789,-875.700012207031,-2.31631585886416,-0.231273393061861,0.210876846764727,DLL
13.3666666666667,-2.96080780029297,-1.67898726463318,8.86268424987793,-0.114329993724823,1.60061991214752,1.14329993724823,-1094.70007324219,36.9000015258789,-861.300048828125,-2.32937755661148,-0.319946648109896,0.187042398075181,DLL
13.4,-3.2706458568573,-2.05222845077515,8.02827453613281,-1.14329993724823,1.07470202445984,2.4847719669342,-1104.30004882812,42.3000030517578,-878.100036621094,-2.32780497967238,-0.378642293893036,0.250584445965414,DLL
13.4333333333333,-2.97277045249939,-2.46494722366333,8.15567970275879,-1.70732796192169,1.14329993724823,2.83538389205933,-1099.5,44.1000022888184,-866.100036621094,-2.33511940206146,-0.339198233396076,0.29485410935991,DLL
13.4666666666667,-2.65216588973999,-2.71796154975891,9.16355037689209,-1.38720393180847,-0.571649968624115,2.03507399559021,-1094.70007324219,34.5,-854.100036621094,-2.35851489814945,-0.270833161686644,0.289741092334344,DLL
13.5,-2.69463419914246,-3.10735273361206,9.98180961608887,-1.18140995502472,-2.27135586738586,1.35671591758728,-1101.90002441406,44.7000007629395,-849.300048828125,-2.37287066263567,-0.249264403490579,0.302928594725226,DLL
13.5333333333333,-2.64139938354492,-3.02122020721436,9.77844142913818,-1.18140995502472,-2.9268479347229,0.358233988285065,-1099.5,48.9000015258789,-854.100036621094,-2.38510325760032,-0.247887795873788,0.301198617611941,DLL
13.5666666666667,-2.4535825252533,-3.21382212638855,9.48176193237305,0.0838419944047928,-2.28659987449646,0.457319974899292,-1101.90002441406,47.7000007629395,-846.900024414062,-2.38802189319907,-0.236851828027945,0.326064963335276,DLL
13.6,-2.29328012466431,-2.82144045829773,9.06425857543945,0.609759986400604,-1.02897000312805,0.792688012123108,-1099.5,43.5,-863.700012207031,-2.40124536861444,-0.235728428970748,0.300349785920254,DLL
13.6333333333333,-1.73820352554321,-2.71018576622009,8.79688835144043,0.724089980125427,-1.21189796924591,0.937505960464478,-1101.90002441406,44.1000022888184,-854.100036621094,-2.41067064513258,-0.185279823643137,0.297193455726809,DLL
13.6666666666667,-1.65565979480743,-2.29806518554688,8.19216632843018,0.701223969459534,-1.34147191047668,0.533540010452271,-1111.5,42.3000030517578,-846.900024414062,-2.42126891614341,-0.190167759842239,0.27206538087042,DLL
13.7,-1.91046869754791,-2.03727507591248,8.52054691314697,0.945127964019775,-0.762199997901917,1.15092194080353,-1099.5,37.5,-854.100036621094,-2.43783464908148,-0.213794922050297,0.23270127822243,DLL
13.7333333333333,-1.92362785339355,-1.70052051544189,9.05169773101807,0.746955990791321,-0.541162014007568,1.44055795669556,-1109.10009765625,45.9000015258789,-858.900024414062,-2.4600205142538,-0.205447986613237,0.183923494293466,DLL
13.7666666666667,-1.52526462078094,-1.74418485164642,9.84543323516846,0.647870004177094,-1.37195992469788,1.20427596569061,-1099.5,48.9000015258789,-856.500061035156,-2.47230571825312,-0.149590572458155,0.173866167312944,DLL
13.8,-1.3099330663681,-1.30514800548553,9.56490421295166,0.609759986400604,-1.35671591758728,0.632625997066498,-1118.70007324219,46.5,-861.300048828125,-2.48372050590513,-0.132736062339543,0.13450556573977,DLL
13.8333333333333,-0.951047301292419,-1.12091994285583,9.5391845703125,0.807931959629059,-0.884151995182037,0.487807989120483,-1121.10009765625,49.5000038146973,-863.700012207031,-2.48994695425553,-0.0973921564794202,0.115529293610024,DLL
13.8666666666667,-0.333165645599365,-1.08802211284637,9.32504844665527,-0.0838419944047928,-1.12043392658234,-0.182927995920181,-1128.30004882812,38.1000022888184,-854.100036621094,-2.48951063096996,-0.0337278112350589,0.116299087363077,DLL
13.9,-0.0837400183081627,-1.45588004589081,9.01999568939209,-1.17378795146942,-1.02897000312805,-0.495429992675781,-1118.70007324219,42.9000015258789,-858.900024414062,-2.48600487207269,-0.0073510654700961,0.161910778291967,DLL
13.9333333333333,-0.401353925466537,-1.79323267936707,9.66838264465332,-1.63110792636871,-0.0228659994900227,-0.815553963184357,-1109.10009765625,38.7000007629395,-858.900024414062,-2.47871540919977,-0.0404395216377954,0.186254802077997,DLL
13.9666666666667,-0.601133704185486,-2.28012108802795,10.0296611785889,-0.564027965068817,0.853663980960846,-0.274392008781433,-1123.5,40.5,-854.100036621094,-2.47332080349967,-0.0596670828769721,0.224456130324712,DLL
14.0,-1.03717994689941,-2.16168880462646,9.74494552612305,0.106707997620106,1.63872992992401,-0.655492007732391,-1116.30004882812,39.3000030517578,-858.900024414062,-2.46501351470051,-0.105989862608691,0.218301444817743,DLL
14.0333333333333,-1.51748871803284,-2.12460374832153,10.3574438095093,1.18903195858002,1.95885396003723,0.0457319989800453,-1109.10009765625,40.5,-858.900024414062,-2.46288522728321,-0.145820452209184,0.20037871323737,DLL
14.0666666666667,-1.61139714717865,-1.89790761470795,8.98889255523682,0.304879993200302,1.62348592281342,-0.602137982845306,-1099.5,39.9000015258789,-849.300048828125,-2.45395283354162,-0.176076647336587,0.207809411134752,DLL
14.1,-1.75554966926575,-2.13955736160278,8.46551704406738,0.304879993200302,1.6844619512558,-0.205793991684914,-1109.10009765625,45.3000030517578,-856.500061035156,-2.44104399454531,-0.201112837465634,0.247143947899477,DLL
14.1333333333333,-2.63422155380249,-2.36804795265198,9.26463603973389,0.0457319989800453,1.46342396736145,-0.327746003866196,-1106.70007324219,45.3000030517578,-858.900024414062,-2.43471336212408,-0.270931432217534,0.250481635547685,DLL
14.1666666666667,-2.7801685333252,-2.39915156364441,8.75202751159668,0.457319974899292,0.449698001146317,-0.259148001670837,-1099.5,41.7000007629395,-858.900024414062,-2.42584693608596,-0.297865264609033,0.266919795187112,DLL
14.2,-2.68566203117371,-2.39496445655823,7.9014687538147,1.02897000312805,0.381099998950958,-0.0914639979600906,-1104.30004882812,42.9000015258789,-851.700012207031,-2.41382077867416,-0.315035826385427,0.292556192796565,DLL
14.2333333333333,-3.02480912208557,-2.49485445022583,8.58275318145752,0.525918006896973,0.846041977405548,-0.37347799539566,-1089.90002441406,44.1000022888184,-858.900024414062,-2.41077950195984,-0.327528807761669,0.282345897027694,DLL
14.2666666666667,-2.64439010620117,-2.67609167098999,9.07562351226807,0.152439996600151,-0.426831990480423,-0.556405961513519,-1099.5,34.5,-875.700012207031,-2.40596372218119,-0.271739568670118,0.28666053670068,DLL
14.3,-2.68267130851746,-2.73411154747009,8.84234714508057,0.198172003030777,-1.13567793369293,-0.663114011287689,-1123.5,43.5,-863.700012207031,-2.39965031295357,-0.279853245119346,0.299637166614152,DLL
14.3333333333333,-2.76461672782898,-2.66113805770874,9.73657131195068,0.579271972179413,-1.12805593013763,-0.0762199983000755,-1101.90002441406,41.7000007629395,-866.100036621094,-2.40935859376666,-0.265439869009812,0.265761800766766,DLL
14.3666666666667,-2.56603336334229,-2.35189819335938,9.88191986083984,1.19665396213531,-1.42531394958496,0.403965979814529,-1099.5,39.9000015258789,-866.100036621094,-2.42157148404185,-0.24522724606625,0.231331147050369,DLL
14.4,-2.53732252120972,-1.86680424213409,9.40579795837402,1.47866797447205,-1.2500079870224,0.724089980125427,-1111.5,38.7000007629395,-861.300048828125,-2.43556349764155,-0.256733659804546,0.193051810575047,DLL
14.4333333333333,-2.25499892234802,-1.68197798728943,9.12945652008057,1.34147191047668,-0.579271972179413,1.12043392658234,-1101.90002441406,32.7000007629395,-873.300048828125,-2.44618699298141,-0.237699938576977,0.179374032851013,DLL
14.4666666666667,-1.92602038383484,-1.64668762683868,9.22216796875,1.27287399768829,-0.899396002292633,1.08232402801514,-1104.30004882812,43.5,-863.700012207031,-2.45485582738396,-0.201684363469282,0.174055500239175,DLL
14.5,-1.74538123607635,-1.55098474025726,8.63479232788086,1.08232402801514,-1.38720393180847,0.960371971130371,-1113.90002441406,47.1000022888184,-863.700012207031,-2.46227904008975,-0.194321525686852,0.175421942378699,DLL
14.5333333333333,-1.88714110851288,-1.24832439422607,9.92020130157471,0.640248000621796,-1.94360995292664,1.50915598869324,-1118.70007324219,42.3000030517578,-863.700012207031,-2.48613959110578,-0.183530910300662,0.123597338492476,DLL
14.5666666666667,-0.60950767993927,-0.925925314426422,8.65512847900391,-0.160062000155449,-2.72105383872986,2.03507399559021,-1123.5,38.7000007629395,-854.100036621094,-2.5087172765336,-0.0657933031832489,0.106614665330867,DLL
14.6,0.22011661529541,-0.886447906494141,8.06954669952393,-0.769822001457214,-2.43141794204712,1.63872992992401,-1118.70007324219,44.7000007629395,-854.100036621094,-2.52386338942862,0.0306529835197766,0.110835309323906,DLL
14.6333333333333,-0.195592746138573,-1.25490391254425,9.92020130157471,-1.93598794937134,-2.12653803825378,1.2423859834671,-1130.70007324219,48.9000015258789,-861.300048828125,-2.5372972885368,-0.0160655856899659,0.129134504938858,DLL
14.6666666666667,-0.342137783765793,-1.73401641845703,9.72341251373291,-2.36281991004944,-1.85214591026306,1.40244793891907,-1116.30004882812,45.9000015258789,-861.300048828125,-2.551144374686,-0.0318453770868914,0.180384903719123,DLL
14.7,-0.642405569553375,-2.2053530216217,10.8078451156616,-1.92836594581604,-0.0457319989800453,1.54726600646973,-1116.30004882812,36.9000015258789,-854.100036621094,-2.56316521332459,-0.0585433291319879,0.204410232703612,DLL
14.7333333333333,-1.15920102596283,-2.23047518730164,10.6050748825073,-0.0457319989800453,1.37958192825317,0.724089980125427,-1128.30004882812,38.7000007629395,-846.900024414062,-2.56637612062759,-0.1089910038898,0.20728917679929,DLL
14.7666666666667,-1.52107763290405,-2.12639832496643,10.051194190979,0.907018005847931,1.64635193347931,-0.190549999475479,-1113.90002441406,52.5000038146973,-844.500061035156,-2.56119022915827,-0.149582420027295,0.207038417608948,DLL
14.8,-1.6783891916275,-2.10486507415771,8.97035026550293,1.28811800479889,1.6692179441452,-0.777444005012512,-1109.10009765625,46.5,-849.300048828125,-2.54686249744547,-0.182591067813688,0.228514593489756,DLL
14.8333333333333,-1.85424315929413,-2.21073651313782,8.76638317108154,0.266770005226135,0.617381989955902,-1.01372599601746,-1121.10009765625,41.7000007629395,-863.700012207031,-2.53338830755859,-0.202855183237482,0.246928810161198,DLL
14.8666666666667,-1.99420869350433,-2.13297772407532,8.13354778289795,-0.510673999786377,-0.525918006896973,-0.0457319989800453,-1111.5,42.9000015258789,-842.100036621094,-2.53282100078828,-0.231866709817125,0.257292912966577,DLL
14.9,-1.65685606002808,-2.48887300491333,8.60368824005127,-0.967993974685669,-0.304879993200302,1.49391198158264,-1121.10009765625,42.3000030517578,-846.900024414062,-2.54111460832169,-0.183316767461651,0.282694906880336,DLL
14.9333333333333,-1.92183339595795,-2.33335566520691,8.90634918212891,-0.602137982845306,-0.243903994560242,1.54726600646973,-1123.5,46.5,-856.500061035156,-2.56061127294493,-0.206013945410659,0.256762908233263,DLL
14.9666666666667,-1.78186786174774,-2.18142747879028,8.43620872497559,0.0685980021953583,0.426831990480423,1.57775402069092,-1113.90002441406,47.7000007629395,-854.100036621094,-2.57259627709387,-0.203129842909135,0.252421976356094,DLL
15.0,-2.06538772583008,-2.24064350128174,9.43331241607666,0.0381099991500378,0.907018005847931,0.800309956073761,-1104.30004882812,44.7000007629395,-851.700012207031,-2.58098662576464,-0.211714142729335,0.232995042277599,DLL
15.0333333333333,-1.90329098701477,-2.68566203117371,8.93147087097168,-0.434453994035721,0.160062000155449,0.0609759986400604,-1104.30004882812,43.5,-866.100036621094,-2.56956339901207,-0.201645545121744,0.292630094794164,DLL
15.0666666666667,-2.4535825252533,-3.26107549667358,9.81492805480957,-0.426831990480423,-0.3125019967556,-0.739333987236023,-1106.70007324219,43.5,-851.700012207031,-2.5593262583594,-0.231890853818465,0.321666502674822,DLL
15.1,-2.4637508392334,-3.40522789955139,9.0074348449707,-0.297257989645004,-0.304879993200302,-0.503051996231079,-1097.10009765625,45.3000030517578,-856.500061035156,-2.54721142213863,-0.249635958362424,0.362040275872139,DLL
15.1333333333333,-2.69104528427124,-3.25210332870483,9.51047325134277,-0.144817993044853,-0.594515979290009,0.259148001670837,-1101.90002441406,44.7000007629395,-854.100036621094,-2.55911981871526,-0.260724892815666,0.329654170650722,DLL
15.1666666666667,-2.40513277053833,-2.87467503547668,9.00922966003418,1.17378795146942,-0.87652999162674,1.51677799224854,-1101.90002441406,44.7000007629395,-863.700012207031,-2.57605996169936,-0.248436439485583,0.306148453533324,DLL
15.2,-1.98762905597687,-2.64618444442749,8.62223052978516,1.82927989959717,-0.487807989120483,2.080806016922,-1104.30004882812,36.9000015258789,-849.300048828125,-2.5923987819868,-0.217265593196148,0.293806236643202,DLL
15.2333333333333,-1.70052051544189,-2.19817543029785,8.19695091247559,1.35671591758728,-0.365855991840363,1.6615959405899,-1121.10009765625,44.1000022888184,-861.300048828125,-2.61076422087745,-0.197958813993925,0.259168498933698,DLL
15.2666666666667,-1.8787670135498,-2.18980145454407,10.6397676467896,1.82165801525116,-0.434453994035721,1.63872992992401,-1113.90002441406,47.7000007629395,-851.700012207031,-2.63257067966551,-0.171187853487052,0.199506137851721,DLL
15.3,-1.43733751773834,-1.6544634103775,10.0482034683228,1.34147191047668,-1.21951997280121,0.0,-1111.5,49.5000038146973,-858.900024414062,-2.63859353424683,-0.138215675353537,0.160913749137147,DLL
15.3333333333333,-1.03179657459259,-0.806296706199646,8.52592945098877,2.27135586738586,-0.685979962348938,-0.121951997280121,-1118.70007324219,36.3000030517578,-858.900024414062,-2.64481925406329,-0.118739549842313,0.0905065510729115,DLL
15.3666666666667,-0.789548695087433,-0.650779545307159,8.6144552230835,0.914639949798584,-0.411587983369827,0.495429992675781,-1111.5,44.7000007629395,-868.500061035156,-2.65007484881766,-0.0905918844690195,0.0737833115646407,DLL
15.4,-0.677097856998444,-1.0395724773407,9.67675685882568,-0.25152599811554,-0.861285984516144,0.868907988071442,-1113.90002441406,41.1000022888184,-866.100036621094,-2.65521499718447,-0.0682085886582254,0.107220477766119,DLL
15.4333333333333,0.70760315656662,-1.51449799537659,8.76159858703613,-0.937505960464478,-1.17378795146942,-0.663114011287689,-1121.10009765625,41.7000007629395,-861.300048828125,-2.65146730837341,0.0810776431093956,0.172498540962067,DLL
15.4666666666667,0.251818180084229,-1.79622340202332,10.1181869506836,0.335367977619171,0.800309956073761,-2.37044191360474,-1113.90002441406,43.5,-856.500061035156,-2.63176260098061,0.024054231121974,0.174990196307837,DLL
15.5,1.28361487388611,-2.52057456970215,9.06246376037598,0.701223969459534,1.37195992469788,-5.5030837059021,-1111.5,35.1000022888184,-861.300048828125,-2.59432709851072,0.135431981842127,0.268378981958117,DLL
15.5333333333333,-0.22968690097332,-3.05232357978821,11.6590032577515,2.18751406669617,3.10977602005005,-11.9131860733032,-1109.10009765625,34.5,-861.300048828125,-2.48824692969832,-0.0187442945212281,0.252616614770828,DLL
15.5666666666667,0.677695989608765,-3.87895727157593,9.82270431518555,3.68142580986023,2.54574799537659,-18.2623119354248,-1111.5,36.9000015258789,-863.700012207031,-2.34694879582321,0.0709656749454052,0.367072558065752,DLL
15.6,-1.76392364501953,-3.12410068511963,8.77236461639404,5.15247201919556,1.82927989959717,-25.5032119750977,-1130.70007324219,35.1000022888184,-863.700012207031,-2.13330228444656,-0.174760667693242,0.340574309552762,DLL
15.6333333333333,-2.52715396881104,-2.87766575813293,9.00982761383057,5.5030837059021,2.69818782806396,-24.2532043457031,-1140.30004882812,24.9000015258789,-868.500061035156,-1.94151830223889,-0.252347269287926,0.310303434008187,DLL
15.6666666666667,-3.1707558631897,-2.50143384933472,9.00444412231445,5.3506441116333,2.55336999893188,-22.4391670227051,-1133.10009765625,27.9000015258789,-866.100036621094,-1.76693835473547,-0.320492833120683,0.274580656924241,DLL
15.7,-2.98473334312439,-2.0791449546814,8.1425199508667,3.45276594161987,2.9116039276123,-17.2028541564941,-1130.70007324219,21.9000015258789,-870.900024414062,-1.61436727623185,-0.338589548077856,0.254659986173516,DLL
15.7333333333333,-2.5576593875885,-1.96011447906494,8.2800931930542,2.27135586738586,3.26221585273743,-13.7195997238159,-1130.70007324219,19.5,-863.700012207031,-1.50245408766247,-0.292060887375374,0.235942585520375,DLL
15.7666666666667,-1.74597930908203,-1.89611327648163,8.01451778411865,2.33995389938354,2.78202986717224,-10.5412254333496,-1133.10009765625,16.5,-880.500061035156,-1.41330019935467,-0.209693987688897,0.232316085495389,DLL
15.8,-1.99301242828369,-2.07495808601379,9.47159385681152,2.14940404891968,1.85976791381836,-8.04121017456055,-1116.30004882812,12.9000005722046,-880.500061035156,-1.34809898336616,-0.202920262197337,0.214938751929514,DLL
15.8333333333333,-1.6084064245224,-1.98882532119751,9.56071758270264,2.76678586006165,1.09756803512573,-5.54881572723389,-1130.70007324219,12.3000001907349,-882.900024414062,-1.29871860141994,-0.163267638980916,0.201928066421929,DLL
15.8666666666667,-1.40743041038513,-1.49715185165405,9.87534046173096,2.75916385650635,1.47866797447205,-4.1311240196228,-1111.5,14.1000003814697,-866.100036621094,-1.26600587565062,-0.141524228407724,0.146821591773532,DLL
15.9,-1.38051402568817,-1.76751244068146,9.87892913818359,2.82776188850403,1.2500079870224,-2.34757590293884,-1113.90002441406,11.7000007629395,-878.100036621094,-1.23696583080524,-0.13815568533337,0.172672968539558,DLL
15.9333333333333,-1.79502701759338,-1.70590376853943,10.2120952606201,2.82776188850403,1.37195992469788,-2.14178204536438,-1111.5,13.5000009536743,-885.300048828125,-1.21501028864423,-0.173345142434858,0.161323163464992,DLL
15.9666666666667,-2.12580013275146,-1.63771545886993,9.2048225402832,2.27135586738586,1.91312193870544,-0.579271972179413,-1101.90002441406,13.5000009536743,-880.500061035156,-1.20184531139359,-0.226494315332144,0.172432722467127,DLL
16.0,-1.55517172813416,-1.44152450561523,9.01700496673584,1.64635193347931,1.30336201190948,0.0076219998300075,-1109.10009765625,7.50000047683716,-890.100036621094,-1.20114205667577,-0.171143385199995,0.155774143509931,DLL
16.0333333333333,-1.43853390216827,-1.12630319595337,9.56909084320068,1.64635193347931,-0.137196004390717,-0.0914639979600906,-1116.30004882812,12.3000001907349,-882.900024414062,-1.20487592708884,-0.147995172220876,0.114389222247269,DLL
16.0666666666667,-0.993515491485596,-0.616685390472412,8.49841499328613,1.82927989959717,-0.945127964019775,-0.0762199983000755,-1113.90002441406,12.9000005722046,-890.100036621094,-1.20896384897478,-0.114544307902938,0.0694120052889841,DLL
16.1,-0.933701157569885,-0.723752975463867,8.84533786773682,1.60061991214752,-0.510673999786377,0.342989981174469,-1101.90002441406,16.5,-880.500061035156,-1.20978823743241,-0.104000770303226,0.0787596160309699,DLL
16.1333333333333,-1.0276095867157,-0.391783654689789,9.76229190826416,1.42531394958496,-0.358233988285065,0.411587983369827,-1118.70007324219,6.30000019073486,-863.700012207031,-1.21636103213549,-0.10419575748492,0.0376682035196181,DLL
16.1666666666667,-1.20107114315033,-0.226098045706749,11.5920104980469,1.48628997802734,-0.579271972179413,1.11281192302704,-1101.90002441406,6.30000019073486,-880.500061035156,-1.22701662940134,-0.102250330332473,0.0167473610308478,DLL
16.2,-0.644199967384338,0.37623193860054,10.2701148986816,1.59299790859222,-2.11891603469849,0.975615978240967,-1101.90002441406,5.70000028610229,-880.500061035156,-1.23842684675413,-0.0589454188564172,-0.0393559421589365,DLL
16.2333333333333,-0.771006286144257,0.312828779220581,10.0559797286987,1.28049600124359,0.175305992364883,1.53964400291443,-1106.70007324219,6.30000019073486,-878.100036621094,-1.25005583257402,-0.0766475547351712,-0.0335572481059518,DLL
16.2666666666667,-0.507225215435028,0.0675901547074318,9.49193096160889,0.0914639979600906,2.40092992782593,0.807931959629059,-1113.90002441406,8.70000076293945,-878.100036621094,-1.25501205391428,-0.0576347123392209,-0.0074600892093195,DLL
16.3,-1.09041464328766,-0.375633776187897,8.9416389465332,-0.228659987449646,2.63721203804016,-0.0457319989800453,-1094.70007324219,10.5,-873.300048828125,-1.24949568435296,-0.125732541339657,0.0423402660818035,DLL
16.3333333333333,-1.60421943664551,-0.554478526115417,8.56421089172363,-0.0762199983000755,2.37806391716003,0.259148001670837,-1104.30004882812,6.30000019073486,-873.300048828125,-1.2471090119834,-0.188841270092373,0.0647078170175474,DLL
16.3666666666667,-1.70111858844757,-1.07904994487762,8.86089038848877,-0.266770005226135,1.69970595836639,0.746955990791321,-1106.70007324219,2.10000014305115,-878.100036621094,-1.24137286033521,-0.191409444325394,0.121295234877584,DLL
16.4,-2.01753616333008,-1.31112945079803,9.49432373046875,-0.289635986089706,1.05183601379395,0.510673999786377,-1092.30004882812,6.30000019073486,-890.100036621094,-1.24150126893512,-0.20934679995959,0.137539583289271,DLL
16.4333333333333,-2.7682056427002,-1.47920751571655,9.64864444732666,0.0304879993200302,0.884151995182037,0.304879993200302,-1085.10009765625,10.5,-878.100036621094,-1.23929433867562,-0.277685741172202,0.15193293445128,DLL
16.4666666666667,-3.23057007789612,-1.66164112091064,9.80057239532471,-0.205793991684914,2.04269599914551,1.08994603157043,-1087.5,8.10000038146973,-870.900024414062,-1.24119188853522,-0.317960781357855,0.167848151867967,DLL
16.5,-1.9469553232193,-1.92302966117859,8.12577247619629,-0.594515979290009,1.61586391925812,1.265251994133,-1087.5,8.70000076293945,-875.700012207031,-1.23226881104491,-0.232489075747133,0.232940607413949,DLL
16.5333333333333,-2.1533145904541,-2.0731635093689,9.35196495056152,-1.27287399768829,-0.0990860015153885,0.533540010452271,-1082.70007324219,15.3000001907349,-885.300048828125,-1.24167142637434,-0.22119675591667,0.220209424604461,ST
16.5666666666667,-2.06598591804504,-2.00617146492004,9.23114013671875,-0.358233988285065,-1.48628997802734,-0.137196004390717,-1075.5,11.7000007629395,-887.700012207031,-1.24495047892988,-0.212756594952006,0.214576245867158,ST
16.6,-2.19339036941528,-1.80938243865967,8.7340841293335,0.3125019967556,-1.62348592281342,-0.167683988809586,-1089.90002441406,9.90000057220459,-880.500061035156,-1.24811840798922,-0.238196374738356,0.203698939277594,ST
16.6333333333333,-1.21064138412476,-1.68437063694,8.39553451538086,0.0228659994900227,-0.777444005012512,0.182927995920181,-1089.90002441406,14.1000003814697,-880.500061035156,-1.25190755541529,-0.139479101238942,0.197893735873221,ST
16.6666666666667,-2.8722825050354,-1.68975389003754,10.8371543884277,-0.0228659994900227,0.442075997591019,0.823175966739655,-1094.70007324219,11.1000003814697,-906.900024414062,-1.26684635385333,-0.256880166125885,0.154464296437716,ST
16.7,-2.24782133102417,-1.23516523838043,9.02717399597168,0.83841997385025,0.525918006896973,1.79117000102997,-1070.70007324219,6.30000019073486,-870.900024414062,-1.28360417457663,-0.243256191196633,0.133856990990999,ST
16.7333333333333,-3.18212056159973,-1.23396897315979,10.3717994689941,1.06708002090454,1.00610399246216,1.83690190315247,-1077.90002441406,2.70000004768372,-887.700012207031,-1.29920033669194,-0.297638572628241,0.115712194393231,ST
16.7666666666667,-2.58038878440857,-0.976767480373383,9.37469482421875,1.56251001358032,0.297257989645004,1.53964400291443,-1070.70007324219,13.5000009536743,-882.900024414062,-1.31170145866119,-0.26811740598671,0.100425682596842,ST
16.8,-2.81665515899658,-0.630442678928375,9.69051456451416,0.884151995182037,-1.71494996547699,1.28811800479889,-1094.70007324219,11.1000003814697,-880.500061035156,-1.33081144395983,-0.279416500285143,0.0628631143623886,ST
16.8333333333333,-1.50253510475159,-0.0233275759965181,8.18199729919434,0.739333987236023,-2.33233189582825,1.42531394958496,-1099.5,0.900000035762787,-887.700012207031,-1.35513212162179,-0.177926242156535,0.0013295925730138,ST
16.8666666666667,-0.846970438957214,0.388194799423218,7.3344292640686,0.731711983680725,-2.33233189582825,1.63872992992401,-1094.70007324219,4.5,-885.300048828125,-1.37470178533441,-0.110841691014173,-0.0542491358417399,ST
16.9,-0.901401460170746,0.391185492277145,8.49841499328613,0.243903994560242,-0.282013982534409,1.36433792114258,-1104.30004882812,6.30000019073486,-873.300048828125,-1.3844956701576,-0.104979453160689,-0.0467000004277745,ST
16.9333333333333,-1.47860944271088,0.364867210388184,9.85560131072998,-0.304879993200302,0.381099998950958,0.739333987236023,-1101.90002441406,2.10000014305115,-868.500061035156,-1.38997200291425,-0.14932641569018,-0.036693402471358,ST
16.9666666666667,-2.13836121559143,0.166881889104843,10.7342739105225,-0.907018005847931,1.15092194080353,0.449698001146317,-1099.5,3.30000019073486,-861.300048828125,-1.39118315450073,-0.198427444554284,-0.0142090161315433,ST
17.0,-2.19458651542664,-0.0819455906748772,10.3215551376343,-1.76830399036407,2.46952795982361,0.480185985565186,-1101.90002441406,8.10000038146973,-880.500061035156,-1.39273295039571,-0.213758140604149,0.0107589327780416,ST
17.0333333333333,-2.24841952323914,-0.490477234125137,11.7804260253906,-2.11891603469849,2.90398192405701,0.617381989955902,-1087.5,6.90000009536743,-892.500061035156,-1.39317318139858,-0.193619674614516,0.0450129136224145,ST
17.0666666666667,-1.96669411659241,-0.439635097980499,10.8975667953491,-1.12043392658234,1.05183601379395,-0.0609759986400604,-1080.30004882812,8.10000038146973,-897.300048828125,-1.39447860909604,-0.180286176957139,0.0423188893732363,ST
17.1,-1.5180869102478,-0.857138872146606,8.69101715087891,-0.602137982845306,-0.0304879993200302,-1.12805593013763,-1077.90002441406,11.1000003814697,-882.900024414062,-1.37564191632113,-0.171879430872077,0.099585258462326,ST
17.1333333333333,-1.26267981529236,-0.684873700141907,6.68963098526001,-1.01372599601746,-0.617381989955902,-1.88263392448425,-1075.5,16.5,-880.500061035156,-1.36192292923331,-0.184150658499276,0.104362279096451,ST
17.1666666666667,-2.34172964096069,-1.52406823635101,8.24061584472656,-1.63110792636871,0.632625997066498,-0.922261953353882,-1082.70007324219,11.7000007629395,-875.700012207031,-1.33837513092047,-0.273098291774673,0.18606283988641,ST
17.2,-2.98832225799561,-2.11144471168518,9.13723182678223,-2.09605002403259,1.20427596569061,-0.846041977405548,-1075.5,9.90000057220459,-885.300048828125,-1.3220414043805,-0.310054653895255,0.231197420005958,ST
17.2333333333333,-2.97157430648804,-2.75743913650513,8.44518089294434,-1.85976791381836,1.6692179441452,-0.632625997066498,-1080.30004882812,14.7000007629395,-885.300048828125,-1.29090234312987,-0.325160705272719,0.319175502222015,ST
17.2666666666667,-2.60790324211121,-3.21382212638855,9.18986892700195,-2.01982998847961,1.51677799224854,-0.830797970294952,-1065.90002441406,8.70000076293945,-880.500061035156,-1.27919389146718,-0.263966734860967,0.340475725677367,ST
17.3,-2.7861499786377,-3.59483933448792,10.5392789840698,-0.914639949798584,-0.335367977619171,-0.914639949798584,-1063.5,8.10000038146973,-885.300048828125,-1.27756912397129,-0.244172297113396,0.330676890283676,ST
17.3333333333333,-2.5558648109436,-3.61577415466309,10.1492900848389,-0.0609759986400604,-1.20427596569061,-0.87652999162674,-1070.70007324219,13.5000009536743,-878.100036621094,-1.27157535477546,-0.230474109356696,0.342475613202445,ST
17.3666666666667,-2.4476010799408,-3.33644151687622,9.33820819854736,1.76068198680878,-1.15854394435883,-0.0838419944047928,-1087.5,15.3000001907349,-882.900024414062,-1.27114101372445,-0.240015605607643,0.339952887911704,ST
17.4,-2.47272300720215,-2.67011022567749,9.10852146148682,1.72257196903229,-0.891773998737335,0.655492007732391,-1063.5,5.10000038146973,-892.500061035156,-1.28878600632011,-0.253623237117783,0.28196556075647,ST
17.4333333333333,-2.63242721557617,-2.02531218528748,8.92070388793945,1.6768399477005,-0.426831990480423,2.11891603469849,-1068.30004882812,10.5,-885.300048828125,-1.31997581330834,-0.280238478934666,0.219337382950497,ST
17.4666666666667,-2.62405323982239,-1.78426051139832,8.73348522186279,1.6692179441452,0.228659987449646,3.02593398094177,-1073.10009765625,8.70000076293945,-890.100036621094,-1.34495084649869,-0.287694151033993,0.197189227467564,ST
