seconds,sensor_accX_m_s_,sensor_accY_m_s_,sensor_accZ_m_s_,sensor_gyroX___s_,sensor_gyroY___s_,sensor_gyroZ___s_,sensor_magX__T_,sensor_magY__T_,sensor_magZ__T_,sensor_yaw___,sensor_pitch___,sensor_roll___,label1
0.0,3.01404237747192,-1.10118126869202,9.24848651885986,0.137196004390717,-0.724089980125427,0.144817993044853,-1262.70007324219,16.5,-830.100036621094,2.19059605342046,0.31438983072198,0.117966067500699,ST
0.0333333333333333,3.01404237747192,-1.10118126869202,9.2281494140625,0.221037998795509,-0.884151995182037,0.266770005226135,-1248.30004882812,13.5000009536743,-825.300048828125,2.1887225267341,0.315045524082925,0.118553395044042,ST
0.0666666666666667,3.11273598670959,-1.09460163116455,9.14859676361084,0.190549999475479,-1.50153398513794,0.411587983369827,-1255.5,13.5000009536743,-818.100036621094,2.18599839100689,0.327587476293459,0.11906491290069,ST
0.1,3.10496020317078,-0.983347058296204,9.24489784240723,0.320124000310898,-1.64635193347931,0.510673999786377,-1255.5,12.9000005722046,-820.500061035156,2.18680710529882,0.32521000681498,0.106460149444627,ST
0.133333333333333,3.39147067070007,-1.01983380317688,9.22396278381348,0.685979962348938,-0.922261953353882,0.640248000621796,-1243.5,9.30000019073486,-834.900024414062,2.18193752685685,0.350547745818258,0.109239466056554,ST
0.166666666666667,3.38788175582886,-0.971982300281525,9.33701133728027,0.800309956073761,-0.510673999786377,0.320124000310898,-1262.70007324219,18.3000011444092,-820.500061035156,2.18156995577693,0.347379865296487,0.102968773231417,ST
0.2,3.2407386302948,-0.840390861034393,9.36931133270264,0.87652999162674,-0.381099998950958,0.190549999475479,-1262.70007324219,12.3000001907349,-818.100036621094,2.18421446339404,0.3333122308025,0.0889634195152783,ST
0.233333333333333,3.02421092987061,-0.74050098657608,9.25865459442139,0.815553963184357,0.0,0.403965979814529,-1269.90002441406,8.10000038146973,-825.300048828125,2.18461587615037,0.31562608923123,0.0791230152390786,ST
0.266666666666667,3.10017490386963,-0.713584542274475,9.20362567901611,0.6250039935112,0.114329993724823,0.503051996231079,-1248.30004882812,9.30000019073486,-808.500061035156,2.18268869993013,0.323242391258946,0.076728741138326,ST
0.3,3.16238188743591,-0.812876284122467,9.24968338012695,0.327746003866196,0.0609759986400604,0.472563982009888,-1257.90002441406,10.5,-813.300048828125,2.17729206975172,0.327788666900068,0.0867145598295428,ST
0.333333333333333,3.09359550476074,-0.827231705188751,9.22336483001709,0.426831990480423,-0.137196004390717,0.243903994560242,-1265.10009765625,2.70000004768372,-830.100036621094,2.1750260082849,0.322866032483248,0.0887493356705004,ST
0.366666666666667,3.08641767501831,-0.697434723377228,9.26583290100098,0.609759986400604,-0.205793991684914,0.167683988809586,-1248.30004882812,12.9000005722046,-822.900024414062,2.17668252890742,0.321029074202421,0.0741772682884707,ST
0.4,3.11752104759216,-0.69863098859787,9.2879638671875,0.457319974899292,-0.434453994035721,0.182927995920181,-1253.10009765625,11.1000003814697,-820.500061035156,2.17503716098063,0.323612226934001,0.0743960530651987,ST
0.433333333333333,3.18212056159973,-0.666929423809052,9.18568134307861,0.320124000310898,-0.457319974899292,0.365855991840363,-1262.70007324219,11.1000003814697,-818.100036621094,2.17377776227197,0.332826631512117,0.0722943823016404,ST
0.466666666666667,3.22399067878723,-0.715378999710083,9.16414833068848,0.137196004390717,-0.182927995920181,0.503051996231079,-1267.5,9.90000057220459,-818.100036621094,2.16987688511954,0.33729490668574,0.0776352350756153,ST
0.5,3.19228911399841,-0.759641587734222,9.234130859375,-0.0533539988100529,0.0076219998300075,0.533540010452271,-1262.70007324219,14.7000007629395,-810.900024414062,2.16642478045359,0.332053030205591,0.082199472786399,ST
0.533333333333333,3.11692309379578,-0.830222427845001,9.22216796875,-0.0152439996600151,0.0381099991500378,0.564027965068817,-1253.10009765625,16.5,-808.500061035156,2.16190517853682,0.325007623103118,0.0896589623036323,ST
0.566666666666667,3.26107549667358,-0.924130916595459,9.26344013214111,-0.0,-0.0228659994900227,0.503051996231079,-1265.10009765625,17.7000007629395,-822.900024414062,2.15691540987626,0.336175119961481,0.0991241893680474,ST
0.6,3.17434477806091,-0.87388688325882,9.31129169464111,0.243903994560242,-0.175305992364883,0.297257989645004,-1257.90002441406,14.1000003814697,-815.700012207031,2.15706976619406,0.327858580018805,0.0935924924416854,ST
0.633333333333333,3.2168128490448,-0.830820560455322,9.28018856048584,0.381099998950958,-0.152439996600151,0.327746003866196,-1257.90002441406,8.10000038146973,-822.900024414062,2.1565868306318,0.332441318145773,0.089037363151708,ST
0.666666666666667,3.12170815467834,-0.747678697109222,9.25745868682861,0.426831990480423,-0.160062000155449,0.342989981174469,-1255.5,2.10000014305115,-815.700012207031,2.15731945518077,0.324872526861554,0.0804937975217566,ST
0.7,3.12110996246338,-0.718967854976654,9.15398025512695,0.46494197845459,-0.0381099991500378,0.556405961513519,-1253.10009765625,9.90000057220459,-827.700012207031,2.15513482553769,0.32752592337741,0.0780135803783807,ST
0.733333333333333,3.16836333274841,-0.764426708221436,9.18867206573486,0.190549999475479,-0.0762199983000755,0.640248000621796,-1269.90002441406,11.7000007629395,-815.700012207031,2.15053434308615,0.330887256294612,0.0828556520382022,ST
0.766666666666667,3.17255020141602,-0.827829897403717,9.22336483001709,0.106707997620106,0.0533539988100529,0.503051996231079,-1248.30004882812,6.30000019073486,-813.300048828125,2.14643787195237,0.329950592483141,0.0892142707368575,ST
0.8,3.05531430244446,-0.823044717311859,9.3597412109375,0.160062000155449,0.0762199983000755,0.335367977619171,-1255.5,12.3000001907349,-818.100036621094,2.14545790475377,0.315161608084582,0.0877141102912598,ST
0.833333333333333,3.14144682884216,-0.808689296245575,9.29813289642334,0.205793991684914,-0.0152439996600151,0.266770005226135,-1260.30004882812,12.3000001907349,-832.500061035156,2.14451749561986,0.324086490456666,0.0866223346645719,ST
0.866666666666667,3.06009936332703,-0.748276829719543,9.33820819854736,0.221037998795509,-0.0990860015153885,0.221037998795509,-1253.10009765625,8.10000038146973,-810.900024414062,2.1454091964697,0.316362840236323,0.0801232697809078,ST
0.9,2.9261155128479,-0.711790144443512,9.19166278839111,0.259148001670837,0.0457319989800453,0.503051996231079,-1262.70007324219,12.9000005722046,-810.900024414062,2.1440476195323,0.307745515437088,0.0772919958524418,ST
0.933333333333333,3.07385683059692,-0.723752975463867,9.28856182098389,0.137196004390717,-0.0381099991500378,0.640248000621796,-1265.10009765625,11.7000007629395,-825.300048828125,2.14124512019071,0.31800160270548,0.0778524780047197,ST
0.966666666666667,3.11034345626831,-0.730332553386688,9.19704627990723,0.144817993044853,-0.213415995240211,0.533540010452271,-1265.10009765625,15.3000001907349,-818.100036621094,2.13852864348244,0.325007831322744,0.0792233745936112,ST
1.0,3.11572670936584,-0.858335137367249,9.26044940948486,-0.0381099991500378,-0.327746003866196,0.243903994560242,-1260.30004882812,14.1000003814697,-827.700012207031,2.13351841345482,0.323873527688698,0.0918375626354351,ST
1.03333333333333,2.96918177604675,-0.856540739536285,9.3238525390625,0.0457319989800453,-0.365855991840363,0.167683988809586,-1262.70007324219,11.1000003814697,-818.100036621094,2.13275036231763,0.308673060196268,0.0916532942589023,ST
1.06666666666667,2.984135389328,-0.768015563488007,9.28497314453125,0.121951997280121,-0.327746003866196,0.350611984729767,-1272.30004882812,9.90000057220459,-815.700012207031,2.13362819113109,0.310422745578477,0.0828855817817687,ST
1.1,2.97635936737061,-0.753062009811401,9.22456073760986,0.0228659994900227,-0.175305992364883,0.403965979814529,-1260.30004882812,5.70000028610229,-830.100036621094,2.13235439676418,0.311329831447377,0.0817250028254306,ST
1.13333333333333,3.07684755325317,-0.83859646320343,9.16355037689209,-0.129574000835419,-0.0914639979600906,0.388722002506256,-1257.90002441406,16.5,-818.100036621094,2.12808173148531,0.322090678071555,0.0911080792855745,ST
1.16666666666667,2.97157430648804,-0.990524768829346,9.46262168884277,-0.3125019967556,-0.175305992364883,0.0609759986400604,-1253.10009765625,15.9000005722046,-832.500061035156,2.12417856934311,0.304177419328637,0.104057019960054,ST
1.2,2.96080780029297,-1.06050753593445,9.44168663024902,-0.190549999475479,-0.327746003866196,0.0228659994900227,-1262.70007324219,6.90000009536743,-837.300048828125,2.12189241937291,0.302748230197226,0.111723593121686,ST
1.23333333333333,2.91056370735168,-1.07426476478577,9.44049072265625,-0.0685980021953583,-0.297257989645004,0.144817993044853,-1248.30004882812,17.7000007629395,-815.700012207031,2.1207912584034,0.298043927576843,0.113412298800871,ST
1.26666666666667,2.84536600112915,-1.05033910274506,9.24968338012695,0.304879993200302,-0.137196004390717,0.449698001146317,-1262.70007324219,13.5000009536743,-818.100036621094,2.11882178210925,0.296861028298133,0.112822632552558,ST
1.3,2.70121359825134,-0.922934591770172,9.27540302276611,0.434453994035721,-0.137196004390717,0.739333987236023,-1253.10009765625,7.50000047683716,-827.700012207031,2.11919348760736,0.283063942253511,0.0996486520507535,ST
1.33333333333333,2.88962864875793,-0.863718450069427,9.16474628448486,0.533540010452271,-0.769822001457214,1.47104597091675,-1243.5,11.7000007629395,-813.300048828125,2.11344509434739,0.304387231125027,0.0940990148408826,ST
1.36666666666667,3.19348526000977,-0.988730311393738,9.09655857086182,0.304879993200302,-0.823175966739655,1.40244793891907,-1248.30004882812,9.90000057220459,-830.100036621094,2.10268845808223,0.335366489858873,0.107907119526145,ST
1.4,3.32388043403625,-0.955234348773956,9.39622783660889,0.403965979814529,-0.609759986400604,0.853663980960846,-1269.90002441406,14.7000007629395,-810.900024414062,2.10044557450959,0.339128956614857,0.101464935802625,ST
1.43333333333333,3.09897875785828,-0.900803327560425,9.36691856384277,0.617381989955902,-0.556405961513519,0.67835795879364,-1269.90002441406,9.90000057220459,-820.500061035156,2.09856680960903,0.31997676399182,0.0955264710791528,ST
1.46666666666667,3.08701586723328,-0.981552600860596,9.09416580200195,0.335367977619171,-0.152439996600151,1.08232402801514,-1245.90002441406,14.7000007629395,-825.300048828125,2.08989023547112,0.325308429005663,0.107041692489569,ST
1.5,2.924320936203,-0.970786035060883,9.59421348571777,0.358233988285065,-0.198172003030777,1.2500079870224,-1257.90002441406,12.9000005722046,-825.300048828125,2.08591236116077,0.295910707492366,0.10116623167699,ST
1.53333333333333,2.88903045654297,-0.988132178783417,9.28736591339111,0.853663980960846,-0.449698001146317,1.61586391925812,-1255.5,14.7000007629395,-818.100036621094,2.07712654068014,0.300227463231879,0.10516713781234,ST
1.56666666666667,3.04095888137817,-1.01564681529999,9.35017108917236,0.907018005847931,-0.640248000621796,1.71494996547699,-1267.5,12.3000001907349,-820.500061035156,2.06851043003168,0.312705870660161,0.1074612563374,ST
1.6,2.98054647445679,-1.09519982337952,9.23891639709473,1.22714197635651,-0.655492007732391,1.47104597091675,-1267.5,13.5000009536743,-827.700012207031,2.05843139816734,0.31098868821428,0.116153295999936,ST
1.63333333333333,2.64558625221252,-1.16338813304901,9.12945652008057,1.12043392658234,-0.243903994560242,0.67835795879364,-1279.5,15.9000005722046,-803.700012207031,2.05194021110232,0.282057983198688,0.124619975240344,ST
1.66666666666667,2.10785579681396,-1.47143173217773,9.40041446685791,1.18140995502472,0.495429992675781,0.403965979814529,-1257.90002441406,11.1000003814697,-837.300048828125,2.04277181535919,0.221001448032366,0.151639276894615,ST
1.7,1.58208811283112,-1.8907299041748,9.68154239654541,0.571649968624115,0.144817993044853,-0.205793991684914,-1262.70007324219,11.7000007629395,-822.900024414062,2.03597654053005,0.161303956257132,0.19024173870913,ST
1.73333333333333,0.837400138378143,-1.62395811080933,9.89567756652832,1.34909391403198,-0.541162014007568,-0.243903994560242,-1265.10009765625,14.7000007629395,-834.900024414062,2.03945803355779,0.0889798154128226,0.162089237091959,ST
1.76666666666667,0.317015767097473,-1.38828980922699,9.13364315032959,1.96647596359253,-0.670735955238342,-0.243903994560242,-1272.30004882812,10.5,-832.500061035156,2.0404430205902,0.0387612735966337,0.148291679297714,ST
1.8,-0.53533798456192,-0.907382905483246,9.74255275726318,1.6692179441452,-1.14329993724823,-0.533540010452271,-1265.10009765625,6.90000009536743,-827.700012207031,2.04197703076914,-0.0475941913115717,0.0931766205070739,ST
1.83333333333333,-0.605320692062378,-0.30923992395401,9.76109504699707,2.53812599182129,-3.60520601272583,-0.396344006061554,-1281.90002441406,7.50000047683716,-813.300048828125,2.04014261582672,-0.0551096575105535,0.0312647561493415,ST
1.86666666666667,-0.494066089391708,-0.105871304869652,8.55703353881836,2.0655620098114,-4.70277404785156,-0.983237981796265,-1262.70007324219,8.70000076293945,-801.300048828125,2.04308705452654,-0.0497833128405674,0.0102074535723117,ST
1.9,-0.748276829719543,0.164489313960075,8.28487873077393,1.61586391925812,-4.42838191986084,-1.37958192825317,-1279.5,17.1000003814697,-791.700012207031,2.04779104932784,-0.0809347427158679,-0.0210331500672247,ST
1.93333333333333,-0.486290246248245,0.466551512479782,8.17123126983643,1.15854394435883,-5.3506441116333,-0.914639949798584,-1291.5,1.5,-820.500061035156,2.05061960687652,-0.0516174442331705,-0.0570823782860771,ST
1.96666666666667,0.70461243391037,0.500047504901886,7.9218053817749,-0.0152439996600151,-7.01223993301392,-0.693601965904236,-1284.30004882812,6.90000009536743,-794.100036621094,2.05552018129444,0.0931903475862295,-0.0628620872780622,ST
2.0,3.4973418712616,0.145348742604256,7.77107334136963,-0.0914639979600906,-10.4040298461914,-0.46494197845459,-1284.30004882812,5.70000028610229,-791.700012207031,2.04846277350043,0.419536090756173,-0.0219494040554122,ST
2.03333333333333,4.77078819274902,-0.111852735280991,7.5288257598877,-0.320124000310898,-10.9528141021729,-0.884151995182037,-1315.5,16.5,-779.700012207031,2.03595505601641,0.573890847034061,0.0122400363567534,ST
2.06666666666667,7.46542263031006,-1.21662282943726,8.61325836181641,-1.13567793369293,-9.13877773284912,-0.350611984729767,-1325.10009765625,9.90000057220459,-779.700012207031,1.96146146764832,0.719298895434917,0.137931038390911,ST
2.1,9.17670917510986,-1.76691436767578,9.07083797454834,0.0990860015153885,-8.97871589660645,-0.419209986925125,-1325.10009765625,12.9000005722046,-760.5,1.92059018479545,0.794009435402483,0.191844939983248,ST
2.13333333333333,10.9466142654419,-2.18382000923157,8.06236934661865,1.37195992469788,-6.69211578369141,0.388722002506256,-1344.30004882812,9.30000019073486,-736.5,1.85857145940258,0.921903984846914,0.261664007836828,ST
2.16666666666667,10.9669513702393,-1.68437063694,9.11868953704834,1.86738991737366,-4.55795574188232,0.640248000621796,-1334.70007324219,8.70000076293945,-734.100036621094,1.90718664182846,0.879314623698103,0.187061240554709,ST
2.2,10.9741287231445,-1.34223282337189,8.77236461639404,1.76830399036407,-2.40092992782593,1.54726600646973,-1346.70007324219,3.90000009536743,-731.700012207031,1.92149094312303,0.893690803355417,0.154741484314035,ST
2.23333333333333,10.7462368011475,-1.17654716968536,8.94642448425293,1.50153398513794,0.868907988071442,1.01372599601746,-1341.90002441406,10.5,-736.5,1.93254372449315,0.871985829748251,0.131467732080425,ST
2.26666666666667,8.66469955444336,0.0460570082068443,9.40699481964111,1.32622802257538,3.55185198783875,-0.655492007732391,-1341.90002441406,6.90000009536743,-736.5,2.02699121905157,0.746514360084317,-0.0007403933771726,ST
2.3,6.72731399536133,1.48279643058777,9.15637302398682,2.01220798492432,5.68601179122925,-0.46494197845459,-1332.30004882812,5.70000028610229,-746.100036621094,2.11918551438406,0.625736077473784,-0.154461472416369,ST
2.33333333333333,5.85581970214844,2.86331033706665,7.53899383544922,0.990859985351562,6.64638376235962,0.861285984516144,-1327.5,5.10000038146973,-767.700012207031,2.22136032268333,0.618728013087053,-0.348238814363056,ST
2.36666666666667,7.01860952377319,2.63661432266235,9.39862060546875,-1.98171997070312,4.13874578475952,-0.769822001457214,-1313.10009765625,6.90000009536743,-760.5,2.18100115434956,0.616215282537259,-0.272664039880155,ST
2.4,5.46523237228394,3.29516959190369,9.27301025390625,-1.15092194080353,5.23631381988525,-1.58537602424622,-1308.30004882812,-1.5,-758.100036621094,2.21641603023464,0.504706302382719,-0.3354443485121,ST
2.43333333333333,4.9932975769043,1.94635725021362,8.93326568603516,-4.33691787719727,5.48021793365479,-3.28508186340332,-1308.30004882812,10.5,-774.900024414062,2.17418902397416,0.490355180011507,-0.21647933496144,ST
2.46666666666667,3.37352633476257,1.59285473823547,9.6522331237793,-4.49697971343994,5.19058179855347,-4.13874578475952,-1325.10009765625,5.70000028610229,-782.100036621094,2.17064194298995,0.332196828625354,-0.161199023363368,ST
2.5,2.23645663261414,0.581394970417023,6.79011917114258,-3.49087595939636,4.86283588409424,-1.40244793891907,-1303.5,3.30000019073486,-794.100036621094,2.15416181093906,0.309899022849679,-0.084774887848448,ST
2.53333333333333,1.66941702365875,-0.178246602416039,7.77705478668213,-3.61282801628113,5.12960577011108,-1.07470202445984,-1277.10009765625,6.90000009536743,-784.500061035156,2.13413372633346,0.209060088305202,0.0220242136595359,ST
2.56666666666667,2.15152025222778,-0.467149674892426,7.80696201324463,-2.58385801315308,3.94057393074036,-1.63110792636871,-1291.5,0.900000035762787,-803.700012207031,2.13470132550471,0.258551344347864,0.0609073048064158,ST
2.6,3.73540282249451,-0.996506214141846,4.42745447158813,-1.64635193347931,2.26373386383057,-2.75916385650635,-1289.10009765625,8.70000076293945,-808.500061035156,2.0824166905444,0.661691700214579,0.209222071908403,ST
2.63333333333333,4.08591461181641,-1.81177508831024,5.95690584182739,-2.77440786361694,2.75154185295105,-3.38416790962219,-1281.90002441406,8.10000038146973,-818.100036621094,2.05525828250146,0.581978254971664,0.291393256333839,ST
2.66666666666667,5.16077756881714,-2.03667688369751,7.40500974655151,-2.5152599811554,-0.182927995920181,-3.94819593429565,-1269.90002441406,1.5,-806.100036621094,2.08603888819393,0.593192773164055,0.269652690967572,ST
2.7,6.20393896102905,-2.02291941642761,8.48705101013184,-3.04879999160767,-1.89025592803955,-2.34757590293884,-1272.30004882812,8.70000076293945,-801.300048828125,2.11751141751026,0.620898021467241,0.238673043530219,ST
2.73333333333333,6.11960077285767,-0.623264968395233,8.30940246582031,0.708845973014832,0.807931959629059,0.228659987449646,-1274.70007324219,5.10000038146973,-801.300048828125,2.20720287137332,0.631791871413531,0.0820281702440355,ST
2.76666666666667,5.81155729293823,0.634031534194946,8.47209739685059,1.60061991214752,3.52136397361755,1.27287399768829,-1272.30004882812,5.70000028610229,-810.900024414062,2.2851797705802,0.596072475866797,-0.0681001119938524,ST
2.8,4.35268640518188,1.71726846694946,7.29435348510742,2.38568592071533,4.93905591964722,2.26373386383057,-1255.5,7.50000047683716,-808.500061035156,2.35141820604833,0.521916414424829,-0.225783488601169,ST
2.83333333333333,2.4757137298584,0.60950767993927,8.91292858123779,0.449698001146317,6.09759998321533,4.16923379898071,-1279.5,6.30000019073486,-803.700012207031,2.27179970662291,0.273554251622753,-0.0735593021038124,ST
2.86666666666667,2.53433179855347,-1.28660547733307,11.5148506164551,-1.2347639799118,4.77899408340454,4.29880809783936,-1253.10009765625,6.30000019073486,-822.900024414062,2.21286545262206,0.209931438402403,0.105791960919426,ST
2.9,2.30165410041809,-2.36804795265198,12.1793870925903,-2.59910202026367,4.1463680267334,2.53050398826599,-1241.10009765625,7.50000047683716,-830.100036621094,2.19076812193145,0.177426104738757,0.192165610525605,ST
2.93333333333333,1.41640257835388,-2.81904792785645,11.6362733840942,-1.00610399246216,6.04424571990967,0.564027965068817,-1243.5,5.70000028610229,-825.300048828125,2.18828053812777,0.110355245621602,0.237210131287723,ST
2.96666666666667,-0.565245091915131,-2.58876276016235,10.1014385223389,-0.190549999475479,6.2043080329895,-0.0533539988100529,-1217.10009765625,9.30000019073486,-842.100036621094,2.19457540005898,-0.0560239346268467,0.250646207551428,ST
3.0,0.585581958293915,-1.58806955814362,8.75621509552002,-0.304879993200302,4.02441596984863,0.37347799539566,-1221.90002441406,9.30000019073486,-849.300048828125,2.19632979916324,0.0517171419253403,0.184252345179108,ST
3.03333333333333,0.387596637010574,-0.602329969406128,7.3972339630127,1.2576299905777,4.48173570632935,1.18903195858002,-1209.90002441406,8.70000076293945,-834.900024414062,2.19829332037997,0.0446538849315471,0.085495269651625,ST
3.06666666666667,0.01914057508111,-0.835007607936859,9.03255653381348,1.21189796924591,5.00765371322632,1.79879200458527,-1214.70007324219,9.30000019073486,-851.700012207031,2.19268994459962,-0.003753322696833,0.0898010979448338,ST
3.1,0.173461467027664,-1.07007777690887,8.12098693847656,-0.426831990480423,3.7881338596344,1.35671591758728,-1209.90002441406,7.50000047683716,-851.700012207031,2.18882875416583,0.0132254567279029,0.129228055302735,ST
3.13333333333333,0.405540943145752,-1.12809765338898,9.42075157165527,-0.350611984729767,4.29118585586548,2.10367202758789,-1200.30004882812,9.90000057220459,-866.100036621094,2.18278983387951,0.0335266121915178,0.120441305623069,ST
3.16666666666667,0.208751901984215,-1.05572235584259,10.8808183670044,-0.388722002506256,2.37806391716003,0.868907988071442,-1202.70007324219,7.50000047683716,-851.700012207031,2.18075114964315,0.0157274936266612,0.0985498368395949,ST
3.2,0.214733332395554,-1.01564681529999,9.93575286865234,-0.0304879993200302,1.61586391925812,1.16616594791412,-1200.30004882812,22.5,-856.500061035156,2.17667518479637,0.0183182978519493,0.101745773931441,ST
3.23333333333333,-0.0843381583690643,-1.09819054603577,10.4124727249146,-0.632625997066498,2.66770005226135,2.02745199203491,-1188.30004882812,8.70000076293945,-856.500061035156,2.1696481286842,-0.0111566365504919,0.105898103686705,ST
3.26666666666667,-0.226098045706749,-1.3900842666626,10.0434188842773,-0.381099998950958,2.89635992050171,2.04269599914551,-1185.90002441406,16.5,-870.900024414062,2.16347408207409,-0.0267678602638078,0.136176916696249,ST
3.3,-1.3900842666626,-1.35060679912567,9.37409687042236,-0.594515979290009,4.58844375610352,0.533540010452271,-1195.5,13.5000009536743,-868.500061035156,2.164372184199,-0.148197983716511,0.143814203737089,ST
3.33333333333333,-2.95243382453918,-1.4301598072052,9.18747615814209,0.0914639979600906,7.10370397567749,0.198172003030777,-1178.70007324219,11.7000007629395,-870.900024414062,2.17055718600992,-0.3121923102016,0.15423442502235,ST
3.36666666666667,-3.56971716880798,-1.54021811485291,8.80406665802002,0.0076219998300075,7.61437797546387,-0.175305992364883,-1164.30004882812,14.7000007629395,-873.300048828125,2.18303944543693,-0.389471326749349,0.173306093457091,ST
3.4,-3.81017065048218,-1.51988124847412,9.186279296875,-0.46494197845459,7.33236360549927,0.525918006896973,-1164.30004882812,8.70000076293945,-880.500061035156,2.18206070737461,-0.400479862194877,0.165766424610009,ST
3.43333333333333,-3.00746297836304,-1.44511342048645,9.57088565826416,-1.09756803512573,5.80796384811401,1.13567793369293,-1145.10009765625,9.90000057220459,-885.300048828125,2.17507309901405,-0.316973718757467,0.152439914917776,ST
3.46666666666667,-2.1652774810791,-1.54141438007355,9.60497951507568,-1.01372599601746,2.82013988494873,1.62348592281342,-1135.5,11.1000003814697,-863.700012207031,2.17088876038175,-0.227977880536543,0.1600911905977,ST
3.5,-1.23875403404236,-1.77229762077332,8.68683052062988,-0.685979962348938,1.6920839548111,1.99696397781372,-1116.30004882812,15.3000001907349,-892.500061035156,2.17120666353857,-0.147599265872738,0.199495489330614,ST
3.53333333333333,-0.934897482395172,-2.00198459625244,9.16713905334473,-0.167683988809586,1.34147191047668,1.79117000102997,-1133.10009765625,19.5,-878.100036621094,2.16706156503804,-0.105004213582198,0.214082827242937,ST
3.56666666666667,-0.626255691051483,-2.2232973575592,8.98530387878418,0.907018005847931,-0.137196004390717,0.746955990791321,-1111.5,21.9000015258789,-882.900024414062,2.16644265380606,-0.0696701534777168,0.239426888566885,ST
3.6,-0.693845868110657,-2.04804158210754,8.75442028045654,1.27287399768829,-1.41006994247437,-0.3125019967556,-1121.10009765625,10.5,-882.900024414062,2.16593213869598,-0.0742073168194051,0.228304634094883,ST
3.63333333333333,-1.05452609062195,-1.57132160663605,8.73647594451904,1.49391198158264,-2.10367202758789,-0.46494197845459,-1145.10009765625,17.7000007629395,-882.900024414062,2.16207435768196,-0.11205437912249,0.178585958367898,ST
3.66666666666667,-1.36436414718628,-1.3218959569931,8.70178413391113,1.57775402069092,-1.31860601902008,-0.0762199983000755,-1128.30004882812,12.3000001907349,-878.100036621094,2.15861176601007,-0.1497624676849,0.149325945376537,ST
3.7,-2.2711489200592,-1.06947958469391,9.3597412109375,1.05183601379395,0.365855991840363,-0.480185985565186,-1118.70007324219,11.7000007629395,-882.900024414062,2.15493705995856,-0.232339735400924,0.114202507821131,ST
3.73333333333333,-2.81844973564148,-1.1316864490509,9.6701774597168,0.564027965068817,0.830797970294952,-0.647870004177094,-1137.90002441406,6.30000019073486,-878.100036621094,2.15912985286349,-0.280855808638875,0.115801095684967,ST
3.76666666666667,-2.96320033073425,-1.23157632350922,10.2144870758057,-0.0228659994900227,-0.0762199983000755,-0.548784017562866,-1133.10009765625,6.90000009536743,-873.300048828125,2.16255794361731,-0.2802062384557,0.120103415111567,ST
3.8,-2.76880383491516,-1.13108837604523,10.2103004455566,-0.0152439996600151,-1.19665396213531,-0.884151995182037,-1123.5,6.90000009536743,-878.100036621094,2.16320591564447,-0.261965375070137,0.111166770610853,ST
3.83333333333333,-2.20355868339539,-1.36436414718628,9.80296516418457,-0.0304879993200302,-2.96495795249939,-1.41006994247437,-1142.70007324219,9.30000019073486,-875.700012207031,2.17332279031317,-0.216549947191609,0.137082748427982,ST
3.86666666666667,-1.6383136510849,-1.09998488426208,9.76647853851318,-0.358233988285065,-4.00154972076416,-1.6692179441452,-1123.5,10.5,-894.900024414062,2.17345664219469,-0.161458394057368,0.114578344574346,ST
3.9,-1.87099123001099,-0.568235814571381,9.44407939910889,1.15092194080353,-4.73326206207275,-0.861285984516144,-1133.10009765625,9.30000019073486,-880.500061035156,2.16702740835107,-0.18536399844277,0.0617007736502928,ST
3.93333333333333,-1.76631617546082,-0.194994613528252,9.36691856384277,1.53202199935913,-4.13874578475952,0.815553963184357,-1147.5,9.30000019073486,-873.300048828125,2.15638373317798,-0.179405679744695,0.0195782377387606,ST
3.96666666666667,-1.18432307243347,-0.184228032827377,9.74494552612305,1.05183601379395,-3.64331603050232,1.53202199935913,-1142.70007324219,3.30000019073486,-880.500061035156,2.15020532828884,-0.118531903187376,0.0168807020985531,ST
4.0,-1.34043836593628,-0.799717128276825,9.60617637634277,0.182927995920181,-2.32470989227295,0.46494197845459,-1152.30004882812,4.5,-861.300048828125,2.1555967967993,-0.13350904901396,0.079688356708663,ST
4.03333333333333,-1.80399918556213,-1.0335910320282,10.2372169494629,-0.426831990480423,-1.55488801002502,0.0533539988100529,-1157.10009765625,22.5,-882.900024414062,2.15760240057307,-0.168608709388643,0.0999898034692897,ST
4.06666666666667,-1.8105788230896,-1.10776078701019,10.2916479110718,0.160062000155449,-0.381099998950958,0.67835795879364,-1164.30004882812,9.90000057220459,-870.900024414062,2.15594830440752,-0.172384615186856,0.106319453102903,ST
4.1,-1.758540391922,-1.00428199768066,10.2372169494629,0.442075997591019,-0.434453994035721,1.53964400291443,-1152.30004882812,14.7000007629395,-868.500061035156,2.14804920666398,-0.169005066326628,0.0970247853035801,ST
4.13333333333333,-0.66034984588623,-0.987534046173096,9.74614143371582,-0.480185985565186,0.182927995920181,1.84452390670776,-1159.5,3.90000009536743,-878.100036621094,2.14106924732336,-0.074079945467216,0.101264311946187,ST
4.16666666666667,0.724949300289154,-0.976767480373383,8.75920581817627,-1.45580196380615,1.95885396003723,0.365855991840363,-1159.5,9.90000057220459,-878.100036621094,2.14057186643535,0.0702303102041551,0.112944370226256,ST
4.2,0.464158952236176,-0.724351167678833,9.79997444152832,-1.78354799747467,4.87045812606812,-0.541162014007568,-1149.90002441406,8.70000076293945,-882.900024414062,2.14678598284518,0.0407168166916669,0.0790076739070159,ST
4.23333333333333,0.353502482175827,-0.427672237157822,9.91063117980957,-1.60824191570282,5.22106981277466,-0.937505960464478,-1145.10009765625,12.3000001907349,-870.900024414062,2.15307484298099,0.0274649532406032,0.0478816055662596,ST
4.26666666666667,0.412120521068573,-0.0759641602635384,10.1839818954468,-1.65397393703461,4.00917196273804,-1.33385002613068,-1135.5,9.30000019073486,-873.300048828125,2.16086764661341,0.0332502286456815,0.0117523679330033,ST
4.3,0.789548695087433,-0.472532957792282,8.98530387878418,-2.61434602737427,3.17837381362915,-1.88263392448425,-1130.70007324219,15.9000005722046,-880.500061035156,2.1672049212689,0.0791727247230975,0.0541047210812026,ST
4.33333333333333,-0.301464051008224,-1.78904557228088,9.33222675323486,-3.15550804138184,3.74240183830261,-1.49391198158264,-1123.5,11.7000007629395,-899.700012207031,2.17214603543826,-0.0305983119333491,0.186403366276964,ST
4.36666666666667,-1.39128053188324,-2.21611976623535,8.87943267822266,-1.50153398513794,4.16923379898071,-0.640248000621796,-1121.10009765625,14.1000003814697,-890.100036621094,2.18333046442172,-0.151436973604553,0.244554421578835,ST
4.4,-2.61627745628357,-2.60909962654114,8.88541412353516,0.129574000835419,4.32929611206055,0.945127964019775,-1113.90002441406,22.5,-882.900024414062,2.19252038249016,-0.275076970864497,0.282969640120722,ST
4.43333333333333,-2.99310731887817,-2.28789687156677,8.9057502746582,1.05183601379395,3.84910988807678,1.06708002090454,-1099.5,12.9000005722046,-892.500061035156,2.18449678177237,-0.318856739078398,0.251634142588397,ST
4.46666666666667,-3.77846908569336,-1.88833737373352,9.64266300201416,1.96647596359253,3.51374197006226,0.891773998737335,-1099.5,23.1000003814697,-892.500061035156,2.16715593269059,-0.370158619326798,0.193629440493158,ST
4.5,-3.44590163230896,-2.22568988800049,9.88311672210693,1.11281192302704,0.967993974685669,0.442075997591019,-1101.90002441406,16.5,-885.300048828125,2.17621304401897,-0.33190590729837,0.218047920066774,ST
4.53333333333333,-3.3866856098175,-2.07794857025146,9.37888145446777,0.617381989955902,-2.08842802047729,-0.320124000310898,-1097.10009765625,14.1000003814697,-897.300048828125,2.17614242072405,-0.335059676519975,0.216943181472138,ST
4.56666666666667,-3.66362571716309,-1.87458002567291,8.82859039306641,1.63872992992401,-2.56861400604248,0.282013982534409,-1092.30004882812,9.90000057220459,-890.100036621094,2.17176784153194,-0.378514571152451,0.206487993000428,ST
4.6,-3.36455416679382,-1.39187872409821,8.63000679016113,1.55488801002502,-2.14178204536438,1.78354799747467,-1085.10009765625,21.3000011444092,-880.500061035156,2.1487082118245,-0.365127403142756,0.158836659805578,ST
4.63333333333333,-3.12589526176453,-1.19329524040222,8.76937389373779,1.22714197635651,-1.41769194602966,2.25611186027527,-1109.10009765625,10.5,-885.300048828125,2.1320569111521,-0.339112484327212,0.133065328283237,ST
4.66666666666667,-2.43025493621826,-1.61618232727051,9.1629524230957,0.335367977619171,-0.609759986400604,1.86738991737366,-1104.30004882812,15.9000005722046,-882.900024414062,2.13605936922362,-0.260094881154437,0.170693560627394,ST
4.7,-1.99241423606873,-1.9308055639267,10.1977396011353,-0.0685980021953583,0.495429992675781,1.63872992992401,-1106.70007324219,10.5,-892.500061035156,2.1334002576736,-0.195222542156364,0.185736358373352,ST
4.73333333333333,-1.40085089206696,-2.05940628051758,10.2055149078369,1.10518991947174,1.15092194080353,2.20275783538818,-1101.90002441406,15.3000001907349,-880.500061035156,2.12789342101591,-0.139671207415598,0.196101293228519,ST
4.76666666666667,-0.874485015869141,-1.90987050533295,10.5835418701172,1.6615959405899,0.647870004177094,1.84452390670776,-1106.70007324219,11.7000007629395,-882.900024414062,2.1196077863796,-0.0862688798908246,0.176607357716261,ST
4.8,-0.264977335929871,-1.47621691226959,8.82918834686279,2.01220798492432,-0.807931959629059,0.160062000155449,-1097.10009765625,15.3000001907349,-878.100036621094,2.11804585369792,-0.0317656093204093,0.163011225596118,ST
4.83333333333333,-1.35658824443817,-1.06050753593445,7.83208417892456,2.21037983894348,-1.18140995502472,-0.510673999786377,-1099.5,14.1000003814697,-885.300048828125,2.11749069296665,-0.159559636175545,0.132800149937416,ST
4.86666666666667,-2.4577693939209,-0.904990315437317,7.44687986373901,1.78354799747467,-0.525918006896973,0.518296003341675,-1106.70007324219,9.90000057220459,-875.700012207031,2.11358341812646,-0.309627390282105,0.118126312933309,ST
4.9,-2.7741870880127,-0.711790144443512,8.04801368713379,1.34909391403198,0.259148001670837,0.556405961513519,-1104.30004882812,7.50000047683716,-882.900024414062,2.10346403058238,-0.33034236097676,0.0869837444602351,ST
4.93333333333333,-3.79581522941589,-0.0699827298521996,9.70726203918457,1.91312193870544,-0.0076219998300075,0.175305992364883,-1104.30004882812,9.90000057220459,-880.500061035156,2.07865231075253,-0.370220772931641,0.0088678469305614,ST
4.96666666666667,-3.46683669090271,0.216527760028839,9.98180961608887,2.08842802047729,-1.2500079870224,0.815553963184357,-1116.30004882812,7.50000047683716,-887.700012207031,2.06696888293772,-0.33350788034655,-0.0244652741011051,ST
5.0,-2.65156769752502,0.251220047473907,10.7151327133179,1.2423859834671,-2.56099200248718,0.213415995240211,-1118.70007324219,5.70000028610229,-873.300048828125,2.0674438427894,-0.243832692521872,-0.0256068963602797,ST
5.03333333333333,-2.2591860294342,0.222509190440178,12.0077199935913,1.10518991947174,-3.21648383140564,-0.419209986925125,-1121.10009765625,5.10000038146973,-878.100036621094,2.07135780568791,-0.184192062595613,-0.0206098635206137,ST
5.06666666666667,-1.24712812900543,0.800913453102112,10.935848236084,1.28811800479889,-4.49697971343994,-0.762199997901917,-1118.70007324219,8.70000076293945,-868.500061035156,2.06853911536259,-0.110287023424429,-0.0718527967937732,ST
5.1,-0.66633129119873,1.27225005626678,9.94352912902832,1.51677799224854,-3.00306797027588,0.221037998795509,-1130.70007324219,9.90000057220459,-870.900024414062,2.06469929670792,-0.0635401180941846,-0.127049262251164,ST
5.13333333333333,0.1214230209589,1.21243584156036,8.98470592498779,0.472563982009888,-0.426831990480423,0.830797970294952,-1113.90002441406,3.90000009536743,-873.300048828125,2.06143431804509,0.0096037420601161,-0.134487359532773,ST
5.16666666666667,0.0903195887804031,1.08921837806702,8.50020980834961,-1.28811800479889,1.01372599601746,-0.403965979814529,-1125.90002441406,3.90000009536743,-878.100036621094,2.06259371620388,0.0087347789487607,-0.12561009485712,ST
5.2,-0.221312895417213,0.139367312192917,9.92319202423096,-3.71191382408142,2.30946588516235,-1.51677799224854,-1121.10009765625,12.9000005722046,-882.900024414062,2.06886327704938,-0.0242774882519312,-0.0146912690204436,ST
5.23333333333333,0.230883181095123,-0.275145769119263,9.15936374664307,-4.75612783432007,2.11891603469849,-2.68294382095337,-1118.70007324219,11.1000003814697,-880.500061035156,2.08069182333528,0.0193720236915014,0.0356677450941599,ST
5.26666666666667,-0.0352904349565506,-1.07725548744202,9.64445686340332,-5.38875389099121,2.80489587783813,-3.20886182785034,-1109.10009765625,14.7000007629395,-882.900024414062,2.09409702242614,-0.0062736964802552,0.115492020231061,ST
5.3,-0.964804589748383,-1.89730954170227,9.10612869262695,-4.88570165634155,2.76678586006165,-2.9268479347229,-1101.90002441406,17.1000003814697,-882.900024414062,2.11131753348741,-0.100985993893886,0.208413365434727,ST
5.33333333333333,-2.27055072784424,-2.08153748512268,9.41656494140625,-3.66618180274963,2.53050398826599,-2.41617393493652,-1097.10009765625,11.7000007629395,-882.900024414062,2.12355940213669,-0.228713970745344,0.224331221540538,ST
5.36666666666667,-2.98592972755432,-2.4577693939209,8.87703990936279,-1.81403601169586,2.40855193138123,-1.50153398513794,-1104.30004882812,21.3000011444092,-885.300048828125,2.1420598131753,-0.311514262683796,0.271292273365562,ST
5.4,-3.34960055351257,-3.19228911399841,8.3458890914917,-1.21189796924591,2.43903994560242,-1.02897000312805,-1097.10009765625,16.5,-899.700012207031,2.17758174777842,-0.359345420152186,0.363199378297816,ST
5.43333333333333,-3.2706458568573,-3.46324777603149,8.36024475097656,-0.670735955238342,2.19513607025146,-0.952749967575073,-1097.10009765625,18.9000015258789,-875.700012207031,2.19346492313554,-0.350328385813964,0.393079720360795,ST
5.46666666666667,-3.31191754341125,-3.52784729003906,9.34060096740723,0.907018005847931,1.72257196903229,-0.327746003866196,-1085.10009765625,15.9000005722046,-890.100036621094,2.18811626625356,-0.324237469770675,0.361690565869842,ST
5.5,-3.35498404502869,-3.51409006118774,9.31069374084473,1.82165801525116,1.18903195858002,-0.0685980021953583,-1087.5,15.3000001907349,-885.300048828125,2.19156365462104,-0.326936140280724,0.358163858272097,ST
5.53333333333333,-3.28858995437622,-3.11931562423706,9.53021240234375,2.16464805603027,0.114329993724823,0.518296003341675,-1085.10009765625,8.70000076293945,-892.500061035156,2.17877829288728,-0.317802529467446,0.314288251408032,ST
5.56666666666667,-2.98473334312439,-2.98652791976929,9.48176193237305,2.39330792427063,-1.07470202445984,1.265251994133,-1094.70007324219,12.9000005722046,-885.300048828125,2.17176629570959,-0.29220298639905,0.301004689285724,ST
5.6,-2.69044709205627,-2.72872829437256,10.0380353927612,2.29422187805176,-1.85214591026306,1.97409796714783,-1094.70007324219,11.7000007629395,-885.300048828125,2.15456032408738,-0.253400114250875,0.262758682664197,ST
5.63333333333333,-1.746577501297,-2.2292788028717,8.98291110992432,2.57623600959778,-2.81251788139343,2.0579400062561,-1087.5,18.9000015258789,-887.700012207031,2.14103870842109,-0.186905552493435,0.2393281369163,ST
5.66666666666667,-1.37931764125824,-2.30225229263306,9.53200626373291,2.0731840133667,-2.72105383872986,1.89787793159485,-1092.30004882812,8.10000038146973,-890.100036621094,2.13038591524704,-0.137898578474381,0.23300578608487,ST
5.7,-1.42118775844574,-1.79741966724396,9.6941032409668,2.02745199203491,-3.26983785629272,1.47104597091675,-1097.10009765625,10.5,-897.300048828125,2.11544208886577,-0.138037535024054,0.18165669328684,ST
5.73333333333333,-0.585581958293915,-1.314120054245,7.6029953956604,1.82927989959717,-5.06100797653198,0.891773998737335,-1089.90002441406,9.90000057220459,-880.500061035156,2.10734964541434,-0.0707748650938378,0.168398166585347,ST
5.76666666666667,-1.10895705223083,-0.898410737514496,8.14371681213379,1.39482593536377,-4.32929611206055,0.67835795879364,-1111.5,12.3000001907349,-892.500061035156,2.09687444194793,-0.124700257318214,0.109912591410965,ST
5.8,-1.19269704818726,-0.791941285133362,8.15986633300781,1.265251994133,-2.31708788871765,0.807931959629059,-1111.5,5.70000028610229,-873.300048828125,2.0911359301122,-0.139882978858403,0.0949803755209546,ST
5.83333333333333,-1.63293027877808,-0.599937379360199,9.00803279876709,0.640248000621796,-0.487807989120483,0.46494197845459,-1121.10009765625,5.70000028610229,-882.900024414062,2.08493998417441,-0.176467600735892,0.0665501478172882,ST
5.86666666666667,-2.43982529640198,-0.41451308131218,9.51166915893555,0.266770005226135,1.85214591026306,0.762199997901917,-1113.90002441406,5.10000038146973,-878.100036621094,2.0778503054406,-0.249450870541718,0.0442603934760283,ST
5.9,-2.31182265281677,-0.301464051008224,9.25147724151611,0.0914639979600906,3.03355598449707,1.2576299905777,-1111.5,7.50000047683716,-882.900024414062,2.07059778307855,-0.250075205763633,0.0326471809983402,ST
5.93333333333333,-1.68676316738129,-1.03299295902252,11.521430015564,-0.830797970294952,1.95885396003723,1.2347639799118,-1101.90002441406,11.7000007629395,-882.900024414062,2.0763785565973,-0.153387131058273,0.087763253500356,ST
5.96666666666667,-1.58268630504608,-1.02103006839752,10.09485912323,-1.33385002613068,-0.739333987236023,-0.663114011287689,-1111.5,13.5000009536743,-890.100036621094,2.08012908136798,-0.153342618962056,0.102345536351972,ST
6.0,-2.19996976852417,-0.817661464214325,11.1559648513794,-1.19665396213531,-0.228659987449646,0.0,-1109.10009765625,5.70000028610229,-875.700012207031,2.07483403366178,-0.191352318349917,0.0769041576229475,ST
6.03333333333333,-0.256603330373764,-0.920542061328888,9.66060733795166,-1.18140995502472,-0.327746003866196,0.670735955238342,-1101.90002441406,8.70000076293945,-892.500061035156,2.07356460276846,-0.0341187734306338,0.0960183352716199,ST
6.06666666666667,-0.300267785787582,-0.887046039104462,9.43211650848389,-1.36433792114258,-0.114329993724823,0.411587983369827,-1116.30004882812,11.7000007629395,-887.700012207031,2.07169352638066,-0.0317099258775255,0.0961205052970636,ST
6.1,-0.313426911830902,-1.23875403404236,9.39981651306152,-1.2347639799118,-0.0228659994900227,0.693601965904236,-1104.30004882812,8.70000076293945,-887.700012207031,2.06987134284107,-0.0330714613191872,0.130901181664475,ST
6.13333333333333,-0.337950766086578,-1.43255245685577,8.61206245422363,-0.586893975734711,-0.419209986925125,0.884151995182037,-1111.5,13.5000009536743,-885.300048828125,2.06706238916468,-0.037933146955081,0.163892671587232,ST
6.16666666666667,-0.515599250793457,-1.57550859451294,8.01631164550781,-0.0609759986400604,-0.533540010452271,0.327746003866196,-1101.90002441406,17.7000007629395,-878.100036621094,2.06676386132421,-0.0607491292804509,0.192293367271865,ST
6.2,-1.54380702972412,-1.86979496479034,8.98410701751709,-0.25152599811554,0.365855991840363,0.0228659994900227,-1116.30004882812,21.3000011444092,-892.500061035156,2.06822107554516,-0.160839592375405,0.204832765243942,ST
6.23333333333333,-2.29447650909424,-1.95532941818237,9.32624530792236,-0.6250039935112,2.08842802047729,-0.0914639979600906,-1104.30004882812,9.30000019073486,-887.700012207031,2.07032230775607,-0.235034253257094,0.207775834350044,ST
6.26666666666667,-2.30943012237549,-2.23585844039917,8.23642826080322,-0.960371971130371,3.46038794517517,0.487807989120483,-1087.5,10.5,-902.100036621094,2.0845824819253,-0.268211903803853,0.263329722688321,ST
6.3,-2.88903045654297,-2.64797902107239,9.27121639251709,-0.967993974685669,4.44362592697144,0.830797970294952,-1097.10009765625,14.7000007629395,-868.500061035156,2.08958760762405,-0.297763271499833,0.279453144620311,ST
6.33333333333333,-3.10496020317078,-2.95602250099182,9.34957313537598,-0.3125019967556,3.90246391296387,1.02897000312805,-1106.70007324219,17.1000003814697,-885.300048828125,2.09753593446408,-0.3127361280505,0.305205282303975,ST
6.36666666666667,-2.6276421546936,-3.05292177200317,9.43271446228027,-0.541162014007568,1.6692179441452,1.28811800479889,-1085.10009765625,14.1000003814697,-882.900024414062,2.09640231186322,-0.265583029735659,0.313107545479687,ST
6.4,-2.52595782279968,-3.05710864067078,9.38665771484375,0.243903994560242,-0.472563982009888,1.20427596569061,-1085.10009765625,18.3000011444092,-885.300048828125,2.09179276159076,-0.251284265924865,0.313799540105257,ST
6.43333333333333,-2.5917534828186,-3.07864189147949,9.55892276763916,0.868907988071442,0.335367977619171,1.44817996025085,-1089.90002441406,14.1000003814697,-894.900024414062,2.08654457406191,-0.253755242067117,0.309721472056352,ST
6.46666666666667,-2.62824010848999,-2.88783431053162,9.41895771026611,1.265251994133,0.510673999786377,1.70732796192169,-1082.70007324219,17.7000007629395,-897.300048828125,2.07846143507889,-0.261909763194153,0.295517285841893,ST
6.5,-2.88603973388672,-2.8782639503479,9.46920108795166,1.43293595314026,0.0914639979600906,1.6920839548111,-1082.70007324219,14.7000007629395,-894.900024414062,2.0729035580937,-0.283362564819918,0.292010065220075,ST
6.53333333333333,-2.79272961616516,-2.43982529640198,8.71554088592529,1.49391198158264,-0.663114011287689,1.61586391925812,-1082.70007324219,15.9000005722046,-875.700012207031,2.06166582074616,-0.298100527703995,0.270656385487433,ST
6.56666666666667,-2.49664878845215,-1.69633340835571,8.08988380432129,1.60824191570282,-2.43141794204712,1.87501192092896,-1080.30004882812,20.7000007629395,-887.700012207031,2.03484233516494,-0.290265712369602,0.205639786750579,ST
6.6,-2.2890932559967,-1.47442245483398,8.51635932922363,2.12653803825378,-3.54422998428345,2.03507399559021,-1099.5,15.3000001907349,-882.900024414062,2.0169212616945,-0.255665374022966,0.168853005908724,ST
6.63333333333333,-2.53193926811218,-0.885251581668854,8.77356147766113,2.55336999893188,-3.46800994873047,1.6844619512558,-1082.70007324219,9.30000019073486,-890.100036621094,1.99334630159142,-0.27284320352199,0.0996057585710472,ST
6.66666666666667,-2.34412240982056,-0.532945394515991,8.67845630645752,2.12653803825378,-2.4847719669342,1.76830399036407,-1097.10009765625,8.70000076293945,-887.700012207031,1.97695391047746,-0.259885329972466,0.0588191109538442,ST
6.7,-2.18142747879028,-0.141759887337685,8.98410701751709,1.61586391925812,-1.45580196380615,2.11129403114319,-1106.70007324219,11.1000003814697,-880.500061035156,1.95928988662989,-0.237186094111284,0.0148603558698086,ST
6.73333333333333,-2.58397769927979,0.338548928499222,11.6446475982666,1.47866797447205,-0.647870004177094,2.97257995605469,-1106.70007324219,8.70000076293945,-880.500061035156,1.93885326202858,-0.218256648429643,-0.0299315160310897,ST
6.76666666666667,-1.67659473419189,0.433653652667999,10.7007780075073,1.82165801525116,-2.74391984939575,2.95733594894409,-1101.90002441406,8.10000038146973,-882.900024414062,1.92630575479877,-0.154406339951161,-0.0436301740435097,ST
6.8,-0.369054228067398,0.208153754472733,9.36213397979736,0.693601965904236,-3.46800994873047,1.71494996547699,-1111.5,8.70000076293945,-882.900024414062,1.92192371582498,-0.040602699607002,-0.0248164111112088,ST
6.83333333333333,-0.2554070353508,0.0837400183081627,9.43690204620361,-0.83841997385025,-1.37958192825317,-0.533540010452271,-1113.90002441406,7.50000047683716,-866.100036621094,1.92459076884043,-0.0256263199203926,-0.0084399467199165,ST
6.86666666666667,-0.0957028716802597,-0.295482635498047,9.00623893737793,-1.93598794937134,-0.0381099991500378,-1.6844619512558,-1116.30004882812,14.1000003814697,-880.500061035156,1.93202249560519,-0.0113948994006228,0.0335071714469906,ST
6.9,-0.513206660747528,-0.552684128284454,9.54755783081055,-2.95733594894409,1.05183601379395,-2.41617393493652,-1106.70007324219,11.1000003814697,-873.300048828125,1.94240449349419,-0.0525456536066536,0.0613810324153623,ST
6.93333333333333,-0.992319166660309,-0.628648281097412,9.45903301239014,-3.81099987030029,1.2347639799118,-2.27135586738586,-1116.30004882812,12.3000001907349,-899.700012207031,1.9514300456557,-0.102912244449774,0.0726780536138719,ST
6.96666666666667,-1.27882969379425,-1.40384149551392,9.55114650726318,-4.38264989852905,1.44055795669556,-1.69970595836639,-1106.70007324219,11.1000003814697,-887.700012207031,1.9663511702857,-0.132429119788197,0.150416977311404,ST
7.0,-1.83809340000153,-2.08213567733765,9.76647853851318,-3.84910988807678,1.56251001358032,-1.73781597614288,-1101.90002441406,20.1000003814697,-887.700012207031,1.98161753036198,-0.18096451399993,0.213293577641731,ST
7.03333333333333,-2.20834374427795,-2.6216607093811,9.44527530670166,-2.25611186027527,1.75305998325348,-1.63110792636871,-1109.10009765625,16.5,-880.500061035156,2.00039879328876,-0.222112679820663,0.272997554078019,ST
7.06666666666667,-2.56244444847107,-3.07983827590942,8.24540042877197,0.289635986089706,2.84300589561462,-1.50915598869324,-1097.10009765625,20.1000003814697,-887.700012207031,2.02980274422492,-0.283201507095873,0.352876391981887,ST
7.1,-2.70420432090759,-3.00925731658936,7.62452840805054,1.46342396736145,3.49087595939636,-0.800309956073761,-1080.30004882812,14.1000003814697,-885.300048828125,2.04530532942181,-0.321377837812347,0.373178471307509,ST
7.13333333333333,-3.23356080055237,-3.07026791572571,9.55533409118652,2.59148001670837,3.3689239025116,0.533540010452271,-1099.5,14.7000007629395,-894.900024414062,2.03132897513906,-0.31776995089303,0.309927075477014,ST
7.16666666666667,-2.9201340675354,-2.73949480056763,9.5385856628418,3.87959790229797,0.221037998795509,1.21189796924591,-1075.5,18.9000015258789,-904.500061035156,2.02109784342739,-0.288799010526623,0.274364033961834,ST
7.2,-2.93269491195679,-2.08931350708008,9.41177940368652,4.38264989852905,-1.79117000102997,1.49391198158264,-1075.5,11.1000003814697,-892.500061035156,2.00156324515434,-0.292604989580829,0.213737599881101,ST
7.23333333333333,-2.44341397285461,-1.73820352554321,9.07981014251709,4.45124769210815,-2.82776188850403,2.09605002403259,-1085.10009765625,10.5,-887.700012207031,1.98768805560358,-0.256555380168047,0.182193245768089,ST
7.26666666666667,-2.59414601325989,-1.49954438209534,9.49252891540527,3.12502002716064,-3.31556987762451,2.24848985671997,-1101.90002441406,9.90000057220459,-887.700012207031,1.97243642189347,-0.258431365756594,0.151911402957079,ST
7.3,-2.22389554977417,-1.58149003982544,9.89029407501221,1.6844619512558,-3.86435389518738,2.63721203804016,-1101.90002441406,12.9000005722046,-887.700012207031,1.96198830598599,-0.215312377037284,0.154216031316813,ST
7.33333333333333,-1.59943425655365,-1.07366669178009,9.44587421417236,1.2500079870224,-4.23783206939697,2.11891603469849,-1106.70007324219,8.10000038146973,-897.300048828125,1.94366686912558,-0.162215725191394,0.1121415376992,ST
7.36666666666667,-1.0975923538208,-0.570030272006989,8.87943267822266,1.39482593536377,-3.7881338596344,1.87501192092896,-1113.90002441406,11.1000003814697,-885.300048828125,1.92900525450754,-0.119161617889163,0.0642734277235555,ST
7.4,-0.442027658224106,-0.0370848625898361,8.73169136047363,1.00610399246216,-2.24086785316467,1.13567793369293,-1113.90002441406,10.5,-887.700012207031,1.91924703915578,-0.0502566325860279,0.0053889514023492,ST
7.43333333333333,-0.598741114139557,0.132189601659775,8.49303245544434,0.228659987449646,-0.78506600856781,0.3125019967556,-1111.5,5.70000028610229,-885.300048828125,1.9168831867509,-0.0678615905469046,-0.0146989877774076,ST
7.46666666666667,-1.01325416564941,0.291295617818832,8.83935642242432,-0.243903994560242,0.541162014007568,-0.137196004390717,-1113.90002441406,10.5,-878.100036621094,1.91578152713674,-0.112447990495999,-0.0315191994995913,ST
7.5,-1.80938243865967,0.677695989608765,10.2653293609619,0.152439996600151,1.33385002613068,0.815553963184357,-1116.30004882812,9.90000057220459,-873.300048828125,1.90741044867617,-0.173205660031568,-0.0647227459870236,ST
7.53333333333333,-1.3960657119751,0.686069965362549,11.147590637207,0.548784017562866,0.114329993724823,1.50915598869324,-1113.90002441406,15.9000005722046,-878.100036621094,1.9019624949412,-0.127342761774769,-0.0628991647712547,ST
7.56666666666667,-0.725547432899475,0.773398876190186,10.4178562164307,0.259148001670837,-1.22714197635651,0.975615978240967,-1121.10009765625,5.10000038146973,-873.300048828125,1.89739869908323,-0.0707344783254617,-0.0739693078032015,ST
7.6,-0.507823407649994,0.147741317749023,10.5201387405396,-0.922261953353882,-0.724089980125427,-0.198172003030777,-1118.70007324219,4.5,-875.700012207031,1.90153865965549,-0.0484205549769539,-0.0161430173434285,ST
7.63333333333333,-0.561058104038239,-0.131591454148293,10.0721292495728,-1.74543797969818,-0.0685980021953583,-1.37195992469788,-1121.10009765625,10.5,-878.100036621094,1.90826367424403,-0.0550711006294723,0.0142751865718061,ST
7.66666666666667,-0.815268874168396,-0.668125689029694,10.0966529846191,-1.94360995292664,0.556405961513519,-1.21951997280121,-1106.70007324219,11.7000007629395,-890.100036621094,1.91653498376794,-0.0799589769610557,0.0669146545351103,ST
7.7,-0.676499724388123,-0.649583280086517,8.44278812408447,-1.90549993515015,0.0228659994900227,-1.04421401023865,-1111.5,8.10000038146973,-885.300048828125,1.92111335831747,-0.0796415751499834,0.0794500477037787,ST
7.73333333333333,-0.977365612983704,-1.2297819852829,8.63598823547363,-2.09605002403259,0.762199997901917,-0.3125019967556,-1123.5,8.70000076293945,-882.900024414062,1.92782224074753,-0.111021860522503,0.141585869260666,ST
7.76666666666667,-1.12271440029144,-2.13596844673157,9.42912578582764,-2.24086785316467,2.09605002403259,-0.724089980125427,-1104.30004882812,12.3000001907349,-880.500061035156,1.94074801474617,-0.118552141265821,0.222723603110531,ST
7.8,-1.65865051746368,-2.38838481903076,8.96436882019043,-1.64635193347931,3.14026403427124,-1.52439999580383,-1097.10009765625,17.7000007629395,-885.300048828125,1.95466514275224,-0.178111000570946,0.261668438512872,ST
7.83333333333333,-2.28071904182434,-2.76461672782898,7.85720586776733,-1.2423859834671,4.60368776321411,-1.17378795146942,-1099.5,12.3000001907349,-885.300048828125,1.98157865093616,-0.270429489100219,0.338484464361465,ST
7.86666666666667,-2.8543381690979,-2.97635936737061,9.19704627990723,-1.35671591758728,4.45886993408203,-0.236281991004944,-1089.90002441406,12.9000005722046,-885.300048828125,1.9806020476671,-0.292931946168846,0.317549013510291,ST
7.9,-2.88005828857422,-3.10316562652588,10.0051374435425,0.129574000835419,2.0579400062561,0.655492007732391,-1087.5,16.5,-880.500061035156,1.97626744449276,-0.27334376279037,0.301541092390027,ST
7.93333333333333,-2.64558625221252,-2.66951203346252,9.1988410949707,1.71494996547699,0.190549999475479,0.762199997901917,-1087.5,18.3000011444092,-887.700012207031,1.96983805558813,-0.270371477990854,0.280477949640987,ST
7.96666666666667,-2.70540070533752,-1.97446990013123,8.93326568603516,2.62196803092957,-0.990859985351562,1.43293595314026,-1073.10009765625,12.9000005722046,-892.500061035156,1.94821242598983,-0.285702632495829,0.215141673211838,ST
8.0,-2.76461672782898,-1.60900461673737,9.11330604553223,2.09605002403259,-1.30336201190948,2.13416004180908,-1087.5,13.5000009536743,-885.300048828125,1.92951599602033,-0.288554214012618,0.17263174920502,ST
8.03333333333333,-2.67968058586121,-1.38350474834442,9.27121639251709,1.2576299905777,-0.899396002292633,2.57623600959778,-1082.70007324219,9.90000057220459,-890.100036621094,1.91316091954336,-0.278231077177132,0.146286193069061,ST
8.06666666666667,-2.22748446464539,-1.33505511283875,9.04093074798584,0.548784017562866,0.144817993044853,1.73781597614288,-1104.30004882812,14.1000003814697,-892.500061035156,1.90676055620113,-0.242092455436645,0.144986748108088,ST
8.1,-2.53792071342468,-1.4540855884552,9.54636192321777,0.480185985565186,0.304879993200302,0.983237981796265,-1080.30004882812,15.3000001907349,-885.300048828125,1.90467088636548,-0.256933812879951,0.149627550775869,ST
8.13333333333333,-2.60192203521729,-1.40623414516449,10.3508644104004,0.67835795879364,-0.914639949798584,0.564027965068817,-1094.70007324219,8.70000076293945,-882.900024414062,1.89892066205991,-0.243534913626436,0.134518970146557,ST
8.16666666666667,-2.33754277229309,-0.901401460170746,9.99257659912109,1.94360995292664,-3.29270386695862,0.701223969459534,-1085.10009765625,14.7000007629395,-882.900024414062,1.88608069519083,-0.224533448739395,0.0890860197655973,ST
8.2,-1.58328449726105,-0.107665732502937,8.52533149719238,2.9344699382782,-3.68142580986023,0.746955990791321,-1092.30004882812,14.1000003814697,-887.700012207031,1.8693847406088,-0.180115385344085,0.0121619476927189,ST
8.23333333333333,-1.12630319595337,0.592161536216736,8.49841499328613,3.08691000938416,-3.87197589874268,1.34909391403198,-1101.90002441406,6.90000009536743,-885.300048828125,1.85383516299309,-0.127960924471975,-0.0699558473892033,ST
8.26666666666667,-0.0879270136356354,1.07725548744202,8.75501823425293,2.41617393493652,-4.06252574920654,1.18903195858002,-1106.70007324219,15.3000001907349,-887.700012207031,1.84759263825311,-0.0102934815223394,-0.123268290855167,ST
8.3,-0.467149674892426,1.14723825454712,9.56310939788818,1.47104597091675,-2.47714996337891,0.868907988071442,-1116.30004882812,7.50000047683716,-878.100036621094,1.84542632903755,-0.0423351599460731,-0.12206297866283,ST
8.33333333333333,-0.553282260894775,0.803305983543396,10.1235694885254,-0.167683988809586,0.533540010452271,0.358233988285065,-1109.10009765625,18.3000011444092,-882.900024414062,1.84571151473722,-0.0545172373764148,-0.0815443749795962,ST
8.36666666666667,-1.09938681125641,0.377428203821182,10.4268283843994,-2.08842802047729,2.52288198471069,-0.365855991840363,-1104.30004882812,8.70000076293945,-892.500061035156,1.84961150746835,-0.10608298019397,-0.035477713755249,ST
8.4,-1.15202331542969,-0.688462555408478,10.6493377685547,-2.78965187072754,2.11891603469849,-1.18140995502472,-1113.90002441406,8.70000076293945,-885.300048828125,1.86404612798059,-0.110854136229494,0.0632893464087967,ST
8.43333333333333,-1.50313329696655,-0.99889874458313,10.3191623687744,-3.20886182785034,2.30184388160706,-1.77592599391937,-1104.30004882812,12.3000001907349,-885.300048828125,1.87491793050072,-0.14545824768988,0.100198200743435,ST
8.46666666666667,-1.3721399307251,-1.73760533332825,8.9356575012207,-3.67380380630493,2.40855193138123,-1.81403601169586,-1089.90002441406,13.5000009536743,-894.900024414062,1.8951646667034,-0.152748192323585,0.193053417803964,ST
8.5,-1.48937594890594,-2.28789687156677,8.75262641906738,-3.39941191673279,2.42379593849182,-1.6692179441452,-1092.30004882812,17.7000007629395,-899.700012207031,1.91197724891284,-0.165732591987033,0.258039519586431,ST
8.53333333333333,-2.095294713974,-2.69941926002502,8.64795112609863,-1.73019397258759,2.59910202026367,-1.71494996547699,-1094.70007324219,11.7000007629395,-880.500061035156,1.92974940886075,-0.227882610206051,0.304363118906457,ST
8.56666666666667,-2.53732252120972,-2.90398406982422,8.14790344238281,-0.525918006896973,2.59910202026367,-1.47104597091675,-1094.70007324219,14.7000007629395,-887.700012207031,1.9474210916645,-0.285078286390505,0.341941553893473,ST
8.6,-2.71616721153259,-2.96379852294922,8.01870441436768,-0.152439996600151,2.08842802047729,-1.12805593013763,-1085.10009765625,13.5000009536743,-887.700012207031,1.95774523402283,-0.30884160803638,0.354469201612363,ST
8.63333333333333,-3.13965249061584,-2.77837419509888,9.23592567443848,0.342989981174469,0.586893975734711,-0.419209986925125,-1082.70007324219,11.1000003814697,-890.100036621094,1.94233176302961,-0.315144212718592,0.295351790712133,ST
8.66666666666667,-2.62644577026367,-2.58756637573242,8.69699859619141,1.11281192302704,-1.40244793891907,0.243903994560242,-1080.30004882812,21.9000015258789,-887.700012207031,1.93885108730253,-0.281687830864914,0.287425787720627,ST
8.7,-3.2245888710022,-2.4458065032959,10.1540746688843,1.73019397258759,-2.41617393493652,1.2576299905777,-1082.70007324219,8.10000038146973,-885.300048828125,1.91908702028288,-0.295050699547909,0.235746501764381,ST
8.73333333333333,-2.70300817489624,-2.45418071746826,10.2862644195557,1.85214591026306,-2.9268479347229,1.65397393703461,-1073.10009765625,14.7000007629395,-882.900024414062,1.91048071211699,-0.248613275657618,0.23025674535652,ST
8.76666666666667,-2.38659048080444,-2.29507446289062,9.62292385101318,1.88263392448425,-3.58234000205994,1.44055795669556,-1087.5,7.50000047683716,-892.500061035156,1.90349932977248,-0.232262626543257,0.229933350688223,ST
8.8,-2.07794857025146,-2.04445266723633,9.12227821350098,2.080806016922,-3.63569402694702,1.48628997802734,-1099.5,11.7000007629395,-887.700012207031,1.89358643850366,-0.214249530643721,0.21682210551633,ST
8.83333333333333,-2.05163049697876,-1.71487593650818,9.02836990356445,1.75305998325348,-3.20886182785034,1.53202199935913,-1094.70007324219,17.7000007629395,-902.100036621094,1.88010014550442,-0.214636640028397,0.185842938071105,ST
8.86666666666667,-2.23765277862549,-1.01624488830566,9.91780853271484,1.47104597091675,-3.04117798805237,2.05031800270081,-1101.90002441406,17.1000003814697,-892.500061035156,1.85354362899989,-0.215895281043254,0.102911583375985,ST
8.9,-1.76870882511139,-0.741099119186401,9.70187854766846,1.76068198680878,-2.78202986717224,2.62196803092957,-1123.5,11.7000007629395,-890.100036621094,1.83798695608601,-0.177789436320939,0.0740950023058638,ST
8.93333333333333,-0.890036761760712,0.35410064458847,8.0533971786499,1.82927989959717,-1.61586391925812,2.08842802047729,-1113.90002441406,9.90000057220459,-892.500061035156,1.81411828995561,-0.111411245770092,-0.0402582087922738,ST
8.96666666666667,-0.974973022937775,0.733921408653259,9.55353927612305,1.97409796714783,-0.823175966739655,2.40092992782593,-1104.30004882812,12.3000001907349,-885.300048828125,1.80154789322324,-0.100383633218844,-0.0780974561190238,ST
9.0,-0.294286340475082,0.802109718322754,9.45245361328125,1.53964400291443,-1.62348592281342,1.00610399246216,-1118.70007324219,11.7000007629395,-890.100036621094,1.79763099374647,-0.0315841215607114,-0.0869508555606809,ST
9.03333333333333,-0.339147061109543,0.516197383403778,9.61694240570068,0.907018005847931,-1.60824191570282,-0.0076219998300075,-1111.5,10.5,-875.700012207031,1.7991733130691,-0.0323513849255548,-0.0571268550798504,ST
9.06666666666667,-0.225499898195267,0.320006489753723,9.69051456451416,-0.46494197845459,-0.160062000155449,-0.914639949798584,-1113.90002441406,8.70000076293945,-887.700012207031,1.80348889439847,-0.0235990222028739,-0.0336727573196411,ST
9.1,-0.284716039896011,0.0293090064078569,9.96805286407471,-1.84452390670776,0.762199997901917,-1.18140995502472,-1106.70007324219,13.5000009536743,-882.900024414062,1.80885268413423,-0.0295175458740626,-0.0017250561462705,ST
9.13333333333333,-1.01684308052063,-0.889438569545746,10.9508018493652,-2.73629784584045,0.693601965904236,-0.853663980960846,-1111.5,14.7000007629395,-887.700012207031,1.81658219855674,-0.0895272173380814,0.0806010495676546,ST
9.16666666666667,-1.23097825050354,-1.55935871601105,10.7151327133179,-3.30032587051392,0.350611984729767,-1.12043392658234,-1111.5,13.5000009536743,-880.500061035156,1.82658755135342,-0.112236078629583,0.146668640796156,ST
9.2,-1.39905643463135,-1.98463833332062,9.40101337432861,-2.71343183517456,1.62348592281342,-0.289635986089706,-1111.5,10.5,-882.900024414062,1.83570908488354,-0.145735540455742,0.210012697641047,ST
9.23333333333333,-1.58567702770233,-2.53792071342468,9.47398662567139,-1.37195992469788,2.16464805603027,-0.0914639979600906,-1104.30004882812,8.70000076293945,-890.100036621094,1.84540849499734,-0.163109112504493,0.261917335854559,ST
9.26666666666667,-1.89790761470795,-2.79332756996155,8.62402534484863,-0.396344006061554,1.98934197425842,-0.487807989120483,-1094.70007324219,20.1000003814697,-885.300048828125,1.85827989348472,-0.206644256328227,0.31110104467176,ST
9.3,-2.00019001960754,-2.7981128692627,7.68195009231567,0.182927995920181,1.6768399477005,-0.556405961513519,-1082.70007324219,12.3000001907349,-880.500061035156,1.87065212162957,-0.240212959762295,0.347100211549439,ST
9.33333333333333,-2.14194989204407,-2.89501190185547,8.33452415466309,0.983237981796265,0.708845973014832,0.609759986400604,-1087.5,22.5,-885.300048828125,1.8669925750808,-0.23971317541955,0.333338454892025,ST
9.36666666666667,-1.92243146896362,-2.78196287155151,8.98470592498779,1.96647596359253,-1.37958192825317,1.20427596569061,-1101.90002441406,8.10000038146973,-885.300048828125,1.8548780457965,-0.20236144500449,0.298495691785658,ST
9.4,-2.05880808830261,-2.18980145454407,9.21319580078125,3.08691000938416,-2.78965187072754,1.97409796714783,-1109.10009765625,11.7000007629395,-878.100036621094,1.83336677540025,-0.209724805566615,0.231344374010023,ST
9.43333333333333,-1.82014906406403,-1.94217026233673,9.66180324554443,3.3689239025116,-2.09605002403259,2.66770005226135,-1109.10009765625,18.3000011444092,-885.300048828125,1.816634461861,-0.181776505994815,0.193900116058144,ST
9.46666666666667,-1.66702449321747,-1.29139065742493,10.3723974227905,2.24086785316467,-1.00610399246216,2.17227005958557,-1104.30004882812,16.5,-880.500061035156,1.79712739701747,-0.158450758873749,0.123801379924937,ST
9.5,-1.75136256217957,-1.28540921211243,10.5374851226807,1.72257196903229,-0.0304879993200302,1.43293595314026,-1101.90002441406,3.90000009536743,-887.700012207031,1.79140399911991,-0.163492211804096,0.118254904154195,ST
9.53333333333333,-1.97925508022308,-1.09998488426208,9.79877853393555,1.15092194080353,0.762199997901917,0.182927995920181,-1111.5,9.30000019073486,-880.500061035156,1.79044379428396,-0.197274411711862,0.110264150476112,ST
9.56666666666667,-1.76153099536896,-0.803904175758362,9.39144325256348,1.03659200668335,0.106707997620106,-0.175305992364883,-1109.10009765625,11.1000003814697,-890.100036621094,1.78725895686108,-0.185457619415857,0.0848112425246508,ST
9.6,-1.44032824039459,-0.238659039139748,8.83277702331543,1.19665396213531,-1.82165801525116,0.121951997280121,-1085.10009765625,15.3000001907349,-887.700012207031,1.77744176504342,-0.15975513504765,0.0277994315961551,ST
9.63333333333333,-1.17295837402344,0.13398402929306,8.88661003112793,1.31860601902008,-1.73019397258759,0.472563982009888,-1106.70007324219,5.10000038146973,-887.700012207031,1.77008061891208,-0.129919522784396,-0.015023331760088,ST
9.66666666666667,-0.77878212928772,1.01265609264374,9.1210823059082,1.29574000835419,-0.92988395690918,0.594515979290009,-1109.10009765625,9.90000057220459,-878.100036621094,1.75859134233325,-0.0858240809512764,-0.107002182775976,ST
9.7,-0.137572884559631,1.00846910476685,9.06665134429932,0.952749967575073,-1.60824191570282,0.503051996231079,-1106.70007324219,13.5000009536743,-885.300048828125,1.7571878305023,-0.0166548461274086,-0.112124869036062,ST
9.73333333333333,-0.0454588644206524,0.613694667816162,9.16773700714111,-0.861285984516144,-1.85976791381836,-0.449698001146317,-1116.30004882812,1.5,-894.900024414062,1.76002395116382,-0.0026715624064683,-0.0681697264916873,ST
9.76666666666667,-0.678294122219086,0.123217448592186,10.6577110290527,-2.11129403114319,-0.0609759986400604,-1.06708002090454,-1106.70007324219,6.90000009536743,-875.700012207031,1.76577069621512,-0.0597964481225434,-0.0114544683876039,ST
9.8,-0.903195858001709,-0.480906963348389,10.7013759613037,-1.99696397781372,1.81403601169586,-1.18903195858002,-1111.5,11.1000003814697,-880.500061035156,1.77420758282125,-0.0855479654708978,0.0449256055270725,ST
9.83333333333333,-1.05572235584259,-1.05931115150452,10.8198080062866,-2.4847719669342,1.95123195648193,-1.95123195648193,-1109.10009765625,11.7000007629395,-887.700012207031,1.78665630879957,-0.0990254953939609,0.0988059252689324,ST
9.86666666666667,-1.37333631515503,-1.5743123292923,10.0996437072754,-2.58385801315308,0.777444005012512,-2.20275783538818,-1111.5,11.1000003814697,-887.700012207031,1.80144480188892,-0.13241056677538,0.156318973246967,ST
9.9,-1.48100197315216,-1.70470750331879,9.31667518615723,-2.33995389938354,0.419209986925125,-1.73019397258759,-1082.70007324219,8.10000038146973,-878.100036621094,1.81107316435268,-0.153904906076202,0.183750966575598,ST
9.93333333333333,-1.48877787590027,-1.9589182138443,8.63778305053711,-1.53964400291443,0.617381989955902,-0.914639949798584,-1106.70007324219,13.5000009536743,-868.500061035156,1.82047265973533,-0.166437377261191,0.223429446132205,ST
9.96666666666667,-2.10366892814636,-2.39735698699951,9.45723819732666,-0.975615978240967,1.2500079870224,-0.442075997591019,-1104.30004882812,14.7000007629395,-890.100036621094,1.82731147003094,-0.21139809709348,0.248595811286953,ST
10.0,-2.15809988975525,-2.4876766204834,8.26693439483643,0.762199997901917,1.79117000102997,0.205793991684914,-1094.70007324219,15.9000005722046,-878.100036621094,1.83819474258755,-0.245852910017838,0.288500199426989,ST
10.0333333333333,-1.92602038383484,-2.59474420547485,7.79081201553345,1.13567793369293,1.76068198680878,0.701223969459534,-1092.30004882812,16.5,-885.300048828125,1.84578248341625,-0.234293436611354,0.317955171650113,ST
10.0666666666667,-2.26696181297302,-2.76940202713013,9.84543323516846,1.02897000312805,0.426831990480423,1.02897000312805,-1092.30004882812,15.3000001907349,-878.100036621094,1.83346414351836,-0.220166683518442,0.274554546994398,ST
10.1,-1.74418485164642,-2.48348951339722,8.45116233825684,1.31098401546478,-1.72257196903229,0.807931959629059,-1097.10009765625,12.9000005722046,-892.500061035156,1.83124375336504,-0.194635411143701,0.282575936040119,ST
10.1333333333333,-1.80399918556213,-2.1892032623291,9.35555458068848,1.78354799747467,-1.42531394958496,1.41006994247437,-1097.10009765625,14.1000003814697,-878.100036621094,1.81580352314047,-0.18442978193056,0.22959980521625,ST
10.1666666666667,-1.98583471775055,-1.9206371307373,10.2515726089478,1.82165801525116,-0.899396002292633,1.82165801525116,-1104.30004882812,14.7000007629395,-890.100036621094,1.80100882240512,-0.187051067875373,0.184298710529428,ST
10.2,-1.64848208427429,-1.41460812091827,8.85490894317627,2.30946588516235,-0.861285984516144,1.87501192092896,-1094.70007324219,10.5,-887.700012207031,1.7895539929515,-0.181221035789221,0.155594104973448,ST
10.2333333333333,-1.81775653362274,-1.26866126060486,9.18867206573486,2.02745199203491,0.0076219998300075,1.90549993515015,-1099.5,10.5,-878.100036621094,1.77967349170505,-0.193212767450824,0.13439211147375,ST
10.2666666666667,-2.5917534828186,-0.732725143432617,10.0912704467773,1.87501192092896,1.16616594791412,1.34909391403198,-1099.5,13.5000009536743,-885.300048828125,1.76226790256207,-0.250641149213572,0.0712803022363504,ST
10.3,-2.22628808021545,-0.37623193860054,9.47099590301514,1.31098401546478,0.419209986925125,2.17227005958557,-1097.10009765625,11.1000003814697,-890.100036621094,1.74675241548039,-0.232526872930501,0.0382111789919099,ST
10.3333333333333,-1.83749520778656,0.0125610027462244,8.87404918670654,0.739333987236023,-1.08232402801514,1.95885396003723,-1094.70007324219,6.30000019073486,-890.100036621094,1.73086516481981,-0.203959728819751,-0.001172763399133,ST
10.3666666666667,-1.76093292236328,0.534739792346954,8.95898532867432,0.830797970294952,-1.85976791381836,2.14940404891968,-1097.10009765625,9.90000057220459,-887.700012207031,1.71211148810274,-0.191162394036698,-0.0581028553425077,ST
10.4,-0.993515491485596,0.813474416732788,9.45723819732666,0.907018005847931,-2.78965187072754,2.63721203804016,-1109.10009765625,18.3000011444092,-892.500061035156,1.69822023141279,-0.103567646910889,-0.0864350843071455,ST
10.4333333333333,0.350511789321899,0.855942606925964,7.95290899276733,-0.0076219998300075,-5.20582580566406,1.47866797447205,-1101.90002441406,11.7000007629395,-902.100036621094,1.6934363528721,0.0461957692709958,-0.106256430909506,ST
10.4666666666667,-0.211742609739304,0.437840640544891,10.0595684051514,-1.47866797447205,-2.66007804870605,0.434453994035721,-1116.30004882812,6.90000009536743,-878.100036621094,1.69136311443454,-0.0132789767108484,-0.0441249084992908,ST
10.5,0.240453481674194,-0.119628593325615,9.71085071563721,-2.08842802047729,-0.861285984516144,-0.266770005226135,-1121.10009765625,7.50000047683716,-892.500061035156,1.69225501567882,0.0238623915254348,0.0123102634969135,ST
10.5333333333333,-0.495860517024994,-0.84158718585968,10.6254119873047,-2.59148001670837,1.73019397258759,-1.15092194080353,-1116.30004882812,14.7000007629395,-878.100036621094,1.69777004697118,-0.0449175762125153,0.0793043452912557,ST
10.5666666666667,-1.46963727474213,-1.58089184761047,11.8019590377808,-2.37044191360474,3.50611996650696,-1.21951997280121,-1113.90002441406,8.70000076293945,-878.100036621094,1.70856711152052,-0.124914272616513,0.135045690986187,ST
10.6,-1.50492775440216,-2.01035857200623,10.1762065887451,-1.93598794937134,3.3613018989563,-1.92074394226074,-1104.30004882812,7.50000047683716,-880.500061035156,1.72552017276034,-0.147760613930187,0.195164333290614,ST
10.6333333333333,-1.97327363491058,-2.57261300086975,9.92020130157471,-1.47866797447205,3.58996200561523,-2.5000159740448,-1104.30004882812,12.9000005722046,-880.500061035156,1.74730844984429,-0.192370393813705,0.253598232489255,ST
10.6666666666667,-2.08931350708008,-2.33215951919556,8.25257873535156,-0.670735955238342,2.57623600959778,-2.79727387428284,-1089.90002441406,9.90000057220459,-875.700012207031,1.76490775818251,-0.238976055771658,0.276491544591275,ST
10.7,-2.28670048713684,-2.35787963867188,7.74415683746338,0.0609759986400604,2.03507399559021,-1.02897000312805,-1097.10009765625,17.1000003814697,-887.700012207031,1.77578037747273,-0.275811812184528,0.295002062277603,ST
10.7333333333333,-2.04385447502136,-2.79572033882141,8.02229309082031,-0.586893975734711,0.952749967575073,0.0076219998300075,-1085.10009765625,19.5,-887.700012207031,1.78627137277605,-0.240002574888526,0.333996232415594,ST
10.7666666666667,-1.78605496883392,-2.70659685134888,8.34887981414795,-0.541162014007568,-1.30336201190948,0.350611984729767,-1085.10009765625,23.7000007629395,-890.100036621094,1.77879187173669,-0.201290503510657,0.315360091504504,ST
10.8,-1.48638522624969,-2.55287408828735,8.22685813903809,1.13567793369293,-2.4923939704895,1.42531394958496,-1092.30004882812,21.3000011444092,-885.300048828125,1.76829446965121,-0.169509767917132,0.299292263250342,ST
10.8333333333333,-1.60780835151672,-2.21851229667664,8.83875846862793,1.96647596359253,-1.76830399036407,1.99696397781372,-1094.70007324219,9.30000019073486,-878.100036621094,1.750951542383,-0.172353664833985,0.245249289154361,ST
10.8666666666667,-2.55107975006104,-2.04206013679504,10.9059410095215,2.01982998847961,-0.411587983369827,2.59148001670837,-1097.10009765625,10.5,-899.700012207031,1.72962172192287,-0.223537233578286,0.183761861513334,ST
10.9,-2.75983166694641,-1.65865051746368,10.6816368103027,2.70580983161926,0.655492007732391,1.49391198158264,-1092.30004882812,14.1000003814697,-882.900024414062,1.71887514993037,-0.25013874199099,0.150445716749993,ST
10.9333333333333,-2.948246717453,-1.49356305599213,11.047700881958,2.080806016922,1.22714197635651,1.19665396213531,-1097.10009765625,14.1000003814697,-887.700012207031,1.71200411238028,-0.260467900601927,0.131160542080136,ST
10.9666666666667,-2.46315264701843,-0.966000914573669,10.2390117645264,1.80641400814056,-0.685979962348938,0.556405961513519,-1089.90002441406,14.1000003814697,-899.700012207031,1.70197176907111,-0.235591254426925,0.0930910526669164,ST
11.0,-1.81356954574585,-0.317015767097473,8.99188327789307,2.40855193138123,-2.14178204536438,0.716467976570129,-1092.30004882812,9.30000019073486,-882.900024414062,1.68812093446496,-0.197682957598513,0.0345002735571886,ST
11.0333333333333,-1.54679775238037,0.0346922911703587,8.17721271514893,2.42379593849182,-2.78202986717224,0.83841997385025,-1099.5,10.5,-892.500061035156,1.6788442723691,-0.183044463020116,-0.0061296518737736,ST
11.0666666666667,-1.01265609264374,0.728538155555725,7.87215948104858,1.99696397781372,-3.65093803405762,1.2576299905777,-1092.30004882812,17.7000007629395,-892.500061035156,1.66235383921801,-0.123336284660778,-0.0924719319150395,ST
11.1,-0.800913453102112,0.671714544296265,8.82141208648682,1.31860601902008,-3.88721990585327,1.63872992992401,-1109.10009765625,13.5000009536743,-880.500061035156,1.65901048883919,-0.0857154853505626,-0.079356304572686,ST
11.1333333333333,-0.104675017297268,0.693845868110657,9.52901554107666,-0.495429992675781,-4.10825777053833,0.891773998737335,-1101.90002441406,8.70000076293945,-887.700012207031,1.65692390750502,-0.0086604562986675,-0.0722999023921981,ST
11.1666666666667,-0.0269164331257343,0.407933503389359,10.2138891220093,-1.73019397258759,-2.70580983161926,-0.213415995240211,-1116.30004882812,13.5000009536743,-866.100036621094,1.65844697706875,0.0014181340813348,-0.0390440433108556,ST
11.2,0.256005197763443,0.0077758585102856,10.0458116531372,-2.75916385650635,-0.92988395690918,-0.937505960464478,-1121.10009765625,8.70000076293945,-878.100036621094,1.66191630921965,0.0255367214384322,0.0013943324771261,DLL
11.2333333333333,-0.125011876225471,-1.03717994689941,10.5195407867432,-3.51374197006226,0.78506600856781,-1.04421401023865,-1116.30004882812,9.30000019073486,-885.300048828125,1.66563551049084,-0.0106964190157701,0.0981639819853358,DLL
11.2666666666667,-0.69863098859787,-1.56115317344666,10.378378868103,-3.04117798805237,1.46342396736145,-0.983237981796265,-1118.70007324219,14.7000007629395,-887.700012207031,1.67208682549435,-0.0659008358270036,0.151951197526754,DLL
11.3,-1.11374223232269,-1.80220472812653,9.22515869140625,-1.59299790859222,1.6768399477005,-0.396344006061554,-1118.70007324219,18.3000011444092,-873.300048828125,1.67817421020063,-0.117999149280196,0.193682255676136,DLL
11.3333333333333,-1.89730954170227,-2.31361699104309,9.72520637512207,-0.868907988071442,2.11129403114319,0.3125019967556,-1106.70007324219,17.1000003814697,-880.500061035156,1.68417881204906,-0.187280688033406,0.232843129214956,DLL
11.3666666666667,-2.43803071975708,-2.64738082885742,9.73896408081055,-0.304879993200302,2.37806391716003,0.716467976570129,-1106.70007324219,16.5,-878.100036621094,1.69007817951839,-0.238089010430433,0.263894038392125,DLL
11.4,-2.57201480865479,-2.66472697257996,8.9236946105957,0.46494197845459,2.37044191360474,1.77592599391937,-1106.70007324219,19.5,-875.700012207031,1.69208688601825,-0.272876387806128,0.287883290706268,DLL
11.4333333333333,-2.34472036361694,-2.57739806175232,9.35136699676514,0.731711983680725,0.792688012123108,2.55336999893188,-1099.5,14.1000003814697,-882.900024414062,1.67900362960932,-0.241709070291315,0.267950474449951,DLL
11.4666666666667,-1.65207087993622,-2.29208397865295,8.36263656616211,1.31860601902008,-1.79879200458527,2.23324584960938,-1104.30004882812,10.5,-892.500061035156,1.66843403250865,-0.188977599433702,0.264486418115349,DLL
11.5,-1.33744764328003,-1.87398195266724,7.61435985565186,2.24086785316467,-3.62807202339172,2.01220798492432,-1111.5,20.1000003814697,-892.500061035156,1.65313698651723,-0.164737254622084,0.23779295333469,DLL
11.5333333333333,-1.43135607242584,-1.50732028484344,7.4893479347229,2.63721203804016,-3.38416790962219,2.16464805603027,-1113.90002441406,15.3000001907349,-882.900024414062,1.63656527173754,-0.179259508869465,0.195841112678278,DLL
11.5666666666667,-1.55816245079041,-1.21064138412476,7.81354141235352,2.9344699382782,-2.69056582450867,3.27745985984802,-1101.90002441406,15.3000001907349,-880.500061035156,1.61580428329732,-0.190139209162471,0.150316380200466,DLL
11.6,-2.41350698471069,-1.11792922019958,11.0823926925659,1.81403601169586,-1.16616594791412,5.28204584121704,-1116.30004882812,12.9000005722046,-892.500061035156,1.58571959628806,-0.21100705467116,0.0987205616238046,DLL
11.6333333333333,-1.91645002365112,-1.16219174861908,11.8031549453735,1.2576299905777,-0.571649968624115,5.86131763458252,-1121.10009765625,13.5000009536743,-887.700012207031,1.56108976972499,-0.162661681797141,0.0944218307994706,DLL
11.6666666666667,-0.906186580657959,-1.15680849552155,11.3802680969238,0.358233988285065,-0.846041977405548,4.80948209762573,-1118.70007324219,11.7000007629395,-880.500061035156,1.54236338727479,-0.0835108090107054,0.0995377356955622,DLL
11.7,-0.622666835784912,-0.489280939102173,11.1978349685669,0.853663980960846,-1.2347639799118,2.72867584228516,-1121.10009765625,13.5000009536743,-885.300048828125,1.52754457533126,-0.0554160859300654,0.0453692120326865,DLL
11.7333333333333,-0.355895072221756,0.358287632465363,9.80057239532471,1.6768399477005,-1.96647596359253,2.15702605247498,-1118.70007324219,17.1000003814697,-878.100036621094,1.51559890328516,-0.0341395630100344,-0.0344609300182701,DLL
11.7666666666667,-0.163293033838272,0.906784772872925,7.9373574256897,2.17989206314087,-2.56099200248718,2.9116039276123,-1125.90002441406,9.90000057220459,-880.500061035156,1.50298104439395,-0.0166126253813992,-0.11260379725848,DLL
11.8,0.501243829727173,0.787156164646149,7.39484167098999,0.693601965904236,-1.64635193347931,4.1311240196228,-1135.5,14.7000007629395,-887.700012207031,1.48642093018985,0.0661663338128628,-0.107199439732941,DLL
11.8333333333333,-0.540123105049133,0.96958976984024,8.41407680511475,-0.25152599811554,-0.724089980125427,4.00154972076416,-1123.5,13.5000009536743,-878.100036621094,1.46977618830704,-0.055365644035675,-0.114197567009668,DLL
11.8666666666667,-1.45229113101959,0.594554126262665,9.89388275146484,-1.55488801002502,0.724089980125427,5.67839002609253,-1128.30004882812,16.5,-878.100036621094,1.45059786633771,-0.141128266375478,-0.061662069263391,DLL
11.9,-2.42606782913208,0.152526453137398,10.8897905349731,-2.34757590293884,0.99848198890686,7.65248775482178,-1125.90002441406,13.5000009536743,-875.700012207031,1.42654435673354,-0.215825742569142,-0.0156924244825488,DLL
11.9333333333333,-2.21432518959045,-0.470738530158997,10.5321016311646,-3.12502002716064,0.46494197845459,9.2302417755127,-1137.90002441406,11.1000003814697,-887.700012207031,1.39988072527016,-0.208855236309918,0.0429394850471183,DLL
11.9666666666667,-2.43204927444458,-1.29557764530182,11.0423173904419,-4.09301376342773,-0.327746003866196,10.9223260879517,-1142.70007324219,25.5000019073486,-878.100036621094,1.36858417868537,-0.216323221833867,0.115140217160522,DLL
12.0,-2.43862891197205,-1.58507883548737,9.93455696105957,-3.75764584541321,-1.34909391403198,11.9436740875244,-1142.70007324219,24.3000011444092,-878.100036621094,1.32732525694524,-0.237284064052408,0.157074860812515,DLL
12.0333333333333,-2.46494722366333,-1.82553231716156,9.58225059509277,-3.73477983474731,-1.76830399036407,13.1403274536133,-1137.90002441406,20.1000003814697,-882.900024414062,1.27733105887729,-0.24803810115122,0.187228939893875,DLL
12.0666666666667,-3.18092441558838,-1.66283750534058,8.88182544708252,-3.66618180274963,-2.99544596672058,16.2424812316895,-1123.5,20.1000003814697,-873.300048828125,1.20773925344341,-0.3330381497682,0.182212647353171,DLL
12.1,-2.4176938533783,-2.19398832321167,6.87505531311035,-4.72563982009888,-3.61282801628113,20.0687255859375,-1130.70007324219,27.3000011444092,-878.100036621094,1.16137339152293,-0.327453071563095,0.297733960221951,DLL
12.1333333333333,-0.884055316448212,-2.96918177604675,6.63998508453369,-6.53967571258545,-3.66618180274963,20.9833660125732,-1125.90002441406,35.7000007629395,-878.100036621094,1.10154381482485,-0.141479564173405,0.418285434840356,DLL
12.1666666666667,0.314623206853867,-3.82512426376343,8.59292221069336,-6.98937368392944,-3.63569402694702,17.0427913665771,-1145.10009765625,38.1000022888184,-873.300048828125,1.03242642401125,0.0166638305302162,0.430091017168014,DLL
12.2,0.515599250793457,-3.45367741584778,9.11928749084473,-4.44362592697144,-2.77440786361694,12.256175994873,-1140.30004882812,37.5,-870.900024414062,0.984905092565197,0.0473840206400452,0.374299979084655,DLL
12.2333333333333,0.842185318470001,-3.59483933448792,10.6577110290527,-1.80641400814056,-2.02745199203491,7.43144989013672,-1121.10009765625,44.7000007629395,-858.900024414062,0.956968390357728,0.0721869290225313,0.332107841210015,DLL
12.2666666666667,-0.756650865077972,-2.79392576217651,11.255256652832,2.14178204536438,-2.13416004180908,-0.37347799539566,-1128.30004882812,43.5,-861.300048828125,0.95691286366097,-0.0533077902231415,0.245200792439329,DLL
12.3,-2.37881469726562,-1.50552582740784,10.4477634429932,3.353679895401,-1.17378795146942,-2.33233189582825,-1135.5,36.3000030517578,-861.300048828125,0.95403639613993,-0.208944983295286,0.144647680859742,DLL
12.3333333333333,-2.96260213851929,-0.92472904920578,10.6146450042725,2.63721203804016,0.0914639979600906,-0.442075997591019,-1133.10009765625,32.1000022888184,-875.700012207031,0.944607800502956,-0.267521987145932,0.0863179391350311,DLL
12.3666666666667,-2.00976037979126,-0.738706588745117,9.08698844909668,1.04421401023865,-1.2347639799118,1.84452390670776,-1130.70007324219,38.1000022888184,-868.500061035156,0.936016198677855,-0.217937336907865,0.07894275082994,DLL
12.4,-1.39128053188324,-0.573020994663239,9.46441650390625,0.228659987449646,-2.52288198471069,3.09453201293945,-1140.30004882812,39.3000030517578,-856.500061035156,0.918656484950182,-0.144983067380799,0.0600522124778282,DLL
12.4333333333333,0.946860313415527,-0.60352623462677,8.93386363983154,0.388722002506256,-4.40551567077637,2.87349390983582,-1133.10009765625,35.7000007629395,-854.100036621094,0.904902254652645,0.101272893296526,0.0668543974529716,DLL
12.4666666666667,1.50133883953094,-0.211144462227821,8.25856018066406,-0.0228659994900227,-4.84759187698364,0.25152599811554,-1145.10009765625,34.5,-856.500061035156,0.908565042770777,0.182940043914445,0.028248893647387,DLL
12.5,2.30703735351562,-0.37623193860054,8.75501823425293,-1.52439999580383,-3.42989993095398,-0.762199997901917,-1152.30004882812,41.7000007629395,-856.500061035156,0.908930713106941,0.258569308530784,0.0442916341712105,DLL
12.5333333333333,2.40931987762451,-0.905588448047638,8.84593677520752,-3.29270386695862,-2.54574799537659,-1.65397393703461,-1161.90002441406,44.7000007629395,-861.300048828125,0.902640044925933,0.26865852214712,0.103283139433123,DLL
12.5666666666667,0.861325860023499,-1.12749946117401,10.4459686279297,-3.92532992362976,-0.175305992364883,-0.884151995182037,-1140.30004882812,40.5,-868.500061035156,0.906698537493446,0.09359147658811,0.113546007872366,DLL
12.6,0.932504892349243,-2.38479614257812,9.93336009979248,-3.31556987762451,2.0655620098114,0.670735955238342,-1159.5,40.5,-854.100036621094,0.89593777660805,0.0876698316489281,0.2336596991435,DLL
12.6333333333333,0.180041030049324,-2.51937818527222,10.3436861038208,-2.43903994560242,3.55185198783875,0.144817993044853,-1159.5,44.1000022888184,-856.500061035156,0.898713382411207,0.0154869212963441,0.242568226536559,DLL
12.6666666666667,-0.859531462192535,-2.6336236000061,10.832368850708,-0.739333987236023,4.1311240196228,-0.243903994560242,-1149.90002441406,48.9000015258789,-856.500061035156,0.90342901248297,-0.0778272456553343,0.240090870826375,DLL
12.7,-1.15441596508026,-2.64857697486877,9.74913215637207,-0.304879993200302,3.30032587051392,-0.617381989955902,-1130.70007324219,49.5000038146973,-846.900024414062,0.911414662624489,-0.116562974545074,0.26450324021092,DLL
12.7333333333333,-1.3278774023056,-2.64439010620117,9.16175556182861,0.221037998795509,3.21648383140564,-1.01372599601746,-1137.90002441406,41.1000022888184,-856.500061035156,0.92091590908915,-0.141655964531792,0.280054864559864,DLL
12.7666666666667,-2.19398832321167,-2.79332756996155,9.96865081787109,0.754577994346619,3.03355598449707,-1.2347639799118,-1130.70007324219,42.3000030517578,-861.300048828125,0.928986429222683,-0.210192642821862,0.272937248991264,DLL
12.8,-2.30165410041809,-2.67310094833374,7.8978796005249,1.19665396213531,1.64635193347931,-1.16616594791412,-1125.90002441406,42.9000015258789,-849.300048828125,0.948019278739501,-0.26773737640925,0.32180015961192,DLL
12.8333333333333,-2.72813010215759,-2.60790324211121,8.34708499908447,1.37958192825317,1.18140995502472,-0.800309956073761,-1130.70007324219,47.1000022888184,-875.700012207031,0.948895199842854,-0.30235428474164,0.301936429170897,DLL
12.8666666666667,-2.24423241615295,-2.60730528831482,7.9493203163147,0.602137982845306,-1.20427596569061,-0.777444005012512,-1130.70007324219,42.3000030517578,-854.100036621094,0.954702330485883,-0.262259080288888,0.315213255783448,DLL
12.9,-2.19039964675903,-2.36924433708191,8.74185943603516,0.708845973014832,-2.5076379776001,-0.0152439996600151,-1128.30004882812,41.7000007629395,-866.100036621094,0.940534508332151,-0.234667611347457,0.265970246805689,DLL
12.9333333333333,-1.76691436767578,-2.00796604156494,8.85610485076904,0.99848198890686,-3.02593398094177,1.34147191047668,-1135.5,42.9000015258789,-858.900024414062,0.924113742349787,-0.190134345604315,0.222986336198147,DLL
12.9666666666667,-1.09220910072327,-2.08153748512268,9.34239482879639,0.960371971130371,-2.54574799537659,1.92836594581604,-1135.5,39.3000030517578,-861.300048828125,0.913804040839088,-0.114377557581414,0.217341640926273,DLL
13.0,-1.63950991630554,-2.12340760231018,9.95250129699707,1.18903195858002,-1.82927989959717,1.37958192825317,-1137.90002441406,44.7000007629395,-851.700012207031,0.906331996871773,-0.154523925042595,0.208260402990442,DLL
13.0333333333333,-1.99480676651001,-1.87637448310852,10.5482511520386,1.6615959405899,-0.990859985351562,1.77592599391937,-1147.5,35.7000007629395,-866.100036621094,0.894198710405281,-0.181217314070832,0.174711697913487,DLL
13.0666666666667,-1.20645439624786,-1.758540391922,10.3149757385254,1.2576299905777,-2.08842802047729,1.60824191570282,-1145.10009765625,44.1000022888184,-844.500061035156,0.885548126870963,-0.115072320125424,0.166660392750755,DLL
13.1,0.126208171248436,-1.56354570388794,9.81791877746582,1.48628997802734,-3.66618180274963,1.19665396213531,-1142.70007324219,44.1000022888184,-868.500061035156,0.87766301682825,0.0121194925171022,0.155877578741075,DLL
13.1333333333333,1.3841028213501,-1.40563595294952,8.49123764038086,1.53964400291443,-3.98630595207214,-0.228659987449646,-1154.70007324219,43.5,-846.900024414062,0.874860330480347,0.157923508380217,0.161156731195525,DLL
13.1666666666667,1.96071267127991,-0.694444000720978,8.1012487411499,0.922261953353882,-2.0655620098114,-2.27135586738586,-1154.70007324219,45.3000030517578,-858.900024414062,0.896723135497262,0.236098075315257,0.0874100114064854,DLL
13.2,2.18621253967285,-1.0634982585907,8.14192199707031,0.0457319989800453,-1.03659200668335,-2.79727387428284,-1157.10009765625,39.9000015258789,-851.700012207031,0.897812029804983,0.26116411104236,0.1263229047657,DLL
13.2333333333333,1.93200182914734,-1.00069320201874,8.40929222106934,-1.2500079870224,0.358233988285065,-3.46038794517517,-1173.90002441406,46.5,-856.500061035156,0.914248011459238,0.226632967902678,0.119620697179103,DLL
13.2666666666667,0.471934795379639,-1.55935871601105,10.3598365783691,-1.46342396736145,2.39330792427063,-0.99848198890686,-1164.30004882812,37.5,-851.700012207031,0.916314167647459,0.0502540375610842,0.150246321813246,DLL
13.3,0.202770471572876,-2.19159579277039,11.2474803924561,-1.95123195648193,2.9116039276123,0.106707997620106,-1149.90002441406,43.5,-849.300048828125,0.916950316073013,0.0143222351912162,0.193826610666522,DLL
13.3333333333333,-0.839792728424072,-2.19279217720032,10.5626068115234,-1.03659200668335,3.75002384185791,1.08994603157043,-1157.10009765625,40.5,-846.900024414062,0.915738182709531,-0.080136679861973,0.205908543406589,DLL
13.3666666666667,-1.32727921009064,-2.34472036361694,11.1463947296143,-0.472563982009888,4.25307607650757,2.32470989227295,-1142.70007324219,35.1000022888184,-866.100036621094,0.910105270856197,-0.121439604579126,0.207755820259675,DLL
13.4,-1.34283101558685,-2.46614336967468,9.27540302276611,-1.06708002090454,2.66770005226135,2.18751406669617,-1137.90002441406,44.7000007629395,-866.100036621094,0.909604034617126,-0.143574158402968,0.259254202313559,DLL
13.4333333333333,-1.82792496681213,-2.69642853736877,8.59531402587891,-1.08994603157043,2.01220798492432,2.32470989227295,-1123.5,32.7000007629395,-863.700012207031,0.909654881047901,-0.201038263600471,0.302510049549687,DLL
13.4666666666667,-3.09778237342834,-2.75444841384888,9.13364315032959,-0.297257989645004,1.38720393180847,2.35519790649414,-1125.90002441406,47.1000022888184,-856.500061035156,0.899269678787081,-0.311765893065685,0.292928818528048,DLL
13.5,-3.01583695411682,-2.68865275382996,8.10543537139893,1.03659200668335,0.663114011287689,2.98782396316528,-1121.10009765625,38.7000007629395,-870.900024414062,0.897726921471237,-0.340352033306343,0.315401501898015,DLL
13.5333333333333,-2.58038878440857,-2.67429733276367,7.74595165252686,0.663114011287689,-0.632625997066498,2.43141794204712,-1121.10009765625,41.1000022888184,-861.300048828125,0.89330515713587,-0.30750052200615,0.329008300838737,DLL
13.5666666666667,-2.25380277633667,-2.82383298873901,8.49363040924072,0.0533539988100529,-2.21037983894348,2.36281991004944,-1128.30004882812,41.7000007629395,-863.700012207031,0.879485864802598,-0.248138002685737,0.320097021742944,DLL
13.6,-2.2011661529541,-2.68745636940002,9.28317928314209,-0.25152599811554,-3.7881338596344,2.34757590293884,-1128.30004882812,36.9000015258789,-854.100036621094,0.85708056704779,-0.22037107456982,0.283034166012832,DLL
13.6333333333333,-2.02531218528748,-2.36206650733948,9.2407112121582,0.228659987449646,-3.53660798072815,3.33081388473511,-1137.90002441406,46.5,-858.900024414062,0.834071984525755,-0.205681363513504,0.250438885698946,DLL
13.6666666666667,-1.4241783618927,-2.37702012062073,10.1815900802612,0.533540010452271,-2.34757590293884,4.03965997695923,-1125.90002441406,41.1000022888184,-863.700012207031,0.812880260834441,-0.137409180240487,0.228657340506093,DLL
13.7,-1.22679126262665,-2.26935434341431,10.462119102478,0.731711983680725,-2.37806391716003,3.96343994140625,-1140.30004882812,44.1000022888184,-854.100036621094,0.793663319229581,-0.113082728386447,0.212471291863108,DLL
13.7333333333333,-1.63173401355743,-1.92901110649109,10.6098604202271,1.45580196380615,-1.31098401546478,3.70429182052612,-1133.10009765625,41.1000022888184,-858.900024414062,0.774511326807705,-0.146926267111338,0.178531978246506,DLL
13.7666666666667,-1.05273163318634,-1.66223931312561,9.24729061126709,1.6615959405899,-0.746955990791321,3.20886182785034,-1142.70007324219,40.5,-856.500061035156,0.761669057129582,-0.113431312928147,0.174532766774984,DLL
13.8,-0.928317904472351,-1.43913197517395,9.48295879364014,1.6844619512558,-1.12043392658234,2.5076379776001,-1130.70007324219,40.5,-875.700012207031,0.749034382926929,-0.0963199331000479,0.148864573443376,DLL
13.8333333333333,-0.797324597835541,-0.876279473304749,9.50987529754639,1.78354799747467,-2.16464805603027,2.23324584960938,-1123.5,39.3000030517578,-861.300048828125,0.734730186397879,-0.080924562482676,0.0920736772831239,DLL
13.8666666666667,0.845774173736572,-0.736912131309509,8.21549415588379,1.27287399768829,-2.90398192405701,1.98171997070312,-1142.70007324219,42.9000015258789,-856.500061035156,0.72475020883539,0.0986225563586848,0.0877411251182547,DLL
13.9,1.1675751209259,-0.792539417743683,8.53968715667725,-1.01372599601746,-2.9116039276123,0.472563982009888,-1145.10009765625,43.5,-854.100036621094,0.72139921279408,0.138245300374387,0.0941539159570103,DLL
13.9333333333333,0.852353751659393,-1.09460163116455,9.13483905792236,-2.5000159740448,-2.71343183517456,0.297257989645004,-1149.90002441406,44.1000022888184,-861.300048828125,0.716849970315848,0.0995229010473317,0.121947555960262,DLL
13.9666666666667,0.702817976474762,-1.59225654602051,9.84184455871582,-3.10977602005005,-0.663114011287689,1.10518991947174,-1142.70007324219,44.7000007629395,-839.700012207031,0.709536774359176,0.0729360930601337,0.163317085601605,DLL
14.0,0.593955993652344,-1.93439435958862,10.3436861038208,-2.40855193138123,0.87652999162674,1.71494996547699,-1145.10009765625,44.1000022888184,-856.500061035156,0.702055523617033,0.0552417614771964,0.187963630761422,DLL
14.0333333333333,0.346324771642685,-2.06478953361511,10.0015487670898,-1.51677799224854,1.98934197425842,1.51677799224854,-1137.90002441406,50.1000022888184,-846.900024414062,0.697147241240086,0.0314966704996444,0.205189408102006,DLL
14.0666666666667,-0.483897656202316,-1.88953363895416,9.87175178527832,-0.419209986925125,3.01068997383118,1.12805593013763,-1140.30004882812,49.5000038146973,-858.900024414062,0.694891578279163,-0.0484833757133115,0.19075202625114,DLL
14.1,-1.30933499336243,-1.91226303577423,9.77425384521484,-0.0,3.20123982429504,0.693601965904236,-1125.90002441406,44.7000007629395,-851.700012207031,0.694812506147869,-0.131628388386216,0.193054015499489,DLL
14.1333333333333,-1.87398195266724,-2.1772403717041,9.99257659912109,0.137196004390717,2.33995389938354,0.411587983369827,-1125.90002441406,45.9000015258789,-849.300048828125,0.698360648176688,-0.182438149967199,0.213149944953664,DLL
14.1666666666667,-2.08273386955261,-2.34651494026184,10.0171003341675,0.0914639979600906,1.15092194080353,0.198172003030777,-1128.30004882812,51.9000015258789,-858.900024414062,0.701681470829625,-0.20060260451405,0.228942641531216,DLL
14.2,-1.87278568744659,-2.47631192207336,8.35725402832031,0.167683988809586,0.541162014007568,0.0228659994900227,-1140.30004882812,51.9000015258789,-854.100036621094,0.71361457882006,-0.211855873085688,0.28423481468476,DLL
14.2333333333333,-2.06179881095886,-2.69523215293884,8.1365385055542,-0.297257989645004,0.365855991840363,-0.25152599811554,-1125.90002441406,54.9000015258789,-856.500061035156,0.722276823588549,-0.235043380143829,0.318322794080603,DLL
14.2666666666667,-1.94755351543427,-2.97875189781189,7.67836141586304,-0.731711983680725,-0.815553963184357,-0.0990860015153885,-1135.5,51.3000030517578,-854.100036621094,0.732350488886907,-0.231087839423026,0.368048344234954,DLL
14.3,-1.76332545280457,-2.92671346664429,7.74714756011963,-0.487807989120483,-1.6692179441452,0.228659987449646,-1123.5,50.7000007629395,-849.300048828125,0.727454873813644,-0.208654335351829,0.36213360749525,DLL
14.3333333333333,-1.87099123001099,-2.57081842422485,8.1724271774292,0.129574000835419,-2.14940404891968,0.792688012123108,-1130.70007324219,45.9000015258789,-844.500061035156,0.710004176438524,-0.21173115491588,0.306864121965205,DLL
14.3666666666667,-1.33924210071564,-2.37702012062073,8.91711521148682,0.487807989120483,-2.23324584960938,1.77592599391937,-1130.70007324219,50.7000007629395,-854.100036621094,0.692507424083731,-0.144631491993505,0.261355469596037,DLL
14.4,-1.51928317546844,-2.33335566520691,11.5417671203613,0.701223969459534,-2.42379593849182,1.98934197425842,-1133.10009765625,46.5,-856.500061035156,0.674901577986135,-0.126108097083016,0.201544894383607,DLL
14.4333333333333,-1.13527536392212,-1.73581087589264,11.0740194320679,1.76830399036407,-2.13416004180908,1.22714197635651,-1137.90002441406,45.9000015258789,-839.700012207031,0.66414070157396,-0.0993355851962608,0.155100389190601,DLL
14.4666666666667,-0.812278151512146,-1.54859220981598,10.1181869506836,1.30336201190948,-1.01372599601746,0.541162014007568,-1133.10009765625,52.5000038146973,-842.100036621094,0.6613616221314,-0.0788995867922797,0.14983815281879,DLL
14.5,-0.956430613994598,-1.37453258037567,10.0733261108398,0.823175966739655,-1.19665396213531,0.602137982845306,-1142.70007324219,46.5,-849.300048828125,0.657048696468176,-0.0913028316796568,0.134753317693438,DLL
14.5333333333333,0.36725977063179,-1.37632691860199,9.18986892700195,0.579271972179413,-2.21800184249878,1.32622802257538,-1142.70007324219,43.5,-844.500061035156,0.650651777203654,0.0356533980912565,0.14699759349433,DLL
14.5666666666667,0.904392182826996,-1.12331247329712,8.67905426025391,0.731711983680725,-2.00458598136902,0.868907988071442,-1145.10009765625,50.1000022888184,-844.500061035156,0.64712532298483,0.101965070332726,0.128798643234024,DLL
14.6,1.60721015930176,-1.12211620807648,8.31657981872559,-0.160062000155449,-1.16616594791412,-0.144817993044853,-1140.30004882812,48.9000015258789,-849.300048828125,0.646428185584412,0.185849447285671,0.134057480727497,DLL
14.6333333333333,1.30036282539368,-1.24114668369293,8.81902027130127,-1.34909391403198,-1.15854394435883,-0.83841997385025,-1145.10009765625,45.9000015258789,-844.500061035156,0.648732125086597,0.149535965638511,0.141510296105564,DLL
14.6666666666667,0.699827253818512,-1.54021811485291,9.25865459442139,-2.19513607025146,-0.510673999786377,-0.602137982845306,-1147.5,45.3000030517578,-856.500061035156,0.648809849379672,0.0799654358713521,0.166963105423572,DLL
14.7,0.134582161903381,-1.87996339797974,10.6236171722412,-2.14940404891968,1.10518991947174,0.25152599811554,-1159.5,39.3000030517578,-846.900024414062,0.648376345339225,0.0135531388766181,0.178377050750249,DLL
14.7333333333333,0.440831363201141,-2.44520854949951,9.99317455291748,-1.42531394958496,1.56251001358032,-0.0533539988100529,-1152.30004882812,39.3000030517578,-846.900024414062,0.648716677952205,0.0391394014204887,0.239902100424993,DLL
14.7666666666667,-0.491673529148102,-2.3937680721283,9.89029407501221,-0.457319974899292,2.57623600959778,-0.411587983369827,-1140.30004882812,51.3000030517578,-844.500061035156,0.652990617194763,-0.0479856752191897,0.238408581130085,DLL
14.8,-1.04196500778198,-2.20176434516907,10.039231300354,0.304879993200302,2.88111591339111,-0.0838419944047928,-1145.10009765625,47.1000022888184,-842.100036621094,0.654381630218488,-0.102400900103595,0.216878092869414,DLL
14.8333333333333,-0.885849714279175,-2.24483060836792,8.9954719543457,0.274392008781433,1.55488801002502,0.213415995240211,-1130.70007324219,50.1000022888184,-868.500061035156,0.657660861398343,-0.0982534505496964,0.242455629367936,DLL
14.8666666666667,-1.44750595092773,-2.42846035957336,9.68692588806152,0.388722002506256,1.77592599391937,0.396344006061554,-1133.10009765625,48.3000030517578,-839.700012207031,0.658322512270753,-0.144153033851612,0.244811238717606,DLL
14.9,-1.78366231918335,-2.46434903144836,9.71144962310791,0.434453994035721,1.54726600646973,0.152439996600151,-1130.70007324219,44.7000007629395,-856.500061035156,0.65997657733441,-0.176756794123705,0.247639362674385,DLL
14.9333333333333,-1.71367967128754,-2.21970868110657,8.77655220031738,0.724089980125427,0.83841997385025,0.358233988285065,-1121.10009765625,45.3000030517578,-844.500061035156,0.65973583942461,-0.187933267659445,0.246482707533277,DLL
14.9666666666667,-1.59823799133301,-1.96669411659241,8.00853633880615,0.861285984516144,0.175305992364883,0.0,-1121.10009765625,48.9000015258789,-858.900024414062,0.659289899811014,-0.191502100739151,0.239754426166422,DLL
15.0,-1.25669836997986,-2.34412240982056,8.29923343658447,-0.152439996600151,-1.29574000835419,-0.419209986925125,-1125.90002441406,45.9000015258789,-842.100036621094,0.665110906702585,-0.145318892520326,0.273403249332628,DLL
15.0333333333333,-0.811081886291504,-2.40393662452698,8.23702716827393,-0.632625997066498,-2.98020195960999,-0.967993974685669,-1137.90002441406,48.9000015258789,-849.300048828125,0.666549254174647,-0.092207266587041,0.284374434888854,DLL
15.0666666666667,-1.11792922019958,-2.45477867126465,9.1509895324707,-0.0152439996600151,-3.08691000938416,-1.04421401023865,-1145.10009765625,56.1000022888184,-856.500061035156,0.66515646529538,-0.110707607640296,0.263363557213365,DLL
15.1,-1.18910825252533,-2.39496445655823,10.426230430603,0.350611984729767,-2.18751406669617,-0.449698001146317,-1142.70007324219,43.5,-846.900024414062,0.661070112448713,-0.107045667380266,0.227479092417522,DLL
15.1333333333333,-1.16697692871094,-2.33215951919556,11.1978349685669,1.18140995502472,-1.13567793369293,-0.0762199983000755,-1149.90002441406,51.3000030517578,-842.100036621094,0.658539405265293,-0.100152418038089,0.204710876362161,DLL
15.1666666666667,-1.2578946352005,-2.00676965713501,10.0171003341675,2.46952795982361,0.457319974899292,0.320124000310898,-1147.5,49.5000038146973,-858.900024414062,0.65759681687345,-0.122381057985823,0.193858582837679,DLL
15.2,-1.09400343894958,-1.55098474025726,10.0607643127441,1.98171997070312,1.09756803512573,0.708845973014832,-1142.70007324219,45.3000030517578,-842.100036621094,0.651600253572864,-0.109951603808684,0.152083746077962,DLL
15.2333333333333,-0.435448080301285,-1.46664655208588,9.43989276885986,1.6768399477005,-0.746955990791321,0.442075997591019,-1147.5,39.9000015258789,-842.100036621094,0.649800834326881,-0.0483530561246433,0.151210970256749,DLL
15.2666666666667,0.232677608728409,-1.287801861763,9.39383506774902,1.19665396213531,-1.87501192092896,-0.670735955238342,-1142.70007324219,42.9000015258789,-846.900024414062,0.651328366757491,0.0241930976911646,0.134978393580347,DLL
15.3,1.41400992870331,-1.06589078903198,7.81832695007324,0.78506600856781,-2.03507399559021,-2.71343183517456,-1149.90002441406,50.7000007629395,-856.500061035156,0.661596001022695,0.174505355668871,0.133524903806786,DLL
15.3333333333333,1.23157632350922,-1.42597281932831,8.4116849899292,-0.975615978240967,-1.265251994133,-3.18599581718445,-1147.5,50.7000007629395,-839.700012207031,0.669669025953428,0.147685721096207,0.167302943306483,DLL
15.3666666666667,0.811081886291504,-1.67300593852997,9.49432373046875,-1.37958192825317,-0.342989981174469,-2.21800184249878,-1166.70007324219,47.1000022888184,-849.300048828125,0.677785442022405,0.0889854700524793,0.175914493340111,DLL
15.4,0.751865744590759,-1.81715834140778,10.1618509292603,-0.685979962348938,0.510673999786377,-0.92988395690918,-1152.30004882812,42.9000015258789,-844.500061035156,0.681884210374572,0.073137476144608,0.177888736893826,DLL
15.4333333333333,0.299071490764618,-2.06957459449768,11.2522659301758,-0.3125019967556,2.61434602737427,-0.175305992364883,-1149.90002441406,36.3000030517578,-851.700012207031,0.684315510985302,0.0248189579584252,0.182129715889518,DLL
15.4666666666667,-0.536534249782562,-1.77110135555267,11.3288278579712,1.2576299905777,3.31556987762451,-0.228659987449646,-1147.5,43.5,-844.500061035156,0.68720804027475,-0.0477289264921291,0.1547071490414,DLL
15.5,-1.14065861701965,-1.80100846290588,10.8353595733643,1.16616594791412,3.7881338596344,-0.221037998795509,-1149.90002441406,41.1000022888184,-858.900024414062,0.691485362989937,-0.106166716523563,0.162321999083615,DLL
15.5333333333333,-1.38709354400635,-1.72803509235382,9.54396915435791,0.259148001670837,2.82776188850403,-0.701223969459534,-1142.70007324219,47.1000022888184,-851.700012207031,0.698916023383893,-0.145094564833265,0.178302974113553,DLL
15.5666666666667,-0.833811283111572,-2.0671820640564,7.96666622161865,0.419209986925125,1.20427596569061,-0.342989981174469,-1140.30004882812,45.3000030517578,-861.300048828125,0.710814699907682,-0.104544315203308,0.250321246925274,DLL
15.6,-1.21901535987854,-2.35847783088684,8.84174919128418,0.236281991004944,0.541162014007568,-0.67835795879364,-1125.90002441406,44.7000007629395,-849.300048828125,0.715223775009895,-0.131315334534752,0.259823530817974,DLL
15.6333333333333,-1.76272737979889,-2.1252019405365,9.08579158782959,1.06708002090454,0.525918006896973,-1.21951997280121,-1140.30004882812,53.1000022888184,-868.500061035156,0.716494536599578,-0.183729511252294,0.230242947922503,DLL
15.6666666666667,-1.07247030735016,-2.17664217948914,8.26753234863281,1.43293595314026,0.358233988285065,-1.55488801002502,-1135.5,44.1000022888184,-863.700012207031,0.727371341121347,-0.128312535543336,0.2538079355463,DLL
15.7,-0.812876284122467,-2.48049879074097,9.55772686004639,1.21951997280121,-0.236281991004944,-3.94057393074036,-1133.10009765625,41.1000022888184,-863.700012207031,0.743717976038947,-0.0823893252370521,0.252446483270165,DLL
15.7333333333333,0.05742172524333,-2.80110359191895,9.64086818695068,1.38720393180847,-1.50915598869324,-7.28663206100464,-1125.90002441406,42.3000030517578,-849.300048828125,0.772330620417108,0.0065551286219245,0.278870559425594,DLL
15.7666666666667,0.541917502880096,-2.98234081268311,9.78801155090332,2.4847719669342,-0.861285984516144,-11.8293437957764,-1147.5,35.7000007629395,-866.100036621094,0.820263436692651,0.0578608328879626,0.289901106415681,DLL
15.8,0.170470744371414,-2.98592972755432,9.69529914855957,3.10215401649475,0.0,-15.8004055023193,-1137.90002441406,39.3000030517578,-870.900024414062,0.880575267889254,0.0267632849802281,0.292362611621996,DLL
15.8333333333333,-0.926523447036743,-2.31421518325806,10.6505336761475,4.36740589141846,0.701223969459534,-19.3141479492188,-1152.30004882812,32.1000022888184,-868.500061035156,0.962522793271482,-0.0739333726957103,0.212138924378395,DLL
15.8666666666667,-1.99540495872498,-1.92542219161987,9.85440540313721,4.6494197845459,2.15702605247498,-17.865966796875,-1166.70007324219,25.5000019073486,-863.700012207031,1.0407409465036,-0.188531004296803,0.191359680920421,DLL
15.9,-0.842783451080322,-1.53004968166351,9.1270637512207,3.353679895401,2.78965187072754,-16.5244960784912,-1161.90002441406,20.1000003814697,-849.300048828125,1.10973315063548,-0.0956125833290036,0.164760378653425,DLL
15.9333333333333,-1.77648460865021,-0.967197179794312,10.0619611740112,3.42227792739868,2.82776188850403,-13.940637588501,-1152.30004882812,20.7000007629395,-878.100036621094,1.15936714226474,-0.17135269617325,0.0982237893692803,DLL
15.9666666666667,-0.616685390472412,-1.01863753795624,8.63060474395752,2.9268479347229,1.73781597614288,-11.50159740448,-1149.90002441406,21.3000011444092,-861.300048828125,1.20905071330386,-0.0777103612960961,0.113271611314226,DLL
16.0,-0.217724040150642,-0.380418926477432,8.92548942565918,2.24086785316467,1.6920839548111,-10.3735418319702,-1161.90002441406,13.5000009536743,-861.300048828125,1.24785769873099,-0.029473302519243,0.0438424788447176,DLL
16.0333333333333,0.467149674892426,-0.173461467027664,8.30162620544434,0.693601965904236,0.25152599811554,-5.13722801208496,-1140.30004882812,20.1000003814697,-875.700012207031,1.29120829953857,0.0559102442129469,0.0191879171347539,DLL
16.0666666666667,-0.0113647161051631,0.102880589663982,9.93993949890137,-0.342989981174469,1.63872992992401,-4.5808219909668,-1147.5,22.5,-875.700012207031,1.31046086574081,-0.0003930260155153,-0.0080537312229611,DLL
16.1,-0.470738530158997,-0.388194799423218,10.7456388473511,0.243903994560242,2.97257995605469,-3.46800994873047,-1142.70007324219,12.9000005722046,-861.300048828125,1.32562810972126,-0.0458359124375281,0.033252957087553,DLL
16.1333333333333,-0.770408153533936,-0.672312676906586,10.7653770446777,-0.289635986089706,3.19361782073975,-3.01068997383118,-1137.90002441406,14.7000007629395,-880.500061035156,1.33999920369467,-0.0747027764506029,0.0614443745858323,DLL
16.1666666666667,-1.50373148918152,-0.771604418754578,10.9753255844116,-0.381099998950958,3.38416790962219,-2.23324584960938,-1128.30004882812,7.50000047683716,-882.900024414062,1.35065007149369,-0.137400018270302,0.0707989204037189,DLL
16.2,-1.13108837604523,-1.12271440029144,9.87115383148193,-0.121951997280121,3.20123982429504,-1.31860601902008,-1123.5,12.3000001907349,-880.500061035156,1.36225082510093,-0.119821104713371,0.111216165383192,DLL
16.2333333333333,-1.21542656421661,-1.25729656219482,9.27360820770264,0.236281991004944,2.04269599914551,-0.632625997066498,-1130.70007324219,15.9000005722046,-894.900024414062,1.36865015459854,-0.131774664465918,0.133131646762545,DLL
16.2666666666667,-1.41101932525635,-1.58627510070801,9.52841758728027,0.243903994560242,1.47104597091675,0.0762199983000755,-1123.5,20.1000003814697,-880.500061035156,1.37362371494718,-0.146912099503767,0.163194131975247,DLL
16.3,-1.29318511486053,-1.79622340202332,8.52054691314697,-0.0381099991500378,1.36433792114258,-0.0914639979600906,-1113.90002441406,13.5000009536743,-880.500061035156,1.38119255540623,-0.149572443245997,0.205216087177499,DLL
16.3333333333333,-1.21722090244293,-1.6024249792099,7.85002851486206,-0.205793991684914,1.80641400814056,-0.609759986400604,-1111.5,12.9000005722046,-870.900024414062,1.38444138729719,-0.153400598410689,0.202176686644095,DLL
16.3666666666667,-1.78366231918335,-1.74777376651764,8.45176029205322,-0.137196004390717,1.45580196380615,-0.861285984516144,-1109.10009765625,15.9000005722046,-880.500061035156,1.38924571461688,-0.20279210176539,0.204408039835605,DLL
16.4,-1.76990509033203,-1.93858134746552,8.33871078491211,-0.891773998737335,0.0076219998300075,-1.21189796924591,-1111.5,15.3000001907349,-892.500061035156,1.39812104445458,-0.203372662261421,0.228826449310901,DLL
16.4333333333333,-1.78725123405457,-2.27772831916809,9.55712795257568,-1.34909391403198,0.0762199983000755,-1.90549993515015,-1106.70007324219,10.5,-885.300048828125,1.40616180385578,-0.180613124873357,0.236482441284039,ST
16.4666666666667,-2.41530132293701,-1.78426051139832,10.5817470550537,-0.342989981174469,-0.426831990480423,-2.080806016922,-1113.90002441406,15.9000005722046,-885.300048828125,1.40095656839402,-0.217643338059958,0.172554566816423,ST
16.5,-1.81835460662842,-2.09350037574768,9.71563625335693,-0.182927995920181,-1.52439999580383,-1.6768399477005,-1116.30004882812,15.3000001907349,-880.500061035156,1.41364636415818,-0.18018766624168,0.210547975723129,ST
16.5333333333333,-1.7986159324646,-2.14374446868896,10.4292211532593,-0.769822001457214,-0.990859985351562,-1.38720393180847,-1101.90002441406,15.3000001907349,-885.300048828125,1.4167088008915,-0.166072083001878,0.204785138669217,ST
16.5666666666667,-1.20406174659729,-2.02112507820129,9.53978252410889,-0.0,0.144817993044853,-0.358233988285065,-1111.5,12.9000005722046,-875.700012207031,1.41878342525508,-0.125584476359192,0.208617888860848,ST
16.6,-1.74358677864075,-1.86082279682159,9.42972373962402,1.09756803512573,1.16616594791412,0.350611984729767,-1101.90002441406,13.5000009536743,-873.300048828125,1.41679591809154,-0.178176658085449,0.193841155697705,ST
16.6333333333333,-2.00916218757629,-1.722651720047,9.40699481964111,1.97409796714783,1.10518991947174,1.00610399246216,-1104.30004882812,20.7000007629395,-878.100036621094,1.41227723280688,-0.2074055123676,0.17838688368739,ST
16.6666666666667,-1.95413303375244,-1.20226740837097,9.41835880279541,2.27135586738586,-0.937505960464478,1.13567793369293,-1113.90002441406,20.1000003814697,-875.700012207031,1.39849287526656,-0.201983448143615,0.125929929974996,ST
16.7,-0.82065212726593,-0.447410941123962,8.88242340087891,2.27135586738586,-2.61434602737427,1.02897000312805,-1113.90002441406,12.9000005722046,-880.500061035156,1.38370256546974,-0.0945301313869007,0.0509070204126691,ST
16.7333333333333,-0.0783567279577255,0.334960073232651,8.9057502746582,2.25611186027527,-3.33081388473511,1.27287399768829,-1106.70007324219,15.3000001907349,-882.900024414062,1.37450994339375,-0.0084963714372447,-0.0359852432684051,ST
16.7666666666667,0.401353925466537,0.674705266952515,9.15756893157959,0.731711983680725,-1.6844619512558,1.05945801734924,-1116.30004882812,8.10000038146973,-870.900024414062,1.37121039724814,0.0433911716438436,-0.0724100566451332,ST
16.8,-0.83261501789093,0.568833947181702,10.3801727294922,-0.297257989645004,1.12043392658234,1.02134799957275,-1113.90002441406,11.1000003814697,-880.500061035156,1.3670470586096,-0.0741684263225685,-0.0554381366634382,ST
16.8333333333333,-0.610105812549591,-0.135180309414864,9.62890529632568,-1.12805593013763,2.62196803092957,0.800309956073761,-1118.70007324219,12.9000005722046,-882.900024414062,1.36814039815718,-0.0682412097259976,0.0115899727229084,ST
16.8666666666667,-1.29677391052246,-1.10656452178955,10.1971416473389,-2.40855193138123,2.57623600959778,-0.426831990480423,-1111.5,9.30000019073486,-880.500061035156,1.37877815248941,-0.126432533155946,0.106277012362283,ST
16.9,-2.63302540779114,-1.58507883548737,11.1182813644409,-2.22562384605408,2.60672402381897,-0.259148001670837,-1101.90002441406,6.30000019073486,-880.500061035156,1.38597223127522,-0.228157049950483,0.143296188439442,ST
16.9333333333333,-2.04445266723633,-2.04505085945129,10.0972518920898,-1.99696397781372,2.29422187805176,0.182927995920181,-1094.70007324219,9.30000019073486,-899.700012207031,1.39723052520416,-0.201626958406734,0.199786144980814,ST
16.9666666666667,-1.66762256622314,-2.04983592033386,8.56002426147461,-1.04421401023865,1.44817996025085,0.388722002506256,-1099.5,8.70000076293945,-882.900024414062,1.40296081590269,-0.190576210423813,0.234604889908404,ST
17.0,-1.73999786376953,-2.4577693939209,8.9177131652832,-1.02134799957275,1.01372599601746,0.663114011287689,-1089.90002441406,20.1000003814697,-885.300048828125,1.40702591769971,-0.18810726281235,0.268406611166366,ST
17.0333333333333,-1.5683308839798,-2.57201480865479,8.15268898010254,-1.04421401023865,-0.0457319989800453,0.0304879993200302,-1099.5,17.1000003814697,-890.100036621094,1.41282548306336,-0.181794819945979,0.305042804159172,ST
17.0666666666667,-2.11443543434143,-3.01404237747192,8.14670753479004,-0.381099998950958,0.182927995920181,-0.274392008781433,-1092.30004882812,12.3000001907349,-885.300048828125,1.42350795948453,-0.235461374291869,0.352066896027366,ST
17.1,-2.10845398902893,-2.98533153533936,8.69340991973877,-0.0990860015153885,-0.213415995240211,-0.358233988285065,-1089.90002441406,18.9000015258789,-882.900024414062,1.41995676624012,-0.225569903144722,0.332334877830669,ST
17.1333333333333,-1.58448076248169,-2.78914070129395,9.29574012756348,-0.114329993724823,-2.41617393493652,0.0,-1106.70007324219,13.5000009536743,-899.700012207031,1.40957815559589,-0.161919984705485,0.293929604784032,ST
17.1666666666667,-1.41281366348267,-2.51339673995972,9.53140830993652,1.14329993724823,-3.66618180274963,-0.0762199983000755,-1092.30004882812,9.30000019073486,-892.500061035156,1.40125592000733,-0.137711678860035,0.257929463194725,ST
17.2,-1.71966099739075,-2.08632278442383,9.60079288482666,2.0731840133667,-2.52288198471069,0.510673999786377,-1101.90002441406,15.3000001907349,-885.300048828125,1.39145556334479,-0.167277132938079,0.212974902575328,ST
17.2333333333333,-1.84706544876099,-1.7483719587326,9.89029407501221,1.51677799224854,-0.685979962348938,0.762199997901917,-1104.30004882812,15.3000001907349,-882.900024414062,1.38227655819848,-0.180193711420679,0.174282553666155,ST
17.2666666666667,-1.98224580287933,-1.82373797893524,10.1038312911987,1.06708002090454,1.08232402801514,1.28049600124359,-1111.5,3.90000009536743,-892.500061035156,1.37888966530864,-0.192411020926979,0.176262071944837,ST
17.3,-1.97327363491058,-1.52167570590973,9.60976505279541,1.2500079870224,0.899396002292633,1.41006994247437,-1104.30004882812,17.7000007629395,-873.300048828125,1.37094319038356,-0.201457152322532,0.155742426295607,ST
17.3333333333333,-2.37223505973816,-1.35299944877625,10.2575540542603,1.60824191570282,1.27287399768829,2.08842802047729,-1104.30004882812,14.7000007629395,-885.300048828125,1.35905089384213,-0.226622423520376,0.129124422785111,ST
17.3666666666667,-1.74298858642578,-0.418700069189072,9.75631046295166,2.47714996337891,0.0914639979600906,2.35519790649414,-1104.30004882812,18.3000011444092,-880.500061035156,1.33438958963236,-0.180058506575204,0.0432697878512552,ST
17.4,-0.958225011825562,-0.0657957270741463,8.56720161437988,3.20123982429504,-1.28049600124359,2.86587190628052,-1094.70007324219,12.9000005722046,-873.300048828125,1.31887350411883,-0.113489096399807,0.0039836899094115,ST
17.4333333333333,-0.508421540260315,0.423485219478607,8.3578519821167,3.08691000938416,-1.62348592281342,2.24848985671997,-1106.70007324219,12.9000005722046,-892.500061035156,1.30610527714458,-0.0610609337132935,-0.0526376141153611,ST
17.4666666666667,-0.206359326839447,0.797324597835541,8.58574390411377,1.57775402069092,-1.93598794937134,0.731711983680725,-1111.5,6.90000009536743,-894.900024414062,1.302322242805,-0.0229134680203317,-0.0927944841321152,ST
17.5,0.36725977063179,0.772202551364899,8.3518705368042,-0.632625997066498,-2.10367202758789,-1.20427596569061,-1104.30004882812,12.3000001907349,-880.500061035156,1.30796620903762,0.0429681830727099,-0.0912724236785848,ST
17.5333333333333,-0.57660984992981,0.352904349565506,9.64864444732666,-2.74391984939575,-0.541162014007568,-2.40855193138123,-1109.10009765625,9.30000019073486,-885.300048828125,1.31786095993551,-0.0526970655684307,-0.0352389818591032,ST
17.5666666666667,-1.34103655815125,-0.858933329582214,9.93635082244873,-4.31405210494995,2.21037983894348,-2.01220798492432,-1121.10009765625,11.1000003814697,-887.700012207031,1.33573894805022,-0.132156754494584,0.086282299475931,ST
17.6,-2.38300156593323,-2.02351760864258,11.1918535232544,-4.68753004074097,3.68142580986023,-1.71494996547699,-1104.30004882812,11.7000007629395,-878.100036621094,1.35735683658358,-0.207528141708955,0.181613422973223,ST
17.6333333333333,-2.21253085136414,-2.76162600517273,10.8658647537231,-4.39027214050293,2.80489587783813,-2.11129403114319,-1099.5,17.1000003814697,-882.900024414062,1.37912559146411,-0.199209787665742,0.253369500710087,ST
