seconds,sensor_accX_m_s_,sensor_accY_m_s_,sensor_accZ_m_s_,sensor_gyroX___s_,sensor_gyroY___s_,sensor_gyroZ___s_,sensor_magX__T_,sensor_magY__T_,sensor_magZ__T_,sensor_yaw___,sensor_pitch___,sensor_roll___,label5
0.0,1.81476581096649,-1.65266907215118,9.42493915557861,0.708845973014832,-0.190549999475479,-0.701223969459534,-1219.5,15.3000001907349,-846.900024414062,1.99253180791893,0.18797074462009,0.172133019356197,ST
0.0333333333333333,1.71726846694946,-1.62395811080933,9.39622783660889,0.792688012123108,-0.0838419944047928,-0.579271972179413,-1221.90002441406,11.7000007629395,-842.100036621094,1.99767197625532,0.178499845502283,0.169582277645475,ST
0.0666666666666667,1.67659473419189,-1.44870233535767,9.31727313995361,0.800309956073761,0.0228659994900227,-0.327746003866196,-1217.10009765625,19.5,-854.100036621094,2.00273297437861,0.176017845409076,0.152757688074616,ST
0.1,1.67300593852997,-1.38350474834442,9.29633808135986,0.586893975734711,0.0304879993200302,-0.106707997620106,-1231.5,20.1000003814697,-842.100036621094,2.00386462811618,0.176133122666239,0.146680808027182,ST
0.133333333333333,1.66582822799683,-1.35479378700256,9.40101337432861,0.396344006061554,-0.0152439996600151,0.0685980021953583,-1231.5,21.3000011444092,-858.900024414062,2.00301408955901,0.173629231810405,0.142457174610307,ST
0.166666666666667,1.76751244068146,-1.38111209869385,9.40520000457764,0.205793991684914,-0.274392008781433,0.167683988809586,-1212.30004882812,5.10000038146973,-844.500061035156,1.99971128367219,0.18426379989359,0.145510252442197,ST
0.2,1.85962653160095,-1.41939330101013,9.4434814453125,0.0762199983000755,-0.388722002506256,0.0762199983000755,-1221.90002441406,11.7000007629395,-846.900024414062,1.99736821747704,0.192975609409434,0.149098453040301,ST
0.233333333333333,1.8949168920517,-1.44092643260956,9.45963096618652,0.106707997620106,-0.3125019967556,0.0076219998300075,-1219.5,17.7000007629395,-842.100036621094,1.99606983301972,0.196039257360432,0.150994211107847,ST
0.266666666666667,1.80938243865967,-1.42776727676392,9.53619384765625,0.167683988809586,-0.221037998795509,0.0457319989800453,-1229.10009765625,15.9000005722046,-851.700012207031,1.99532913799289,0.1858629993076,0.148350755014937,ST
0.3,1.84527111053467,-1.46963727474213,9.3836669921875,0.0685980021953583,-0.182927995920181,0.182927995920181,-1224.30004882812,14.7000007629395,-851.700012207031,1.99135793651361,0.192153357121302,0.155304491245836,ST
0.333333333333333,1.74597930908203,-1.49595558643341,9.47458457946777,0.121951997280121,-0.106707997620106,0.274392008781433,-1224.30004882812,9.90000057220459,-844.500061035156,1.98730836988057,0.180164958548156,0.156477090807863,ST
0.366666666666667,1.77947533130646,-1.51270353794098,9.4315185546875,0.114329993724823,-0.0381099991500378,0.396344006061554,-1226.70007324219,14.1000003814697,-846.900024414062,1.98211683257451,0.18413591737194,0.158962457647344,ST
0.4,1.80519545078278,-1.52287197113037,9.41895771026611,0.0457319989800453,-0.0533539988100529,0.350611984729767,-1221.90002441406,9.90000057220459,-839.700012207031,1.97775219133528,0.186981627140672,0.160331254165209,ST
0.433333333333333,1.74478304386139,-1.52107763290405,9.51705265045166,0.106707997620106,-0.0990860015153885,0.289635986089706,-1229.10009765625,16.5,-851.700012207031,1.974465484191,0.179188555801143,0.15839590015913,ST
0.466666666666667,1.69453907012939,-1.50492775440216,9.43271446228027,0.182927995920181,-0.137196004390717,0.327746003866196,-1219.5,12.3000001907349,-832.500061035156,1.96986112274673,0.175721581100785,0.157997844253555,ST
0.5,1.73222208023071,-1.49655365943909,9.51824951171875,0.182927995920181,-0.175305992364883,0.304879993200302,-1209.90002441406,17.1000003814697,-854.100036621094,1.96616255933808,0.178099668154274,0.155737818106514,ST
0.533333333333333,1.81356954574585,-1.50373148918152,9.4967155456543,0.221037998795509,-0.25152599811554,0.236281991004944,-1224.30004882812,18.9000015258789,-842.100036621094,1.96242419899451,0.186794289691306,0.156742314682338,ST
0.566666666666667,1.81416761875153,-1.43554317951202,9.44407939910889,0.25152599811554,-0.358233988285065,0.182927995920181,-1212.30004882812,14.7000007629395,-849.300048828125,1.96019648190921,0.188249247965559,0.15048998712924,ST
0.6,1.81117689609528,-1.39965450763702,9.38306903839111,0.350611984729767,-0.25152599811554,0.259148001670837,-1217.10009765625,12.9000005722046,-832.500061035156,1.95666707160883,0.189011179987148,0.147563243433626,ST
0.633333333333333,1.82313978672028,-1.34462535381317,9.3956298828125,0.274392008781433,-0.175305992364883,0.457319974899292,-1209.90002441406,17.1000003814697,-851.700012207031,1.95138409142419,0.189962637234895,0.141828973755187,ST
0.666666666666667,1.82194352149963,-1.33026993274689,9.26523494720459,0.342989981174469,-0.137196004390717,0.670735955238342,-1209.90002441406,10.5,-842.100036621094,1.94205329229382,0.192313943863683,0.142235492401305,ST
0.7,1.82912123203278,-1.34941053390503,9.5804557800293,0.190549999475479,-0.0533539988100529,0.716467976570129,-1231.5,17.7000007629395,-854.100036621094,1.93398236169793,0.186770462076804,0.139834514748789,ST
0.733333333333333,1.89910387992859,-1.35419571399689,9.43450927734375,0.25152599811554,-0.0914639979600906,0.754577994346619,-1214.70007324219,12.3000001907349,-842.100036621094,1.92434569973382,0.196643355534083,0.142386996656113,ST
0.766666666666667,1.92721664905548,-1.39486944675446,9.44049072265625,0.106707997620106,-0.182927995920181,0.663114011287689,-1224.30004882812,12.3000001907349,-842.100036621094,1.91553567537779,0.199416681355548,0.146745667246871,ST
0.8,1.82313978672028,-1.37453258037567,9.40639591217041,0.167683988809586,-0.0381099991500378,0.685979962348938,-1229.10009765625,15.3000001907349,-825.300048828125,1.90775942078429,0.18937776978362,0.145037301591536,ST
0.833333333333333,1.66343557834625,-1.29677391052246,9.34538555145264,0.297257989645004,0.182927995920181,0.899396002292633,-1219.5,21.9000015258789,-854.100036621094,1.89773471087149,0.173983121425804,0.137628160986968,ST
0.866666666666667,1.63113594055176,-1.28600740432739,9.35316181182861,0.304879993200302,0.190549999475479,1.21951997280121,-1229.10009765625,12.9000005722046,-844.500061035156,1.88391547905597,0.170461911679599,0.136461062807629,ST
0.9,1.74119424819946,-1.26267981529236,9.38905048370361,0.190549999475479,-0.106707997620106,1.51677799224854,-1212.30004882812,15.3000001907349,-858.900024414062,1.86518216097749,0.181596049708307,0.133836154697873,ST
0.933333333333333,1.85125243663788,-1.32847559452057,9.37828350067139,0.114329993724823,-0.342989981174469,1.50153398513794,-1233.90002441406,15.9000005722046,-844.500061035156,1.84623016576787,0.193233956787539,0.141040247202153,ST
0.966666666666667,1.88355219364166,-1.53004968166351,9.44108867645264,-0.0304879993200302,-0.46494197845459,1.2347639799118,-1219.5,14.1000003814697,-842.100036621094,1.82692396774961,0.194902977611344,0.161161024847006,ST
1.0,1.57132160663605,-1.62276184558868,9.45664024353027,0.129574000835419,0.0,1.13567793369293,-1226.70007324219,12.9000005722046,-832.500061035156,1.81159386792906,0.161996586207782,0.170036623343515,ST
1.03333333333333,1.275838971138,-1.75375521183014,9.47039794921875,0.365855991840363,0.708845973014832,1.18140995502472,-1217.10009765625,11.7000007629395,-849.300048828125,1.79736941606189,0.130119146783585,0.182701785404537,ST
1.06666666666667,1.60302317142487,-2.17006278038025,9.55353927612305,0.205793991684914,0.381099998950958,1.08232402801514,-1229.10009765625,14.1000003814697,-834.900024414062,1.78002125808817,0.161111318049637,0.223260064243121,ST
1.1,1.26208162307739,-2.1150336265564,9.49910831451416,0.25152599811554,0.121951997280121,0.83841997385025,-1214.70007324219,15.3000001907349,-854.100036621094,1.77123505229477,0.12845296633551,0.218823378764312,ST
1.13333333333333,0.903195858001709,-2.24483060836792,9.31308650970459,0.541162014007568,1.14329993724823,1.33385002613068,-1209.90002441406,10.5,-856.500061035156,1.75691858697993,0.0915316696274246,0.235743397987787,ST
1.16666666666667,0.708201289176941,-2.27952289581299,9.59899806976318,0.25152599811554,1.6920839548111,1.6920839548111,-1217.10009765625,10.5,-851.700012207031,1.74251690710184,0.0681121783864903,0.232867712298034,ST
1.2,0.269762486219406,-2.07017278671265,10.1050271987915,0.754577994346619,1.52439999580383,2.42379593849182,-1214.70007324219,18.3000011444092,-858.900024414062,1.71705364711605,0.0227001113042109,0.20083771176829,ST
1.23333333333333,0.451597929000854,-1.97626435756683,9.58763408660889,0.792688012123108,1.21951997280121,2.85824990272522,-1226.70007324219,16.5,-851.700012207031,1.68451156136661,0.0430106510461112,0.202087065060887,ST
1.26666666666667,0.293090045452118,-1.65087461471558,9.40579795837402,0.335367977619171,0.868907988071442,2.56861400604248,-1205.10009765625,14.1000003814697,-858.900024414062,1.65807115078379,0.0284195897093745,0.17328924725741,ST
1.3,-0.156115308403969,-1.53902184963226,9.54337120056152,0.495429992675781,1.15854394435883,2.75154185295105,-1197.90002441406,14.1000003814697,-854.100036621094,1.62905038720015,-0.018889495823396,0.158946490971936,ST
1.33333333333333,-0.0645994395017624,-1.31112945079803,9.05169773101807,0.495429992675781,0.739333987236023,2.62959003448486,-1195.5,27.3000011444092,-846.900024414062,1.59927067239391,-0.0089963937433932,0.142948364800755,ST
1.36666666666667,0.108862020075321,-1.35898077487946,9.05887508392334,0.579271972179413,-0.243903994560242,2.04269599914551,-1214.70007324219,18.3000011444092,-863.700012207031,1.57263067421512,0.0117772662183197,0.147936689937107,ST
1.4,0.187218755483627,-1.53363859653473,9.09416580200195,0.236281991004944,-1.6768399477005,0.586893975734711,-1214.70007324219,17.7000007629395,-866.100036621094,1.56242716785629,0.0230097546654198,0.166683663735016,ST
1.43333333333333,-0.30624920129776,-1.82971930503845,9.69290637969971,0.25152599811554,-3.07166600227356,-1.82165801525116,-1202.70007324219,16.5,-839.700012207031,1.57668224053926,-0.0251639446313328,0.186181278741728,ST
1.46666666666667,-0.717173397541046,-1.91166496276855,9.77126312255859,0.594515979290009,-4.38264989852905,-3.31556987762451,-1226.70007324219,12.9000005722046,-856.500061035156,1.60518624959503,-0.0632788451140501,0.192427750864529,ST
1.5,-1.12271440029144,-1.82373797893524,9.08938026428223,1.15854394435883,-5.06100797653198,-3.90246391296387,-1226.70007324219,17.7000007629395,-842.100036621094,1.63948137295457,-0.11050952331768,0.196539524441308,ST
1.53333333333333,-1.47442245483398,-1.39905643463135,8.82260894775391,1.92074394226074,-4.85521411895752,-3.44514393806458,-1233.90002441406,18.9000015258789,-834.900024414062,1.66707231101426,-0.154267317975832,0.15464487333139,ST
1.56666666666667,-1.32548487186432,-1.04615211486816,8.74485015869141,2.78202986717224,-5.62503576278687,-2.30184388160706,-1243.5,15.9000005722046,-854.100036621094,1.68407075467407,-0.139172141917665,0.114617879188338,ST
1.6,-1.44272089004517,-0.872092425823212,8.72152233123779,3.07928800582886,-6.09759998321533,-1.73781597614288,-1243.5,3.30000019073486,-851.700012207031,1.69939957712074,-0.152253018318786,0.0945943807827776,ST
1.63333333333333,-0.803305983543396,-0.883457183837891,8.0533971786499,3.07166600227356,-5.70887804031372,-0.937505960464478,-1253.10009765625,9.30000019073486,-832.500061035156,1.70798933863387,-0.0887719802445202,0.103946850230253,ST
1.66666666666667,-0.278136491775513,-0.71059387922287,8.5666036605835,2.75154185295105,-5.30491209030151,-0.724089980125427,-1255.5,9.90000057220459,-813.300048828125,1.71089435142202,-0.0230379519792314,0.0779773900279573,ST
1.7,1.82074725627899,-0.82065212726593,7.52045154571533,2.5076379776001,-5.11436176300049,-1.2423859834671,-1267.5,10.5,-813.300048828125,1.71043356409008,0.245264798282109,0.104016060014586,ST
1.73333333333333,2.64080119132996,-0.562254369258881,8.40989017486572,2.03507399559021,-5.31253385543823,-2.17227005958557,-1269.90002441406,9.30000019073486,-813.300048828125,1.73596937182008,0.313108463971648,0.0621862050021235,ST
1.76666666666667,5.17573118209839,-0.43724250793457,8.87046051025391,2.36281991004944,-7.13419198989868,-1.53964400291443,-1272.30004882812,8.70000076293945,-808.500061035156,1.74265439561623,0.540143237258455,0.0438930748732793,ST
1.8,7.36912155151367,-0.0651975870132446,9.32624530792236,2.05031800270081,-7.85828161239624,-1.01372599601746,-1296.30004882812,6.30000019073486,-806.100036621094,1.76089543994583,0.682371136401798,0.0020671997134737,ST
1.83333333333333,8.51336860656738,-0.0299071483314037,9.93694877624512,1.77592599391937,-7.24852180480957,0.426831990480423,-1291.5,-0.300000011920929,-791.700012207031,1.74467035634808,0.721030344101019,0.0005980226344672,ST
1.86666666666667,9.50688457489014,-0.441429525613785,9.39084434509277,0.853663980960846,-4.76375007629395,0.960371971130371,-1301.10009765625,6.30000019073486,-794.100036621094,1.69597151534755,0.799186342143723,0.0475865547862779,ST
1.9,9.75331974029541,-0.44322395324707,10.030858039856,0.152439996600151,-3.32319188117981,0.121951997280121,-1305.90002441406,2.70000004768372,-794.100036621094,1.694815260652,0.776675791594491,0.0443529241559723,ST
1.93333333333333,9.51286602020264,0.256005197763443,9.80715179443359,0.304879993200302,-2.41617393493652,-0.6250039935112,-1293.90002441406,6.90000009536743,-789.300048828125,1.74832551160407,0.774184133520547,-0.0277800613337218,ST
1.96666666666667,8.54507064819336,1.9469553232193,10.0523910522461,0.503051996231079,0.0152439996600151,-0.6250039935112,-1305.90002441406,-0.300000011920929,-779.700012207031,1.86083108091927,0.695246997989399,-0.193028002246017,ST
2.0,8.44936752319336,2.69044709205627,9.41536808013916,-0.411587983369827,0.769822001457214,-1.41006994247437,-1303.5,5.10000038146973,-782.100036621094,1.92980959866639,0.709941803506454,-0.279302070432679,ST
2.03333333333333,7.24650192260742,2.36924433708191,7.36373805999756,-2.29422187805176,2.24848985671997,-2.89635992050171,-1286.70007324219,8.70000076293945,-779.700012207031,1.98623486675093,0.747475743977391,-0.310615715493748,ST
2.06666666666667,4.79052686691284,1.63472473621368,8.93386363983154,-3.97868394851685,5.16771602630615,-3.3613018989563,-1291.5,3.30000019073486,-786.900024414062,1.95850550676302,0.47550742891065,-0.176187597720456,ST
2.1,3.81615209579468,1.97805881500244,8.36802005767822,-2.72105383872986,6.28052806854248,-3.39941191673279,-1296.30004882812,2.70000004768372,-803.700012207031,2.01597042185045,0.405686453888035,-0.228761285048405,ST
2.13333333333333,3.38907814025879,1.86142086982727,8.12397766113281,-3.49849796295166,6.13570976257324,-3.65855979919434,-1274.70007324219,-2.10000014305115,-813.300048828125,2.05152023918947,0.374376797802447,-0.220641565793545,ST
2.16666666666667,2.83998274803162,1.15740668773651,8.52234077453613,-4.85521411895752,3.91770792007446,-3.39941191673279,-1260.30004882812,2.10000014305115,-810.900024414062,2.06875331653153,0.31142103285817,-0.128136534495015,ST
2.2,2.54330396652222,-0.915158748626709,9.51645469665527,-5.54119396209717,3.97106194496155,-1.30336201190948,-1262.70007324219,9.30000019073486,-810.900024414062,2.03766515751887,0.253377193354004,0.1047065987341,ST
2.23333333333333,2.50801348686218,-1.50672209262848,10.2025241851807,-4.68753004074097,4.55795574188232,-1.02134799957275,-1267.5,5.70000028610229,-818.100036621094,2.05713235648759,0.230980188416294,0.154097905210683,ST
2.26666666666667,2.64139938354492,-1.94516098499298,9.13782978057861,-3.17837381362915,4.6341757774353,-1.47104597091675,-1257.90002441406,6.90000009536743,-839.700012207031,2.0783169862712,0.268166955381577,0.214112778198502,ST
2.3,2.30344867706299,-2.68865275382996,8.80885124206543,-4.31405210494995,4.04728174209595,-2.72867584228516,-1250.70007324219,6.30000019073486,-827.700012207031,2.11030411868,0.239759447313741,0.302120657935125,ST
2.33333333333333,2.8842453956604,-3.69652366638184,8.58873462677002,-5.28966808319092,2.24848985671997,-3.74240183830261,-1233.90002441406,5.70000028610229,-832.500061035156,2.14582106266726,0.298214610791221,0.413300382544923,ST
2.36666666666667,1.47860944271088,-2.5797905921936,9.13723182678223,-2.78202986717224,1.13567793369293,-3.17837381362915,-1236.30004882812,4.5,-830.100036621094,2.22517637863125,0.154132415869926,0.279128868729328,ST
2.4,0.293688207864761,-0.87089616060257,7.54736804962158,0.754577994346619,1.84452390670776,-0.0304879993200302,-1238.70007324219,13.5000009536743,-832.500061035156,2.24373347415733,0.035484423310227,0.11360542687768,ST
2.43333333333333,-0.751267552375793,-0.43425178527832,8.37938499450684,-0.411587983369827,2.90398192405701,0.716467976570129,-1236.30004882812,3.90000009536743,-839.700012207031,2.23541109249479,-0.0943823775599409,0.05242342849286,ST
2.46666666666667,-0.936093747615814,-0.577207982540131,7.05808687210083,-0.541162014007568,2.88111591339111,0.937505960464478,-1217.10009765625,9.30000019073486,-844.500061035156,2.22993459546803,-0.136555914562313,0.0823649819309475,ST
2.5,-0.70461243391037,-2.27473783493042,9.29454326629639,-0.87652999162674,3.23172783851624,1.59299790859222,-1231.5,12.3000001907349,-854.100036621094,2.23640417703839,-0.0796638984259894,0.241389349171421,ST
2.53333333333333,0.372044920921326,-4.06856870651245,12.2170705795288,-4.43600368499756,1.98171997070312,-0.175305992364883,-1212.30004882812,11.1000003814697,-844.500061035156,2.24829514962109,0.0256756496608449,0.329149586481535,ST
2.56666666666667,1.57491040229797,-3.94834184646606,9.86935901641846,-2.88873791694641,-2.14178204536438,-2.73629784584045,-1209.90002441406,6.90000009536743,-854.100036621094,2.26780024765033,0.152306245447143,0.385115210992256,ST
2.6,0.583189368247986,-3.08282876014709,8.84473991394043,-0.274392008781433,-0.937505960464478,-2.41617393493652,-1229.10009765625,9.90000057220459,-851.700012207031,2.2959359361603,0.0651458836856415,0.335651491512546,ST
2.63333333333333,1.47143173217773,-3.16836333274841,8.85191822052002,-0.365855991840363,0.37347799539566,0.236281991004944,-1229.10009765625,9.90000057220459,-846.900024414062,2.29441333495829,0.154483521668054,0.344385455984712,ST
2.66666666666667,2.4595639705658,-3.37591886520386,9.2760009765625,-0.655492007732391,1.91312193870544,1.37958192825317,-1219.5,14.1000003814697,-846.900024414062,2.28757382991098,0.240209053556996,0.35045715615807,ST
2.7,2.50143384933472,-3.60082077980042,9.55952072143555,0.556405961513519,2.44666194915771,1.54726600646973,-1207.5,2.10000014305115,-842.100036621094,2.27682887910701,0.235201737029879,0.359509373632257,ST
2.73333333333333,1.95174050331116,-3.52964162826538,9.8017692565918,0.975615978240967,3.26983785629272,0.87652999162674,-1226.70007324219,11.7000007629395,-866.100036621094,2.28118246178387,0.179327981248068,0.34385909608474,ST
2.76666666666667,1.33146619796753,-3.20724272727966,9.54277324676514,1.50153398513794,3.58234000205994,0.457319974899292,-1205.10009765625,2.10000014305115,-846.900024414062,2.2909173064244,0.125316501576914,0.321457179914535,ST
2.8,0.288903057575226,-2.77119636535645,9.53380107879639,2.13416004180908,3.32319188117981,0.884151995182037,-1207.5,4.5,-846.900024414062,2.29413301653885,0.0231083674014057,0.27915559416163,ST
2.83333333333333,-0.480906963348389,-2.39077734947205,8.66948413848877,2.35519790649414,3.39178991317749,1.50915598869324,-1188.30004882812,14.1000003814697,-844.500061035156,2.28869744248145,-0.0598002316072455,0.264917734680413,ST
2.86666666666667,-0.945664048194885,-2.0671820640564,9.48056602478027,1.6920839548111,4.22258806228638,2.72867584228516,-1185.90002441406,6.30000019073486,-875.700012207031,2.26620843406751,-0.105342044706638,0.211422761973793,ST
2.9,-0.780576586723328,-1.92183339595795,8.91651725769043,2.27897787094116,3.71953582763672,3.59758400917053,-1183.5,9.90000057220459,-856.500061035156,2.23679869414181,-0.0930222829846361,0.207866814295435,ST
2.93333333333333,-1.46126329898834,-1.59106028079987,9.03554725646973,1.95885396003723,3.56709599494934,2.52288198471069,-1183.5,15.3000001907349,-866.100036621094,2.21426089912507,-0.164806535541926,0.17035457480457,ST
2.96666666666667,-1.76033473014832,-2.03548049926758,9.57088565826416,1.39482593536377,4.42838191986084,2.40092992782593,-1181.10009765625,4.5,-856.500061035156,2.20609291452838,-0.186419568284943,0.206641148142316,ST
3.0,-2.16886639595032,-1.52107763290405,9.52602481842041,0.891773998737335,4.29118585586548,2.55336999893188,-1164.30004882812,10.5,-861.300048828125,2.17746689294029,-0.229230469509509,0.15604881973379,ST
3.03333333333333,-2.14135193824768,-1.60661196708679,9.50568771362305,1.09756803512573,4.72563982009888,3.72715783119202,-1159.5,7.50000047683716,-866.100036621094,2.14863626948808,-0.2277738703991,0.164347470546552,ST
3.06666666666667,-1.57311606407166,-1.24234294891357,9.93036937713623,0.609759986400604,4.12350177764893,4.90856790542603,-1159.5,8.10000038146973,-875.700012207031,2.08942590129592,-0.164112294423072,0.122141279180589,ST
3.1,-0.614890992641449,-1.11374223232269,10.1289529800415,0.594515979290009,3.22410583496094,4.81710386276245,-1145.10009765625,7.50000047683716,-878.100036621094,2.03741757392783,-0.0668019420105343,0.107963073638699,ST
3.13333333333333,0.172863319516182,-1.39486944675446,9.5266227722168,0.67835795879364,2.0731840133667,3.60520601272583,-1137.90002441406,8.10000038146973,-887.700012207031,1.99938885077814,0.0134474114572509,0.144267525041722,ST
3.16666666666667,0.148339450359344,-1.53124594688416,10.3670139312744,0.0533539988100529,0.823175966739655,1.6692179441452,-1147.5,9.90000057220459,-897.300048828125,1.98063830384902,0.0123077009605039,0.146582677718076,ST
3.2,0.259594053030014,-1.287801861763,8.76040172576904,1.16616594791412,0.480185985565186,1.2500079870224,-1145.10009765625,7.50000047683716,-880.500061035156,1.96689399779596,0.0281615403633666,0.143979981244481,ST
3.23333333333333,-0.0281127188354731,-1.69812786579132,8.84952545166016,0.967993974685669,2.05031800270081,1.21189796924591,-1130.70007324219,10.5,-873.300048828125,1.95697166418637,-0.0070185227190109,0.187870849882806,ST
3.26666666666667,-0.815867006778717,-1.97387182712555,8.97932243347168,0.617381989955902,2.21037983894348,0.800309956073761,-1147.5,8.10000038146973,-882.900024414062,1.95513996227184,-0.0925561141880688,0.215248587903381,ST
3.3,-1.51150727272034,-2.54270577430725,9.06366062164307,0.342989981174469,1.2500079870224,0.655492007732391,-1145.10009765625,13.5000009536743,-885.300048828125,1.95930150642381,-0.161608013232521,0.272818138407193,ST
3.33333333333333,-1.72145545482635,-2.2591860294342,9.21199989318848,0.564027965068817,-0.0381099991500378,0.800309956073761,-1133.10009765625,11.1000003814697,-882.900024414062,1.94583519767157,-0.179799122148065,0.239274621488981,ST
3.36666666666667,-1.83151376247406,-1.5743123292923,9.37290000915527,0.907018005847931,-0.556405961513519,0.78506600856781,-1137.90002441406,7.50000047683716,-875.700012207031,1.92421127691797,-0.189636166857093,0.164562528975477,ST
3.4,-1.68736135959625,-0.783567309379578,9.06425857543945,1.42531394958496,-0.78506600856781,0.663114011287689,-1133.10009765625,5.70000028610229,-870.900024414062,1.90325371179268,-0.182112805690483,0.0835175675574733,ST
3.43333333333333,-1.98404026031494,-0.945065915584564,8.83397388458252,1.08232402801514,-0.823175966739655,-0.0381099991500378,-1140.30004882812,15.9000005722046,-892.500061035156,1.90958143001949,-0.218265275915782,0.104660111430231,ST
3.46666666666667,-2.76641130447388,-1.30754053592682,9.79877853393555,0.0457319989800453,-0.602137982845306,-0.274392008781433,-1135.5,8.70000076293945,-878.100036621094,1.91868567844647,-0.271739052258639,0.132659681570663,ST
3.5,-3.05232357978821,-1.49236667156219,9.72281360626221,0.365855991840363,-1.37195992469788,0.0076219998300075,-1137.90002441406,12.3000001907349,-878.100036621094,1.92276388220957,-0.298511935789365,0.151546378781596,ST
3.53333333333333,-3.91125679016113,-0.879270195960999,10.1684303283691,1.37958192825317,-1.36433792114258,0.777444005012512,-1137.90002441406,6.90000009536743,-878.100036621094,1.89629986282152,-0.363675219166404,0.0832789447522992,ST
3.56666666666667,-3.6953272819519,-0.703416109085083,11.0889720916748,2.12653803825378,-1.20427596569061,2.40092992782593,-1149.90002441406,9.30000019073486,-887.700012207031,1.86820019480461,-0.319228246590012,0.0582169865254343,ST
3.6,-1.82792496681213,-1.0455539226532,9.09476375579834,0.236281991004944,-3.92532992362976,1.06708002090454,-1140.30004882812,5.70000028610229,-875.700012207031,1.86464124452984,-0.190500611694305,0.113532086877047,ST
3.63333333333333,-2.08632278442383,-0.358287632465363,9.5744743347168,-0.533540010452271,-3.33081388473511,-0.0838419944047928,-1137.90002441406,5.10000038146973,-882.900024414062,1.84743546827767,-0.208587562707318,0.038333526400568,ST
3.66666666666667,-1.56952714920044,-0.137572884559631,9.68871974945068,0.426831990480423,-1.43293595314026,0.289635986089706,-1154.70007324219,10.5,-880.500061035156,1.84004340615366,-0.158102787186138,0.0133731450676827,ST
3.7,-0.894223749637604,0.0968991592526436,8.20173645019531,0.693601965904236,0.266770005226135,0.952749967575073,-1164.30004882812,6.90000009536743,-892.500061035156,1.82650232006922,-0.109052227146648,-0.0131985713174594,ST
3.73333333333333,-1.09819054603577,0.19798532128334,8.17063331604004,-0.0838419944047928,4.37502813339233,0.884151995182037,-1157.10009765625,5.70000028610229,-882.900024414062,1.81237771628516,-0.141160619797864,-0.024324612334292,ST
3.76666666666667,-1.20884692668915,-0.496458679437637,8.11201477050781,-1.55488801002502,5.51070594787598,0.472563982009888,-1135.5,14.1000003814697,-870.900024414062,1.82050957130226,-0.157304836916345,0.0637713336552262,ST
3.8,-0.909177303314209,-0.820053994655609,9.4913330078125,-3.11739802360535,4.49697971343994,-0.92988395690918,-1130.70007324219,9.90000057220459,-875.700012207031,1.83598719686602,-0.102824990019846,0.0918589943739785,ST
3.83333333333333,-0.850559294223785,-1.13946235179901,10.3747901916504,-2.24848985671997,2.32470989227295,-0.967993974685669,-1123.5,7.50000047683716,-880.500061035156,1.85043628115732,-0.085157472778557,0.11349316488217,ST
3.86666666666667,-0.329576790332794,-1.01385235786438,10.2521705627441,-1.27287399768829,0.190549999475479,-0.663114011287689,-1128.30004882812,12.3000001907349,-902.100036621094,1.85714251417974,-0.032207544421226,0.100833971816856,ST
3.9,-0.0029907147400081,-0.729136288166046,9.19943904876709,-1.31098401546478,-0.137196004390717,-0.243903994560242,-1121.10009765625,11.7000007629395,-878.100036621094,1.85942066946602,-6.14834664772507e-05,0.0813880603364736,ST
3.93333333333333,-1.17714536190033,-0.819455862045288,9.71384143829346,-1.86738991737366,1.63110792636871,0.358233988285065,-1125.90002441406,14.1000003814697,-880.500061035156,1.85506854423562,-0.123021734406502,0.0873704015366318,ST
3.96666666666667,-2.34950566291809,-1.35539197921753,9.06665134429932,-1.54726600646973,3.24697184562683,1.90549993515015,-1113.90002441406,13.5000009536743,-878.100036621094,1.84436731768586,-0.256977746617031,0.150443566878773,ST
4.0,-2.95542430877686,-2.08931350708008,9.35495567321777,-1.92836594581604,3.353679895401,2.28659987449646,-1106.70007324219,15.3000001907349,-892.500061035156,1.83882293683371,-0.305659567294649,0.222261379091134,ST
4.03333333333333,-3.64269065856934,-2.41649770736694,9.74315071105957,-1.85976791381836,2.4847719669342,1.08994603157043,-1106.70007324219,18.9000015258789,-902.100036621094,1.83425862607775,-0.352755681498118,0.246057165783005,ST
4.06666666666667,-3.4973418712616,-2.7682056427002,9.27061748504639,-0.983237981796265,2.15702605247498,0.746955990791321,-1101.90002441406,14.7000007629395,-885.300048828125,1.84478704953288,-0.35084592733804,0.291813683522754,ST
4.1,-3.52485656738281,-2.65276408195496,9.56011867523193,-0.282013982534409,1.62348592281342,0.175305992364883,-1104.30004882812,16.5,-887.700012207031,1.83965455677717,-0.344185189361397,0.271337444890403,ST
4.13333333333333,-3.41778898239136,-2.06359314918518,8.52772426605225,1.36433792114258,0.0838419944047928,-0.106707997620106,-1101.90002441406,15.3000001907349,-899.700012207031,1.83394290797247,-0.371549606600878,0.235137133664593,ST
4.16666666666667,-3.31191754341125,-2.29328012466431,8.21609210968018,1.12043392658234,-0.914639949798584,-0.198172003030777,-1089.90002441406,13.5000009536743,-880.500061035156,1.85076179191108,-0.368716405897158,0.270188716262359,ST
4.2,-3.5631377696991,-2.21253085136414,8.77415943145752,0.0990860015153885,-1.17378795146942,-0.777444005012512,-1099.5,12.9000005722046,-887.700012207031,1.84779279685536,-0.372802839741715,0.247168105911924,ST
4.23333333333333,-3.41778898239136,-2.43743252754211,9.70427131652832,0.182927995920181,-0.266770005226135,-0.160062000155449,-1092.30004882812,13.5000009536743,-875.700012207031,1.84900371925207,-0.328653072955806,0.24581549624052,ST
4.26666666666667,-2.82562732696533,-2.67190456390381,9.85380744934082,0.381099998950958,-0.0076219998300075,0.350611984729767,-1104.30004882812,12.3000001907349,-887.700012207031,1.85178877002286,-0.270168944035563,0.263951961462952,ST
4.3,-2.84476804733276,-2.09589290618896,10.4029026031494,1.06708002090454,0.37347799539566,0.739333987236023,-1094.70007324219,17.7000007629395,-890.100036621094,1.83007726053433,-0.262809230054799,0.196664655851873,ST
4.33333333333333,-1.35778450965881,-2.04146194458008,9.03076267242432,1.34909391403198,-0.396344006061554,1.53202199935913,-1087.5,11.1000003814697,-870.900024414062,1.81927468845959,-0.145559294918834,0.219552232480244,ST
4.36666666666667,-0.275145769119263,-2.12998723983765,8.20472717285156,0.6250039935112,-1.90549993515015,0.609759986400604,-1116.30004882812,8.10000038146973,-892.500061035156,1.81034335635685,-0.0295324237616444,0.252840431328584,ST
4.4,-0.593357801437378,-2.11742615699768,8.30342102050781,1.02897000312805,-2.5152599811554,0.335367977619171,-1101.90002441406,11.7000007629395,-892.500061035156,1.79995448135126,-0.0650091472676858,0.24778342581549,ST
4.43333333333333,-1.52287197113037,-1.68855762481689,8.1724271774292,1.62348592281342,-4.11588001251221,-0.0533539988100529,-1109.10009765625,15.9000005722046,-887.700012207031,1.7881769034362,-0.173408873717024,0.200693304491665,ST
4.46666666666667,-1.94396460056305,-1.65506160259247,7.98461055755615,1.6768399477005,-4.29118585586548,0.114329993724823,-1109.10009765625,19.5,-890.100036621094,1.78154355682774,-0.226712729629807,0.201064588005579,ST
4.5,-2.05043411254883,-1.79741966724396,7.71544599533081,1.36433792114258,-3.7805118560791,-0.304879993200302,-1118.70007324219,10.5,-885.300048828125,1.78524423888933,-0.246713044763117,0.226245259280296,ST
4.53333333333333,-2.70480251312256,-1.56773269176483,9.31308650970459,1.265251994133,-3.22410583496094,-1.2347639799118,-1118.70007324219,8.70000076293945,-882.900024414062,1.78064828765208,-0.273021138329189,0.164918604892537,ST
4.56666666666667,-3.09299731254578,-0.971384167671204,10.0374374389648,2.45428395271301,-3.74240183830261,-0.792688012123108,-1123.5,9.30000019073486,-885.300048828125,1.77412206468791,-0.290972385025363,0.0924257044714401,ST
4.6,-2.95781707763672,0.0837400183081627,9.01999568939209,3.45276594161987,-4.12350177764893,0.350611984729767,-1133.10009765625,11.7000007629395,-873.300048828125,1.75029574476847,-0.30964992083045,-0.0154483074279901,ST
4.63333333333333,-2.66532516479492,0.644798099994659,9.62412071228027,2.01982998847961,-2.9420919418335,0.6250039935112,-1121.10009765625,11.1000003814697,-875.700012207031,1.7360177212586,-0.264413304111531,-0.0706071350623086,ST
4.66666666666667,-2.27055072784424,0.620274245738983,10.8048543930054,0.983237981796265,-2.78202986717224,0.365855991840363,-1152.30004882812,2.10000014305115,-882.900024414062,1.73884092213135,-0.201933345919842,-0.0591374630624113,ST
4.7,-1.87099123001099,0.194396466016769,10.0906715393066,0.0762199983000755,-2.36281991004944,-0.945127964019775,-1161.90002441406,8.10000038146973,-878.100036621094,1.75795897899151,-0.179218675914535,-0.0190955794915877,ST
4.73333333333333,-1.47322618961334,-0.0508421510457993,10.3406953811646,-0.716467976570129,-1.2500079870224,-1.62348592281342,-1149.90002441406,6.30000019073486,-890.100036621094,1.78138805010646,-0.139318603388261,0.0065606312106021,ST
4.76666666666667,-0.0101684303954244,-0.195592746138573,9.61754035949707,-1.07470202445984,0.190549999475479,-2.14940404891968,-1159.5,9.90000057220459,-873.300048828125,1.8077528980845,-0.0013404740390826,0.0222122514700406,ST
4.8,0.297875195741653,0.299071490764618,10.1098127365112,-1.00610399246216,2.46190595626831,-2.13416004180908,-1137.90002441406,5.10000038146973,-885.300048828125,1.8325821269111,0.0250352373492206,-0.0278907346869231,ST
4.83333333333333,1.25968909263611,0.508421540260315,11.0441122055054,-1.37958192825317,3.56709599494934,-1.63872992992401,-1145.10009765625,19.5,-875.700012207031,1.85222064624102,0.107077570641355,-0.0438655092660718,ST
4.86666666666667,2.51638746261597,0.335558205842972,11.0201864242554,-2.66770005226135,1.69970595836639,-2.71343183517456,-1135.5,14.7000007629395,-873.300048828125,1.88568422329773,0.221263976844864,-0.0268326895568889,ST
4.9,2.44640469551086,-0.13099330663681,11.1206741333008,-3.15550804138184,-0.3125019967556,-3.56709599494934,-1135.5,8.70000076293945,-892.500061035156,1.92865346592112,0.217169147587694,0.0159076405153308,ST
4.93333333333333,0.0873288735747337,-0.544310092926025,9.39024639129639,-1.43293595314026,-2.76678586006165,-2.89635992050171,-1140.30004882812,12.3000001907349,-885.300048828125,1.95581369633102,0.0144765362659855,0.0603153386610735,ST
4.96666666666667,-1.08742392063141,-0.962412059307098,8.1126127243042,-0.579271972179413,-2.96495795249939,-0.975615978240967,-1142.70007324219,7.50000047683716,-870.900024414062,1.96580279049855,-0.126942309185212,0.119208484344788,ST
5.0,-1.15321969985962,-1.58208811283112,7.27700757980347,-0.670735955238342,-2.37806391716003,0.228659987449646,-1154.70007324219,6.90000009536743,-875.700012207031,1.96909235896119,-0.149663747597094,0.21504384708291,ST
5.03333333333333,-1.87039303779602,-2.68506383895874,7.86199140548706,-1.61586391925812,-1.35671591758728,0.25152599811554,-1147.5,12.9000005722046,-878.100036621094,1.97925917888079,-0.219324744312638,0.331622407280404,ST
5.06666666666667,-1.9206371307373,-3.47640705108643,9.00803279876709,-1.73019397258759,0.0076219998300075,-0.457319974899292,-1154.70007324219,8.70000076293945,-866.100036621094,1.9883779743684,-0.196083436560289,0.371467890191452,ST
5.1,-1.81895279884338,-3.62295198440552,9.47817325592041,-1.41006994247437,0.121951997280121,-0.899396002292633,-1152.30004882812,13.5000009536743,-890.100036621094,1.99480446393381,-0.177017350019938,0.367842474338774,ST
5.13333333333333,-1.90568351745605,-3.86998510360718,9.51406192779541,-0.144817993044853,1.62348592281342,-1.41006994247437,-1142.70007324219,11.1000003814697,-890.100036621094,2.01967862932592,-0.185145213853689,0.387197401771104,ST
5.16666666666667,-1.83151376247406,-4.15410280227661,10.5446624755859,-0.0685980021953583,3.37654590606689,-0.846041977405548,-1147.5,13.5000009536743,-880.500061035156,2.04065826753083,-0.165163371334204,0.375995210903552,ST
5.2,-1.92362785339355,-4.334144115448,11.4275217056274,0.365855991840363,3.51374197006226,0.190549999475479,-1137.90002441406,11.7000007629395,-882.900024414062,2.0512951170894,-0.161965715595442,0.362181656013714,ST
5.23333333333333,-1.75913846492767,-3.80000233650208,10.3478736877441,2.02745199203491,3.40703392028809,2.30946588516235,-1135.5,11.1000003814697,-890.100036621094,2.04146754452282,-0.165210755193503,0.348114141508204,ST
5.26666666666667,-0.806296706199646,-3.08881020545959,9.22515869140625,2.82776188850403,1.75305998325348,4.01679372787476,-1125.90002441406,9.30000019073486,-882.900024414062,2.00354216051806,-0.0878139203776747,0.317665372309054,ST
5.3,-0.685471832752228,-2.31780409812927,8.81423473358154,3.23172783851624,0.0838419944047928,4.52746772766113,-1123.5,12.9000005722046,-882.900024414062,1.94810647213884,-0.0771777166981636,0.250922656445019,ST
5.33333333333333,-0.194994613528252,-1.79981219768524,8.06835079193115,3.20123982429504,-1.79879200458527,4.15398979187012,-1121.10009765625,11.1000003814697,-897.300048828125,1.89617189668694,-0.0220722335399338,0.21372921523033,ST
5.36666666666667,-0.235668331384659,-1.53902184963226,7.63050985336304,2.94971394538879,-3.08691000938416,2.75154185295105,-1128.30004882812,9.30000019073486,-892.500061035156,1.85738992136631,-0.0259031182263687,0.19372986453177,ST
5.4,-1.10177934169769,-0.82663357257843,8.25257873535156,2.0579400062561,-3.31556987762451,-0.0457319989800453,-1142.70007324219,6.90000009536743,-875.700012207031,1.84889264733432,-0.126269202400753,0.0962115671466669,ST
5.43333333333333,-1.7166702747345,-0.418101936578751,9.17192459106445,1.94360995292664,-3.58234000205994,-1.32622802257538,-1133.10009765625,9.30000019073486,-873.300048828125,1.85751524408414,-0.178475280674905,0.042544594570442,ST
5.46666666666667,-1.8045973777771,-0.211742609739304,9.29813289642334,1.53964400291443,-4.39789390563965,-1.92074394226074,-1142.70007324219,8.10000038146973,-885.300048828125,1.87735283936501,-0.183904691340247,0.020679617823657,ST
5.5,-1.3559901714325,0.25839775800705,9.69350528717041,1.18903195858002,-4.27594184875488,-1.20427596569061,-1152.30004882812,5.10000038146973,-880.500061035156,1.88630092265698,-0.131552901522458,-0.0284048428511234,ST
5.53333333333333,-0.977963745594025,0.503038227558136,10.4567356109619,0.754577994346619,-5.0838737487793,-0.510673999786377,-1152.30004882812,5.10000038146973,-890.100036621094,1.8933862471224,-0.0843436109910213,-0.0492681850396504,ST
5.56666666666667,-0.0179442893713713,0.660947978496552,10.8580894470215,0.365855991840363,-5.95278167724609,-0.358233988285065,-1157.10009765625,6.90000009536743,-868.500061035156,1.90215525480873,0.0086731557769765,-0.0614446335732468,ST
5.6,1.00069320201874,0.433055520057678,10.9962606430054,-0.472563982009888,-5.31253385543823,-0.78506600856781,-1171.5,7.50000047683716,-873.300048828125,1.91295938746383,0.0998649417150365,-0.03871784006772,ST
5.63333333333333,1.6383136510849,0.416307508945465,10.3574438095093,-1.02897000312805,-4.62655401229858,-1.6615959405899,-1159.5,4.5,-866.100036621094,1.93575212928403,0.164687570028091,-0.0389113014392218,ST
5.66666666666667,1.65087461471558,0.713584542274475,10.0936622619629,-1.6844619512558,-1.37958192825317,-1.49391198158264,-1181.10009765625,12.3000001907349,-878.100036621094,1.96291240274985,0.163949041065809,-0.0680920105739375,ST
5.7,1.85843026638031,0.576011657714844,10.1235694885254,-1.81403601169586,0.0304879993200302,-0.663114011287689,-1178.70007324219,10.5,-861.300048828125,1.97166933429505,0.181145890710513,-0.0538864487322471,ST
5.73333333333333,1.5061240196228,-0.194396466016769,8.60787582397461,-1.99696397781372,-0.0533539988100529,-0.114329993724823,-1193.10009765625,5.10000038146973,-875.700012207031,1.96349175609989,0.173273779805375,0.0260227803628649,ST
5.76666666666667,1.22559499740601,-0.893027484416962,8.05160236358643,-2.45428395271301,-0.3125019967556,0.0228659994900227,-1183.5,6.90000009536743,-861.300048828125,1.95300158054048,0.150695389796236,0.114738446189818,ST
5.8,0.599937379360199,-1.86979496479034,7.84285068511963,-3.01068997383118,-0.6250039935112,0.0914639979600906,-1181.10009765625,10.5,-875.700012207031,1.93932397040117,0.0753142871532001,0.239293765628338,ST
5.83333333333333,-0.433055520057678,-2.61747360229492,9.46022891998291,-3.12502002716064,0.685979962348938,0.0381099991500378,-1183.5,11.1000003814697,-861.300048828125,1.93948242761124,-0.0452451232296801,0.27539014220562,ST
5.86666666666667,-0.753660142421722,-2.99071478843689,8.94522857666016,-2.00458598136902,1.18140995502472,0.175305992364883,-1176.30004882812,13.5000009536743,-851.700012207031,1.94328488141792,-0.0817753683731411,0.326164508193679,ST
5.9,-0.594554126262665,-3.55835247039795,8.99846267700195,-1.33385002613068,1.51677799224854,0.922261953353882,-1178.70007324219,13.5000009536743,-863.700012207031,1.9425471695737,-0.064426891178839,0.378845923101547,ST
5.93333333333333,0.0759641602635384,-4.38498592376709,10.1522808074951,-1.31860601902008,1.11281192302704,0.83841997385025,-1173.90002441406,7.50000047683716,-868.500061035156,1.93934458051268,0.0044919515882265,0.410016674831565,ST
5.96666666666667,0.504832684993744,-4.63142108917236,10.5709810256958,0.175305992364883,-0.0685980021953583,0.297257989645004,-1176.30004882812,6.90000009536743,-858.900024414062,1.93575176109086,0.0436031174332589,0.412651646471139,ST
6.0,1.21662282943726,-4.30304050445557,9.48415470123291,1.19665396213531,-0.975615978240967,0.388722002506256,-1169.10009765625,10.5,-863.700012207031,1.92410813052516,0.117550818998706,0.423998734090438,ST
6.03333333333333,1.54021811485291,-3.76291751861572,9.61335372924805,2.62959003448486,-0.708845973014832,0.663114011287689,-1185.90002441406,4.5,-870.900024414062,1.91709187143896,0.148829509690531,0.36875110713234,ST
6.06666666666667,1.20884692668915,-3.06787538528442,9.54695987701416,4.02441596984863,-0.342989981174469,1.18140995502472,-1173.90002441406,12.3000001907349,-858.900024414062,1.90594864720742,0.119936359755286,0.304179319356352,ST
6.1,1.1538177728653,-2.29447650909424,8.87703990936279,5.16771602630615,0.708845973014832,2.15702605247498,-1176.30004882812,7.50000047683716,-863.700012207031,1.88407683439894,0.12307566986524,0.244349900017774,ST
6.13333333333333,0.399559497833252,-1.22858572006226,9.30949687957764,5.67076778411865,2.60672402381897,3.10977602005005,-1169.10009765625,2.70000004768372,-887.700012207031,1.85628391783435,0.0373634027733875,0.121510761561113,ST
6.16666666666667,-0.269164323806763,-0.78775429725647,9.50987529754639,5.22106981277466,3.30794787406921,3.7805118560791,-1169.10009765625,8.10000038146973,-861.300048828125,1.81625729386104,-0.0344253987029487,0.0733364608545071,ST
6.2,-0.490477234125137,0.129797026515007,9.26164531707764,3.33843588829041,2.99544596672058,3.26221585273743,-1173.90002441406,2.10000014305115,-873.300048828125,1.7762830655626,-0.0580102939240893,-0.0201438120843512,ST
6.23333333333333,-0.321202784776688,0.556871116161346,9.02418327331543,2.18751406669617,2.63721203804016,2.90398192405701,-1157.10009765625,0.300000011920929,-882.900024414062,1.73996805019997,-0.0397784962882285,-0.0656462943991972,ST
6.26666666666667,-0.278734624385834,0.989328503608704,8.95180797576904,1.58537602424622,2.59148001670837,2.62959003448486,-1166.70007324219,7.50000047683716,-878.100036621094,1.70558272748803,-0.0349180633240341,-0.11299845753148,ST
6.3,-0.0346922911703587,1.21243584156036,8.78313159942627,0.830797970294952,3.56709599494934,2.16464805603027,-1164.30004882812,6.90000009536743,-880.500061035156,1.67489896283346,-0.0095654373568874,-0.138660149503086,ST
6.33333333333333,-0.0735715851187706,0.992917358875275,9.78023529052734,-0.0381099991500378,4.06252574920654,1.63110792636871,-1157.10009765625,12.9000005722046,-890.100036621094,1.6516630190276,-0.0142487126589093,-0.101172558464034,ST
6.36666666666667,-0.0813474431633949,0.719565987586975,10.4393892288208,-1.19665396213531,3.58234000205994,0.945127964019775,-1145.10009765625,2.10000014305115,-866.100036621094,1.63812775271624,-0.0139021250094295,-0.0667707904386712,ST
6.4,-0.145348742604256,0.0813474431633949,10.7695646286011,-2.27897787094116,3.53660798072815,-0.25152599811554,-1137.90002441406,3.30000019073486,-878.100036621094,1.64119183455654,-0.0196683115835414,-0.0035794098794177,ST
6.43333333333333,-0.456981241703033,-0.398961365222931,11.2785835266113,-2.53050398826599,3.58234000205994,-0.868907988071442,-1125.90002441406,3.90000009536743,-887.700012207031,1.65275537404211,-0.0466488835114798,0.0398417667439087,ST
6.46666666666667,-0.931906759738922,-0.588572680950165,11.6344785690308,-1.87501192092896,2.97257995605469,-0.87652999162674,-1125.90002441406,8.10000038146973,-885.300048828125,1.66379550306641,-0.0849123106779535,0.0539656280188266,ST
6.5,-0.547300815582275,-0.66932201385498,8.68922328948975,-0.579271972179413,1.05183601379395,-0.342989981174469,-1125.90002441406,3.30000019073486,-894.900024414062,1.67050029341367,-0.0645034181012802,0.0779335425883753,ST
6.53333333333333,-0.989328503608704,-0.918149471282959,7.30033493041992,-1.34909391403198,0.663114011287689,-0.144817993044853,-1121.10009765625,6.90000009536743,-892.500061035156,1.6761107733515,-0.134764238248076,0.127512771870528,ST
6.56666666666667,-1.48937594890594,-1.47202980518341,7.72740888595581,-2.17989206314087,1.2423859834671,-0.213415995240211,-1111.5,5.10000038146973,-880.500061035156,1.68699318606665,-0.189171288169988,0.192182974626596,ST
6.6,-2.06778025627136,-2.35847783088684,7.82490634918213,-2.14178204536438,3.10215401649475,-0.243903994560242,-1111.5,5.10000038146973,-885.300048828125,1.71630124231198,-0.25284718870498,0.296958149003945,ST
6.63333333333333,-2.74906516075134,-3.04454779624939,7.88412237167358,-1.98171997070312,5.22869205474854,0.365855991840363,-1094.70007324219,6.90000009536743,-878.100036621094,1.7473830684887,-0.323190718717472,0.372854657890532,ST
6.66666666666667,-3.42436861991882,-3.69592547416687,10.0942611694336,-1.41006994247437,7.30187606811523,1.27287399768829,-1101.90002441406,9.90000057220459,-890.100036621094,1.75178063174593,-0.321119829701119,0.354209833744457,ST
6.7,-3.46025705337524,-3.68396258354187,11.095552444458,0.579271972179413,5.7698540687561,1.96647596359253,-1082.70007324219,2.70000004768372,-892.500061035156,1.74294990512853,-0.298404366243266,0.319543997231712,ST
6.73333333333333,-3.23655152320862,-3.58227825164795,10.7390584945679,1.42531394958496,3.44514393806458,2.33233189582825,-1070.70007324219,3.90000009536743,-899.700012207031,1.73393084232659,-0.285455006501291,0.318905232989126,ST
6.76666666666667,-2.40991806983948,-3.07146406173706,9.62770938873291,1.44055795669556,0.152439996600151,1.85976791381836,-1077.90002441406,5.70000028610229,-897.300048828125,1.71518997768239,-0.235345289735461,0.305584400393953,ST
6.8,-2.21671795845032,-2.50263023376465,9.00025749206543,1.78354799747467,-2.05031800270081,1.56251001358032,-1080.30004882812,11.7000007629395,-882.900024414062,1.68686911468193,-0.230254530594265,0.267264093188127,ST
6.83333333333333,-2.05222845077515,-1.78426051139832,8.08390235900879,1.82165801525116,-3.3460578918457,1.44817996025085,-1073.10009765625,12.3000001907349,-887.700012207031,1.65518646241975,-0.237827421290512,0.213169891021717,ST
6.86666666666667,-2.12639832496643,-1.21423017978668,7.44987058639526,1.53202199935913,-2.66770005226135,1.57775402069092,-1089.90002441406,7.50000047683716,-887.700012207031,1.62371105694867,-0.270420319465208,0.157949853183681,ST
6.9,-2.53911685943604,-0.909177303314209,8.33093547821045,1.05183601379395,-1.03659200668335,1.99696397781372,-1106.70007324219,8.70000076293945,-904.500061035156,1.58826048581576,-0.292757264483698,0.105772838379643,ST
6.93333333333333,-2.62345504760742,-0.751865744590759,9.45484638214111,1.21189796924591,0.274392008781433,2.19513607025146,-1082.70007324219,7.50000047683716,-899.700012207031,1.55979116256494,-0.270629927438711,0.0762001433961078,ST
6.96666666666667,-2.61328673362732,-0.144152462482452,9.04691219329834,1.37195992469788,0.426831990480423,1.78354799747467,-1085.10009765625,8.10000038146973,-878.100036621094,1.52532407644245,-0.281955995862474,0.012646096196843,ST
7.0,-2.65096974372864,0.407933503389359,9.71025276184082,0.594515979290009,1.03659200668335,1.69970595836639,-1082.70007324219,6.90000009536743,-885.300048828125,1.49146968117772,-0.267969378535664,-0.0438480066568002,ST
7.03333333333333,-2.08452820777893,0.552085936069489,9.58763408660889,-0.0838419944047928,0.297257989645004,1.31098401546478,-1077.90002441406,2.10000014305115,-887.700012207031,1.47301077934066,-0.21414672891709,-0.0578722603866167,ST
7.06666666666667,-1.77708280086517,0.352306216955185,9.74075794219971,-1.37195992469788,-0.198172003030777,0.190549999475479,-1077.90002441406,8.70000076293945,-878.100036621094,1.47229358951073,-0.179985961714405,-0.0338193740333577,ST
7.1,-1.96609592437744,0.0592161528766155,10.0781106948853,-1.57775402069092,0.0990860015153885,0.0304879993200302,-1092.30004882812,8.70000076293945,-887.700012207031,1.47383006500744,-0.192834411451495,-0.003136613145337,ST
7.13333333333333,-1.64608943462372,-0.297277063131332,10.1600561141968,-1.56251001358032,0.289635986089706,0.3125019967556,-1068.30004882812,7.50000047683716,-882.900024414062,1.47356183629539,-0.161086246167172,0.031880306293266,ST
7.16666666666667,-1.70231485366821,-0.405540943145752,10.2366189956665,-1.04421401023865,0.0762199983000755,0.160062000155449,-1099.5,2.70000004768372,-899.700012207031,1.47101043314401,-0.164805964281041,0.0413716735795734,ST
7.2,-1.81835460662842,-0.760239720344543,8.74544811248779,-0.388722002506256,-0.297257989645004,0.0152439996600151,-1087.5,7.50000047683716,-885.300048828125,1.47811929249234,-0.203723035504458,0.0873600584490777,ST
7.23333333333333,-1.93559062480927,-1.44152450561523,8.69879341125488,-1.45580196380615,-0.0914639979600906,-0.571649968624115,-1075.5,12.3000001907349,-894.900024414062,1.49733494981543,-0.215765148598613,0.166947292568937,ST
7.26666666666667,-2.33096313476562,-1.82194352149963,8.30222415924072,-2.09605002403259,0.396344006061554,-1.90549993515015,-1082.70007324219,7.50000047683716,-885.300048828125,1.52564985762235,-0.267590447417325,0.220599100269191,ST
7.3,-2.91714334487915,-2.71556901931763,7.63110780715942,-2.0579400062561,2.99544596672058,-2.08842802047729,-1080.30004882812,16.5,-890.100036621094,1.58836110921484,-0.349339444813349,0.347318175487058,ST
7.33333333333333,-3.05830502510071,-3.40163898468018,6.89838266372681,-1.59299790859222,4.90856790542603,-1.51677799224854,-1077.90002441406,10.5,-880.500061035156,1.6605444199347,-0.384930163668387,0.463355187658894,ST
7.36666666666667,-4.4262580871582,-4.33833074569702,10.1355323791504,-0.495429992675781,5.48021793365479,-0.327746003866196,-1077.90002441406,14.7000007629395,-897.300048828125,1.66460349080644,-0.390333734303677,0.407079412643529,ST
7.4,-4.59373807907104,-4.15171051025391,11.1966381072998,1.2347639799118,3.45276594161987,0.853663980960846,-1061.10009765625,9.90000057220459,-892.500061035156,1.65513045224364,-0.373406165637325,0.353208730612534,ST
7.43333333333333,-3.85503149032593,-3.51887512207031,9.44587421417236,1.98934197425842,-0.480185985565186,2.53812599182129,-1056.30004882812,15.3000001907349,-890.100036621094,1.63531219995482,-0.366024296648886,0.351428929723592,ST
7.46666666666667,-2.67011022567749,-2.563640832901,8.96735954284668,2.65245604515076,-3.25459384918213,3.87959790229797,-1058.70007324219,9.90000057220459,-902.100036621094,1.56505869685906,-0.275197778168966,0.271562480118027,ST
7.5,-2.16228675842285,-1.96609592437744,9.03435134887695,2.53812599182129,-4.39027214050293,3.63569402694702,-1061.10009765625,8.10000038146973,-885.300048828125,1.50299669031514,-0.223564674765622,0.208083796843656,ST
7.53333333333333,-2.33455204963684,-1.62216377258301,8.51217269897461,2.38568592071533,-3.49849796295166,1.76068198680878,-1056.30004882812,9.90000057220459,-890.100036621094,1.47557897064663,-0.257717816427021,0.183054560367511,ST
7.56666666666667,-3.03318309783936,-0.712388277053833,8.393141746521,2.30946588516235,-0.144817993044853,-0.25152599811554,-1065.90002441406,9.90000057220459,-880.500061035156,1.45709570442149,-0.345337454426845,0.0808122722371793,ST
7.6,-3.99499678611755,0.0514402948319912,9.89148998260498,2.85062789916992,1.53964400291443,-0.327746003866196,-1080.30004882812,12.3000001907349,-887.700012207031,1.44036059169882,-0.386526720839118,-0.0099180941369205,ST
7.63333333333333,-3.47281813621521,1.10477006435394,8.26872825622559,2.65245604515076,0.586893975734711,0.37347799539566,-1061.10009765625,10.5,-880.500061035156,1.39863235865604,-0.395401539016921,-0.137734666670908,ST
7.66666666666667,-3.07804369926453,1.7423905134201,7.52762937545776,1.45580196380615,-0.228659987449646,0.411587983369827,-1061.10009765625,2.10000014305115,-878.100036621094,1.36616176474524,-0.378552817139286,-0.230213199763206,ST
7.7,-2.51279854774475,1.11972367763519,8.11979103088379,0.0152439996600151,-0.205793991684914,0.746955990791321,-1068.30004882812,5.70000028610229,-894.900024414062,1.38831741427545,-0.296942066945187,-0.13745185196401,ST
7.73333333333333,-2.16288495063782,-0.256603330373764,10.2402076721191,-2.27897787094116,-0.6250039935112,-1.21189796924591,-1063.5,11.1000003814697,-892.500061035156,1.43788784395391,-0.206973029916246,0.0294147479067785,ST
7.76666666666667,-2.97396683692932,-0.278136491775513,10.968147277832,-1.83690190315247,-0.457319974899292,-2.41617393493652,-1065.90002441406,2.10000014305115,-890.100036621094,1.46130279613981,-0.263769929193242,0.0296920310703414,ST
7.8,-3.20724272727966,-0.476719945669174,10.6050748825073,-0.297257989645004,0.403965979814529,-1.2500079870224,-1065.90002441406,10.5,-890.100036621094,1.48000435914245,-0.294000687193601,0.046107867943253,ST
7.83333333333333,-2.83998274803162,-0.467149674892426,10.975923538208,0.129574000835419,-0.121951997280121,-0.602137982845306,-1073.10009765625,10.5,-880.500061035156,1.48671350556895,-0.252722374011311,0.0425788273433949,ST
7.86666666666667,-1.90747797489166,-0.477318078279495,9.29574012756348,0.350611984729767,-2.34757590293884,-0.663114011287689,-1070.70007324219,11.1000003814697,-890.100036621094,1.49639069980111,-0.197985084197436,0.0508800368322211,ST
7.9,-2.12819266319275,-0.812278151512146,8.24899005889893,0.0381099991500378,-1.47866797447205,-1.15092194080353,-1077.90002441406,12.3000001907349,-887.700012207031,1.51870460779188,-0.248545742919017,0.0985181534190156,ST
7.93333333333333,-2.14494061470032,-1.54919028282166,7.85062646865845,-0.846041977405548,0.518296003341675,-1.15854394435883,-1077.90002441406,14.7000007629395,-880.500061035156,1.55478459269895,-0.262381724020023,0.196853575756339,ST
7.96666666666667,-2.4996395111084,-2.0970892906189,7.77406406402588,-1.05945801734924,1.71494996547699,-1.03659200668335,-1063.5,6.90000009536743,-894.900024414062,1.58712447538851,-0.30341204009766,0.266110213522338,ST
8.0,-2.80529046058655,-2.68207311630249,7.99896574020386,-0.442075997591019,1.89025592803955,0.160062000155449,-1056.30004882812,11.1000003814697,-882.900024414062,1.60831417641637,-0.324221177992369,0.324537140685506,ST
8.03333333333333,-2.98114466667175,-2.99131298065186,9.40400409698486,-0.586893975734711,1.13567793369293,0.891773998737335,-1073.10009765625,11.1000003814697,-892.500061035156,1.59597794730771,-0.295746943580091,0.308729338724469,ST
8.06666666666667,-2.88005828857422,-2.51220059394836,9.10852146148682,0.571649968624115,-0.449698001146317,1.70732796192169,-1051.5,11.1000003814697,-890.100036621094,1.56632997710833,-0.295896727346447,0.26719372297896,ST
8.1,-2.50023770332336,-2.39855337142944,8.86627292633057,0.754577994346619,-0.67835795879364,2.61434602737427,-1065.90002441406,9.30000019073486,-885.300048828125,1.53543184138046,-0.265812309660087,0.261602082099933,ST
8.13333333333333,-2.87527322769165,-2.21193265914917,10.4597263336182,-0.0304879993200302,-0.87652999162674,2.44666194915771,-1061.10009765625,11.7000007629395,-882.900024414062,1.48985578832283,-0.262107799247241,0.20725567348472,ST
8.16666666666667,-2.76342058181763,-1.80998063087463,9.21379470825195,0.320124000310898,-1.21189796924591,1.80641400814056,-1068.30004882812,8.10000038146973,-892.500061035156,1.46336885227076,-0.284739730586972,0.192391850015215,ST
8.2,-2.65156769752502,-1.27524077892303,8.57737064361572,0.442075997591019,-0.937505960464478,1.6844619512558,-1068.30004882812,10.5,-899.700012207031,1.43103670379733,-0.295552274681837,0.145875210166756,ST
8.23333333333333,-3.81375956535339,-0.665134966373444,10.4728851318359,0.716467976570129,-0.0990860015153885,2.18751406669617,-1063.5,9.30000019073486,-878.100036621094,1.3824179994158,-0.348631034639369,0.0608073368845435,ST
8.26666666666667,-3.20544815063477,-0.1214230209589,8.81363677978516,0.342989981174469,-0.670735955238342,2.42379593849182,-1063.5,9.30000019073486,-890.100036621094,1.34059551915636,-0.347669757617709,0.0116549414248844,ST
8.3,-2.5295467376709,0.788352429866791,7.73219442367554,-0.449698001146317,-0.762199997901917,2.01220798492432,-1077.90002441406,6.30000019073486,-885.300048828125,1.279459895304,-0.312972213188953,-0.101887910434609,ST
8.33333333333333,-1.64549136161804,0.870298027992249,7.82909345626831,-1.11281192302704,-1.20427596569061,1.64635193347931,-1077.90002441406,4.5,-875.700012207031,1.25781837782393,-0.203562366648155,-0.109305336873196,ST
8.36666666666667,-1.46186137199402,0.273351341485977,8.29145812988281,-1.82927989959717,-1.48628997802734,0.342989981174469,-1065.90002441406,9.30000019073486,-887.700012207031,1.26555382990104,-0.171820732625527,-0.0298716604864755,ST
8.4,-3.17255020141602,-0.144152462482452,11.0488967895508,-2.76678586006165,-0.175305992364883,-1.6920839548111,-1087.5,8.10000038146973,-887.700012207031,1.28694845031588,-0.27919968403707,0.018703361595859,ST
8.43333333333333,-2.63481974601746,-0.44322395324707,9.5032958984375,-2.01982998847961,0.868907988071442,-1.63872992992401,-1073.10009765625,20.1000003814697,-892.500061035156,1.30804603056691,-0.271554336379419,0.0509350104305113,ST
8.46666666666667,-2.93807816505432,-1.29497957229614,10.7276945114136,-2.14940404891968,1.65397393703461,-1.6920839548111,-1075.5,6.90000009536743,-897.300048828125,1.34277545828789,-0.267986072391766,0.124770591196041,ST
8.5,-3.08522152900696,-1.62874329090118,10.9537925720215,-2.080806016922,0.350611984729767,-1.89025592803955,-1068.30004882812,14.1000003814697,-897.300048828125,1.36542835037403,-0.271811862702994,0.152170206920315,ST
8.53333333333333,-2.69941926002502,-1.75554966926575,9.95489311218262,-2.08842802047729,-0.762199997901917,-1.85214591026306,-1075.5,17.1000003814697,-897.300048828125,1.38545255342966,-0.259076111540447,0.178976663845276,ST
8.56666666666667,-1.80160665512085,-1.60960268974304,6.99288940429688,-1.82927989959717,-1.93598794937134,-1.62348592281342,-1073.10009765625,9.30000019073486,-887.700012207031,1.4059035149573,-0.242056174885889,0.229907064841583,ST
8.6,-1.91525375843048,-2.06299519538879,7.33203649520874,-1.65397393703461,-0.769822001457214,-0.983237981796265,-1075.5,5.10000038146973,-878.100036621094,1.42105027466832,-0.244584214309141,0.277468483957254,ST
8.63333333333333,-2.74547624588013,-2.96918177604675,8.73109340667725,-1.47104597091675,1.40244793891907,-0.87652999162674,-1075.5,15.3000001907349,-885.300048828125,1.44573333144779,-0.291164175673002,0.331033473749109,ST
8.66666666666667,-2.76461672782898,-3.23834609985352,7.53002166748047,-0.685979962348938,2.02745199203491,-0.754577994346619,-1085.10009765625,15.9000005722046,-885.300048828125,1.48292384532063,-0.328011040787094,0.408205403546825,ST
8.7,-2.92910623550415,-3.55177307128906,8.16225910186768,-0.228659987449646,2.08842802047729,-0.236281991004944,-1077.90002441406,23.1000003814697,-894.900024414062,1.4946024715452,-0.321074143565854,0.411440286057144,ST
8.73333333333333,-3.58586716651917,-3.877760887146,10.812032699585,0.792688012123108,0.731711983680725,0.579271972179413,-1053.90002441406,17.1000003814697,-892.500061035156,1.473034161056,-0.304143216142565,0.342827472984364,ST
8.76666666666667,-3.00148153305054,-3.24911260604858,8.66589546203613,2.03507399559021,-1.80641400814056,1.2347639799118,-1053.90002441406,20.7000007629395,-882.900024414062,1.46294373779505,-0.311400080857326,0.354150982918452,ST
8.8,-2.53732252120972,-3.18690586090088,8.56959438323975,2.17989206314087,-1.47104597091675,2.40092992782593,-1070.70007324219,16.5,-897.300048828125,1.43753133928094,-0.269746113965058,0.350899586703826,ST
8.83333333333333,-2.63781046867371,-2.83101058006287,9.1270637512207,2.21800184249878,-0.693601965904236,2.83538389205933,-1061.10009765625,15.3000001907349,-887.700012207031,1.39722254445625,-0.269616125775916,0.295509554410101,ST
8.86666666666667,-3.31730103492737,-2.5235652923584,9.8077507019043,2.67532205581665,0.0076219998300075,3.353679895401,-1068.30004882812,16.5,-897.300048828125,1.35570027864609,-0.317977613444503,0.245319155137874,ST
8.9,-3.23535537719727,-2.07376170158386,9.34598350524902,2.83538389205933,0.426831990480423,3.39178991317749,-1056.30004882812,16.5,-882.900024414062,1.32028583041723,-0.327880677188353,0.211502120293904,ST
8.93333333333333,-3.06249189376831,-1.15501403808594,8.38476848602295,2.9268479347229,-0.0914639979600906,2.79727387428284,-1058.70007324219,8.70000076293945,-873.300048828125,1.27449277039897,-0.347649417983942,0.130048450548357,ST
8.96666666666667,-3.00865912437439,-0.620872378349304,8.69520473480225,2.82013988494873,-0.663114011287689,2.4847719669342,-1053.90002441406,11.7000007629395,-899.700012207031,1.23590793629647,-0.331472536099392,0.0648651425643063,ST
9.0,-3.04933285713196,-0.196789041161537,9.48953819274902,2.82776188850403,-1.72257196903229,2.12653803825378,-1068.30004882812,6.30000019073486,-892.500061035156,1.20510507849685,-0.307908756877602,0.0146057342158463,ST
9.03333333333333,-2.6396050453186,0.537730515003204,8.15567970275879,2.70580983161926,-2.19513607025146,0.952749967575073,-1075.5,8.10000038146973,-892.500061035156,1.17958495772139,-0.308442069290441,-0.0709933922600606,ST
9.06666666666667,-2.34711313247681,0.997104346752167,7.62871551513672,2.29422187805176,-1.50915598869324,0.259148001670837,-1073.10009765625,8.10000038146973,-873.300048828125,1.16783847660236,-0.293441189615739,-0.133982989587411,ST
9.1,-2.7562427520752,0.976169347763062,10.3855562210083,0.830797970294952,-0.594515979290009,0.259148001670837,-1080.30004882812,5.70000028610229,-885.300048828125,1.17866047045358,-0.25725689568627,-0.0952700043255716,ST
9.13333333333333,-2.26157855987549,1.1095552444458,9.91661262512207,0.0228659994900227,-1.91312193870544,-0.388722002506256,-1092.30004882812,8.70000076293945,-887.700012207031,1.18162120079161,-0.2196492935514,-0.111226230965437,ST
9.16666666666667,-2.09649109840393,0.768613696098328,9.91900444030762,-1.63872992992401,-1.62348592281342,-1.15854394435883,-1080.30004882812,6.90000009536743,-892.500061035156,1.20005144867676,-0.205020532984576,-0.0740218391541478,ST
9.2,-1.55576992034912,-0.0257201474159956,10.6983852386475,-2.81251788139343,-1.16616594791412,-2.02745199203491,-1094.70007324219,11.7000007629395,-880.500061035156,1.23356200830353,-0.142359260258188,0.0078049816601348,ST
9.23333333333333,-1.50552582740784,-0.258995920419693,10.9657554626465,-2.89635992050171,-1.74543797969818,-2.82776188850403,-1092.30004882812,11.7000007629395,-882.900024414062,1.26625412290784,-0.133216458496567,0.029318220947332,ST
9.26666666666667,-1.67779099941254,-0.583787560462952,9.58284854888916,-1.39482593536377,-2.9420919418335,-2.10367202758789,-1094.70007324219,13.5000009536743,-890.100036621094,1.29073881834831,-0.167642321573942,0.063834889968755,ST
9.3,-1.57251787185669,-1.25131511688232,9.01580905914307,-0.701223969459534,-3.01831197738647,-1.265251994133,-1094.70007324219,13.5000009536743,-892.500061035156,1.31181206809074,-0.165550791742446,0.139353388516207,ST
9.33333333333333,-1.52347016334534,-1.93858134746552,8.86268424987793,-1.28811800479889,-2.20275783538818,-1.18140995502472,-1106.70007324219,12.9000005722046,-882.900024414062,1.33071411337647,-0.162176368634018,0.217776532307644,ST
9.36666666666667,-1.9188426733017,-2.08871531486511,9.15637302398682,-0.884151995182037,-0.358233988285065,-1.38720393180847,-1104.30004882812,9.30000019073486,-887.700012207031,1.34465536112634,-0.200376394255298,0.226269607662749,ST
9.4,-2.06658387184143,-2.04146194458008,7.08201265335083,-0.365855991840363,0.548784017562866,-0.87652999162674,-1097.10009765625,21.3000011444092,-892.500061035156,1.36765360186859,-0.273841403818212,0.281758568333834,ST
9.43333333333333,-2.50083565711975,-3.11811923980713,9.32923603057861,-0.830797970294952,3.02593398094177,0.137196004390717,-1094.70007324219,13.5000009536743,-894.900024414062,1.3854217060804,-0.254054265053344,0.324369889634409,ST
9.46666666666667,-2.62824010848999,-3.06189393997192,9.53140830993652,-0.724089980125427,2.19513607025146,0.67835795879364,-1092.30004882812,14.7000007629395,-882.900024414062,1.38052231737194,-0.260745531785811,0.312109433539228,ST
9.5,-2.74009299278259,-3.25509405136108,9.29932880401611,0.472563982009888,0.907018005847931,1.27287399768829,-1089.90002441406,10.5,-890.100036621094,1.37806493732167,-0.273476743620825,0.335432343334903,ST
9.53333333333333,-2.49844312667847,-3.10974526405334,9.14740085601807,1.80641400814056,0.853663980960846,1.82165801525116,-1082.70007324219,14.1000003814697,-887.700012207031,1.36418030477053,-0.255485179141867,0.323892084745023,ST
9.56666666666667,-2.28550434112549,-2.74607443809509,8.21011066436768,2.59148001670837,0.586893975734711,2.24086785316467,-1082.70007324219,8.10000038146973,-902.100036621094,1.34852285378848,-0.260307587346085,0.317355234941338,ST
9.6,-2.86331033706665,-2.53492999076843,9.83347034454346,2.78965187072754,0.564027965068817,3.16313004493713,-1080.30004882812,6.90000009536743,-882.900024414062,1.30377435640981,-0.277129470691334,0.245982945687936,ST
9.63333333333333,-3.14742827415466,-1.75016629695892,9.94711780548096,3.26983785629272,0.0,3.97106194496155,-1087.5,11.7000007629395,-885.300048828125,1.24710438209174,-0.303243361309991,0.166336405971933,ST
9.66666666666667,-2.70540070533752,-0.997104346752167,8.34648704528809,3.66618180274963,-0.0076219998300075,4.49697971343994,-1080.30004882812,10.5,-894.900024414062,1.19395061464271,-0.312235923389268,0.110004494453496,ST
9.7,-2.27952289581299,-0.545506417751312,8.97094821929932,2.62196803092957,0.259148001670837,4.30642986297607,-1085.10009765625,10.5,-887.700012207031,1.13606980610576,-0.249270024214443,0.0542637921244344,ST
9.73333333333333,-2.40991806983948,0.14056359231472,9.37828350067139,2.31708788871765,-0.914639949798584,3.3689239025116,-1080.30004882812,7.50000047683716,-887.700012207031,1.08666887656199,-0.249786731321903,-0.0205000321798319,ST
9.76666666666667,-2.51997637748718,1.10477006435394,8.12756633758545,2.37806391716003,-1.50915598869324,2.56099200248718,-1087.5,8.70000076293945,-890.100036621094,1.03556282860811,-0.294834665483895,-0.140458402126971,ST
9.8,-1.98583471775055,1.48100197315216,9.03674411773682,1.39482593536377,-2.20275783538818,2.08842802047729,-1092.30004882812,4.5,-878.100036621094,1.01366617577627,-0.209188514723239,-0.165501069576827,ST
9.83333333333333,-1.74897003173828,1.59524726867676,9.38306903839111,0.746955990791321,-4.40551567077637,0.731711983680725,-1082.70007324219,3.30000019073486,-875.700012207031,1.01462715573491,-0.173949557956031,-0.169700250988643,ST
9.86666666666667,-1.27703523635864,1.16458439826965,9.61275577545166,-1.69970595836639,-5.29728984832764,-1.265251994133,-1106.70007324219,11.7000007629395,-892.500061035156,1.04172423254018,-0.122221281212167,-0.117206710819698,ST
9.9,-1.64250063896179,0.611900269985199,10.8885946273804,-2.66007804870605,-3.97106194496155,-2.23324584960938,-1099.5,2.10000014305115,-899.700012207031,1.07510697949865,-0.142758644508461,-0.050895749816869,ST
9.93333333333333,-1.69334280490875,0.280529052019119,11.6500310897827,-3.16313004493713,-2.08842802047729,-2.40855193138123,-1111.5,16.5,-880.500061035156,1.10263907378235,-0.140733478189359,-0.017957326673366,ST
9.96666666666667,-1.22499680519104,0.292491912841797,10.3012180328369,-2.39330792427063,-2.4847719669342,-2.14940404891968,-1111.5,2.70000004768372,-887.700012207031,1.12387886442215,-0.114078199429994,-0.023763159492739,ST
10.0,-0.706406831741333,-0.0502440109848976,9.49910831451416,-1.83690190315247,-2.53812599182129,-1.6615959405899,-1116.30004882812,8.70000076293945,-885.300048828125,1.14579009725444,-0.0697793984335417,0.0086922275318873,ST
10.0333333333333,-0.358287632465363,-0.539524972438812,7.46063709259033,-1.95123195648193,-1.79117000102997,-1.80641400814056,-1123.5,12.9000005722046,-894.900024414062,1.16791650379142,-0.0445155669334675,0.0757040124075062,ST
10.0666666666667,0.217724040150642,-1.47083353996277,6.58854484558105,-3.95581793785095,1.13567793369293,-2.43141794204712,-1111.5,6.90000009536743,-870.900024414062,1.2008321506125,0.0312422290870385,0.226364073126325,ST
10.1,-1.28720366954803,-2.5738091468811,8.2202787399292,-4.2149658203125,1.80641400814056,-3.20886182785034,-1116.30004882812,13.5000009536743,-875.700012207031,1.24419743153354,-0.149601508134183,0.311727194543605,ST
10.1333333333333,-2.21492338180542,-3.47042560577393,9.76887130737305,-3.17837381362915,2.96495795249939,-2.64483404159546,-1094.70007324219,10.5,-885.300048828125,1.28270469773891,-0.213759457083471,0.348201827149807,ST
10.1666666666667,-2.26935434341431,-4.50162410736084,10.3939304351807,-2.11129403114319,2.78965187072754,-1.83690190315247,-1101.90002441406,17.1000003814697,-892.500061035156,1.32425118919673,-0.200908599705523,0.413378729577316,ST
10.2,-2.16168880462646,-4.75942373275757,11.7164249420166,-0.472563982009888,0.594515979290009,-1.02897000312805,-1111.5,13.5000009536743,-870.900024414062,1.33181854658075,-0.169592764515841,0.38704068327163,DLL
10.2333333333333,-2.00258255004883,-4.13376617431641,10.5099697113037,1.92074394226074,-0.0457319989800453,0.67835795879364,-1101.90002441406,16.5,-882.900024414062,1.32558964524735,-0.175848648775256,0.37118525448414,DLL
10.2666666666667,-1.64608943462372,-3.6432888507843,10.1175880432129,2.9116039276123,0.533540010452271,1.85214591026306,-1113.90002441406,15.3000001907349,-870.900024414062,1.30796630157077,-0.153860814821629,0.340144951527918,DLL
10.3,-1.23995041847229,-2.84775876998901,7.9194130897522,2.60672402381897,1.2500079870224,2.17227005958557,-1104.30004882812,20.7000007629395,-885.300048828125,1.29218822081451,-0.149606325566069,0.340218304469358,DLL
10.3333333333333,-1.63891172409058,-2.55407047271729,9.31368446350098,2.5000159740448,2.37044191360474,1.81403601169586,-1101.90002441406,16.5,-875.700012207031,1.27186211165101,-0.172915841162503,0.26296154937039,DLL
10.3666666666667,-2.10426688194275,-1.97746062278748,8.68862438201904,3.55185198783875,2.43141794204712,0.663114011287689,-1094.70007324219,13.5000009536743,-887.700012207031,1.27063956342028,-0.236275950675048,0.217550966909153,DLL
10.4,-2.47391939163208,-1.49954438209534,8.524733543396,3.74240183830261,2.53050398826599,0.243903994560242,-1065.90002441406,12.3000001907349,-894.900024414062,1.27180767238375,-0.282809769950745,0.167709005369344,DLL
10.4333333333333,-2.70898962020874,-0.519188106060028,8.79808521270752,3.08691000938416,1.89787793159485,0.541162014007568,-1080.30004882812,6.90000009536743,-882.900024414062,1.24533923296057,-0.301566493298463,0.0533380867762368,DLL
10.4666666666667,-2.60431456565857,0.241051614284515,8.55703353881836,2.94971394538879,1.17378795146942,1.50915598869324,-1085.10009765625,6.90000009536743,-885.300048828125,1.21239577546826,-0.297294469372241,-0.03411370859324,DLL
10.5,-1.59464919567108,0.77579140663147,8.89737701416016,2.21037983894348,0.411587983369827,2.27897787094116,-1085.10009765625,8.70000076293945,-899.700012207031,1.17774625042855,-0.177081554458233,-0.0915339170920112,DLL
10.5333333333333,-1.52885341644287,0.862522184848785,9.81672286987305,1.84452390670776,0.0533539988100529,1.84452390670776,-1092.30004882812,10.5,-899.700012207031,1.16014577148767,-0.153722803555178,-0.0913551233369895,DLL
10.5666666666667,-2.01454544067383,0.885251581668854,10.4908294677734,1.62348592281342,0.46494197845459,1.2500079870224,-1087.5,10.5,-894.900024414062,1.14967508539383,-0.189670612730231,-0.0874490526022805,DLL
10.6,-2.03069543838501,0.694444000720978,10.6200284957886,0.0609759986400604,0.571649968624115,1.00610399246216,-1073.10009765625,5.10000038146973,-897.300048828125,1.14209185232238,-0.189420179173571,-0.0657590867266126,DLL
10.6333333333333,-2.39915156364441,0.547898948192596,10.6469449996948,-0.510673999786377,0.739333987236023,1.08232402801514,-1073.10009765625,4.5,-897.300048828125,1.13124744266252,-0.222533260099763,-0.0509706389093582,DLL
10.6666666666667,-2.45836758613586,0.471336662769318,10.11878490448,-0.731711983680725,0.800309956073761,1.76068198680878,-1068.30004882812,-0.900000035762787,-887.700012207031,1.11028204734819,-0.23933305793174,-0.0460359029511498,DLL
10.7,-2.38838481903076,0.0837400183081627,9.38007831573486,-0.289635986089706,0.327746003866196,2.54574799537659,-1063.5,5.10000038146973,-885.300048828125,1.08980877276327,-0.249841159366525,-0.0095685314319915,DLL
10.7333333333333,-2.05402302742004,-0.296080768108368,7.05569458007812,-0.0228659994900227,-0.6250039935112,2.88111591339111,-1070.70007324219,7.50000047683716,-890.100036621094,1.07076238650669,-0.282152735857713,0.0404928750687108,DLL
10.7666666666667,-2.80947756767273,-0.453990519046783,7.31110143661499,-0.937505960464478,-0.0228659994900227,3.00306797027588,-1080.30004882812,9.30000019073486,-878.100036621094,1.04135573310931,-0.366488440671793,0.0616381467174142,DLL
10.8,-3.93039751052856,-0.861325860023499,8.76638317108154,-1.86738991737366,1.84452390670776,3.32319188117981,-1068.30004882812,13.5000009536743,-885.300048828125,1.01388422765528,-0.423445221528252,0.0987272837159674,DLL
10.8333333333333,-4.16008424758911,-1.47083353996277,8.51336860656738,-2.69818782806396,3.02593398094177,4.09301376342773,-1077.90002441406,12.9000005722046,-887.700012207031,0.994992934546557,-0.455173377597965,0.172759048183002,DLL
10.8666666666667,-3.57210993766785,-2.22568988800049,8.53550052642822,-3.01831197738647,2.98020195960999,4.35216188430786,-1073.10009765625,11.7000007629395,-887.700012207031,0.97625483528705,-0.39175204907253,0.257835389251721,DLL
10.9,-3.57510042190552,-2.7801685333252,9.98001575469971,-3.16313004493713,0.907018005847931,3.7728898525238,-1056.30004882812,6.30000019073486,-890.100036621094,0.933347790073274,-0.335622430750981,0.275135305108859,DLL
10.9333333333333,-3.40702247619629,-2.64020299911499,9.50449180603027,-1.91312193870544,-2.75916385650635,3.45276594161987,-1063.5,9.90000057220459,-894.900024414062,0.880783884092667,-0.329539592025144,0.271867042420671,DLL
10.9666666666667,-3.6791775226593,-2.28610253334045,9.55892276763916,-0.670735955238342,-4.16161203384399,4.54271173477173,-1077.90002441406,8.10000038146973,-880.500061035156,0.804644304536976,-0.352943563370401,0.232468181003694,DLL
11.0,-3.84366679191589,-2.01275110244751,8.71135425567627,0.381099998950958,-5.18296003341675,6.82931184768677,-1075.5,7.50000047683716,-897.300048828125,0.713948402222506,-0.399792640743721,0.220635869371169,DLL
11.0333333333333,-4.41309881210327,-1.51031100749969,9.58703517913818,0.160062000155449,-4.44362592697144,9.13877773284912,-1077.90002441406,19.5,-894.900024414062,0.580270665675168,-0.421459909248786,0.148388506586431,DLL
11.0666666666667,-3.19348526000977,-1.19748222827911,8.84832859039307,-1.14329993724823,-4.57319974899292,12.2180652618408,-1089.90002441406,12.3000001907349,-885.300048828125,0.422132753587382,-0.3383168684914,0.128703793892324,DLL
11.1,-3.14443755149841,-0.816465139389038,9.23054218292236,-2.00458598136902,-5.25918006896973,13.6586236953735,-1092.30004882812,16.5,-902.100036621094,0.246314526021419,-0.319993180211625,0.0835998159746219,DLL
11.1333333333333,-2.97336864471436,-0.236864611506462,9.46441650390625,-2.30184388160706,-5.0686297416687,15.8918695449829,-1109.10009765625,18.9000015258789,-885.300048828125,0.037199949273132,-0.296045999908342,0.0205284334753947,DLL
11.1666666666667,-2.96320033073425,0.425877809524536,9.4375,-2.27897787094116,-4.6494197845459,18.9635353088379,-1104.30004882812,18.9000015258789,-885.300048828125,-0.217414662428283,-0.29415816378069,-0.0510176183681054,DLL
11.2,-0.707004964351654,0.153722748160362,7.85182285308838,-3.803377866745,-4.10063600540161,20.472692489624,-1116.30004882812,26.7000007629395,-882.900024414062,-0.448953301669629,-0.0821257586938105,-0.0158974631645475,DLL
11.2333333333333,1.38470101356506,-0.248229339718819,8.19575500488281,-6.6235179901123,-4.36740589141846,17.9726753234863,-1123.5,31.5000019073486,-890.100036621094,-0.648245868684271,0.173369741341587,0.0473348065116614,DLL
11.2666666666667,1.06469452381134,-0.263182908296585,9.56011867523193,-7.29425382614136,-4.06252574920654,15.2592439651489,-1125.90002441406,27.3000011444092,-868.500061035156,-0.813233592967051,0.116829157029378,0.0434085646475169,DLL
11.3,1.69992232322693,-0.931906759738922,10.0093240737915,-6.30339384078979,-1.48628997802734,12.400993347168,-1113.90002441406,30.9000015258789,-885.300048828125,-0.952561903018801,0.167776060641192,0.107506711072948,DLL
11.3333333333333,1.20107114315033,-1.2698575258255,10.8275842666626,-3.90246391296387,1.58537602424622,6.15857601165771,-1121.10009765625,29.1000003814697,-870.900024414062,-1.01743329517092,0.105671262648419,0.124651864974594,DLL
11.3666666666667,0.180041030049324,-1.17056584358215,10.278489112854,-2.33995389938354,1.76068198680878,1.28811800479889,-1113.90002441406,36.9000015258789,-873.300048828125,-1.0300309978548,0.0140956806354158,0.117507893750469,DLL
11.4,-1.77528834342957,-1.49535739421844,10.9657554626465,-1.10518991947174,1.81403601169586,-1.84452390670776,-1111.5,34.5,-861.300048828125,-1.0065760409885,-0.161689279518117,0.138040689842428,DLL
11.4333333333333,-1.8566358089447,-1.48997414112091,8.85789966583252,-1.88263392448425,0.632625997066498,-2.80489587783813,-1104.30004882812,36.3000030517578,-885.300048828125,-0.972416460061396,-0.204071418648788,0.170959675757836,DLL
11.4666666666667,-2.7921314239502,-1.80041038990021,8.94642448425293,-1.41006994247437,0.823175966739655,-2.00458598136902,-1106.70007324219,38.7000007629395,-873.300048828125,-0.945682647122831,-0.297592040966774,0.202179552309477,DLL
11.5,-3.05052924156189,-2.20595121383667,8.96197605133057,-0.922261953353882,1.6692179441452,-0.266770005226135,-1111.5,36.3000030517578,-873.300048828125,-0.929339601319963,-0.321924647661995,0.243326601672761,DLL
11.5333333333333,-2.57799625396729,-2.39436626434326,8.0115270614624,-0.495429992675781,1.36433792114258,-0.0685980021953583,-1111.5,33.9000015258789,-868.500061035156,-0.911342275776739,-0.301317650593468,0.291511694699899,DLL
11.5666666666667,-2.96140575408936,-2.42008638381958,7.61735057830811,-0.137196004390717,1.41769194602966,-0.236281991004944,-1101.90002441406,37.5,-878.100036621094,-0.899401716299359,-0.357052035304737,0.308281376506875,DLL
11.6,-3.12529706954956,-2.78794431686401,7.73877382278442,-0.724089980125427,0.670735955238342,-0.259148001670837,-1097.10009765625,35.1000022888184,-873.300048828125,-0.883535287622929,-0.364044338116256,0.347346780680115,DLL
11.6333333333333,-3.55835247039795,-2.7903368473053,9.89866828918457,-1.15854394435883,-0.937505960464478,0.434453994035721,-1101.90002441406,26.7000007629395,-878.100036621094,-0.919573914402568,-0.331745970029372,0.276401361972343,DLL
11.6666666666667,-3.16836333274841,-2.8262255191803,9.2108039855957,-1.08232402801514,-2.78965187072754,1.21189796924591,-1094.70007324219,35.7000007629395,-870.900024414062,-0.938022500682414,-0.313685384692119,0.298480413033137,DLL
11.7,-2.54868721961975,-2.40931987762451,9.63727951049805,-0.274392008781433,-2.22562384605408,1.6768399477005,-1111.5,35.1000022888184,-868.500061035156,-0.97808652091389,-0.248110043913918,0.244516447191938,DLL
11.7333333333333,-2.10665965080261,-2.37582397460938,10.2126932144165,0.762199997901917,-1.32622802257538,1.65397393703461,-1099.5,36.3000030517578,-868.500061035156,-1.00303170542806,-0.196676626813007,0.226576865087054,DLL
11.7666666666667,-2.19219398498535,-1.98344206809998,10.366415977478,1.15854394435883,-1.18903195858002,0.457319974899292,-1109.10009765625,39.9000015258789,-868.500061035156,-1.01588656095586,-0.202898926419306,0.186798301730292,DLL
11.8,-2.23406410217285,-1.46784281730652,10.1774024963379,1.96647596359253,-1.32622802257538,-0.0457319989800453,-1113.90002441406,39.9000015258789,-851.700012207031,-1.02241849965158,-0.211635136897682,0.139763362842912,DLL
11.8333333333333,-1.80639171600342,-1.29139065742493,9.96027660369873,1.52439999580383,-1.61586391925812,0.350611984729767,-1099.5,44.7000007629395,-861.300048828125,-1.02816874542435,-0.175243650198872,0.126107055352989,DLL
11.8666666666667,-0.763230443000793,-1.05033910274506,9.15517616271973,0.685979962348938,-2.85062789916992,0.487807989120483,-1111.5,43.5,-878.100036621094,-1.0384098694123,-0.0778189440306747,0.112923441135176,DLL
11.9,-0.387596637010574,-0.439036935567856,9.0851936340332,0.335367977619171,-2.69818782806396,0.960371971130371,-1121.10009765625,39.3000030517578,-868.500061035156,-1.05483675457723,-0.0379765147974144,0.0476507843237196,DLL
11.9333333333333,0.96958976984024,-0.684275567531586,8.13952922821045,-0.640248000621796,-2.11129403114319,0.0457319989800453,-1125.90002441406,36.3000030517578,-863.700012207031,-1.05812779127806,0.121761169435729,0.0850232316677586,DLL
11.9666666666667,1.06290006637573,-0.885849714279175,8.1491003036499,-1.31098401546478,-1.15854394435883,-0.792688012123108,-1130.70007324219,39.9000015258789,-878.100036621094,-1.05120349882304,0.131108931661936,0.110411018051218,DLL
12.0,-0.363670915365219,-1.01026344299316,9.7479362487793,-1.6768399477005,0.106707997620106,-0.480185985565186,-1123.5,41.1000022888184,-875.700012207031,-1.04545325780154,-0.0371466286016226,0.106229122002523,DLL
12.0333333333333,-0.681882977485657,-2.23765277862549,11.3019113540649,-2.35519790649414,1.05183601379395,0.0304879993200302,-1113.90002441406,41.1000022888184,-878.100036621094,-1.04052250909112,-0.0609217483500194,0.199573240742634,DLL
12.0666666666667,-0.664536833763123,-2.19039964675903,10.0954570770264,-1.59299790859222,0.884151995182037,-0.548784017562866,-1128.30004882812,44.7000007629395,-866.100036621094,-1.03231847532203,-0.0655402149585934,0.21651482584625,DLL
12.1,-1.57790112495422,-2.33634638786316,10.4286222457886,-0.182927995920181,2.37806391716003,-0.350611984729767,-1121.10009765625,43.5,-870.900024414062,-1.02114167679006,-0.150493309076414,0.220939871286342,DLL
12.1333333333333,-2.13297772407532,-2.3877866268158,10.2073097229004,0.25152599811554,2.65245604515076,-0.152439996600151,-1123.5,43.5,-856.500061035156,-1.01030315345233,-0.205166239824937,0.229628872482376,DLL
12.1666666666667,-2.44281578063965,-2.2651674747467,8.89438629150391,0.106707997620106,2.76678586006165,-0.0152439996600151,-1106.70007324219,44.7000007629395,-863.700012207031,-0.997675568003039,-0.264774347490612,0.24950969054285,DLL
12.2,-2.25798964500427,-2.67788600921631,8.26454162597656,-0.0914639979600906,2.81251788139343,-0.129574000835419,-1094.70007324219,39.3000030517578,-854.100036621094,-0.970508185463263,-0.258885820810492,0.31394220833736,DLL
12.2333333333333,-3.03497743606567,-2.67369914054871,8.40450668334961,0.0457319989800453,1.85214591026306,-0.37347799539566,-1118.70007324219,44.7000007629395,-858.900024414062,-0.961888078259069,-0.334283452626977,0.308480710995792,DLL
12.2666666666667,-3.43752765655518,-2.69044709205627,7.23693180084229,0.708845973014832,1.08994603157043,0.259148001670837,-1109.10009765625,36.9000015258789,-866.100036621094,-0.940227782682925,-0.42078922306528,0.354786213148015,DLL
12.3,-3.37292814254761,-3.02480912208557,7.57727527618408,0.289635986089706,0.846041977405548,1.63872992992401,-1097.10009765625,44.7000007629395,-887.700012207031,-0.943862463132616,-0.394448440258162,0.378426337585978,DLL
12.3333333333333,-3.47640705108643,-3.17015767097473,9.32445049285889,-0.175305992364883,-0.548784017562866,2.01220798492432,-1109.10009765625,36.9000015258789,-873.300048828125,-0.985646570783727,-0.339570025421442,0.326762134705084,DLL
12.3666666666667,-3.05471611022949,-2.94645237922668,9.17790603637695,0.731711983680725,-2.19513607025146,2.18751406669617,-1104.30004882812,43.5,-866.100036621094,-1.0209485513432,-0.304404809392636,0.307859584231921,DLL
12.4,-2.46195650100708,-2.82682371139526,9.89507961273193,0.807931959629059,-2.19513607025146,1.96647596359253,-1092.30004882812,39.9000015258789,-870.900024414062,-1.05512745847987,-0.232095188148219,0.27583840440603,DLL
12.4333333333333,-2.10845398902893,-2.47631192207336,10.1038312911987,0.602137982845306,-2.5152599811554,1.01372599601746,-1109.10009765625,40.5,-873.300048828125,-1.07958863724797,-0.196136825831271,0.238760734144466,DLL
12.4666666666667,-1.78007352352142,-2.01394748687744,9.41656494140625,1.53202199935913,-1.57013201713562,-0.358233988285065,-1104.30004882812,43.5,-878.100036621094,-1.08191916138994,-0.179987919138145,0.208041812103598,DLL
12.5,-1.77349388599396,-1.36735486984253,9.24489784240723,1.76830399036407,-1.08994603157043,-1.15854394435883,-1116.30004882812,36.3000030517578,-858.900024414062,-1.07872684013931,-0.185366078245422,0.144096954854478,DLL
12.5333333333333,-2.02112507820129,-1.01684308052063,10.0075302124023,2.20275783538818,-0.78506600856781,-0.769822001457214,-1106.70007324219,36.9000015258789,-856.500061035156,-1.07490131044183,-0.196788282589784,0.0976699672352093,DLL
12.5666666666667,-1.55277919769287,-0.864316582679749,9.36153602600098,1.27287399768829,-0.952749967575073,0.0533539988100529,-1116.30004882812,41.7000007629395,-866.100036621094,-1.07545026750445,-0.162051897556338,0.0898062369977526,DLL
12.6,-0.878073871135712,-0.668723821640015,9.02597713470459,0.701223969459534,-0.990859985351562,0.411587983369827,-1118.70007324219,37.5,-875.700012207031,-1.08293564138967,-0.0950483068627093,0.0726509465934682,DLL
12.6333333333333,-0.0251220054924488,-0.692051410675049,9.15756893157959,-0.0533539988100529,-1.81403601169586,1.60061991214752,-1121.10009765625,30.9000015258789,-866.100036621094,-1.10275626920917,0.0001790703721186,0.075520122075451,DLL
12.6666666666667,0.132189601659775,-1.07366669178009,8.26633548736572,-1.79879200458527,-1.73781597614288,2.01220798492432,-1123.5,40.5,-868.500061035156,-1.12842247210335,0.0183943702789973,0.132352752486512,DLL
12.7,-0.769810020923615,-1.26686680316925,8.89737701416016,-2.19513607025146,0.213415995240211,3.20123982429504,-1109.10009765625,40.5,-868.500061035156,-1.17044359779928,-0.0866135033725576,0.144790422054831,DLL
12.7333333333333,-1.67061328887939,-1.99361050128937,10.9466142654419,-1.94360995292664,2.14178204536438,4.6494197845459,-1113.90002441406,42.9000015258789,-875.700012207031,-1.2169872887434,-0.154156899877326,0.182390654223134,DLL
12.7666666666667,-2.19219398498535,-2.05462121963501,10.8915853500366,-1.16616594791412,2.11129403114319,3.3460578918457,-1106.70007324219,45.3000030517578,-868.500061035156,-1.25246156034211,-0.199962969125874,0.187461461870472,DLL
12.8,-2.31122446060181,-1.73282015323639,9.82808685302734,0.541162014007568,2.23324584960938,2.90398192405701,-1104.30004882812,43.5,-858.900024414062,-1.28197381570503,-0.232280888248464,0.172559393206397,DLL
12.8333333333333,-2.48707842826843,-1.73401641845703,9.54995059967041,0.914639949798584,2.22562384605408,2.00458598136902,-1104.30004882812,42.9000015258789,-856.500061035156,-1.29585455401103,-0.255275319095563,0.177301325303969,DLL
12.8666666666667,-2.1730535030365,-2.00318074226379,8.3339262008667,0.198172003030777,1.01372599601746,0.937505960464478,-1111.5,46.5,-858.900024414062,-1.2884474602047,-0.250398930565891,0.235223369605174,DLL
12.9,-2.45896577835083,-2.2412416934967,7.71305370330811,-0.990859985351562,0.160062000155449,-0.0762199983000755,-1099.5,44.1000022888184,-878.100036621094,-1.27707873889095,-0.297298608619836,0.284566057231344,DLL
12.9333333333333,-3.18391513824463,-2.51698565483093,8.92489147186279,-0.228659987449646,0.449698001146317,0.144817993044853,-1094.70007324219,44.7000007629395,-870.900024414062,-1.28110317954899,-0.331561303095141,0.27526919814211,DLL
12.9666666666667,-3.30952501296997,-2.40214228630066,8.27351379394531,0.3125019967556,0.320124000310898,0.129574000835419,-1097.10009765625,34.5,-858.900024414062,-1.27790930198784,-0.367356468527197,0.282000847026985,DLL
13.0,-2.9063766002655,-2.76042985916138,8.11081886291504,0.0990860015153885,-0.0457319989800453,0.0609759986400604,-1097.10009765625,41.1000022888184,-866.100036621094,-1.2627435293309,-0.327009842085796,0.3278185509922,DLL
13.0333333333333,-3.15759682655334,-3.11692309379578,10.0499982833862,-0.426831990480423,-1.98934197425842,-0.365855991840363,-1097.10009765625,38.1000022888184,-870.900024414062,-1.27492747846917,-0.288045187190965,0.301364456662928,DLL
13.0666666666667,-2.90697479248047,-2.86929178237915,9.29753398895264,0.594515979290009,-3.20886182785034,-0.175305992364883,-1099.5,42.3000030517578,-856.500061035156,-1.28295643169435,-0.284873846361234,0.297899998807529,DLL
13.1,-2.10546326637268,-2.61029601097107,8.55224800109863,1.16616594791412,-2.69056582450867,0.114329993724823,-1104.30004882812,46.5,-880.500061035156,-1.29081827412825,-0.226835420717063,0.293841986811657,DLL
13.1333333333333,-2.35728144645691,-2.02949905395508,9.58882999420166,1.58537602424622,-1.92836594581604,0.403965979814529,-1109.10009765625,44.7000007629395,-861.300048828125,-1.3162978515893,-0.232874943943111,0.205490150078544,DLL
13.1666666666667,-2.35130000114441,-2.00617146492004,10.04700756073,1.6920839548111,-1.99696397781372,0.617381989955902,-1106.70007324219,40.5,-866.100036621094,-1.32577859774173,-0.222384878596822,0.193743731977264,DLL
13.2,-2.04445266723633,-1.48279643058777,9.59959697723389,1.6920839548111,-1.55488801002502,0.556405961513519,-1104.30004882812,39.3000030517578,-870.900024414062,-1.33996174337655,-0.204917493071785,0.150028887103574,DLL
13.2333333333333,-1.3721399307251,-1.33744764328003,8.96676158905029,1.85214591026306,-1.72257196903229,0.769822001457214,-1118.70007324219,42.3000030517578,-868.500061035156,-1.3491085299869,-0.14744924774597,0.144570305240599,DLL
13.2666666666667,-1.82613050937653,-0.978561878204346,9.66060733795166,1.46342396736145,-1.29574000835419,0.967993974685669,-1111.5,34.5,-868.500061035156,-1.36624033954297,-0.18379848815734,0.0980564145724723,DLL
13.3,-0.800315320491791,-0.810483753681183,8.59710884094238,0.823175966739655,-0.724089980125427,1.18140995502472,-1109.10009765625,44.1000022888184,-854.100036621094,-1.38027172314368,-0.0913789668749634,0.092361882561683,DLL
13.3333333333333,-0.494664251804352,-0.631639003753662,9.09057712554932,-0.0762199983000755,-1.31860601902008,1.07470202445984,-1125.90002441406,39.3000030517578,-861.300048828125,-1.3953966309828,-0.0520783748996997,0.0694059057380709,DLL
13.3666666666667,-0.137572884559631,-0.866709172725677,8.97274303436279,-0.541162014007568,-1.65397393703461,1.07470202445984,-1109.10009765625,42.3000030517578,-870.900024414062,-1.40870461101417,-0.0125820447882319,0.0972028519393803,DLL
13.4,0.372044920921326,-1.314120054245,8.54806137084961,-2.0655620098114,-1.71494996547699,0.335367977619171,-1109.10009765625,42.3000030517578,-856.500061035156,-1.41552064934029,0.0458386979590247,0.156171603748029,DLL
13.4333333333333,-0.592759668827057,-1.53423666954041,10.2695169448853,-2.33995389938354,-0.541162014007568,0.411587983369827,-1125.90002441406,38.7000007629395,-846.900024414062,-1.4222658371236,-0.0561667501143937,0.152338120192399,DLL
13.4666666666667,-0.182433605194092,-1.85304689407349,9.86577033996582,-2.20275783538818,-0.495429992675781,0.663114011287689,-1128.30004882812,36.9000015258789,-875.700012207031,-1.43004067625491,-0.0175534057129661,0.189472015222684,DLL
13.5,-0.846970438957214,-2.1610906124115,10.194748878479,-1.90549993515015,0.823175966739655,0.495429992675781,-1116.30004882812,40.5,-856.500061035156,-1.43410724492678,-0.0826601560958408,0.212161441629428,DLL
13.5333333333333,-1.32608294487,-2.36804795265198,10.1301488876343,-0.800309956073761,1.69970595836639,-0.0609759986400604,-1125.90002441406,41.7000007629395,-854.100036621094,-1.42790920168333,-0.129639368540221,0.231133666972642,DLL
13.5666666666667,-2.03847122192383,-2.57919239997864,10.0206890106201,0.434453994035721,2.01220798492432,-0.396344006061554,-1111.5,42.3000030517578,-844.500061035156,-1.41305185869117,-0.19773150114665,0.251466100040861,DLL
13.6,-2.03308796882629,-2.75923347473145,9.17969989776611,0.670735955238342,1.49391198158264,-1.02897000312805,-1118.70007324219,38.7000007629395,-861.300048828125,-1.38749067665207,-0.21098236047827,0.291333688832025,DLL
13.6333333333333,-2.70779323577881,-2.82861804962158,9.13842868804932,0.541162014007568,1.36433792114258,-1.12043392658234,-1113.90002441406,41.7000007629395,-861.300048828125,-1.36685276125731,-0.277523574335564,0.299962410984825,DLL
13.6666666666667,-2.95243382453918,-2.91534876823425,8.18558692932129,0.609759986400604,0.823175966739655,-0.792688012123108,-1111.5,44.1000022888184,-861.300048828125,-1.34105060703054,-0.328414763402008,0.341678422787312,DLL
13.7,-2.61089396476746,-3.01643490791321,7.20343589782715,0.564027965068817,0.594515979290009,0.0457319989800453,-1121.10009765625,39.3000030517578,-866.100036621094,-1.31969232667749,-0.323630784823416,0.39567189803262,DLL
13.7333333333333,-2.85732889175415,-3.02839779853821,8.29444885253906,0.152439996600151,0.160062000155449,0.411587983369827,-1113.90002441406,45.3000030517578,-866.100036621094,-1.3371856064728,-0.313470826251575,0.349634645864296,DLL
13.7666666666667,-2.69224143028259,-2.60012745857239,8.16345500946045,1.09756803512573,-1.41769194602966,0.983237981796265,-1125.90002441406,42.3000030517578,-858.900024414062,-1.36179098410734,-0.302628798579173,0.305702988650012,DLL
13.8,-2.49425625801086,-2.50083565711975,8.44398403167725,0.830797970294952,-1.57775402069092,1.55488801002502,-1109.10009765625,45.3000030517578,-866.100036621094,-1.38637592245245,-0.274132039595399,0.28554187329074,DLL
13.8333333333333,-2.72214865684509,-2.30045795440674,9.85081672668457,1.01372599601746,-1.49391198158264,2.08842802047729,-1113.90002441406,43.5,-868.500061035156,-1.42539886809142,-0.261154047077428,0.226560942166134,DLL
13.8666666666667,-2.30643939971924,-1.78725123405457,9.75511360168457,1.2500079870224,-1.89787793159485,1.60824191570282,-1125.90002441406,38.1000022888184,-868.500061035156,-1.45539435503052,-0.225752115129363,0.178264795500495,DLL
13.9,-2.90159153938293,-1.37513065338135,11.3928289413452,1.77592599391937,-1.70732796192169,1.99696397781372,-1109.10009765625,41.1000022888184,-875.700012207031,-1.48953106377096,-0.245099708438703,0.116086760191562,DLL
13.9333333333333,-1.68975389003754,-1.02402079105377,8.45714378356934,1.27287399768829,-2.83538389205933,1.6768399477005,-1123.5,41.1000022888184,-868.500061035156,-1.50884909932879,-0.191259119872038,0.117596553424382,DLL
13.9666666666667,-1.63592100143433,-1.03717994689941,9.88371467590332,0.495429992675781,-1.53964400291443,1.97409796714783,-1118.70007324219,35.7000007629395,-856.500061035156,-1.53458728692557,-0.16084185693246,0.103093849517158,DLL
14.0,-0.674107134342194,-0.941477060317993,9.36871337890625,0.388722002506256,-1.60061991214752,2.35519790649414,-1116.30004882812,41.7000007629395,-846.900024414062,-1.56339193327713,-0.0691282729605971,0.09917454019158,DLL
14.0333333333333,0.0077758585102856,-0.738706588745117,8.97274303436279,0.182927995920181,-1.74543797969818,1.83690190315247,-1123.5,36.3000030517578,-851.700012207031,-1.58740774930485,0.0036196627385504,0.0818395143233616,DLL
14.0666666666667,0.628648281097412,-0.83261501789093,8.24181175231934,-0.503051996231079,-1.27287399768829,0.503051996231079,-1130.70007324219,42.9000015258789,-868.500061035156,-1.59522839608552,0.0778468590542998,0.101640214428016,DLL
14.1,0.281725347042084,-1.28122222423553,9.04751014709473,-1.69970595836639,-0.868907988071442,-0.685979962348938,-1123.5,43.5,-856.500061035156,-1.59031903282886,0.0325084393519314,0.143595981631837,DLL
14.1333333333333,0.0957028716802597,-1.90448725223541,8.75980377197266,-2.44666194915771,-1.05945801734924,-0.746955990791321,-1125.90002441406,48.3000030517578,-856.500061035156,-1.58565761024998,0.012769528693321,0.218314630837767,DLL
14.1666666666667,-0.891831159591675,-2.38479614257812,10.7887048721313,-2.30184388160706,0.259148001670837,0.396344006061554,-1125.90002441406,43.5,-851.700012207031,-1.59110742968663,-0.0811029650324309,0.221517164159326,DLL
14.2,-0.849363029003143,-2.56005191802979,10.9256792068481,-0.87652999162674,0.967993974685669,0.495429992675781,-1125.90002441406,45.3000030517578,-856.500061035156,-1.59432324137057,-0.0773895726283598,0.231655426833418,DLL
14.2333333333333,-0.107665732502937,-2.54689288139343,9.56011867523193,0.564027965068817,1.77592599391937,-1.37958192825317,-1106.70007324219,37.5,-870.900024414062,-1.57236422538094,-0.0132818171724589,0.259409308517824,DLL
14.2666666666667,0.122021168470383,-3.01583695411682,9.16833591461182,0.617381989955902,2.58385801315308,-4.61131000518799,-1123.5,39.3000030517578,-851.700012207031,-1.50722563848729,0.0108571674614496,0.316607656073626,DLL
14.3,0.965402781963348,-4.24860954284668,10.1738138198853,1.09756803512573,2.60672402381897,-12.2333097457886,-1133.10009765625,42.9000015258789,-861.300048828125,-1.35745821906933,0.0912653360032065,0.391696823406442,DLL
14.3333333333333,-0.937888205051422,-3.92202353477478,10.2796850204468,2.9268479347229,1.56251001358032,-19.5732955932617,-1135.5,41.1000022888184,-858.900024414062,-1.13834298809493,-0.0754527814814674,0.36184513948745,DLL
14.3666666666667,-1.47741317749023,-3.94834184646606,9.31069374084473,4.87807989120483,1.37958192825317,-21.5855026245117,-1137.90002441406,41.1000022888184,-858.900024414062,-0.893090900311036,-0.132704186958,0.397289098574772,DLL
14.4,-2.04983592033386,-3.57988572120667,7.57787322998047,5.70887804031372,2.46190595626831,-22.1342868804932,-1140.30004882812,35.1000022888184,-866.100036621094,-0.633282431499534,-0.227301083918588,0.43983800210989,DLL
14.4333333333333,-2.51399493217468,-2.95243382453918,7.96606826782227,5.37350988388062,3.58996200561523,-20.3659839630127,-1152.30004882812,31.5000019073486,-878.100036621094,-0.412292159523717,-0.281181480666616,0.355820285416309,DLL
14.4666666666667,-2.17006278038025,-2.912358045578,8.53370571136475,4.96192169189453,3.08691000938416,-17.1876087188721,-1147.5,26.1000003814697,-878.100036621094,-0.212619534644569,-0.231646602784654,0.32733954708071,DLL
14.5,-2.10008001327515,-2.35070180892944,8.56361293792725,4.67990779876709,2.13416004180908,-13.9101495742798,-1135.5,24.3000011444092,-870.900024414062,-0.0423582220061564,-0.229444565908808,0.265437906235269,DLL
14.5333333333333,-2.31122446060181,-1.71487593650818,9.26164531707764,5.09149599075317,2.77440786361694,-9.91622161865234,-1149.90002441406,27.3000011444092,-882.900024414062,0.0778509023530446,-0.242311842868147,0.178634540570143,DLL
14.5666666666667,-1.92602038383484,-1.58926582336426,9.40101337432861,4.60368776321411,2.17227005958557,-7.43144989013672,-1137.90002441406,18.3000011444092,-873.300048828125,0.171799975719228,-0.200988017219482,0.162175768896311,DLL
14.6,-1.59704172611237,-1.50851655006409,10.4447727203369,3.97868394851685,1.79879200458527,-5.4192419052124,-1140.30004882812,15.9000005722046,-890.100036621094,0.243028522091031,-0.152012649623149,0.138000018798811,DLL
14.6333333333333,-1.99420869350433,-0.827829897403717,11.1936473846436,3.33843588829041,1.98934197425842,-4.05490398406982,-1130.70007324219,12.3000001907349,-887.700012207031,0.28604666664422,-0.1788002908411,0.0693386160763392,DLL
14.6666666666667,-1.32428848743439,-0.549693405628204,10.2150859832764,3.39941191673279,2.16464805603027,-3.39941191673279,-1137.90002441406,10.5,-880.500061035156,0.328280545574714,-0.132239072777249,0.0486496795189479,DLL
14.7,-1.07725548744202,0.120226740837097,8.55523872375488,2.37044191360474,2.90398192405701,-3.62807202339172,-1128.30004882812,13.5000009536743,-870.900024414062,0.368411521807612,-0.130424255162496,-0.017359263584056,DLL
14.7333333333333,-1.27105379104614,0.321800917387009,8.75382232666016,1.47104597091675,3.26983785629272,-3.31556987762451,-1116.30004882812,11.1000003814697,-887.700012207031,0.404379459284425,-0.150014866989285,-0.0384628924302711,DLL
14.7666666666667,-1.05033910274506,0.706406831741333,8.26872825622559,0.792688012123108,2.14178204536438,-2.71343183517456,-1111.5,8.70000076293945,-873.300048828125,0.427907243127967,-0.130032481870051,-0.0860161998809831,DLL
14.8,-1.08024621009827,0.445616513490677,8.41467571258545,-0.137196004390717,1.04421401023865,-1.27287399768829,-1118.70007324219,9.30000019073486,-894.900024414062,0.445881711696655,-0.129438150313455,-0.0524031272228829,DLL
14.8333333333333,-1.28062415122986,-0.061608724296093,8.90634918212891,-1.65397393703461,1.31098401546478,-0.87652999162674,-1101.90002441406,18.9000015258789,-880.500061035156,0.461715270866258,-0.14507400010157,0.0100089921949811,DLL
14.8666666666667,-1.5802937746048,-0.133385881781578,10.2934427261353,-2.71343183517456,2.25611186027527,-0.792688012123108,-1097.10009765625,8.10000038146973,-878.100036621094,0.46796054340903,-0.156234989852811,0.0179183894174371,DLL
14.9,-1.72324991226196,-0.928317904472351,11.2038164138794,-2.59148001670837,3.19361782073975,-0.731711983680725,-1104.30004882812,14.1000003814697,-887.700012207031,0.485238872242459,-0.157542786994568,0.0874436817143075,DLL
14.9333333333333,-2.18621253967285,-1.42118775844574,11.2594432830811,-2.0655620098114,2.9268479347229,-1.02897000312805,-1089.90002441406,4.5,-899.700012207031,0.504798234124205,-0.195137278868795,0.129635898894633,DLL
14.9666666666667,-2.17006278038025,-1.63651919364929,10.4429779052734,-1.05945801734924,3.07166600227356,-0.884151995182037,-1092.30004882812,13.5000009536743,-892.500061035156,0.523081547078402,-0.207530862440434,0.157781232961991,DLL
15.0,-2.07555603981018,-1.69633340835571,8.90275955200195,-0.243903994560242,2.69056582450867,-0.640248000621796,-1092.30004882812,16.5,-875.700012207031,0.542956059085944,-0.229532925318615,0.18916656435312,DLL
15.0333333333333,-2.10845398902893,-2.10546326637268,8.49961185455322,-0.106707997620106,1.72257196903229,-0.228659987449646,-1077.90002441406,10.5,-887.700012207031,0.562207357964943,-0.239108030198901,0.243263720363319,DLL
15.0666666666667,-2.1772403717041,-2.1772403717041,7.70049238204956,0.175305992364883,0.37347799539566,-0.259148001670837,-1070.70007324219,12.3000001907349,-880.500061035156,0.574652999077031,-0.266139629147278,0.275398271356878,DLL
15.1,-2.46016192436218,-2.69343781471252,7.71125936508179,0.754577994346619,0.807931959629059,0.3125019967556,-1089.90002441406,11.7000007629395,-882.900024414062,0.593253995819515,-0.294055266840946,0.334695919248648,DLL
15.1333333333333,-2.09589290618896,-2.51459312438965,7.16575288772583,0.87652999162674,0.617381989955902,0.647870004177094,-1070.70007324219,5.10000038146973,-902.100036621094,0.591647388796455,-0.270678727863773,0.335765483364213,ST
15.1666666666667,-3.6612331867218,-3.03079032897949,11.083589553833,0.525918006896973,0.37347799539566,1.76068198680878,-1080.30004882812,14.7000007629395,-890.100036621094,0.555713230108772,-0.309883212513308,0.265135168772432,ST
15.2,-2.69882106781006,-2.76282238960266,10.011118888855,1.44817996025085,-1.87501192092896,1.78354799747467,-1068.30004882812,9.30000019073486,-890.100036621094,0.535551048954796,-0.25192482885532,0.265748168413919,ST
15.2333333333333,-2.52595782279968,-2.71018576622009,9.58524131774902,1.91312193870544,-2.21800184249878,1.81403601169586,-1070.70007324219,11.7000007629395,-882.900024414062,0.516117061357684,-0.245471901138325,0.271184958722862,ST
15.2666666666667,-2.47332119941711,-2.38359975814819,9.51585674285889,1.99696397781372,-1.82927989959717,1.31098401546478,-1099.5,11.1000003814697,-882.900024414062,0.49523007530825,-0.24442789983915,0.241214585554478,ST
15.3,-3.02062201499939,-1.49176859855652,9.76468372344971,2.64483404159546,-1.02897000312805,1.45580196380615,-1089.90002441406,11.1000003814697,-892.500061035156,0.459745630184773,-0.295356198418259,0.146146219429358,ST
15.3333333333333,-2.77538347244263,-0.871494293212891,8.20054054260254,3.17075204849243,-0.365855991840363,2.17989206314087,-1082.70007324219,13.5000009536743,-887.700012207031,0.432747634532566,-0.32437589153261,0.0990624054723699,ST
15.3666666666667,-2.70659685134888,-0.650779545307159,8.18917560577393,2.00458598136902,0.67835795879364,3.03355598449707,-1070.70007324219,5.10000038146973,-892.500061035156,0.399626412567309,-0.319848290164425,0.0740941050349252,ST
15.4,-2.8902268409729,-0.363072782754898,9.01162242889404,1.2500079870224,0.83841997385025,3.01068997383118,-1082.70007324219,4.5,-892.500061035156,0.359772349483998,-0.311781069482474,0.0364251943738873,ST
15.4333333333333,-2.67788600921631,0.256005197763443,8.72690582275391,1.20427596569061,0.274392008781433,3.07166600227356,-1085.10009765625,10.5,-880.500061035156,0.309137561339579,-0.297921312735134,-0.0330555350307626,ST
15.4666666666667,-2.20415687561035,0.665733098983765,9.54576396942139,1.35671591758728,-1.35671591758728,3.33081388473511,-1077.90002441406,5.70000028610229,-873.300048828125,0.266172630730273,-0.223635205575961,-0.0732656865762016,ST
15.5,-1.14843451976776,1.16099548339844,9.72281360626221,1.51677799224854,-3.94057393074036,1.92074394226074,-1097.10009765625,6.90000009536743,-878.100036621094,0.242779670418369,-0.109538324248253,-0.121762164269637,ST
15.5333333333333,-0.587974548339844,1.0276095867157,9.1151008605957,0.0381099991500378,-6.19668579101562,0.221037998795509,-1101.90002441406,5.70000028610229,-878.100036621094,0.249135693063517,-0.0532400616239989,-0.112288445794772,ST
15.5666666666667,-0.742893576622009,1.01265609264374,11.1810865402222,-1.02134799957275,-4.97716569900513,-1.46342396736145,-1101.90002441406,4.5,-880.500061035156,0.271807209112129,-0.0576460367887447,-0.0883555514084662,ST
15.6,-0.178246602416039,0.870298027992249,9.62890529632568,-1.75305998325348,-3.76526784896851,-1.79117000102997,-1109.10009765625,6.90000009536743,-875.700012207031,0.295795316452224,-0.0121745204669098,-0.0870341709052528,ST
15.6333333333333,-0.574217259883881,0.547300815582275,9.76887130737305,-1.93598794937134,-0.716467976570129,-1.71494996547699,-1109.10009765625,8.10000038146973,-892.500061035156,0.316042686311806,-0.0575146451172847,-0.0524232684246604,ST
15.6666666666667,-1.33565330505371,-0.156713455915451,10.1480932235718,-2.22562384605408,2.17227005958557,-1.32622802257538,-1116.30004882812,1.5,-885.300048828125,0.335188655648012,-0.134569665780788,0.0196226441018004,ST
15.7,-1.11972367763519,-1.02222633361816,9.08220291137695,-2.9420919418335,2.80489587783813,-1.47104597091675,-1111.5,12.3000001907349,-887.700012207031,0.363630599232286,-0.126472460599688,0.117577476362419,ST
15.7333333333333,-1.49296486377716,-1.77528834342957,8.83816051483154,-3.53660798072815,3.00306797027588,-2.080806016922,-1111.5,17.7000007629395,-887.700012207031,0.39965045790413,-0.168507290146936,0.205152633015501,ST
15.7666666666667,-1.87099123001099,-2.539715051651,8.7340841293335,-2.81251788139343,3.30032587051392,-2.25611186027527,-1092.30004882812,15.3000001907349,-882.900024414062,0.443480236228047,-0.207258578679387,0.288992245276925,ST
15.8,-2.61089396476746,-2.91176009178162,8.98590183258057,-1.88263392448425,3.39941191673279,-1.63110792636871,-1092.30004882812,18.3000011444092,-885.300048828125,0.475028499230063,-0.274408792626415,0.31791767035345,ST
15.8333333333333,-2.68147492408752,-3.05890321731567,8.20113849639893,-0.182927995920181,3.08691000938416,-0.129574000835419,-1094.70007324219,11.7000007629395,-899.700012207031,0.498850535985486,-0.302228588072023,0.357961878059281,ST
15.8666666666667,-2.74368190765381,-3.05890321731567,9.39383506774902,0.457319974899292,1.85214591026306,1.28049600124359,-1077.90002441406,9.90000057220459,-880.500061035156,0.480705943102334,-0.274666835866352,0.313700060627696,ST
15.9,-2.53911685943604,-2.78196287155151,9.53619384765625,1.28811800479889,-0.602137982845306,1.6768399477005,-1075.5,21.3000011444092,-885.300048828125,0.456067530407131,-0.250059130602469,0.280819250271062,ST
15.9333333333333,-2.84058094024658,-2.5917534828186,9.51166915893555,2.66007804870605,-1.34147191047668,2.21037983894348,-1087.5,13.5000009536743,-880.500061035156,0.431439751981585,-0.279262561432109,0.260143768831886,ST
15.9666666666667,-2.08273386955261,-2.4595639705658,8.65153980255127,2.00458598136902,-1.53964400291443,1.84452390670776,-1085.10009765625,4.5,-892.500061035156,0.41537705991065,-0.22584787585612,0.272600807005755,ST
16.0,-2.66592311859131,-2.07077097892761,9.92199516296387,1.39482593536377,-1.80641400814056,1.73019397258759,-1092.30004882812,18.3000011444092,-875.700012207031,0.379496442864425,-0.254706693928788,0.202403541154567,ST
16.0333333333333,-2.85254383087158,-1.57012534141541,9.43331241607666,2.56861400604248,-2.17227005958557,2.46952795982361,-1089.90002441406,8.10000038146973,-887.700012207031,0.345208340175469,-0.286817873951261,0.159026797771703,ST
16.0666666666667,-2.73411154747009,-1.28959619998932,9.61275577545166,3.05642199516296,-1.57013201713562,3.56709599494934,-1082.70007324219,16.5,-899.700012207031,0.304210818354877,-0.272846312626681,0.126206008879979,ST
16.1,-2.07854676246643,-0.427074074745178,8.79210376739502,3.353679895401,-1.39482593536377,3.92532992362976,-1099.5,11.7000007629395,-885.300048828125,0.247317370866992,-0.229755416439294,0.0410824985296634,ST
16.1333333333333,-2.36206650733948,0.193798318505287,9.87234973907471,3.07166600227356,0.0304879993200302,4.06252574920654,-1089.90002441406,3.90000009536743,-899.700012207031,0.19439988471746,-0.234671556065877,-0.0266615023157882,ST
16.1666666666667,-2.10546326637268,1.50313329696655,9.12407302856445,2.69818782806396,1.29574000835419,3.7881338596344,-1099.5,5.10000038146973,-894.900024414062,0.124593664204434,-0.2249971614885,-0.169516240163134,ST
16.2,-1.29737210273743,1.96071267127991,8.69400787353516,1.76068198680878,1.08994603157043,3.54422998428345,-1101.90002441406,9.30000019073486,-890.100036621094,0.0753403643120758,-0.145052237191454,-0.225811991345497,ST
16.2333333333333,-0.45937380194664,1.5964435338974,9.00803279876709,-0.365855991840363,-0.952749967575073,1.41006994247437,-1085.10009765625,6.30000019073486,-882.900024414062,0.0660287636171811,-0.0481376595985489,-0.174884690110087,ST
16.2666666666667,-0.455784946680069,1.72085738182068,9.18508338928223,-1.65397393703461,-1.59299790859222,-1.14329993724823,-1092.30004882812,6.30000019073486,-885.300048828125,0.0810364264782223,-0.0463630901996578,-0.18220246756808,ST
16.3,-0.690855145454407,1.37513065338135,9.26224422454834,-2.23324584960938,-0.92988395690918,-2.74391984939575,-1087.5,12.9000005722046,-882.900024414062,0.118106503652686,-0.0727212223960238,-0.143133267193071,ST
16.3333333333333,-1.41759884357452,0.258995920419693,10.3359107971191,-3.23172783851624,1.35671591758728,-4.12350177764893,-1097.10009765625,6.90000009536743,-880.500061035156,0.172995938806065,-0.13874366011013,-0.0184585129109725,ST
16.3666666666667,-2.07555603981018,-0.0699827298521996,9.85261058807373,-2.9420919418335,2.82776188850403,-4.44362592697144,-1089.90002441406,11.7000007629395,-882.900024414062,0.224926014213028,-0.212438365410108,0.0139117016267023,ST
16.4,-2.2651674747467,-0.968393445014954,9.29514217376709,-1.96647596359253,3.74240183830261,-3.65093803405762,-1094.70007324219,6.90000009536743,-875.700012207031,0.285674660911435,-0.243590364788075,0.108951566216196,ST
16.4333333333333,-2.67668986320496,-1.74956822395325,9.68991661071777,-2.19513607025146,3.16313004493713,-3.42989993095398,-1065.90002441406,16.5,-882.900024414062,0.344009461013269,-0.269755079302456,0.184348494274973,ST
16.4666666666667,-3.12170815467834,-2.07735061645508,9.87234973907471,-1.85214591026306,2.69056582450867,-2.94971394538879,-1061.10009765625,12.3000001907349,-880.500061035156,0.383584998453008,-0.303583765674562,0.21249948184105,ST
16.5,-3.06847333908081,-2.71736359596252,8.63000679016113,-1.29574000835419,1.83690190315247,-1.92836594581604,-1056.30004882812,8.70000076293945,-897.300048828125,0.437276525858814,-0.329002357816611,0.308722842245818,ST
16.5333333333333,-2.85374021530151,-2.67011022567749,7.41039323806763,-0.525918006896973,1.2576299905777,-1.06708002090454,-1063.5,12.3000001907349,-882.900024414062,0.464849661280121,-0.349016005468595,0.347659568813844,ST
16.5666666666667,-3.07026791572571,-2.7382984161377,8.24240970611572,-0.282013982534409,0.556405961513519,0.320124000310898,-1065.90002441406,11.7000007629395,-875.700012207031,0.453285996882621,-0.340887868289008,0.321166276236188,ST
16.6,-3.22997212409973,-2.77059817314148,9.497314453125,0.0609759986400604,-1.00610399246216,1.18140995502472,-1058.70007324219,12.3000001907349,-892.500061035156,0.424283455985144,-0.314467122862278,0.282942059037513,ST
16.6333333333333,-3.20365381240845,-2.69583034515381,9.64924240112305,0.907018005847931,-1.20427596569061,1.47866797447205,-1070.70007324219,13.5000009536743,-882.900024414062,0.404282162558677,-0.308155861684467,0.269886179239005,ST
16.6666666666667,-2.51399493217468,-2.55107975006104,8.68383979797363,1.10518991947174,-1.63872992992401,1.07470202445984,-1073.10009765625,11.1000003814697,-880.500061035156,0.395002839057348,-0.268726323645549,0.283083374849543,ST
16.7,-3.52784729003906,-2.28550434112549,10.3556489944458,1.58537602424622,-1.12805593013763,1.06708002090454,-1075.5,12.9000005722046,-878.100036621094,0.365562949227796,-0.319613662210426,0.213719142651416,ST
16.7333333333333,-3.69592547416687,-1.68616509437561,9.50090312957764,3.01831197738647,-0.853663980960846,1.78354799747467,-1073.10009765625,8.10000038146973,-875.700012207031,0.341727954637661,-0.364839787018044,0.169115536227245,ST
16.7666666666667,-3.46025705337524,-0.97557121515274,8.86627292633057,3.41465592384338,-0.381099998950958,2.80489587783813,-1061.10009765625,7.50000047683716,-880.500061035156,0.300321637663948,-0.369903927928676,0.101728261707055,ST
16.8,-3.10854911804199,-0.301464051008224,9.2999267578125,3.20886182785034,-0.792688012123108,3.91008591651917,-1068.30004882812,16.5,-897.300048828125,0.2431527849924,-0.321233061317348,0.0245437971113429,ST
16.8333333333333,-3.12051177024841,0.379820793867111,9.43570518493652,2.76678586006165,-1.58537602424622,4.13874578475952,-1075.5,7.50000047683716,-892.500061035156,0.185906749240323,-0.316053740453621,-0.0473609948153164,ST
16.8666666666667,-1.83390629291534,1.27882969379425,7.62512636184692,2.78965187072754,-2.17989206314087,3.68142580986023,-1070.70007324219,9.90000057220459,-902.100036621094,0.122961435124872,-0.228076909922038,-0.172320303932726,ST
16.9,-1.54978847503662,1.67300593852997,8.56241703033447,1.43293595314026,-3.39178991317749,2.38568592071533,-1085.10009765625,2.10000014305115,-878.100036621094,0.100043871463214,-0.169195134483978,-0.195961470646925,ST
16.9333333333333,-0.847568571567535,1.52287197113037,8.70118618011475,0.0457319989800453,-4.48173570632935,0.259148001670837,-1077.90002441406,13.5000009536743,-878.100036621094,0.109470585302096,-0.0878888115563188,-0.17326821276493,ST
16.9666666666667,-1.08981645107269,1.31651270389557,9.41058349609375,-2.26373386383057,-4.78661584854126,-2.43903994560242,-1092.30004882812,3.90000009536743,-880.500061035156,0.14881232403303,-0.106482401247327,-0.134474743606543,ST
17.0,-1.93140363693237,0.562852561473846,10.6427574157715,-3.07928800582886,-3.45276594161987,-3.38416790962219,-1087.5,8.70000076293945,-885.300048828125,0.196083443780952,-0.173513634944259,-0.0464030303808097,ST
17.0333333333333,-1.09998488426208,0.370848655700684,11.0943555831909,-3.33081388473511,-1.39482593536377,-3.3689239025116,-1101.90002441406,4.5,-892.500061035156,0.235736106157893,-0.0965117799123494,-0.0270269724886179,ST
17.0666666666667,-1.60063064098358,-0.106469452381134,11.1643381118774,-2.95733594894409,-0.586893975734711,-3.50611996650696,-1101.90002441406,8.10000038146973,-894.900024414062,0.27723603975871,-0.141265734818809,0.0155557286419875,ST
17.1,-1.24712812900543,-0.656760990619659,8.78193473815918,-3.05642199516296,-0.0304879993200302,-3.3613018989563,-1094.70007324219,12.9000005722046,-873.300048828125,0.320680111856111,-0.140156760031673,0.0807898034051805,ST
17.1333333333333,-1.27703523635864,-1.35658824443817,8.17601585388184,-3.44514393806458,0.6250039935112,-3.10215401649475,-1101.90002441406,14.1000003814697,-880.500061035156,0.363920606103493,-0.153036361793607,0.171258966386077,ST
17.1666666666667,-1.5563679933548,-1.98523652553558,7.98520851135254,-3.26983785629272,0.510673999786377,-3.21648383140564,-1104.30004882812,15.3000001907349,-890.100036621094,0.409972898871296,-0.186412254121881,0.250438307658735,ST
17.2,-2.49006915092468,-2.84955310821533,9.60019493103027,-2.90398192405701,1.08232402801514,-2.82776188850403,-1097.10009765625,9.90000057220459,-880.500061035156,0.445485199658172,-0.244070786965627,0.294904112679709,ST
17.2333333333333,-2.36445927619934,-2.97336864471436,8.27650451660156,-1.83690190315247,0.419209986925125,-2.78202986717224,-1094.70007324219,12.3000001907349,-906.900024414062,0.484438290899482,-0.261671206002759,0.349372851033663,ST
17.2666666666667,-2.65276408195496,-3.47162175178528,9.86756420135498,-1.27287399768829,-0.449698001146317,-0.99848198890686,-1092.30004882812,14.7000007629395,-880.500061035156,0.487498273876799,-0.247046835250233,0.340869990205179,ST
17.3,-2.10665965080261,-3.68874764442444,10.572774887085,-0.304879993200302,-2.65245604515076,-0.0152439996600151,-1094.70007324219,16.5,-885.300048828125,0.476040746168631,-0.181600537609744,0.335944702946431,ST
17.3333333333333,-1.00368392467499,-3.72822523117065,9.85919094085693,0.884151995182037,-4.93905591964722,0.663114011287689,-1101.90002441406,14.1000003814697,-882.900024414062,0.45339666133319,-0.0873044543561953,0.359613488001082,ST
17.3666666666667,-0.884653449058533,-3.84127426147461,10.04700756073,2.59148001670837,-5.07625198364258,1.11281192302704,-1118.70007324219,8.10000038146973,-882.900024414062,0.423215658511214,-0.0744592917088355,0.360286722321265,ST
17.4,-1.02402079105377,-3.32806754112244,9.27001953125,3.48325395584106,-3.46038794517517,1.05945801734924,-1121.10009765625,15.9000005722046,-897.300048828125,0.400366135770707,-0.0985067756703801,0.338236786138135,ST
17.4333333333333,-1.19867849349976,-3.08761405944824,9.98719310760498,4.00917196273804,-2.20275783538818,1.55488801002502,-1118.70007324219,8.70000076293945,-873.300048828125,0.37615264508814,-0.111268275043298,0.292438016409687,ST
17.4666666666667,-1.86201906204224,-2.14194989204407,9.44108867645264,5.19058179855347,-2.25611186027527,2.080806016922,-1113.90002441406,10.5,-899.700012207031,0.345548167182634,-0.186927487097978,0.21322460477913,ST
17.5,-1.49715185165405,-1.37572884559631,9.63847541809082,5.37350988388062,-2.24848985671997,2.64483404159546,-1130.70007324219,3.90000009536743,-887.700012207031,0.307251055253651,-0.14931012844439,0.131645434857464,ST
17.5333333333333,-1.64728569984436,-0.44322395324707,9.67197227478027,5.49546194076538,-3.94057393074036,3.01831197738647,-1137.90002441406,7.50000047683716,-885.300048828125,0.265876833955544,-0.161841516374001,0.0353232968358857,ST
17.5666666666667,-0.857138872146606,0.843381583690643,7.64187479019165,5.22106981277466,-4.72563982009888,3.67380380630493,-1133.10009765625,3.30000019073486,-878.100036621094,0.215458607528511,-0.102101043824651,-0.119541146919126,ST
17.6,-0.560459971427917,1.27165198326111,8.81064605712891,4.11588001251221,-3.3689239025116,4.13874578475952,-1140.30004882812,5.10000038146973,-887.700012207031,0.17219286275042,-0.0559876884893897,-0.150873588592138,ST
17.6333333333333,0.717173397541046,1.65565979480743,9.54695987701416,2.29422187805176,-3.92532992362976,3.64331603050232,-1147.5,6.90000009536743,-870.900024414062,0.134104827362714,0.081718194298339,-0.175299448711135,ST
