seconds,sensor_accX_m_s_,sensor_accY_m_s_,sensor_accZ_m_s_,sensor_gyroX___s_,sensor_gyroY___s_,sensor_gyroZ___s_,sensor_magX__T_,sensor_magY__T_,sensor_magZ__T_,sensor_yaw___,sensor_pitch___,sensor_roll___,label4
0.0,2.20236253738403,-0.676499724388123,9.03554725646973,0.274392008781433,-0.0533539988100529,0.434453994035721,-1241.10009765625,14.7000007629395,-834.900024414062,1.58159864251796,0.238471707573394,0.074442729649348,ST
0.0333333333333333,2.14673519134521,-0.820053994655609,9.20960712432861,-0.289635986089706,0.0152439996600151,0.213415995240211,-1236.30004882812,12.3000001907349,-844.500061035156,1.57664936469496,0.228082264767932,0.0893926321353825,ST
0.0666666666666667,2.13297772407532,-1.03598368167877,9.30531024932861,-0.510673999786377,0.0990860015153885,0.182927995920181,-1243.5,12.3000001907349,-827.700012207031,1.57107222384546,0.223786762591592,0.111820297436767,ST
0.1,2.10486507415771,-1.21423017978668,9.72042179107666,-0.701223969459534,-0.114329993724823,-0.0685980021953583,-1257.90002441406,12.9000005722046,-839.700012207031,1.57021675844613,0.211873431343601,0.125466298602261,ST
0.133333333333333,2.20595121383667,-1.29976463317871,9.72700119018555,-0.342989981174469,-0.282013982534409,-0.114329993724823,-1236.30004882812,12.3000001907349,-837.300048828125,1.57005991713264,0.221620981269408,0.133401011723908,ST
0.166666666666667,2.19159579277039,-1.26686680316925,9.63189601898193,-0.0152439996600151,-0.388722002506256,-0.205793991684914,-1243.5,15.3000001907349,-834.900024414062,1.57214026348307,0.222596514824437,0.130746564116473,ST
0.2,2.14135193824768,-1.08144247531891,9.30889892578125,0.426831990480423,-0.350611984729767,-0.0990860015153885,-1241.10009765625,4.5,-820.500061035156,1.57527290267361,0.225264385206164,0.114903923934612,ST
0.233333333333333,2.13477230072021,-1.05572235584259,9.36931133270264,0.495429992675781,-0.442075997591019,0.0381099991500378,-1243.5,11.1000003814697,-842.100036621094,1.57391689470432,0.223420554835619,0.111376808581862,ST
0.266666666666667,2.01454544067383,-1.00906717777252,9.43450927734375,0.335367977619171,-0.243903994560242,0.213415995240211,-1248.30004882812,11.1000003814697,-839.700012207031,1.57190870226691,0.209604724454492,0.106056491590489,ST
0.3,2.05103230476379,-1.08802211284637,9.46920108795166,0.190549999475479,-0.144817993044853,0.419209986925125,-1241.10009765625,11.1000003814697,-849.300048828125,1.56525046069499,0.212119017854656,0.114225486542469,ST
0.333333333333333,2.21552157402039,-1.14065861701965,9.60378360748291,0.205793991684914,-0.37347799539566,0.289635986089706,-1253.10009765625,17.7000007629395,-837.300048828125,1.56082313573298,0.22576947733898,0.117987516183229,ST
0.366666666666667,2.24064350128174,-1.10536825656891,9.48834228515625,0.365855991840363,-0.571649968624115,0.0914639979600906,-1248.30004882812,17.1000003814697,-822.900024414062,1.55909460197865,0.231362124065909,0.115403592849497,ST
0.4,2.131183385849,-0.974973022937775,9.35914325714111,0.609759986400604,-0.571649968624115,0.137196004390717,-1245.90002441406,12.3000001907349,-832.500061035156,1.55843693753135,0.223700009941092,0.102818775725415,ST
0.433333333333333,2.19877362251282,-0.994113624095917,9.39622783660889,0.46494197845459,-0.411587983369827,0.259148001670837,-1260.30004882812,8.10000038146973,-834.900024414062,1.55375818083269,0.229302421196345,0.104717262230943,ST
0.466666666666667,2.24363422393799,-1.0796480178833,9.35914325714111,0.289635986089706,-0.335367977619171,0.175305992364883,-1245.90002441406,9.90000057220459,-822.900024414062,1.54885370308875,0.234333361584278,0.114422210438851,ST
0.5,2.31002807617188,-1.02103006839752,9.54995059967041,0.160062000155449,-0.510673999786377,-0.0533539988100529,-1241.10009765625,11.7000007629395,-846.900024414062,1.55037908364019,0.23692824619177,0.106240310481694,ST
0.533333333333333,2.53911685943604,-1.09878861904144,9.21738338470459,0.487807989120483,-0.701223969459534,-0.0762199983000755,-1250.70007324219,16.5,-830.100036621094,1.54612246083906,0.268213022142635,0.117792791991417,ST
0.566666666666667,2.58756637573242,-1.12032175064087,9.33043193817139,0.396344006061554,-0.564027965068817,-0.129574000835419,-1255.5,5.10000038146973,-832.500061035156,1.54535755171739,0.269693198423991,0.118777943563684,ST
0.6,2.4637508392334,-0.982150733470917,9.37409687042236,0.46494197845459,-0.167683988809586,-0.114329993724823,-1236.30004882812,12.9000005722046,-842.100036621094,1.54903878101637,0.255992691343551,0.103544233081519,ST
0.633333333333333,2.40752553939819,-0.90977543592453,9.33761024475098,0.46494197845459,0.0152439996600151,-0.0457319989800453,-1238.70007324219,16.5,-842.100036621094,1.55014625253343,0.251181013464206,0.0962984128782011,ST
0.666666666666667,2.36087036132812,-0.564048826694489,9.59780216217041,0.731711983680725,-0.137196004390717,0.868907988071442,-1241.10009765625,11.7000007629395,-834.900024414062,1.52818328953561,0.240943787480693,0.0577992678203984,ST
0.7,2.40991806983948,-0.468944102525711,9.41835880279541,0.434453994035721,-0.198172003030777,0.708845973014832,-1245.90002441406,9.90000057220459,-839.700012207031,1.52238389058707,0.250476649575622,0.0493208849230669,ST
0.733333333333333,2.48229336738586,-0.374437510967255,9.30112361907959,0.175305992364883,-0.221037998795509,0.586893975734711,-1233.90002441406,9.90000057220459,-834.900024414062,1.51860919503623,0.260933520093729,0.0402169746914784,ST
0.766666666666667,2.5235652923584,-0.288903057575226,9.01521110534668,0.137196004390717,-0.221037998795509,0.556405961513519,-1245.90002441406,12.3000001907349,-830.100036621094,1.51508050185911,0.273145024621443,0.0320800628762111,ST
0.8,2.32258915901184,-0.253014475107193,8.99606990814209,-0.0304879993200302,0.129574000835419,0.693601965904236,-1253.10009765625,12.3000001907349,-832.500061035156,1.50897100098654,0.252315192779446,0.0284830270967262,ST
0.833333333333333,2.18082928657532,-0.47851437330246,9.99197864532471,-0.320124000310898,0.297257989645004,1.03659200668335,-1238.70007324219,12.3000001907349,-825.300048828125,1.49520008437835,0.214085786531165,0.0487777741861527,ST
0.866666666666667,2.20355868339539,-0.544310092926025,9.75152492523193,-0.221037998795509,-0.0609759986400604,1.18903195858002,-1250.70007324219,11.1000003814697,-839.700012207031,1.48260353276722,0.221884389172476,0.0566058383358462,ST
0.9,2.33574819564819,-0.675901532173157,9.80475997924805,-0.342989981174469,-0.472563982009888,1.35671591758728,-1248.30004882812,10.5,-846.900024414062,1.46676810286884,0.233980190899817,0.0699906724161298,ST
0.933333333333333,2.42068457603455,-0.776389598846436,10.0595684051514,-0.0304879993200302,-0.815553963184357,1.56251001358032,-1250.70007324219,17.1000003814697,-837.300048828125,1.44913490346584,0.236675907118277,0.0777551828096255,ST
0.966666666666667,2.47272300720215,-0.878672003746033,9.51406192779541,0.213415995240211,-0.457319974899292,1.50915598869324,-1243.5,10.5,-832.500061035156,1.43041071332808,0.253777354656135,0.0924039883831446,ST
1.0,2.12161302566528,-0.907382905483246,9.29813289642334,0.228659987449646,0.830797970294952,1.16616594791412,-1248.30004882812,12.9000005722046,-834.900024414062,1.41811302058227,0.221696484930212,0.097301577385583,ST
1.03333333333333,1.90508532524109,-0.854746282100677,9.29274940490723,0.0304879993200302,1.06708002090454,0.899396002292633,-1241.10009765625,11.7000007629395,-834.900024414062,1.41153088699603,0.199404754593697,0.0919561308022788,ST
1.06666666666667,1.80160665512085,-0.860727727413177,9.35495567321777,-0.114329993724823,0.342989981174469,0.602137982845306,-1241.10009765625,11.7000007629395,-846.900024414062,1.40624640418089,0.188791687011642,0.0921382406793072,ST
1.1,1.8907299041748,-0.887644171714783,9.2161865234375,-0.175305992364883,-0.472563982009888,0.487807989120483,-1243.5,13.5000009536743,-827.700012207031,1.40064474819243,0.202162790515027,0.0965083823808721,ST
1.13333333333333,2.27294325828552,-1.06947958469391,9.08938026428223,-0.518296003341675,-0.815553963184357,0.243903994560242,-1248.30004882812,11.7000007629395,-832.500061035156,1.39385037173301,0.244743930081743,0.118151478261054,ST
1.16666666666667,2.29746723175049,-1.18073427677155,9.48415470123291,-0.632625997066498,-0.846041977405548,-0.106707997620106,-1238.70007324219,12.3000001907349,-842.100036621094,1.39370467135972,0.237407408796614,0.124954231902474,ST
1.2,2.26337289810181,-1.22200608253479,9.62471866607666,-0.304879993200302,-0.960371971130371,-0.342989981174469,-1248.30004882812,11.7000007629395,-825.300048828125,1.39606764671179,0.230936091728092,0.126729803643243,ST
1.23333333333333,2.24602675437927,-1.17953789234161,9.42972373962402,0.0838419944047928,-0.792688012123108,-0.106707997620106,-1255.5,14.7000007629395,-842.100036621094,1.39650439049448,0.233478994465907,0.12429351255657,ST
1.26666666666667,2.28131723403931,-1.15142524242401,9.5445671081543,0.160062000155449,-0.914639949798584,0.106707997620106,-1248.30004882812,15.3000001907349,-851.700012207031,1.39496247871825,0.234549430124484,0.119869978521763,ST
1.3,2.31421518325806,-1.29318511486053,9.5565299987793,0.449698001146317,-0.952749967575073,0.37347799539566,-1253.10009765625,15.9000005722046,-834.900024414062,1.38593610230819,0.237078202589744,0.133912040940159,ST
1.33333333333333,2.22748446464539,-1.35000872612,9.62352180480957,0.602137982845306,-0.701223969459534,0.266770005226135,-1238.70007324219,13.5000009536743,-842.100036621094,1.38011772471302,0.226485355334726,0.138462245387307,ST
1.36666666666667,1.6783891916275,-1.19209897518158,9.68692588806152,1.01372599601746,-0.495429992675781,0.365855991840363,-1253.10009765625,12.3000001907349,-830.100036621094,1.37773002653615,0.171143033992828,0.120825281828987,ST
1.4,1.25251138210297,-0.982150733470917,9.53559494018555,1.35671591758728,-0.632625997066498,1.02897000312805,-1253.10009765625,8.70000076293945,-830.100036621094,1.36838956770949,0.130886626209865,0.100541486080567,ST
1.43333333333333,1.28122222423553,-1.03299295902252,9.5565299987793,1.15092194080353,-0.87652999162674,1.35671591758728,-1250.70007324219,15.9000005722046,-827.700012207031,1.35030367479108,0.133780047448678,0.106002838472549,ST
1.46666666666667,1.03717994689941,-1.12331247329712,9.43570518493652,0.739333987236023,-1.06708002090454,1.16616594791412,-1250.70007324219,8.10000038146973,-822.900024414062,1.33481096559661,0.110346360357891,0.117442089697573,ST
1.5,0.976169347763062,-1.24174475669861,9.473388671875,0.403965979814529,-0.884151995182037,0.884151995182037,-1257.90002441406,15.3000001907349,-827.700012207031,1.32313987621943,0.103152794277612,0.129797693496115,ST
1.53333333333333,0.524571359157562,-0.878672003746033,9.51226806640625,0.884151995182037,-1.6920839548111,0.495429992675781,-1257.90002441406,12.9000005722046,-825.300048828125,1.31866816035056,0.057743694823553,0.0906534345843348,ST
1.56666666666667,0.439036935567856,-0.79074501991272,8.90455436706543,1.17378795146942,-2.0579400062561,0.685979962348938,-1245.90002441406,9.90000057220459,-825.300048828125,1.30983954046251,0.0525526363773178,0.0866052851832194,ST
1.6,0.830222427845001,-0.949252903461456,8.89019870758057,0.746955990791321,-3.18599581718445,0.746955990791321,-1262.70007324219,18.3000011444092,-820.500061035156,1.29737400101812,0.0979360160198013,0.105232527314155,ST
1.63333333333333,1.47023546695709,-1.1478363275528,8.54088306427002,0.907018005847931,-4.40551567077637,0.541162014007568,-1262.70007324219,17.7000007629395,-839.700012207031,1.28163259776463,0.176391207029725,0.132327460096739,ST
1.66666666666667,2.49904131889343,-1.39666378498077,8.5785665512085,0.190549999475479,-5.26680183410645,-0.564027965068817,-1281.90002441406,15.9000005722046,-822.900024414062,1.27172071671535,0.2891481510357,0.16119502793294,ST
1.7,3.22339248657227,-1.38769173622131,8.67127895355225,0.426831990480423,-6.45583391189575,-1.30336201190948,-1274.70007324219,12.9000005722046,-803.700012207031,1.27386010607945,0.363196007744121,0.15776967775686,ST
1.73333333333333,3.28260850906372,-1.34641981124878,8.52353763580322,1.18140995502472,-6.85217761993408,-1.57013201713562,-1308.30004882812,12.9000005722046,-818.100036621094,1.2754041943894,0.375727443912554,0.154280409326289,ST
1.76666666666667,3.27543091773987,-1.10536825656891,8.3877592086792,1.53202199935913,-5.51070594787598,-1.6692179441452,-1286.70007324219,13.5000009536743,-798.900024414062,1.28807558219889,0.379292465834428,0.127733450412113,ST
1.8,2.69283962249756,-0.602329969406128,8.07313537597656,2.35519790649414,-2.66007804870605,-1.15854394435883,-1303.5,14.7000007629395,-796.500061035156,1.30920326874864,0.325953818125976,0.0698585544197785,ST
1.83333333333333,3.85323691368103,-1.21662282943726,7.64665985107422,1.55488801002502,-2.33233189582825,-1.28049600124359,-1289.10009765625,7.50000047683716,-818.100036621094,1.27851164862369,0.465980391697153,0.154180983672492,ST
1.86666666666667,3.20784068107605,-1.35120499134064,8.78193473815918,1.49391198158264,-0.777444005012512,-1.89025592803955,-1296.30004882812,12.3000001907349,-806.100036621094,1.29133351284049,0.348429644531072,0.148952150453846,ST
1.9,4.57579374313354,-0.773997008800507,9.79997444152832,2.75154185295105,-0.937505960464478,-0.541162014007568,-1303.5,5.70000028610229,-810.900024414062,1.3132252317275,0.437252003222898,0.0737196798199457,ST
1.93333333333333,7.35476589202881,-0.0107665732502937,9.63727951049805,2.30184388160706,-4.26832008361816,0.121951997280121,-1296.30004882812,2.70000004768372,-791.700012207031,1.33892909144303,0.659074001083479,-0.0026333878623341,ST
1.96666666666667,9.0612678527832,0.845176041126251,9.87534046173096,1.83690190315247,-5.38875389099121,-0.304879993200302,-1305.90002441406,8.70000076293945,-794.100036621094,1.38846178295726,0.749843144090141,-0.0897190969466977,ST
2.0,8.52951908111572,1.50911474227905,8.59830474853516,1.31860601902008,-3.60520601272583,-1.28811800479889,-1317.90002441406,7.50000047683716,-770.100036621094,1.45452642733642,0.779573105674733,-0.179229377400636,ST
2.03333333333333,7.35955095291138,2.41231060028076,8.9655647277832,1.38720393180847,-0.602137982845306,-0.541162014007568,-1317.90002441406,5.10000038146973,-784.500061035156,1.50845405596099,0.671083709468504,-0.266160701038682,ST
2.06666666666667,7.76808261871338,2.46315264701843,9.06844520568848,0.144817993044853,0.731711983680725,-1.32622802257538,-1305.90002441406,2.10000014305115,-767.700012207031,1.51633893523532,0.688922163282844,-0.267034760151645,ST
2.1,6.6842474937439,1.96848857402802,8.07792091369629,-1.39482593536377,1.11281192302704,-2.96495795249939,-1322.70007324219,0.900000035762787,-789.300048828125,1.52792554945279,0.674039409778344,-0.240273822000996,ST
2.13333333333333,4.83299541473389,1.47143173217773,9.1689338684082,-3.06404399871826,3.48325395584106,-2.33233189582825,-1310.70007324219,-1.5,-789.300048828125,1.51107865814983,0.473458060260009,-0.155431594912512,ST
2.16666666666667,5.09199094772339,0.741697311401367,8.72870063781738,-2.71343183517456,3.30032587051392,-0.381099998950958,-1301.10009765625,3.30000019073486,-794.100036621094,1.48964757293282,0.52070970023847,-0.0801836425005033,ST
2.2,4.69123554229736,-0.401353925466537,10.5141572952271,-2.27897787094116,1.62348592281342,0.274392008781433,-1303.5,6.30000019073486,-796.500061035156,1.44214945357365,0.416609886260796,0.0422365817328115,ST
2.23333333333333,3.22099995613098,0.135778456926346,9.49851036071777,-0.0762199983000755,2.71343183517456,1.49391198158264,-1301.10009765625,2.10000014305115,-791.700012207031,1.44773468542123,0.322266694021518,-0.0132311085158001,ST
2.26666666666667,3.1767373085022,-0.229088753461838,8.04920959472656,-1.6615959405899,4.26832008361816,2.57623600959778,-1279.5,5.10000038146973,-803.700012207031,1.41368873071239,0.368146974349932,0.0329810072059235,ST
2.3,3.73480463027954,-1.42716908454895,9.33043193817139,-3.64331603050232,3.26983785629272,2.65245604515076,-1291.5,4.5,-796.500061035156,1.36036894802272,0.370417827178502,0.159518982693766,ST
2.33333333333333,4.995689868927,-1.4361412525177,9.38725566864014,-3.02593398094177,1.81403601169586,0.762199997901917,-1281.90002441406,14.1000003814697,-818.100036621094,1.37029533402731,0.480823477344498,0.157533421601734,ST
2.36666666666667,4.2204966545105,-0.22968690097332,8.1191930770874,-1.31860601902008,2.9116039276123,0.106707997620106,-1279.5,8.70000076293945,-803.700012207031,1.43492732532617,0.474140086717299,0.0307452707333185,ST
2.4,3.86819052696228,0.425279647111893,7.34998083114624,-1.265251994133,4.47411394119263,0.495429992675781,-1281.90002441406,8.70000076293945,-813.300048828125,1.47389266006259,0.476017736845929,-0.0548158691510503,ST
2.43333333333333,2.31361699104309,0.202770471572876,8.78791618347168,-1.46342396736145,4.61893177032471,0.503051996231079,-1267.5,11.7000007629395,-815.700012207031,1.45987371885583,0.24957525745139,-0.0202778662059672,ST
2.46666666666667,1.86082279682159,0.0921140164136887,8.0653600692749,-1.15092194080353,4.31405210494995,0.0990860015153885,-1265.10009765625,10.5,-834.900024414062,1.45843892694659,0.219242236455775,-0.0093659774116542,ST
2.5,-0.616087257862091,-1.41520631313324,12.6483316421509,-2.21800184249878,6.56254196166992,1.34909391403198,-1253.10009765625,5.70000028610229,-820.500061035156,1.44054852842407,-0.0598312281227675,0.115153050791304,ST
2.53333333333333,0.273949474096298,-2.11144471168518,9.425537109375,-2.12653803825378,6.98937368392944,0.891773998737335,-1253.10009765625,15.9000005722046,-846.900024414062,1.44834899944514,0.0160285127910545,0.223948125369889,ST
2.56666666666667,1.20824885368347,-2.85553455352783,10.4292211532593,-4.1997218132019,5.33540010452271,-1.11281192302704,-1248.30004882812,14.7000007629395,-832.500061035156,1.47566110219672,0.102796436730206,0.274110320767267,ST
2.6,0.796128273010254,-2.36326289176941,9.17850399017334,-2.08842802047729,4.39789390563965,-2.39330792427063,-1236.30004882812,12.9000005722046,-846.900024414062,1.51257325270708,0.0774588948147925,0.255206124213491,ST
2.63333333333333,0.109460160136223,-2.19877362251282,8.53310775756836,-0.228659987449646,5.52594995498657,-1.31098401546478,-1221.90002441406,11.1000003814697,-849.300048828125,1.53867831235932,0.0037363647178595,0.25257172945281,ST
2.66666666666667,0.250023752450943,-2.03966760635376,8.65453052520752,-0.190549999475479,6.05948972702026,-0.739333987236023,-1212.30004882812,9.30000019073486,-846.900024414062,1.55980457841623,0.0180994511672181,0.231742054677568,ST
2.7,-0.0538328662514687,-1.80280292034149,9.80954456329346,0.213415995240211,4.96954393386841,-0.335367977619171,-1207.5,13.5000009536743,-861.300048828125,1.5734546209756,-0.0138063267786155,0.181434729534525,ST
2.73333333333333,-0.0406737215816975,-1.77289581298828,9.09237098693848,0.289635986089706,3.7728898525238,-0.823175966739655,-1207.5,13.5000009536743,-861.300048828125,1.5885103234345,-0.0105839995674334,0.192081886676041,ST
2.76666666666667,-0.366063505411148,-1.67958545684814,9.81911468505859,0.0304879993200302,3.89484190940857,-1.37958192825317,-1202.70007324219,6.30000019073486,-866.100036621094,1.60778871560759,-0.0429879929257956,0.169535341513342,ST
2.8,-0.577806115150452,-1.38769173622131,10.3215551376343,0.647870004177094,2.88873791694641,-1.63110792636871,-1190.70007324219,8.70000076293945,-863.700012207031,1.62656568225256,-0.0600297099430598,0.132754978572102,ST
2.83333333333333,-0.852951884269714,-1.28839993476868,9.2281494140625,0.907018005847931,2.22562384605408,-1.2347639799118,-1185.90002441406,12.9000005722046,-868.500061035156,1.64402262241428,-0.094822104567367,0.13738783966076,ST
2.86666666666667,-0.911569893360138,-1.29079258441925,9.83347034454346,0.0685980021953583,1.97409796714783,-0.3125019967556,-1166.70007324219,9.90000057220459,-858.900024414062,1.64948764348707,-0.0949998104041526,0.130497016233722,ST
2.9,-0.551487803459167,-1.37393438816071,9.6881217956543,0.403965979814529,0.182927995920181,0.632625997066498,-1178.70007324219,10.5,-866.100036621094,1.64407769248031,-0.0567903095306231,0.140107296052472,ST
2.93333333333333,-0.111852735280991,-1.52047944068909,9.55413722991943,0.289635986089706,-0.144817993044853,0.518296003341675,-1176.30004882812,7.50000047683716,-861.300048828125,1.63948782884294,-0.011503294575688,0.157284577277842,ST
2.96666666666667,-0.497654944658279,-1.36914920806885,9.3238525390625,0.0076219998300075,0.617381989955902,-0.320124000310898,-1171.5,10.5,-861.300048828125,1.64322459992187,-0.053707774603098,0.145836191055327,ST
3.0,-1.05990934371948,-1.59464919567108,9.29574012756348,0.0152439996600151,1.76068198680878,-0.579271972179413,-1176.30004882812,14.1000003814697,-870.900024414062,1.65366680620979,-0.114700197662571,0.170012992785889,ST
3.03333333333333,-1.75794219970703,-1.67480027675629,9.44288349151611,0.0914639979600906,2.71343183517456,-0.815553963184357,-1173.90002441406,11.1000003814697,-858.900024414062,1.66698125987085,-0.185627762856534,0.175786904842622,ST
3.06666666666667,-2.56902408599854,-1.59704172611237,9.37888145446777,0.426831990480423,3.05642199516296,-0.746955990791321,-1178.70007324219,10.5,-875.700012207031,1.67826771511688,-0.268686819174254,0.168525101609066,ST
3.1,-2.66831588745117,-1.72025918960571,9.17850399017334,0.221037998795509,2.41617393493652,-0.556405961513519,-1152.30004882812,12.3000001907349,-875.700012207031,1.69271963543999,-0.282272820727993,0.185370602122323,ST
3.13333333333333,-2.67310094833374,-1.49894630908966,9.43869590759277,-0.0838419944047928,1.88263392448425,-0.365855991840363,-1159.5,1.5,-868.500061035156,1.69176622904997,-0.275879534490922,0.15797807666492,ST
3.16666666666667,-2.09589290618896,-1.4821982383728,9.40340518951416,-0.0381099991500378,0.899396002292633,0.647870004177094,-1157.10009765625,11.1000003814697,-885.300048828125,1.68648494239325,-0.218500829916694,0.156211588233153,ST
3.2,-1.78904557228088,-1.53244233131409,9.4075927734375,-0.365855991840363,0.403965979814529,1.00610399246216,-1169.10009765625,8.10000038146973,-875.700012207031,1.67800143239885,-0.186551675472877,0.161802202101183,ST
3.23333333333333,-1.27464270591736,-1.48758161067963,9.28856182098389,-0.342989981174469,0.571649968624115,1.43293595314026,-1161.90002441406,15.3000001907349,-866.100036621094,1.66425188182705,-0.136117174277097,0.159087524000751,ST
3.26666666666667,-0.732725143432617,-1.64130425453186,9.29753398895264,-0.556405961513519,0.632625997066498,1.6768399477005,-1152.30004882812,14.1000003814697,-897.300048828125,1.6504732517404,-0.0791140127371702,0.17546957845518,ST
3.3,-0.497056812047958,-1.59943425655365,9.17551326751709,-0.640248000621796,1.08232402801514,1.41769194602966,-1149.90002441406,9.30000019073486,-878.100036621094,1.63704618163536,-0.0556166508414371,0.173581961665329,ST
3.33333333333333,-0.592759668827057,-1.68795943260193,9.64864444732666,-0.442075997591019,2.03507399559021,1.47104597091675,-1147.5,14.1000003814697,-894.900024414062,1.6254014232057,-0.064378360164064,0.173837907416149,ST
3.36666666666667,-0.866709172725677,-1.63113594055176,9.35017108917236,0.0304879993200302,2.28659987449646,1.41769194602966,-1159.5,13.5000009536743,-878.100036621094,1.61523579138743,-0.0953926629458322,0.172492468875848,ST
3.4,-1.36795294284821,-1.80818617343903,9.62770938873291,-0.0838419944047928,3.33081388473511,1.28811800479889,-1142.70007324219,11.7000007629395,-880.500061035156,1.61029832808606,-0.144819991688648,0.185614420007464,ST
3.43333333333333,-1.66582822799683,-1.77229762077332,10.4011077880859,0.137196004390717,3.09453201293945,1.12043392658234,-1142.70007324219,9.90000057220459,-875.700012207031,1.60164405354346,-0.162236175682165,0.168374382723048,ST
3.46666666666667,-1.48638522624969,-1.64668762683868,9.58703517913818,1.21951997280121,1.6615959405899,0.632625997066498,-1142.70007324219,9.90000057220459,-885.300048828125,1.6000756033557,-0.154683156008607,0.167881016199395,ST
3.5,-1.6263507604599,-1.69095015525818,9.13364315032959,1.18140995502472,1.20427596569061,0.221037998795509,-1135.5,9.30000019073486,-890.100036621094,1.60423425900383,-0.175449014256308,0.180988867991,ST
3.53333333333333,-1.84527111053467,-1.62096750736237,8.35306644439697,1.02134799957275,1.37958192825317,-0.990859985351562,-1133.10009765625,13.5000009536743,-873.300048828125,1.6211926159342,-0.215573837083086,0.190358656332464,ST
3.56666666666667,-1.92721664905548,-1.68496870994568,8.74485015869141,0.78506600856781,1.49391198158264,-1.95885396003723,-1135.5,10.5,-878.100036621094,1.6438093569883,-0.215032162936052,0.18981989025453,ST
3.6,-2.47631192207336,-1.65207087993622,9.17611122131348,1.16616594791412,0.556405961513519,-3.01068997383118,-1121.10009765625,11.1000003814697,-892.500061035156,1.67278608333219,-0.259578879546779,0.177527766170207,ST
3.63333333333333,-2.73411154747009,-1.44511342048645,9.61813926696777,1.6615959405899,-0.327746003866196,-2.52288198471069,-1106.70007324219,10.5,-885.300048828125,1.69393054608463,-0.2728163433804,0.147447506383611,ST
3.66666666666667,-2.63601613044739,-1.24712812900543,9.5272216796875,1.96647596359253,-1.86738991737366,-1.54726600646973,-1125.90002441406,6.90000009536743,-887.700012207031,1.70636711689784,-0.26418655540803,0.127356607436388,ST
3.7,-2.33933711051941,-0.83859646320343,9.5385856628418,1.78354799747467,-2.80489587783813,-0.304879993200302,-1125.90002441406,5.10000038146973,-880.500061035156,1.70082598351944,-0.234706991330048,0.0846236815518709,ST
3.73333333333333,-2.30763554573059,-0.435448080301285,10.4770727157593,1.73019397258759,-3.27745985984802,0.899396002292633,-1125.90002441406,0.900000035762787,-870.900024414062,1.68355466884809,-0.210970317593249,0.0381548217987801,ST
3.76666666666667,-1.7124832868576,-0.179442897439003,9.93216419219971,2.26373386383057,-3.87959790229797,1.91312193870544,-1140.30004882812,9.30000019073486,-880.500061035156,1.66178167379072,-0.164006532614996,0.0135501353600096,ST
3.8,-1.60481762886047,0.245238617062569,9.87534046173096,1.48628997802734,-2.61434602737427,1.50915598869324,-1142.70007324219,10.5,-880.500061035156,1.64304449750531,-0.156423934178829,-0.0277846311946171,ST
3.83333333333333,-1.81895279884338,0.173461467027664,9.55294132232666,1.03659200668335,-1.43293595314026,0.967993974685669,-1145.10009765625,3.30000019073486,-873.300048828125,1.63668484099124,-0.185571468828711,-0.0202785083653079,ST
3.86666666666667,-1.93319809436798,-0.0311034340411425,9.49013614654541,0.175305992364883,-0.853663980960846,0.274392008781433,-1142.70007324219,6.30000019073486,-870.900024414062,1.63882133238679,-0.199451563621003,0.0028480590722855,ST
3.9,-2.20176434516907,-0.806296706199646,8.98829460144043,-0.106707997620106,-0.564027965068817,-0.503051996231079,-1147.5,8.10000038146973,-875.700012207031,1.66184261902763,-0.238203627365827,0.0897453626656825,ST
3.93333333333333,-2.69642853736877,-1.07127404212952,9.02179050445557,-0.609759986400604,0.0381099991500378,-0.884151995182037,-1147.5,9.90000057220459,-875.700012207031,1.67629864228114,-0.2883402768706,0.119676475094182,ST
3.96666666666667,-3.19348526000977,-1.40982294082642,9.68752384185791,-0.342989981174469,0.907018005847931,0.129574000835419,-1137.90002441406,6.90000009536743,-885.300048828125,1.6827743509833,-0.316908920934367,0.145098282714347,ST
4.0,-2.72095227241516,-1.3900842666626,8.67785835266113,0.0685980021953583,0.754577994346619,0.907018005847931,-1128.30004882812,9.30000019073486,-885.300048828125,1.67928805405386,-0.301804382443895,0.158287812047811,ST
4.03333333333333,-1.9589182138443,-0.911569893360138,9.37708759307861,-0.792688012123108,1.77592599391937,1.49391198158264,-1140.30004882812,3.90000009536743,-897.300048828125,1.64951778681733,-0.208424276039771,0.0978548999302006,ST
4.06666666666667,-0.693247675895691,-0.538926839828491,9.86816310882568,-1.05945801734924,1.33385002613068,1.22714197635651,-1145.10009765625,8.10000038146973,-878.100036621094,1.63084534123456,-0.0725668921397698,0.056286828516655,ST
4.1,0.503038227558136,0.042468149214983,10.0595684051514,-1.02897000312805,0.525918006896973,-0.0990860015153885,-1147.5,10.5,-878.100036621094,1.63157022248826,0.0489838381659679,-0.002404018068519,ST
4.13333333333333,0.705808699131012,0.348717361688614,10.6397676467896,-1.08994603157043,0.3125019967556,-0.457319974899292,-1133.10009765625,8.10000038146973,-882.900024414062,1.63856601856131,0.065623798818231,-0.0308931811400714,ST
4.16666666666667,1.04854464530945,0.335558205842972,9.88371467590332,-0.815553963184357,-0.594515979290009,-0.114329993724823,-1128.30004882812,1.5,-885.300048828125,1.64079974884303,0.106617701601134,-0.0325373257644534,ST
4.2,0.391185492277145,-0.061608724296093,9.35017108917236,-0.693601965904236,0.472563982009888,0.182927995920181,-1135.5,12.9000005722046,-878.100036621094,1.63639633681134,0.041057437441064,0.0077681662149876,ST
4.23333333333333,-0.723752975463867,-0.473131090402603,9.21199989318848,-0.548784017562866,1.6920839548111,0.792688012123108,-1140.30004882812,3.90000009536743,-892.500061035156,1.6299569772845,-0.0811880332897745,0.0521247656154117,ST
4.26666666666667,-1.7483719587326,-0.602928102016449,8.74425220489502,-0.121951997280121,2.23324584960938,1.50915598869324,-1128.30004882812,12.3000001907349,-870.900024414062,1.61895826395231,-0.200823799636854,0.0685584303630514,ST
4.3,-2.03428435325623,-1.12211620807648,7.79081201553345,-0.693601965904236,2.89635992050171,2.02745199203491,-1116.30004882812,11.1000003814697,-880.500061035156,1.61832715516571,-0.258371200403789,0.143458306410926,ST
4.33333333333333,-2.64199757575989,-1.98104953765869,9.83765697479248,-2.43141794204712,2.69818782806396,0.510673999786377,-1118.70007324219,8.70000076293945,-880.500061035156,1.62709884385086,-0.262225394164255,0.202944938142272,ST
4.36666666666667,-3.26346802711487,-2.08991146087646,10.4208469390869,-2.55336999893188,1.2423859834671,-0.983237981796265,-1113.90002441406,14.1000003814697,-887.700012207031,1.63127833160958,-0.299655014178052,0.20303316430613,ST
4.4,-3.61098909378052,-2.39616084098816,9.86517238616943,-1.71494996547699,0.480185985565186,-1.6692179441452,-1121.10009765625,17.1000003814697,-887.700012207031,1.65420491535028,-0.341807924878319,0.242302608165903,ST
4.43333333333333,-3.12110996246338,-3.00028514862061,9.29574012756348,-1.52439999580383,0.434453994035721,-1.97409796714783,-1113.90002441406,13.5000009536743,-885.300048828125,1.69185408366736,-0.308964085560282,0.315905117181406,ST
4.46666666666667,-3.13307285308838,-3.62893342971802,9.65761661529541,-1.27287399768829,0.167683988809586,-2.75154185295105,-1116.30004882812,16.5,-873.300048828125,1.72880529676282,-0.293410812712554,0.363022854088234,ST
4.5,-2.73889660835266,-3.57151174545288,9.95848274230957,-0.144817993044853,-0.487807989120483,-2.25611186027527,-1109.10009765625,11.7000007629395,-882.900024414062,1.74386861599447,-0.251210572137946,0.345490713959745,ST
4.53333333333333,-2.09948182106018,-3.41240572929382,9.10852146148682,0.983237981796265,-1.28811800479889,-1.42531394958496,-1101.90002441406,16.5,-882.900024414062,1.75802597757974,-0.209630268359092,0.357060195828735,ST
4.56666666666667,-1.67898726463318,-2.69104528427124,9.47159385681152,2.19513607025146,-0.823175966739655,0.0762199983000755,-1118.70007324219,15.9000005722046,-902.100036621094,1.74311260467297,-0.167567671437362,0.272945711979679,ST
4.6,-1.25131511688232,-2.08871531486511,8.81722545623779,3.33843588829041,-1.14329993724823,1.40244793891907,-1135.5,14.1000003814697,-887.700012207031,1.72489495765705,-0.135870737794792,0.226437955225101,ST
4.63333333333333,-1.01803934574127,-1.60780835151672,8.95240592956543,3.08691000938416,-0.746955990791321,2.72867584228516,-1125.90002441406,5.10000038146973,-878.100036621094,1.69422926743167,-0.111023041139647,0.171823880111547,ST
4.66666666666667,-0.84158718585968,-1.52167570590973,9.39443397521973,2.13416004180908,-0.121951997280121,2.88873791694641,-1121.10009765625,15.3000001907349,-882.900024414062,1.66662431275904,-0.0888024002678804,0.156426739463907,ST
4.7,-0.949851036071777,-1.47920751571655,9.00623893737793,2.09605002403259,-0.144817993044853,2.14940404891968,-1121.10009765625,6.30000019073486,-902.100036621094,1.64631249176688,-0.104034631821154,0.158739029914467,ST
4.73333333333333,-1.57132160663605,-1.45528185367584,9.07143592834473,2.14940404891968,0.350611984729767,1.2347639799118,-1123.5,9.90000057220459,-887.700012207031,1.63784732967344,-0.17025610588611,0.154973548386174,ST
4.76666666666667,-2.01514363288879,-1.09280717372894,8.45056343078613,2.05031800270081,0.807931959629059,-0.0228659994900227,-1128.30004882812,6.90000009536743,-882.900024414062,1.63750100999893,-0.23355201171353,0.12511089964142,ST
4.8,-2.08931350708008,-1.01744115352631,8.3578519821167,1.91312193870544,0.731711983680725,-0.411587983369827,-1118.70007324219,4.5,-885.300048828125,1.64503219973436,-0.244409493127576,0.118023744331202,ST
4.83333333333333,-2.75205588340759,-0.427074074745178,8.59112739562988,2.11891603469849,0.0381099991500378,-1.02897000312805,-1106.70007324219,6.90000009536743,-880.500061035156,1.64121363706021,-0.309561390519421,0.0466260528079344,ST
4.86666666666667,-3.50392150878906,-0.175854027271271,8.92548942565918,2.36281991004944,0.358233988285065,-0.266770005226135,-1104.30004882812,14.7000007629395,-882.900024414062,1.64291680347492,-0.374617841842949,0.0157757579922648,ST
4.9,-3.08581948280334,0.0418700091540813,8.87345123291016,1.63110792636871,0.160062000155449,0.586893975734711,-1116.30004882812,8.70000076293945,-890.100036621094,1.63460844908583,-0.334966218918075,-0.0079105515380836,ST
4.93333333333333,-3.07266044616699,0.280529052019119,10.7025718688965,0.907018005847931,-0.800309956073761,1.18903195858002,-1113.90002441406,9.30000019073486,-885.300048828125,1.61921146134538,-0.27805956976218,-0.0283603394336317,ST
4.96666666666667,-2.71198034286499,0.360082060098648,10.9382400512695,1.09756803512573,-2.45428395271301,1.41006994247437,-1113.90002441406,4.5,-875.700012207031,1.60652744193849,-0.238561185923101,-0.0353839601734278,ST
5.0,-2.00796604156494,0.62147057056427,10.7994709014893,0.83841997385025,-3.29270386695862,1.6844619512558,-1130.70007324219,5.70000028610229,-878.100036621094,1.58867035673249,-0.177692495104929,-0.0593890501463315,ST
5.03333333333333,-1.03239476680756,0.575413525104523,10.2168798446655,0.472563982009888,-2.63721203804016,0.975615978240967,-1133.10009765625,5.70000028610229,-875.700012207031,1.58101467323112,-0.0959091432693203,-0.057225890603506,ST
5.06666666666667,-0.314025074243546,0.183629885315895,9.56071758270264,-0.647870004177094,-1.02897000312805,-0.647870004177094,-1133.10009765625,10.5,-873.300048828125,1.58981806172353,-0.031124444448668,-0.018080005594266,ST
5.1,-0.0968991592526436,0.115441590547562,9.10553073883057,-1.15092194080353,0.503051996231079,-1.48628997802734,-1121.10009765625,7.50000047683716,-875.700012207031,1.60560118402423,-0.0115561298205179,-0.0106424928925971,ST
5.13333333333333,0.123217448592186,-0.05742172524333,8.84115123748779,-1.60824191570282,1.6615959405899,-1.88263392448425,-1118.70007324219,3.90000009536743,-887.700012207031,1.62537390711847,0.0110508504567157,0.0092523261088026,ST
5.16666666666667,0.191405743360519,-0.233873903751373,9.12347507476807,-1.86738991737366,1.37958192825317,-1.76830399036407,-1118.70007324219,5.70000028610229,-909.300048828125,1.64304318811799,0.0186428001128377,0.0288077234684317,ST
5.2,-0.0622068680822849,-0.104675017297268,9.18388748168945,-1.94360995292664,0.282013982534409,-1.45580196380615,-1111.5,8.10000038146973,-897.300048828125,1.65737047708754,-0.0071985695734489,0.0148227702818901,ST
5.23333333333333,-0.837400138378143,-0.397166937589645,9.13842868804932,-1.51677799224854,0.0990860015153885,-0.160062000155449,-1116.30004882812,3.90000009536743,-897.300048828125,1.65940226891369,-0.0914115611060103,0.0460914119784941,ST
5.26666666666667,-1.58806955814362,-0.532945394515991,9.11091327667236,-1.40244793891907,0.442075997591019,0.685979962348938,-1118.70007324219,16.5,-887.700012207031,1.65225571869078,-0.173070776082541,0.0606662436380051,ST
5.3,-2.6096978187561,-1.03239476680756,9.56430625915527,-1.63872992992401,1.64635193347931,1.53202199935913,-1123.5,12.9000005722046,-887.700012207031,1.64561383316336,-0.267973964882239,0.109699758270173,ST
5.33333333333333,-2.65874552726746,-1.68975389003754,9.04870700836182,-2.0655620098114,2.64483404159546,1.61586391925812,-1116.30004882812,5.10000038146973,-890.100036621094,1.64917136324642,-0.286233292689293,0.187612542356752,ST
5.36666666666667,-2.85134744644165,-2.77957034111023,9.65342903137207,-3.32319188117981,3.00306797027588,0.419209986925125,-1116.30004882812,14.1000003814697,-885.300048828125,1.67131473875809,-0.281809567097061,0.286284340172705,ST
5.4,-2.99071478843689,-3.28440308570862,9.7539176940918,-3.03355598449707,2.38568592071533,-1.10518991947174,-1092.30004882812,8.70000076293945,-882.900024414062,1.6924362500094,-0.286109197018223,0.330974973963129,ST
5.43333333333333,-3.19707417488098,-3.67259788513184,9.5026969909668,-1.18903195858002,1.82165801525116,-1.52439999580383,-1101.90002441406,11.1000003814697,-882.900024414062,1.72031523906763,-0.306059526919568,0.371972107013581,ST
5.46666666666667,-2.97755575180054,-3.63312029838562,9.58404445648193,0.167683988809586,0.884151995182037,-0.922261953353882,-1092.30004882812,15.9000005722046,-890.100036621094,1.72946909417548,-0.283614626924715,0.362656582320217,ST
5.5,-2.49605059623718,-3.23954224586487,9.17252254486084,1.12805593013763,-0.487807989120483,0.0838419944047928,-1101.90002441406,14.7000007629395,-897.300048828125,1.7233240252002,-0.25045350002804,0.337455039141575,ST
5.53333333333333,-2.07974314689636,-3.03318309783936,8.704176902771,1.65397393703461,-1.02134799957275,1.41769194602966,-1113.90002441406,8.10000038146973,-887.700012207031,1.7089074064625,-0.221054354958751,0.331774823004233,ST
5.56666666666667,-2.06658387184143,-2.96320033073425,9.88251781463623,1.48628997802734,-0.891773998737335,2.01220798492432,-1109.10009765625,9.90000057220459,-897.300048828125,1.68066928442472,-0.197210944469062,0.287985099900285,ST
5.6,-1.43195426464081,-2.43982529640198,9.89029407501221,2.21800184249878,-2.16464805603027,2.24086785316467,-1097.10009765625,9.90000057220459,-882.900024414062,1.64928755677427,-0.136971652139488,0.237393856303492,ST
5.63333333333333,-1.05871307849884,-2.2053530216217,8.83217906951904,2.86587190628052,-3.12502002716064,2.11891603469849,-1097.10009765625,6.30000019073486,-890.100036621094,1.62553012979868,-0.111385754298609,0.239137899257803,ST
5.66666666666667,-1.51988124847412,-1.70351123809814,8.40032005310059,2.53050398826599,-2.69818782806396,1.08994603157043,-1109.10009765625,9.90000057220459,-875.700012207031,1.60703646585705,-0.171209996082654,0.195207008954694,ST
5.7,-2.11264085769653,-1.22798752784729,7.8536171913147,1.89025592803955,-0.724089980125427,0.655492007732391,-1121.10009765625,4.5,-902.100036621094,1.59483298764,-0.258618339650137,0.151492283905505,ST
5.73333333333333,-2.59833312034607,-1.00308573246002,8.38237571716309,1.64635193347931,0.907018005847931,0.975615978240967,-1118.70007324219,5.10000038146973,-885.300048828125,1.58159526827661,-0.300303928935879,0.115801054049916,ST
5.76666666666667,-3.07385683059692,-0.601731836795807,8.56839847564697,1.34909391403198,2.22562384605408,1.57775402069092,-1106.70007324219,9.90000057220459,-890.100036621094,1.55744357242045,-0.347671783012763,0.0669157193431161,ST
5.8,-3.36874127388,-0.37324121594429,9.3956298828125,1.11281192302704,2.80489587783813,2.10367202758789,-1101.90002441406,10.5,-890.100036621094,1.53208246693911,-0.349042344815053,0.0365234354204648,ST
5.83333333333333,-3.40163898468018,-0.0514402948319912,9.1808967590332,1.04421401023865,2.74391984939575,2.59910202026367,-1106.70007324219,11.7000007629395,-890.100036621094,1.49885794226981,-0.359619884348666,0.002108106430972,ST
5.86666666666667,-3.26167368888855,-0.135778456926346,10.314377784729,0.617381989955902,1.96647596359253,3.06404399871826,-1106.70007324219,8.10000038146973,-880.500061035156,1.47513490897175,-0.309793749243211,0.0103779934291106,ST
5.9,-2.61986613273621,-0.24224790930748,10.4286222457886,0.510673999786377,0.0838419944047928,2.33233189582825,-1101.90002441406,7.50000047683716,-885.300048828125,1.4573413908613,-0.246364675506549,0.0212976273249688,ST
5.93333333333333,-1.9128612279892,0.101086162030697,9.91362190246582,-0.0152439996600151,-2.15702605247498,0.754577994346619,-1104.30004882812,8.10000038146973,-890.100036621094,1.44335500704968,-0.186888560684619,-0.0103775825051716,ST
5.96666666666667,-1.64250063896179,0.0514402948319912,10.4495573043823,-0.815553963184357,-3.91770792007446,-1.16616594791412,-1106.70007324219,2.10000014305115,-878.100036621094,1.4553846831844,-0.149100289623884,-0.003192822430285,ST
6.0,-0.518589973449707,0.110058307647705,9.40699481964111,-1.52439999580383,-4.43600368499756,-1.89025592803955,-1106.70007324219,0.300000011920929,-887.700012207031,1.47430595525101,-0.0474076803720554,-0.0088735072076493,ST
6.03333333333333,-0.0448607243597507,0.157311603426933,9.64206504821777,-1.62348592281342,-3.20886182785034,-1.29574000835419,-1101.90002441406,6.30000019073486,-885.300048828125,1.48795244837494,0.000885705164933,-0.0134786214505171,ST
6.06666666666667,-0.0376830063760281,0.216527760028839,9.29274940490723,-1.34909391403198,-1.36433792114258,-0.426831990480423,-1121.10009765625,2.70000004768372,-885.300048828125,1.49277652411341,-0.0016875467682794,-0.0209367529172015,ST
6.1,-0.513804793357849,-0.0233275759965181,8.46192836761475,-1.04421401023865,-0.114329993724823,0.129574000835419,-1113.90002441406,6.30000019073486,-890.100036621094,1.49167562355883,-0.0604076528396727,0.0045487593492317,ST
6.13333333333333,-1.50732028484344,-0.763230443000793,9.11689472198486,-1.64635193347931,0.518296003341675,0.282013982534409,-1123.5,11.1000003814697,-882.900024414062,1.4961393238511,-0.16411859734653,0.0862347324698658,ST
6.16666666666667,-2.29148578643799,-1.22619307041168,8.86029148101807,-1.53202199935913,0.846041977405548,-0.221037998795509,-1113.90002441406,9.30000019073486,-887.700012207031,1.50694616612449,-0.252100953949836,0.140281741846453,ST
6.2,-2.76940202713013,-1.88534665107727,9.08280086517334,-1.60061991214752,1.63110792636871,-0.175305992364883,-1109.10009765625,8.70000076293945,-885.300048828125,1.52526651309479,-0.29279851930086,0.207649540912887,ST
6.23333333333333,-3.00507020950317,-2.54330396652222,9.8197135925293,-1.87501192092896,1.81403601169586,-0.342989981174469,-1111.5,8.70000076293945,-892.500061035156,1.54158086691112,-0.290925845996096,0.257072337524919,ST
6.26666666666667,-2.82443118095398,-3.15101718902588,10.0242776870728,-1.34147191047668,1.37195992469788,-0.663114011287689,-1113.90002441406,14.1000003814697,-892.500061035156,1.56185486567098,-0.264542327645911,0.307351263086065,ST
6.3,-2.68625998497009,-3.43034982681274,10.0386333465576,-0.221037998795509,0.945127964019775,-1.28811800479889,-1116.30004882812,16.5,-906.900024414062,1.58242978032578,-0.248845415230525,0.330321792340842,ST
6.33333333333333,-2.539715051651,-3.01763129234314,9.57327842712402,0.670735955238342,0.754577994346619,-1.37195992469788,-1111.5,8.10000038146973,-906.900024414062,1.59236872779043,-0.248356131035095,0.304892515756548,ST
6.36666666666667,-1.93618881702423,-2.82801985740662,8.99307918548584,0.6250039935112,-0.762199997901917,-0.6250039935112,-1099.5,18.3000011444092,-880.500061035156,1.59747975907956,-0.200987998635169,0.303715629071124,ST
6.4,-1.72923135757446,-2.7921314239502,9.14381122589111,0.945127964019775,-1.17378795146942,0.167683988809586,-1097.10009765625,13.5000009536743,-897.300048828125,1.59258573613858,-0.177087180731809,0.294567905857773,ST
6.43333333333333,-1.58328449726105,-2.5456964969635,9.20960712432861,1.31098401546478,-1.38720393180847,0.640248000621796,-1106.70007324219,15.9000005722046,-897.300048828125,1.58050615558055,-0.162187668668677,0.267143725951293,ST
6.46666666666667,-1.22679126262665,-2.19339036941528,7.92001104354858,2.00458598136902,-1.53964400291443,0.891773998737335,-1106.70007324219,18.3000011444092,-880.500061035156,1.57103831479087,-0.146020633249097,0.266347472388042,ST
6.5,-1.65326714515686,-1.58208811283112,7.61914539337158,2.59910202026367,-1.47104597091675,0.914639949798584,-1109.10009765625,8.70000076293945,-890.100036621094,1.55236127329246,-0.207107210185739,0.199807270704552,ST
6.53333333333333,-2.60730528831482,-0.813474416732788,7.97623634338379,2.82013988494873,-1.01372599601746,1.16616594791412,-1104.30004882812,9.30000019073486,-892.500061035156,1.52147199932235,-0.312780516221882,0.0960718384266549,ST
6.56666666666667,-3.40821862220764,-0.595750391483307,9.3118896484375,2.19513607025146,0.0914639979600906,1.36433792114258,-1118.70007324219,12.3000001907349,-885.300048828125,1.50390878033258,-0.350483863755225,0.05921883852923,ST
6.6,-2.98652791976929,-0.259594053030014,9.72460842132568,0.724089980125427,0.861285984516144,0.983237981796265,-1116.30004882812,12.9000005722046,-882.900024414062,1.48598266627765,-0.299457267719437,0.0249355714392398,ST
6.63333333333333,-2.81067371368408,-0.0149535741657019,10.3012180328369,0.358233988285065,0.739333987236023,0.701223969459534,-1113.90002441406,13.5000009536743,-892.500061035156,1.47351823879075,-0.267691258066279,0.000517699444891,ST
6.66666666666667,-2.70599889755249,-0.205163031816483,11.8892879486084,-0.182927995920181,-0.0152439996600151,0.449698001146317,-1113.90002441406,2.70000004768372,-878.100036621094,1.47292335634938,-0.22379080284234,0.0173762388284782,ST
6.7,-1.58208811283112,-0.213537037372589,11.1529741287231,-0.282013982534409,-1.75305998325348,-0.259148001670837,-1106.70007324219,15.9000005722046,-882.900024414062,1.47510137714225,-0.137914880423257,0.0196882935221156,ST
6.73333333333333,-1.17953789234161,0.200377896428108,10.5823450088501,-0.0304879993200302,-1.10518991947174,-0.6250039935112,-1109.10009765625,6.30000019073486,-880.500061035156,1.4769194181789,-0.10909564169336,-0.0187307285000624,ST
6.76666666666667,-0.171068891882896,0.589768946170807,10.4190521240234,-0.282013982534409,-0.693601965904236,-0.426831990480423,-1118.70007324219,15.3000001907349,-882.900024414062,1.47901814961874,-0.0153278685265429,-0.0559982851604171,ST
6.8,0.79373574256897,0.944467723369598,8.99307918548584,-0.960371971130371,-1.20427596569061,-0.449698001146317,-1121.10009765625,6.30000019073486,-894.900024414062,1.48691198147752,0.0894479652009892,-0.102998260363374,ST
6.83333333333333,0.126208171248436,0.667527556419373,8.53430366516113,-1.41769194602966,0.106707997620106,-0.381099998950958,-1130.70007324219,11.1000003814697,-885.300048828125,1.48950827758984,0.0145891011652766,-0.0756237893455805,ST
6.86666666666667,-0.861325860023499,0.104675017297268,8.12876319885254,-1.95123195648193,1.50915598869324,0.289635986089706,-1111.5,9.30000019073486,-892.500061035156,1.48781266702402,-0.108051010685807,-0.0096024046015713,ST
6.9,-2.29746723175049,-0.95463615655899,8.58395004272461,-2.14178204536438,2.65245604515076,1.10518991947174,-1111.5,11.7000007629395,-894.900024414062,1.49656492368535,-0.264726347242843,0.114049766597071,ST
6.93333333333333,-2.77119636535645,-1.93917953968048,8.93027496337891,-2.40855193138123,3.20123982429504,0.777444005012512,-1097.10009765625,12.9000005722046,-906.900024414062,1.51749604176002,-0.300145994346038,0.217871307807168,ST
6.96666666666667,-2.99191117286682,-3.04036068916321,9.0074348449707,-2.95733594894409,2.95733594894409,-1.41006994247437,-1109.10009765625,15.9000005722046,-892.500061035156,1.56546998757342,-0.308983816586156,0.331918964224525,ST
7.0,-3.55775427818298,-3.75573968887329,9.30351543426514,-2.59910202026367,2.68294382095337,-2.72105383872986,-1106.70007324219,13.5000009536743,-885.300048828125,1.60831974453126,-0.343265877891885,0.390353691110833,ST
7.03333333333333,-3.36036729812622,-4.39694881439209,9.56310939788818,-1.58537602424622,1.76830399036407,-2.40855193138123,-1082.70007324219,15.9000005722046,-887.700012207031,1.64512503450493,-0.310097671584006,0.435314643187064,ST
7.06666666666667,-2.99669623374939,-4.20016002655029,9.77844142913818,0.205793991684914,0.807931959629059,-1.81403601169586,-1082.70007324219,11.7000007629395,-897.300048828125,1.65601501624155,-0.274558078270695,0.406353131841839,ST
7.1,-2.71975612640381,-3.86998510360718,9.45484638214111,1.99696397781372,0.25152599811554,-0.891773998737335,-1097.10009765625,12.9000005722046,-885.300048828125,1.66427883662701,-0.260023439296515,0.385473737114112,ST
7.13333333333333,-2.44341397285461,-3.25629043579102,8.92788219451904,2.87349390983582,-0.602137982845306,0.106707997620106,-1089.90002441406,17.1000003814697,-885.300048828125,1.65807252597321,-0.250751347095995,0.344631754824196,ST
7.16666666666667,-2.57201480865479,-2.74607443809509,9.17431735992432,3.00306797027588,-1.2347639799118,1.46342396736145,-1097.10009765625,8.70000076293945,-885.300048828125,1.63381653152767,-0.261028129274511,0.284840761527164,ST
7.2,-2.46853613853455,-2.71556901931763,8.9894905090332,2.30946588516235,-1.32622802257538,1.84452390670776,-1092.30004882812,9.30000019073486,-894.900024414062,1.62013714982015,-0.255759738108669,0.288350716214588,ST
7.23333333333333,-2.38599228858948,-2.22030663490295,8.44637680053711,1.02897000312805,-1.54726600646973,1.85214591026306,-1087.5,9.90000057220459,-885.300048828125,1.5932910188,-0.264888090290421,0.254262966390377,ST
7.26666666666667,-2.64738082885742,-1.90508532524109,8.09227657318115,1.48628997802734,-0.907018005847931,1.89025592803955,-1089.90002441406,7.50000047683716,-890.100036621094,1.56997117426511,-0.307466483474432,0.227499576754876,ST
7.3,-2.95841503143311,-1.0276095867157,8.68264293670654,1.93598794937134,0.0304879993200302,2.26373386383057,-1094.70007324219,15.3000001907349,-892.500061035156,1.51950750973675,-0.32675871069239,0.113224779166744,ST
7.33333333333333,-2.73590588569641,0.145946890115738,8.55822944641113,2.17989206314087,-0.548784017562866,3.01831197738647,-1087.5,11.1000003814697,-875.700012207031,1.45547754321723,-0.308327436487203,-0.022380726217684,ST
7.36666666666667,-2.50502276420593,0.126208171248436,7.57847166061401,1.65397393703461,-0.907018005847931,2.5152599811554,-1111.5,12.3000001907349,-882.900024414062,1.43771253136317,-0.317514993317128,-0.0209737562039939,ST
7.4,-2.48648023605347,-0.0502440109848976,10.5177459716797,-0.259148001670837,0.0609759986400604,2.65245604515076,-1087.5,8.70000076293945,-878.100036621094,1.41637427351845,-0.23231136487168,0.0041204660514896,ST
7.43333333333333,-1.69394087791443,-0.48449581861496,11.3647165298462,-0.693601965904236,-0.990859985351562,1.21951997280121,-1082.70007324219,8.70000076293945,-887.700012207031,1.40936593339339,-0.146239048580725,0.0434718553933361,ST
7.46666666666667,-1.79562520980835,0.123217448592186,10.7593955993652,-0.365855991840363,-1.49391198158264,-0.106707997620106,-1101.90002441406,8.70000076293945,-899.700012207031,1.40153428753844,-0.162738446753861,-0.0107416550133449,ST
7.5,-1.68257617950439,0.212938904762268,10.8891925811768,0.0685980021953583,-0.106707997620106,0.708845973014832,-1092.30004882812,9.30000019073486,-882.900024414062,1.39336666781799,-0.153076719156856,-0.019852604629354,ST
7.53333333333333,-1.37393438816071,0.294286340475082,10.2790870666504,0.0762199983000755,0.106707997620106,1.2347639799118,-1111.5,12.3000001907349,-894.900024414062,1.38015573659448,-0.132967662967332,-0.0290338590746882,ST
7.56666666666667,-1.44870233535767,0.119030453264713,8.68982124328613,0.121951997280121,-0.457319974899292,1.70732796192169,-1099.5,11.7000007629395,-885.300048828125,1.36607712547784,-0.164302178664751,-0.0144173833538403,ST
7.6,-1.7423905134201,-0.528758406639099,8.1843900680542,-0.297257989645004,-0.243903994560242,1.53202199935913,-1104.30004882812,4.5,-887.700012207031,1.36486804048717,-0.20904479158721,0.064395575403311,ST
7.63333333333333,-1.93020737171173,-1.0335910320282,8.33871078491211,-1.17378795146942,0.221037998795509,0.449698001146317,-1089.90002441406,7.50000047683716,-875.700012207031,1.37141849880422,-0.226262143715831,0.125134837422517,ST
7.66666666666667,-2.30643939971924,-1.70291304588318,8.03066730499268,-1.32622802257538,1.39482593536377,-1.34147191047668,-1099.5,9.90000057220459,-882.900024414062,1.40457393481626,-0.27573163783007,0.211963027006379,ST
7.7,-3.09598803520203,-2.58637022972107,8.34947776794434,-1.07470202445984,2.14940404891968,-2.24848985671997,-1089.90002441406,16.5,-887.700012207031,1.45614030267812,-0.342772791709961,0.303936262552075,ST
7.73333333333333,-3.59184861183167,-3.12948393821716,10.4148654937744,-0.266770005226135,2.37044191360474,-1.88263392448425,-1089.90002441406,13.5000009536743,-885.300048828125,1.47578530071813,-0.322033750186432,0.293821244506578,ST
7.76666666666667,-3.14264321327209,-3.41360187530518,10.1032333374023,0.746955990791321,0.762199997901917,-0.891773998737335,-1094.70007324219,15.3000001907349,-897.300048828125,1.49856528301227,-0.287357100566692,0.325072508860368,ST
7.8,-2.20355868339539,-3.08462333679199,9.23054218292236,1.49391198158264,-1.20427596569061,-0.388722002506256,-1080.30004882812,10.5,-887.700012207031,1.50071782448373,-0.220498967020804,0.31989964198774,ST
7.83333333333333,-2.12819266319275,-2.71736359596252,9.41895771026611,1.6768399477005,-2.56861400604248,0.167683988809586,-1092.30004882812,17.7000007629395,-892.500061035156,1.4863973122095,-0.209553967083421,0.277649634979984,ST
7.86666666666667,-2.17066073417664,-2.57799625396729,10.0063333511353,1.21951997280121,-3.25459384918213,0.327746003866196,-1092.30004882812,12.9000005722046,-887.700012207031,1.47218527305254,-0.201704859818137,0.249652100430465,ST
7.9,-1.83211195468903,-1.69095015525818,8.64974594116211,1.01372599601746,-3.57471799850464,-0.0076219998300075,-1099.5,8.10000038146973,-894.900024414062,1.45570753259062,-0.198833454691698,0.191113234479089,ST
7.93333333333333,-2.19458651542664,-1.2297819852829,9.0253791809082,0.663114011287689,-2.42379593849182,0.586893975734711,-1097.10009765625,9.90000057220459,-890.100036621094,1.43606203890727,-0.232333611226098,0.133955525438732,ST
7.96666666666667,-1.94934797286987,-0.852951884269714,8.43441390991211,0.571649968624115,-1.08232402801514,0.396344006061554,-1116.30004882812,2.70000004768372,-882.900024414062,1.42469290526135,-0.224215266058974,0.0996247443780473,ST
8.0,-2.07794857025146,-0.511412262916565,8.84653472900391,0.358233988285065,-0.266770005226135,0.594515979290009,-1104.30004882812,8.10000038146973,-875.700012207031,1.41004941211041,-0.229923611475797,0.0569183594277956,ST
8.03333333333333,-2.14553880691528,-0.103478737175465,8.54207992553711,0.868907988071442,0.0533539988100529,1.12043392658234,-1113.90002441406,11.7000007629395,-885.300048828125,1.38990619912385,-0.246168089614703,0.0101369534397204,ST
8.06666666666667,-1.64549136161804,0.0173461455851793,9.6043815612793,0.243903994560242,-0.647870004177094,1.94360995292664,-1109.10009765625,12.3000001907349,-890.100036621094,1.36895793273348,-0.168625115099474,-0.0027967270241403,ST
8.1,-1.56773269176483,-0.0299071483314037,10.2270488739014,-0.571649968624115,-1.70732796192169,1.63110792636871,-1109.10009765625,8.10000038146973,-887.700012207031,1.35125076997173,-0.149145613872118,0.0034904089249692,ST
8.13333333333333,-1.06469452381134,0.0430662930011749,9.8316764831543,-0.594515979290009,-0.990859985351562,0.830797970294952,-1097.10009765625,11.7000007629395,-880.500061035156,1.34111360389264,-0.106164868570248,-0.0034921582943684,ST
8.16666666666667,-1.34641981124878,-0.165087461471558,10.8808183670044,-0.282013982534409,0.129574000835419,0.907018005847931,-1111.5,11.7000007629395,-890.100036621094,1.33414909909687,-0.123334036663603,0.0154468290337047,ST
8.2,-1.30215728282928,-0.776987731456757,10.923885345459,0.0914639979600906,-0.503051996231079,0.282013982534409,-1116.30004882812,11.7000007629395,-890.100036621094,1.33786206169614,-0.117512182736339,0.0707217311618308,ST
8.23333333333333,-1.3338588476181,-1.04675018787384,9.94651985168457,-0.0457319989800453,-0.442075997591019,-0.198172003030777,-1106.70007324219,11.7000007629395,-882.900024414062,1.34359220370344,-0.131768557764617,0.104937188866706,ST
8.26666666666667,-1.53304040431976,-1.29378318786621,9.12168025970459,-0.266770005226135,0.899396002292633,-0.0304879993200302,-1104.30004882812,12.9000005722046,-882.900024414062,1.35011820624965,-0.166413140457385,0.141383451261413,ST
8.3,-1.74897003173828,-1.55277919769287,8.47448921203613,0.175305992364883,1.63872992992401,0.266770005226135,-1111.5,11.1000003814697,-878.100036621094,1.35793515937258,-0.203145397565079,0.180891332781858,ST
8.33333333333333,-1.78904557228088,-1.8685986995697,8.03186416625977,0.236281991004944,2.14940404891968,0.182927995920181,-1109.10009765625,5.70000028610229,-894.900024414062,1.37108771450828,-0.21735007466243,0.228236022063083,ST
8.36666666666667,-1.67539846897125,-2.08632278442383,8.00913429260254,-0.114329993724823,1.38720393180847,-0.213415995240211,-1099.5,11.1000003814697,-892.500061035156,1.38174859483031,-0.201997507189534,0.255198404540362,ST
8.4,-2.06000447273254,-2.16767001152039,9.33820819854736,-0.37347799539566,0.0457319989800453,-0.426831990480423,-1101.90002441406,12.3000001907349,-899.700012207031,1.37967069323074,-0.211565390694892,0.228930238202932,ST
8.43333333333333,-1.92841291427612,-2.04624700546265,8.95479869842529,0.83841997385025,-1.00610399246216,-0.152439996600151,-1092.30004882812,12.3000001907349,-875.700012207031,1.37955682655058,-0.205164505740366,0.223162788262082,ST
8.46666666666667,-1.77050316333771,-2.14374446868896,8.65991401672363,0.640248000621796,-1.65397393703461,-0.0457319989800453,-1104.30004882812,3.30000019073486,-897.300048828125,1.38093136039392,-0.193098229251394,0.241419593862885,ST
8.5,-2.00976037979126,-2.31481337547302,9.78203010559082,0.381099998950958,-1.31860601902008,-0.647870004177094,-1099.5,5.10000038146973,-892.500061035156,1.38304316593511,-0.194829667082832,0.231820587030554,ST
8.53333333333333,-2.63661432266235,-2.4517879486084,10.6858243942261,0.442075997591019,-0.861285984516144,-0.731711983680725,-1111.5,9.30000019073486,-890.100036621094,1.38806529640094,-0.234238370086709,0.224987909223202,ST
8.56666666666667,-2.87467503547668,-1.96131074428558,11.2217607498169,0.487807989120483,-1.21189796924591,-0.609759986400604,-1104.30004882812,8.70000076293945,-890.100036621094,1.38035120426447,-0.244905982458968,0.17240755462315,ST
8.6,-2.09469676017761,-0.766819298267365,9.7957878112793,2.20275783538818,-4.02441596984863,0.685979962348938,-1104.30004882812,6.90000009536743,-880.500061035156,1.35229673392103,-0.203142337778314,0.0739553925464847,ST
8.63333333333333,-1.00368392467499,-0.0322997197508812,8.17123126983643,2.64483404159546,-5.32015609741211,1.46342396736145,-1125.90002441406,4.5,-890.100036621094,1.32830094501695,-0.112992150783874,-0.0009097111177619,ST
8.66666666666667,-0.547300815582275,0.525767683982849,8.74604606628418,1.50153398513794,-2.72867584228516,0.990859985351562,-1125.90002441406,9.30000019073486,-882.900024414062,1.31530090256861,-0.0575589302264383,-0.0627060970165734,ST
8.7,-0.860129594802856,0.663938701152802,8.41288089752197,0.205793991684914,-0.571649968624115,0.518296003341675,-1125.90002441406,6.90000009536743,-892.500061035156,1.30957351600468,-0.100458452272164,-0.0791797133444366,ST
8.73333333333333,-0.681882977485657,0.297277063131332,9.1390266418457,-0.937505960464478,0.152439996600151,0.571649968624115,-1125.90002441406,13.5000009536743,-906.900024414062,1.30742672428495,-0.0746982527016147,-0.0310092024378666,ST
8.76666666666667,-0.906784772872925,-0.215929612517357,9.92079925537109,-1.59299790859222,-0.403965979814529,0.769822001457214,-1118.70007324219,9.90000057220459,-904.500061035156,1.30251897397144,-0.0904451549509671,0.0243825140122391,ST
8.8,-1.30275535583496,-0.620274245738983,11.3958196640015,-1.15092194080353,0.449698001146317,0.868907988071442,-1118.70007324219,8.70000076293945,-885.300048828125,1.29602094399464,-0.114505906223226,0.0561887688567835,ST
8.83333333333333,-0.626853823661804,-0.890634894371033,11.2229566574097,-0.685979962348938,0.846041977405548,0.609759986400604,-1137.90002441406,10.5,-880.500061035156,1.29232635180108,-0.0572425757222207,0.0803085266263462,ST
8.86666666666667,-0.293090045452118,-0.795530140399933,10.5494480133057,-0.106707997620106,0.937505960464478,-0.594515979290009,-1113.90002441406,3.90000009536743,-885.300048828125,1.29877790796248,-0.0292740326618005,0.0754916424163927,ST
8.9,-0.735715866088867,-0.857138872146606,10.3173685073853,0.388722002506256,0.663114011287689,-0.891773998737335,-1116.30004882812,7.50000047683716,-890.100036621094,1.30886459137733,-0.0719333369271303,0.0823208659059519,ST
8.93333333333333,-0.595750391483307,-0.940878868103027,8.64854907989502,-0.182927995920181,0.335367977619171,-1.15854394435883,-1135.5,12.3000001907349,-906.900024414062,1.3221946681351,-0.068739881389254,0.108796949785764,ST
8.96666666666667,-0.784165441989899,-1.03717994689941,7.79679346084595,-0.556405961513519,0.510673999786377,-0.640248000621796,-1121.10009765625,6.90000009536743,-885.300048828125,1.33057709171754,-0.100069205238367,0.133316661964022,ST
9.0,-1.09819054603577,-1.65565979480743,7.61854696273804,-0.815553963184357,0.846041977405548,-0.388722002506256,-1128.30004882812,8.10000038146973,-899.700012207031,1.34527263668904,-0.141220339903274,0.215522175404461,ST
9.03333333333333,-1.52885341644287,-2.31062626838684,8.2382230758667,-0.952749967575073,1.53964400291443,-0.632625997066498,-1113.90002441406,7.50000047683716,-885.300048828125,1.36350349720172,-0.179080664285685,0.275396773019047,ST
9.06666666666667,-1.40085089206696,-2.66353058815002,8.584547996521,-0.937505960464478,1.65397393703461,-0.457319974899292,-1104.30004882812,10.5,-882.900024414062,1.37620552407692,-0.157138611247511,0.302731139211305,ST
9.1,-1.90987050533295,-3.00088334083557,10.4411840438843,0.198172003030777,0.114329993724823,-0.335367977619171,-1111.5,9.90000057220459,-899.700012207031,1.37614616865867,-0.174033514352543,0.279653393156852,ST
9.13333333333333,-2.20774579048157,-2.81486082077026,11.4909248352051,0.663114011287689,-0.480185985565186,-0.0152439996600151,-1101.90002441406,14.7000007629395,-887.700012207031,1.36911812532278,-0.183659139658948,0.239088451996848,ST
9.16666666666667,-1.48459088802338,-1.86142086982727,8.17063331604004,2.21800184249878,-0.792688012123108,1.38720393180847,-1116.30004882812,8.10000038146973,-899.700012207031,1.35439947845555,-0.174526813712746,0.219670326666063,ST
9.2,-1.78844749927521,-1.93798327445984,9.63847541809082,1.32622802257538,0.487807989120483,2.44666194915771,-1116.30004882812,11.7000007629395,-875.700012207031,1.3302544891676,-0.181602298048075,0.195396058253729,ST
9.23333333333333,-2.01634001731873,-1.73581087589264,10.3909397125244,1.28049600124359,0.647870004177094,2.4923939704895,-1113.90002441406,15.9000005722046,-885.300048828125,1.30393280884321,-0.190919836848384,0.162530459924851,ST
9.26666666666667,-1.79562520980835,-1.60721015930176,9.66060733795166,1.79879200458527,0.67835795879364,2.46952795982361,-1121.10009765625,12.3000001907349,-894.900024414062,1.28387436438435,-0.183203923257278,0.160967431003081,ST
9.3,-1.08742392063141,-1.33266258239746,7.91881465911865,1.74543797969818,-0.0533539988100529,1.89787793159485,-1104.30004882812,6.30000019073486,-885.300048828125,1.26796194428565,-0.135086787031165,0.163233227879413,ST
9.33333333333333,-1.69214642047882,-1.30275535583496,9.83466720581055,1.40244793891907,0.0152439996600151,1.37195992469788,-1116.30004882812,0.900000035762787,-885.300048828125,1.25186640381309,-0.169241109365568,0.128884741429074,ST
9.36666666666667,-1.33326065540314,-0.404344648122787,8.53908920288086,1.62348592281342,-1.01372599601746,0.487807989120483,-1116.30004882812,12.3000001907349,-885.300048828125,1.23548390568957,-0.153004871049325,0.0444322795620702,ST
9.4,-1.83809340000153,-0.186022460460663,9.66658878326416,1.53964400291443,-1.2500079870224,0.792688012123108,-1104.30004882812,3.90000009536743,-878.100036621094,1.22555024751953,-0.185677986691,0.0163180348379793,ST
9.43333333333333,-1.62455630302429,0.174059599637985,8.78731822967529,1.74543797969818,-1.38720393180847,1.14329993724823,-1109.10009765625,5.10000038146973,-887.700012207031,1.21065018730368,-0.18031669005702,-0.0231632564963186,ST
9.46666666666667,-1.93140363693237,0.28411790728569,9.5086784362793,1.31860601902008,0.297257989645004,1.71494996547699,-1116.30004882812,6.90000009536743,-887.700012207031,1.19396141412032,-0.200714724522232,-0.0327775719855125,ST
9.5,-1.30754053592682,0.23925718665123,10.2396097183228,0.685979962348938,0.327746003866196,1.51677799224854,-1106.70007324219,5.70000028610229,-885.300048828125,1.18055689961369,-0.127526934999075,-0.0249058974728414,ST
9.53333333333333,-1.31531643867493,0.308641761541367,11.0512895584106,-0.0609759986400604,-0.419209986925125,0.586893975734711,-1104.30004882812,6.90000009536743,-887.700012207031,1.17452369941538,-0.117667203488186,-0.027929796721508,ST
9.56666666666667,-1.05093717575073,0.333165645599365,10.4130706787109,-0.739333987236023,0.37347799539566,-0.0152439996600151,-1118.70007324219,6.30000019073486,-882.900024414062,1.17350839251494,-0.101203767939225,-0.0306900428971767,ST
9.6,-0.496458679437637,0.116039738059044,10.0834941864014,-1.76068198680878,0.861285984516144,-0.37347799539566,-1111.5,8.10000038146973,-875.700012207031,1.17779892814375,-0.0507440129707594,-0.0084210706158304,ST
9.63333333333333,-0.171068891882896,-0.138769164681435,10.5793542861938,-1.92836594581604,0.342989981174469,-1.33385002613068,-1111.5,6.30000019073486,-890.100036621094,1.19207925587265,-0.0167502465267296,0.0165048795580965,ST
9.66666666666667,-0.0986935868859291,-0.412120521068573,9.24489784240723,-1.44055795669556,-0.67835795879364,-1.89787793159485,-1106.70007324219,11.1000003814697,-885.300048828125,1.2106117800533,-0.0093349370901047,0.0470596189930977,ST
9.7,-0.677695989608765,-0.852951884269714,8.1425199508667,-0.884151995182037,-0.442075997591019,-1.6844619512558,-1101.90002441406,12.9000005722046,-887.700012207031,1.22866358096614,-0.0814308913873504,0.10608018009424,ST
9.73333333333333,-1.5802937746048,-1.14065861701965,8.44577884674072,-0.548784017562866,0.46494197845459,-0.884151995182037,-1121.10009765625,7.50000047683716,-904.500061035156,1.24096763014989,-0.183852640058726,0.135480183395286,ST
9.76666666666667,-2.02830290794373,-1.53722739219666,8.70597076416016,-0.457319974899292,1.30336201190948,0.0076219998300075,-1109.10009765625,5.10000038146973,-887.700012207031,1.25028292678355,-0.227739636440464,0.175630108683782,ST
9.8,-3.2568883895874,-1.7483719587326,9.84902191162109,-0.221037998795509,2.73629784584045,0.46494197845459,-1106.70007324219,9.90000057220459,-892.500061035156,1.24996555846289,-0.319508833812116,0.176084223591042,ST
9.83333333333333,-3.18152236938477,-2.2310733795166,8.55224800109863,-0.342989981174469,4.03203773498535,0.342989981174469,-1094.70007324219,5.10000038146973,-880.500061035156,1.28105771382414,-0.352447368308991,0.256136804110734,ST
9.86666666666667,-3.308926820755,-2.78555178642273,9.79877853393555,-1.76830399036407,3.73477983474731,0.282013982534409,-1097.10009765625,9.30000019073486,-897.300048828125,1.29052154881279,-0.320496605540244,0.280469122341791,ST
9.9,-3.24612188339233,-2.8220386505127,9.30531024932861,-0.663114011287689,2.40855193138123,0.0152439996600151,-1089.90002441406,15.3000001907349,-882.900024414062,1.29996873638835,-0.326224522095903,0.296006960970477,ST
9.93333333333333,-2.58457589149475,-2.92312479019165,8.79030895233154,0.152439996600151,1.2500079870224,0.297257989645004,-1077.90002441406,15.9000005722046,-887.700012207031,1.30881106756333,-0.274352838559444,0.320808993835755,ST
9.96666666666667,-2.64379191398621,-2.93688201904297,9.54038047790527,0.746955990791321,0.0762199983000755,0.899396002292633,-1087.5,12.3000001907349,-890.100036621094,1.2965083946521,-0.259509906196463,0.296965588502191,ST
10.0,-2.42606782913208,-2.45836758613586,9.3597412109375,2.03507399559021,-0.78506600856781,1.29574000835419,-1087.5,15.3000001907349,-878.100036621094,1.27654008089652,-0.244894277297926,0.252714767840953,ST
10.0333333333333,-1.92302966117859,-1.86919677257538,8.43262004852295,2.36281991004944,-1.43293595314026,1.73019397258759,-1087.5,11.1000003814697,-885.300048828125,1.25306010135618,-0.217290900362231,0.213274372721925,ST
10.0666666666667,-2.08692073822021,-1.30873680114746,8.86029148101807,2.05031800270081,-1.65397393703461,1.6920839548111,-1092.30004882812,9.30000019073486,-887.700012207031,1.22226742907084,-0.226483248976453,0.142334834122126,ST
10.1,-2.14434266090393,-0.757847130298615,8.3937406539917,1.96647596359253,-2.45428395271301,1.95885396003723,-1085.10009765625,15.3000001907349,-885.300048828125,1.19287193004206,-0.245155750404534,0.0857257442607631,ST
10.1333333333333,-2.41410493850708,-0.528758406639099,8.76817798614502,2.21800184249878,-2.94971394538879,2.0579400062561,-1092.30004882812,8.10000038146973,-885.300048828125,1.1696788228603,-0.263246851848784,0.055344429716059,ST
10.1666666666667,-2.41829204559326,-0.240453481674194,9.25925350189209,2.5076379776001,-3.42989993095398,1.65397393703461,-1099.5,5.10000038146973,-890.100036621094,1.15049451911356,-0.24948065179672,0.0208493289429157,ST
10.2,-1.93977761268616,0.515001118183136,8.66589546203613,1.90549993515015,-4.13874578475952,0.327746003866196,-1111.5,8.70000076293945,-882.900024414062,1.13418413126125,-0.212632284814695,-0.0626236203320928,ST
10.2333333333333,-2.17843675613403,1.07007777690887,9.72879505157471,1.31098401546478,-3.49087595939636,0.0762199983000755,-1101.90002441406,9.90000057220459,-882.900024414062,1.12941575246561,-0.212934755234106,-0.111681068231569,ST
10.2666666666667,-1.82792496681213,0.986935913562775,10.0805034637451,0.952749967575073,-2.46190595626831,0.602137982845306,-1113.90002441406,6.90000009536743,-890.100036621094,1.1300969223212,-0.17421110562702,-0.0993812449177558,ST
10.3,-1.27045571804047,0.0496458671987057,12.0071220397949,-0.830797970294952,-1.15092194080353,0.419209986925125,-1116.30004882812,5.70000028610229,-878.100036621094,1.13853394718186,-0.103465258492204,-0.0028421312484714,ST
10.3333333333333,-0.243444189429283,-0.157909750938416,10.1540746688843,-1.33385002613068,-1.6615959405899,-0.87652999162674,-1125.90002441406,8.70000076293945,-880.500061035156,1.14770364345988,-0.0211320575548237,0.0178874439853675,ST
10.3666666666667,-0.739304721355438,-0.482103228569031,11.2935371398926,-1.16616594791412,-0.685979962348938,-1.2347639799118,-1116.30004882812,5.10000038146973,-890.100036621094,1.16033108887532,-0.0639811590405908,0.0448089099535974,ST
10.4,-0.119030453264713,-0.132787734270096,9.44766807556152,0.0228659994900227,-1.18140995502472,-0.754577994346619,-1099.5,6.30000019073486,-887.700012207031,1.16700529356876,-0.0105437748986105,0.0140436807415352,ST
10.4333333333333,0.318212062120438,0.130395174026489,7.86318731307983,0.800309956073761,-1.51677799224854,0.533540010452271,-1121.10009765625,6.30000019073486,-875.700012207031,1.16190235607663,0.0430690054029151,-0.0179191506488948,ST
10.4666666666667,0.278734624385834,-0.32538977265358,7.73997020721436,0.571649968624115,-1.18140995502472,1.01372599601746,-1118.70007324219,12.3000001907349,-890.100036621094,1.14902740387575,0.0379592566954833,0.0410230807613169,ST
10.5,-0.750071287155151,-1.05691862106323,9.70785999298096,-0.693601965904236,0.266770005226135,0.647870004177094,-1121.10009765625,-0.300000011920929,-887.700012207031,1.14353996686369,-0.0771698740287532,0.109527959629228,ST
10.5333333333333,-1.34641981124878,-1.35419571399689,9.38905048370361,-1.89025592803955,1.39482593536377,-0.297257989645004,-1137.90002441406,5.10000038146973,-897.300048828125,1.14994346464323,-0.14325305019426,0.146625256701594,ST
10.5666666666667,-2.16826820373535,-1.69872605800629,10.2216653823853,-1.92836594581604,2.69056582450867,0.121951997280121,-1121.10009765625,6.90000009536743,-885.300048828125,1.15307751392207,-0.210870033534532,0.168145120997303,ST
10.6,-2.71317648887634,-2.02112507820129,10.3706026077271,-1.6692179441452,3.41465592384338,0.731711983680725,-1111.5,7.50000047683716,-880.500061035156,1.15467601190642,-0.257403252767881,0.195330515610085,ST
10.6333333333333,-2.30703735351562,-2.10965037345886,9.31428241729736,-1.14329993724823,3.02593398094177,1.2576299905777,-1111.5,15.9000005722046,-882.900024414062,1.15328063577366,-0.242675611779928,0.224473218673985,ST
10.6666666666667,-2.01215291023254,-2.60730528831482,10.5081758499146,-1.265251994133,1.50153398513794,1.34147191047668,-1099.5,9.30000019073486,-885.300048828125,1.14516572190487,-0.186891555570701,0.245097128821876,ST
10.7,-1.43135607242584,-2.72155046463013,9.05947303771973,-0.411587983369827,-0.533540010452271,0.518296003341675,-1106.70007324219,11.7000007629395,-897.300048828125,1.1461893242306,-0.149586095334152,0.292327440919467,ST
10.7333333333333,-1.42716908454895,-2.53792071342468,8.99008846282959,0.0457319989800453,-0.487807989120483,0.647870004177094,-1104.30004882812,5.70000028610229,-892.500061035156,1.13631579523197,-0.151091781372663,0.274880716212025,ST
10.7666666666667,-1.55517172813416,-2.19996976852417,8.95061111450195,0.716467976570129,-0.777444005012512,1.50153398513794,-1113.90002441406,9.30000019073486,-885.300048828125,1.11593347432172,-0.166441008696014,0.239319505486955,ST
10.8,-1.47801125049591,-2.02232146263123,9.26942157745361,1.41006994247437,-1.46342396736145,2.66007804870605,-1109.10009765625,7.50000047683716,-882.900024414062,1.08468755609232,-0.153034055468106,0.211583930511068,ST
10.8333333333333,-1.24353921413422,-1.81596207618713,8.39852523803711,2.01982998847961,-1.45580196380615,2.94971394538879,-1106.70007324219,7.50000047683716,-890.100036621094,1.05619722875157,-0.142317564177145,0.208625368637466,ST
10.8666666666667,-1.51689052581787,-1.15920102596283,8.62103462219238,1.6692179441452,-0.3125019967556,2.20275783538818,-1111.5,9.30000019073486,-887.700012207031,1.02511258067056,-0.172575039547687,0.130157792428938,ST
10.9,-2.24961566925049,-1.18970632553101,9.89089202880859,1.50153398513794,1.44817996025085,1.6692179441452,-1104.30004882812,7.50000047683716,-882.900024414062,1.01135278222633,-0.224883029841931,0.116510563354935,DLL
10.9333333333333,-2.65515661239624,-1.17654716968536,10.6505336761475,1.32622802257538,1.93598794937134,1.17378795146942,-1121.10009765625,9.30000019073486,-885.300048828125,1.00323181088741,-0.246454198658354,0.107299020136839,DLL
10.9666666666667,-3.01404237747192,-0.884055316448212,10.6385707855225,1.89787793159485,2.11891603469849,1.33385002613068,-1106.70007324219,12.9000005722046,-890.100036621094,0.990054758122375,-0.279013632912571,0.0790509258987252,DLL
11.0,-2.08692073822021,0.170470744371414,8.39074993133545,2.43141794204712,0.731711983680725,2.01982998847961,-1097.10009765625,6.90000009536743,-890.100036621094,0.949686676996367,-0.244953467096451,-0.0253313220023341,DLL
11.0333333333333,-1.87278568744659,0.925327181816101,8.66768932342529,2.26373386383057,0.144817993044853,2.5152599811554,-1099.5,3.90000009536743,-890.100036621094,0.910955108159436,-0.211433904157077,-0.11115355275774,DLL
11.0666666666667,-1.08742392063141,1.57730305194855,8.21250343322754,1.93598794937134,-0.990859985351562,2.5152599811554,-1104.30004882812,12.3000001907349,-880.500061035156,0.877444409595911,-0.126864049621203,-0.193550049123064,DLL
11.1,-1.18252861499786,1.61020088195801,9.17192459106445,0.6250039935112,-1.65397393703461,2.39330792427063,-1106.70007324219,6.90000009536743,-880.500061035156,0.86042927566931,-0.122744232751778,-0.175343545356934,DLL
11.1333333333333,-0.992319166660309,1.04256319999695,9.56729698181152,-0.716467976570129,-1.51677799224854,1.92836594581604,-1111.5,5.10000038146973,-885.300048828125,0.849257904433811,-0.0997672480245879,-0.107643769997917,DLL
11.1666666666667,-1.58687329292297,0.264977335929871,11.3665113449097,-1.84452390670776,-0.586893975734711,1.42531394958496,-1104.30004882812,2.10000014305115,-887.700012207031,0.843597693459352,-0.137558136112509,-0.0205255734275485,DLL
11.2,-1.64967834949493,-0.0239257179200649,11.6560125350952,-1.18140995502472,-1.15092194080353,1.30336201190948,-1118.70007324219,8.70000076293945,-890.100036621094,0.832710441145448,-0.138594684225504,0.0037699204431065,DLL
11.2333333333333,-2.65994191169739,0.0651975870132446,10.7276945114136,-0.495429992675781,-2.17989206314087,2.14940404891968,-1113.90002441406,11.7000007629395,-875.700012207031,0.809346661228084,-0.239106294195917,-0.0061076543738445,DLL
11.2666666666667,-2.78435564041138,-0.034094151109457,7.86378574371338,-1.72257196903229,-3.69666981697083,7.16468000411987,-1116.30004882812,9.30000019073486,-873.300048828125,0.739925518094253,-0.333776111082566,0.0029961485468827,DLL
11.3,-2.57679986953735,-0.748276829719543,7.55693817138672,-3.81099987030029,-4.06252574920654,10.8918380737305,-1133.10009765625,16.5,-882.900024414062,0.654946184736008,-0.321950452953294,0.0987025181458717,DLL
11.3333333333333,-3.41659259796143,-1.19269704818726,8.79389762878418,-4.84759187698364,-3.11739802360535,13.940637588501,-1121.10009765625,17.7000007629395,-880.500061035156,0.519549513022614,-0.36529980114434,0.13373901394558,DLL
11.3666666666667,-2.52416324615479,-1.92721664905548,8.02468585968018,-5.0838737487793,-1.61586391925812,15.960467338562,-1128.30004882812,18.9000015258789,-887.700012207031,0.389079619232058,-0.300634476302525,0.235850100906814,DLL
11.4,-2.03607869148254,-2.69882106781006,8.11022090911865,-4.93905591964722,0.350611984729767,15.7089414596558,-1125.90002441406,20.1000003814697,-892.500061035156,0.259516563009063,-0.24318885463378,0.323352245261594,DLL
11.4333333333333,-2.51279854774475,-2.97097611427307,10.030858039856,-4.79423809051514,0.121951997280121,14.8705215454102,-1130.70007324219,15.3000001907349,-875.700012207031,0.105320355667422,-0.243362985862996,0.290192585023448,DLL
11.4666666666667,-2.55407047271729,-3.07684755325317,10.1917581558228,-3.81099987030029,-2.30184388160706,14.5427761077881,-1128.30004882812,26.1000003814697,-890.100036621094,-0.041464545886167,-0.238962899783612,0.293639100825722,DLL
11.5,-2.26815819740295,-2.88125467300415,9.76229190826416,-3.32319188117981,-2.97257995605469,14.0321016311646,-1125.90002441406,23.1000003814697,-890.100036621094,-0.18663541982665,-0.221236860882403,0.287182603707929,DLL
11.5333333333333,-1.99779748916626,-2.68386745452881,9.67974758148193,-2.37044191360474,-2.16464805603027,13.4452075958252,-1125.90002441406,24.3000011444092,-882.900024414062,-0.324642242545907,-0.19896804146004,0.269859455844581,DLL
11.5666666666667,-1.87158930301666,-2.38479614257812,9.57626914978027,-2.09605002403259,-1.80641400814056,12.0046501159668,-1125.90002441406,29.7000007629395,-880.500061035156,-0.453283209989152,-0.189431181485841,0.243700481540479,DLL
11.6,-1.36376595497131,-2.13836121559143,8.77655220031738,-2.17989206314087,-1.94360995292664,10.5717134475708,-1140.30004882812,32.7000007629395,-870.900024414062,-0.560966571500253,-0.150973812238853,0.239941049629992,DLL
11.6333333333333,-0.912168025970459,-2.13537049293518,9.22575759887695,-1.83690190315247,-2.02745199203491,8.25462627410889,-1123.5,36.9000015258789,-887.700012207031,-0.652014938234895,-0.0958952385131326,0.229233629225911,DLL
11.6666666666667,-1.13108837604523,-1.45109486579895,8.59770679473877,-0.800309956073761,-1.82165801525116,3.97868394851685,-1123.5,40.5,-875.700012207031,-0.700995281696747,-0.126995510435152,0.167725963723662,DLL
11.7,-1.63950991630554,-1.37871956825256,10.8527059555054,-0.442075997591019,-1.46342396736145,2.42379593849182,-1130.70007324219,38.7000007629395,-868.500061035156,-0.732401953753647,-0.146737252037559,0.126512409104077,DLL
11.7333333333333,-1.07725548744202,-1.00787091255188,8.78432750701904,-0.0533539988100529,-3.09453201293945,0.891773998737335,-1125.90002441406,34.5,-854.100036621094,-0.746190755474377,-0.116082406456997,0.114089846845767,DLL
11.7666666666667,-0.436046212911606,-0.503636360168457,8.99786472320557,-0.541162014007568,-2.4847719669342,1.65397393703461,-1128.30004882812,36.9000015258789,-875.700012207031,-0.768842248850691,-0.044262591785937,0.0567822472064001,DLL
11.8,0.123217448592186,-0.495262384414673,8.78372955322266,-1.21951997280121,-3.01068997383118,1.52439999580383,-1130.70007324219,35.7000007629395,-873.300048828125,-0.785339467837812,0.0190248281937807,0.05850591953765,DLL
11.8333333333333,0.469542235136032,-1.03837621212006,9.89986419677734,-2.0579400062561,-2.88111591339111,2.02745199203491,-1145.10009765625,44.1000022888184,-861.300048828125,-0.811329949328666,0.0517402302588199,0.108287281980174,DLL
11.8666666666667,0.0891233012080193,-1.10776078701019,11.0542802810669,-1.93598794937134,-2.23324584960938,2.19513607025146,-1145.10009765625,29.1000003814697,-873.300048828125,-0.834459835832702,0.0115482695783195,0.10331170972388,DLL
11.9,0.668723821640015,-1.74897003173828,10.9244832992554,-0.731711983680725,-1.04421401023865,2.42379593849182,-1142.70007324219,33.3000030517578,-863.700012207031,-0.861115292771585,0.061440764443364,0.160236147552234,DLL
11.9333333333333,0.503038227558136,-1.67719292640686,9.92139720916748,-0.388722002506256,0.381099998950958,0.221037998795509,-1137.90002441406,36.9000015258789,-858.900024414062,-0.86287012821789,0.0492446619479492,0.16814781234403,DLL
11.9666666666667,-0.605918824672699,-1.59046220779419,9.89807033538818,0.198172003030777,1.55488801002502,-0.0228659994900227,-1149.90002441406,42.3000030517578,-863.700012207031,-0.860194454927274,-0.0629160143243046,0.159015719301058,DLL
12.0,-0.835007607936859,-1.68795943260193,8.76399040222168,-0.282013982534409,2.0579400062561,0.289635986089706,-1142.70007324219,38.7000007629395,-868.500061035156,-0.856900030364287,-0.0968953897393081,0.190769400294302,DLL
12.0333333333333,-1.49176859855652,-1.82134532928467,8.80526256561279,-0.670735955238342,2.30946588516235,0.548784017562866,-1140.30004882812,36.9000015258789,-854.100036621094,-0.856724901126592,-0.168470386913657,0.205104983961364,DLL
12.0666666666667,-1.89192616939545,-2.03069543838501,8.65752124786377,-0.495429992675781,2.33233189582825,0.739333987236023,-1118.70007324219,39.9000015258789,-870.900024414062,-0.854649667747789,-0.213837614733201,0.23115836444221,DLL
12.1,-2.57739806175232,-2.36146855354309,9.77903938293457,-0.350611984729767,1.85214591026306,0.525918006896973,-1125.90002441406,42.3000030517578,-880.500061035156,-0.854796951007172,-0.254128096124091,0.237518288219639,DLL
12.1333333333333,-2.40513277053833,-2.39675879478455,8.18977355957031,-0.274392008781433,0.87652999162674,-0.190549999475479,-1128.30004882812,42.9000015258789,-858.900024414062,-0.838899724269069,-0.276082401719985,0.285352276623433,DLL
12.1666666666667,-2.68326926231384,-2.51937818527222,8.03306007385254,0.121951997280121,1.11281192302704,0.0914639979600906,-1133.10009765625,37.5,-875.700012207031,-0.830944476063346,-0.310405377837514,0.303814527302525,DLL
12.2,-2.86929178237915,-2.42128276824951,8.87883472442627,-0.0304879993200302,0.0762199983000755,0.434453994035721,-1123.5,39.3000030517578,-863.700012207031,-0.846131423954447,-0.302561802716857,0.266106569382138,DLL
12.2333333333333,-2.67190456390381,-2.22688627243042,8.69161510467529,-0.0304879993200302,-1.57013201713562,0.990859985351562,-1125.90002441406,37.5,-878.100036621094,-0.863918486238266,-0.287217252311148,0.250186357397857,DLL
12.2666666666667,-2.503826379776,-2.25260639190674,9.58823204040527,0.46494197845459,-1.82165801525116,2.0579400062561,-1125.90002441406,45.3000030517578,-866.100036621094,-0.892676797528606,-0.246686946803377,0.228887824411115,DLL
12.3,-2.27174711227417,-2.27413964271545,10.0721292495728,0.221037998795509,-1.57013201713562,1.69970595836639,-1116.30004882812,49.5000038146973,-878.100036621094,-0.913171967178025,-0.214571636119617,0.22092183618584,DLL
12.3333333333333,-1.82433605194092,-2.20296049118042,9.24489784240723,-0.0457319989800453,-1.6920839548111,1.15854394435883,-1118.70007324219,41.1000022888184,-861.300048828125,-0.9253133974978,-0.187277477441609,0.233489811350297,DLL
12.3666666666667,-1.99600315093994,-1.6903520822525,9.533203125,0.647870004177094,-1.28811800479889,0.884151995182037,-1123.5,38.7000007629395,-866.100036621094,-0.946719273547749,-0.201354266495708,0.174006660761074,DLL
12.4,-1.95592749118805,-1.67599666118622,9.56669902801514,1.33385002613068,-0.914639949798584,1.05945801734924,-1135.5,41.1000022888184,-858.900024414062,-0.95632313621779,-0.197472539732735,0.17068674535153,DLL
12.4333333333333,-1.28002595901489,-1.60601389408112,9.07801628112793,0.579271972179413,-1.64635193347931,0.87652999162674,-1133.10009765625,44.1000022888184,-863.700012207031,-0.966088804621679,-0.135467778494248,0.173811892828543,DLL
12.4666666666667,-1.30514800548553,-1.51090919971466,9.58524131774902,-0.121951997280121,-2.70580983161926,1.82927989959717,-1128.30004882812,38.1000022888184,-866.100036621094,-0.990281648593349,-0.129537379897051,0.15606790419515,DLL
12.5,-0.723154842853546,-1.33326065540314,9.18867206573486,-0.632625997066498,-2.86587190628052,2.22562384605408,-1142.70007324219,37.5,-873.300048828125,-1.01828787243453,-0.0733879882577443,0.144869391324402,DLL
12.5333333333333,0.483897656202316,-1.36137342453003,8.45774173736572,-0.655492007732391,-2.72867584228516,2.15702605247498,-1140.30004882812,47.7000007629395,-861.300048828125,-1.0429875965373,0.0603759009396033,0.160985418590302,DLL
12.5666666666667,0.377428203821182,-1.37094366550446,9.48774337768555,-1.06708002090454,-2.18751406669617,1.52439999580383,-1142.70007324219,42.9000015258789,-858.900024414062,-1.059614812653,0.0427623834743167,0.145518984381241,DLL
12.6,0.227892473340034,-1.53304040431976,10.1696271896362,-0.983237981796265,-1.86738991737366,1.44055795669556,-1140.30004882812,39.3000030517578,-868.500061035156,-1.07621723699249,0.0250176288854708,0.151404671947233,DLL
12.6333333333333,0.191405743360519,-1.79024195671082,10.7611904144287,-0.358233988285065,0.0,1.28049600124359,-1133.10009765625,39.9000015258789,-866.100036621094,-1.08881650117426,0.0171844187519113,0.165498840477563,DLL
12.6666666666667,0.16568560898304,-1.82732677459717,10.2731056213379,0.579271972179413,1.49391198158264,0.221037998795509,-1149.90002441406,45.3000030517578,-866.100036621094,-1.0886392837717,0.0132461784160386,0.175013498302514,DLL
12.7,-0.489879101514816,-2.36505722999573,10.6529264450073,0.861285984516144,0.3125019967556,-0.868907988071442,-1154.70007324219,39.3000030517578,-863.700012207031,-1.07787646189353,-0.0450390572270026,0.217013902229817,DLL
12.7333333333333,-0.904990315437317,-1.85185062885284,10.4776706695557,0.823175966739655,-0.815553963184357,-0.967993974685669,-1135.5,43.5,-861.300048828125,-1.07165923905134,-0.0831315342197811,0.173645651466238,DLL
12.7666666666667,-0.13099330663681,-1.75614774227142,8.86208629608154,0.846041977405548,0.137196004390717,0.365855991840363,-1147.5,36.3000030517578,-866.100036621094,-1.07388058378552,-0.0149015507242649,0.194130775971177,DLL
12.8,-0.0957028716802597,-1.85484135150909,8.99367809295654,0.0457319989800453,0.922261953353882,0.243903994560242,-1149.90002441406,47.7000007629395,-858.900024414062,-1.07428220384125,-0.0120869742948904,0.203295649141897,DLL
12.8333333333333,-0.28411790728569,-1.87218749523163,8.29145812988281,-0.815553963184357,1.19665396213531,-0.632625997066498,-1142.70007324219,44.7000007629395,-856.500061035156,-1.06545482543165,-0.0351789851718795,0.223527914534445,DLL
12.8666666666667,-1.53304040431976,-1.85603761672974,9.03016471862793,-0.609759986400604,2.38568592071533,-0.830797970294952,-1145.10009765625,40.5,-863.700012207031,-1.05563891201759,-0.168420066476078,0.20418271331735,DLL
12.9,-1.47860944271088,-2.27055072784424,7.12089204788208,-0.0914639979600906,2.85824990272522,-0.891773998737335,-1142.70007324219,41.1000022888184,-875.700012207031,-1.02049314682588,-0.199555375502033,0.309314495447031,DLL
12.9333333333333,-2.58696842193604,-2.29746723175049,8.84174919128418,-0.388722002506256,3.42989993095398,-0.83841997385025,-1128.30004882812,39.9000015258789,-875.700012207031,-1.0181037256554,-0.281287256970665,0.255802812457264,DLL
12.9666666666667,-3.00447225570679,-2.58038878440857,9.92558479309082,0.106707997620106,2.44666194915771,-0.403965979814529,-1125.90002441406,43.5,-858.900024414062,-1.00865997255986,-0.288933488275374,0.254680291003234,DLL
13.0,-2.88185286521912,-2.67310094833374,10.1379251480103,0.87652999162674,0.289635986089706,-0.297257989645004,-1113.90002441406,42.3000030517578,-868.500061035156,-1.0024606043263,-0.26862552450665,0.256447703126329,DLL
13.0333333333333,-2.46195650100708,-2.54749083518982,8.97633171081543,1.41006994247437,-0.365855991840363,-0.487807989120483,-1118.70007324219,38.7000007629395,-856.500061035156,-0.990567325994955,-0.257138208697895,0.274223169535652,DLL
13.0666666666667,-2.27653217315674,-2.61089396476746,9.75451564788818,0.960371971130371,-0.724089980125427,-0.525918006896973,-1123.5,39.3000030517578,-854.100036621094,-0.988453633923002,-0.220306472787048,0.259988277419567,DLL
13.1,-1.85484135150909,-2.25380277633667,8.78313159942627,0.800309956073761,-1.59299790859222,-0.442075997591019,-1128.30004882812,42.3000030517578,-878.100036621094,-0.988577793094764,-0.198901017208945,0.249807453728404,DLL
13.1333333333333,-2.107257604599,-1.65207087993622,9.1509895324707,1.71494996547699,-0.846041977405548,0.815553963184357,-1135.5,41.7000007629395,-858.900024414062,-1.00967909390349,-0.221620725346814,0.175325899573549,DLL
13.1666666666667,-1.99660122394562,-1.37632691860199,9.8017692565918,1.84452390670776,-0.525918006896973,1.82927989959717,-1140.30004882812,39.9000015258789,-863.700012207031,-1.0337233362291,-0.19858388025087,0.135642619565035,DLL
13.2,-1.48100197315216,-1.39905643463135,9.65881252288818,0.594515979290009,-1.79879200458527,2.59910202026367,-1137.90002441406,36.9000015258789,-870.900024414062,-1.05983133395179,-0.148176861734944,0.142065281050071,DLL
13.2333333333333,-1.2698575258255,-1.28122222423553,10.4040985107422,0.266770005226135,-2.01220798492432,2.87349390983582,-1133.10009765625,43.5,-851.700012207031,-1.09237843055113,-0.117707276383494,0.121445468623641,DLL
13.2666666666667,-0.0897214487195015,-1.18133234977722,9.3238525390625,0.342989981174469,-2.29422187805176,2.42379593849182,-1125.90002441406,36.3000030517578,-866.100036621094,-1.11837311147992,-0.0062261078278078,0.125392605686626,DLL
13.3,0.731528878211975,-1.01624488830566,8.42723655700684,-0.259148001670837,-2.30946588516235,1.28049600124359,-1125.90002441406,39.3000030517578,-878.100036621094,-1.1340395052775,0.0896373207500887,0.120708086495617,DLL
13.3333333333333,0.403148353099823,-0.78775429725647,8.89318943023682,-1.10518991947174,-2.42379593849182,1.19665396213531,-1142.70007324219,39.3000030517578,-856.500061035156,-1.14523909487028,0.0491936480464457,0.090432769261196,DLL
13.3666666666667,0.215929612517357,-1.02880585193634,9.15158748626709,-1.44055795669556,-1.75305998325348,2.01220798492432,-1140.30004882812,37.5,-858.900024414062,-1.16781614207947,0.0261013909654264,0.114542366361796,DLL
13.4,0.670518279075623,-1.53603112697601,9.08638954162598,-2.25611186027527,-0.320124000310898,1.73781597614288,-1142.70007324219,38.7000007629395,-863.700012207031,-1.18646998926045,0.0726162908817581,0.171561861635208,DLL
13.4333333333333,-0.557469248771667,-1.70291304588318,10.53688621521,-0.632625997066498,1.14329993724823,1.50153398513794,-1152.30004882812,38.1000022888184,-849.300048828125,-1.19964502245622,-0.0544624512359961,0.161220123251826,DLL
13.4666666666667,-1.0916109085083,-2.11383724212646,10.856294631958,-0.137196004390717,1.6844619512558,0.152439996600151,-1135.5,44.1000022888184,-854.100036621094,-1.1956456676602,-0.101284445997865,0.192553783299727,DLL
13.5,-1.88355219364166,-1.8889354467392,10.2414035797119,0.594515979290009,1.40244793891907,-0.0838419944047928,-1130.70007324219,34.5,-866.100036621094,-1.19284170820309,-0.181243027749203,0.181470719135631,DLL
13.5333333333333,-1.96549785137177,-1.95413303375244,10.6738615036011,1.11281192302704,1.29574000835419,0.533540010452271,-1130.70007324219,36.9000015258789,-868.500061035156,-1.19414175247098,-0.181579167995552,0.179038323209369,DLL
13.5666666666667,-1.41341185569763,-1.90747797489166,8.57318305969238,0.46494197845459,0.434453994035721,0.243903994560242,-1130.70007324219,45.9000015258789,-866.100036621094,-1.18824111035544,-0.160404341125732,0.218055699486806,DLL
13.6,-1.52406823635101,-2.10486507415771,8.67247486114502,0.46494197845459,0.952749967575073,0.0990860015153885,-1125.90002441406,46.5,-854.100036621094,-1.18310132839573,-0.170792009589854,0.237308214440693,DLL
13.6333333333333,-1.89312255382538,-1.81835460662842,7.2865777015686,0.114329993724823,0.792688012123108,-0.3125019967556,-1133.10009765625,41.7000007629395,-861.300048828125,-1.17662433029572,-0.248059082141814,0.24456445838737,DLL
13.6666666666667,-2.143146276474,-1.98104953765869,7.93915176391602,0.106707997620106,0.617381989955902,0.495429992675781,-1130.70007324219,32.7000007629395,-856.500061035156,-1.17976505745193,-0.257409963273238,0.244197271221071,DLL
13.7,-1.88295412063599,-2.25440096855164,9.2048225402832,-0.99848198890686,-0.419209986925125,0.25152599811554,-1125.90002441406,42.3000030517578,-866.100036621094,-1.18560807571664,-0.195598407264054,0.241813233247895,DLL
13.7333333333333,-1.29198884963989,-2.60909962654114,9.47039794921875,-0.503051996231079,-1.53964400291443,-0.46494197845459,-1116.30004882812,39.9000015258789,-861.300048828125,-1.18135072220785,-0.128041750817175,0.26968787722985,DLL
13.7666666666667,-1.62276184558868,-2.73650407791138,9.32205867767334,-0.556405961513519,-0.99848198890686,-1.03659200668335,-1142.70007324219,42.9000015258789,-856.500061035156,-1.17281355375215,-0.163279918446993,0.286687342282862,DLL
13.8,-2.21253085136414,-2.85553455352783,11.0991411209106,0.0381099991500378,-0.525918006896973,0.228659987449646,-1118.70007324219,44.1000022888184,-861.300048828125,-1.18231486697585,-0.189890696563563,0.251668483050261,DLL
13.8333333333333,-1.96071267127991,-2.44939541816711,10.6636924743652,0.533540010452271,-1.265251994133,0.6250039935112,-1137.90002441406,45.3000030517578,-861.300048828125,-1.19517879140169,-0.17542231459987,0.224594297495107,DLL
13.8666666666667,-1.57550859451294,-1.91345942020416,9.86457347869873,1.93598794937134,-0.670735955238342,0.87652999162674,-1137.90002441406,44.7000007629395,-870.900024414062,-1.20777459616225,-0.154685359933797,0.187985861794907,DLL
13.9,-1.26148355007172,-1.29677391052246,8.98649978637695,1.95885396003723,0.266770005226135,0.579271972179413,-1128.30004882812,36.3000030517578,-856.500061035156,-1.21728326982846,-0.138673360039742,0.139817043974618,DLL
13.9333333333333,-1.10596632957458,-1.27524077892303,8.99008846282959,1.51677799224854,-0.175305992364883,0.487807989120483,-1128.30004882812,39.3000030517578,-846.900024414062,-1.22087361865715,-0.121027914021142,0.138155336544029,DLL
13.9666666666667,-0.988132178783417,-1.23995041847229,9.54695987701416,1.09756803512573,-0.3125019967556,0.0990860015153885,-1125.90002441406,47.1000022888184,-861.300048828125,-1.22233250612127,-0.101772921210154,0.127221324322036,DLL
14.0,-0.587376415729523,-1.00069320201874,8.95180797576904,1.34147191047668,-0.487807989120483,-0.327746003866196,-1130.70007324219,43.5,-858.900024414062,-1.22026278320929,-0.0642500134423606,0.109033944311034,DLL
14.0333333333333,-0.403746515512466,-0.822446584701538,8.88601207733154,0.731711983680725,-0.525918006896973,-0.243903994560242,-1123.5,47.1000022888184,-866.100036621094,-1.21900487793512,-0.044281243280686,0.0910501317077227,DLL
14.0666666666667,-0.0669920146465302,-0.90977543592453,8.3219633102417,-0.304879993200302,-0.983237981796265,-0.46494197845459,-1142.70007324219,40.5,-858.900024414062,-1.21507282755883,-0.0062498947823509,0.109405678079867,DLL
14.1,-0.371446788311005,-1.1538177728653,9.5326042175293,-1.31860601902008,-0.617381989955902,-0.335367977619171,-1137.90002441406,40.5,-849.300048828125,-1.2126606337942,-0.0374887887443024,0.122756632438065,DLL
14.1333333333333,0.104675017297268,-1.51748871803284,9.41477012634277,-1.78354799747467,-1.15854394435883,-0.594515979290009,-1133.10009765625,42.3000030517578,-870.900024414062,-1.20810733211732,0.0130835057815839,0.162866869569262,DLL
14.1666666666667,-0.253014475107193,-1.95532941818237,9.78083419799805,-1.28049600124359,-0.236281991004944,-0.67835795879364,-1135.5,41.7000007629395,-851.700012207031,-1.20204634616968,-0.0246806694908944,0.199533933898276,DLL
14.2,-0.776987731456757,-2.08572459220886,10.6912078857422,-0.701223969459534,1.18903195858002,-1.35671591758728,-1152.30004882812,48.3000030517578,-851.700012207031,-1.18570553021429,-0.0727710696330948,0.194091843793666,DLL
14.2333333333333,-0.355296939611435,-2.64259552955627,9.99317455291748,1.04421401023865,1.92836594581604,-2.98020195960999,-1152.30004882812,30.9000015258789,-858.900024414062,-1.14895867571866,-0.0363360867899165,0.256846217638887,DLL
14.2666666666667,-0.201574176549911,-2.69583034515381,10.0206890106201,1.34147191047668,1.34147191047668,-6.00613594055176,-1147.5,35.1000022888184,-856.500061035156,-1.08281387403961,-0.0189933174087943,0.260664697437987,DLL
14.3,-0.237462759017944,-2.61328673362732,9.08040809631348,2.33995389938354,1.16616594791412,-10.236346244812,-1149.90002441406,42.3000030517578,-863.700012207031,-0.976233614927132,-0.0222086820291273,0.276518670716396,DLL
14.3333333333333,-0.238060906529427,-2.48109698295593,8.96197605133057,2.45428395271301,0.983237981796265,-12.6448974609375,-1145.10009765625,41.1000022888184,-870.900024414062,-0.850133738091294,-0.0214466848981544,0.266271539538742,DLL
14.3666666666667,-1.57550859451294,-1.89790761470795,8.72032642364502,3.44514393806458,1.55488801002502,-14.6266174316406,-1164.30004882812,41.7000007629395,-866.100036621094,-0.708690968415498,-0.171830655578457,0.212743296262945,DLL
14.4,-1.29139065742493,-2.44640469551086,8.3698148727417,3.44514393806458,2.56099200248718,-13.0336198806763,-1152.30004882812,32.7000007629395,-868.500061035156,-0.564381257487115,-0.145041209611084,0.281653940165595,DLL
14.4333333333333,-1.58747148513794,-2.20236253738403,8.85789966583252,2.75916385650635,2.40092992782593,-12.8811798095703,-1164.30004882812,33.9000015258789,-861.300048828125,-0.43963747422043,-0.170827304946677,0.242849697805385,DLL
14.4666666666667,-1.90568351745605,-2.0791449546814,9.2466926574707,2.37044191360474,0.762199997901917,-10.7393980026245,-1164.30004882812,27.3000011444092,-873.300048828125,-0.336919283372912,-0.195592547731975,0.22073794105052,DLL
14.5,-1.30036282539368,-2.27772831916809,9.6821403503418,1.39482593536377,0.922261953353882,-9.04731369018555,-1152.30004882812,27.9000015258789,-885.300048828125,-0.245899463392532,-0.128032157212296,0.230637174325171,DLL
14.5333333333333,-1.01265609264374,-2.24243807792664,9.10254001617432,1.83690190315247,1.38720393180847,-8.47566413879395,-1145.10009765625,18.3000011444092,-863.700012207031,-0.151711835465689,-0.106451423060643,0.239930200494511,DLL
14.5666666666667,-1.98164761066437,-2.08093929290771,10.6660852432251,1.63872992992401,2.37806391716003,-7.66773176193237,-1149.90002441406,26.1000003814697,-875.700012207031,-0.0714858439544803,-0.181844539089982,0.192399924763633,DLL
14.6,-0.817063271999359,-2.33395385742188,8.69460582733154,1.43293595314026,1.89025592803955,-7.91925764083862,-1152.30004882812,18.3000011444092,-885.300048828125,0.0210337174645845,-0.090217196499542,0.260987671506102,DLL
14.6333333333333,-1.11254596710205,-2.18262362480164,9.02657604217529,1.41006994247437,2.53812599182129,-8.57474994659424,-1147.5,19.5,-880.500061035156,0.106950771014073,-0.11999326138332,0.236688209870157,DLL
14.6666666666667,-1.41101932525635,-1.74478304386139,8.91891002655029,1.99696397781372,2.42379593849182,-9.16926574707031,-1135.5,26.7000007629395,-868.500061035156,0.195437768602704,-0.155081996779493,0.192330030338908,DLL
14.7,-2.14434266090393,-1.43434679508209,9.98121166229248,2.82013988494873,1.85214591026306,-7.4924259185791,-1128.30004882812,21.9000015258789,-899.700012207031,0.270070132591867,-0.210859193767352,0.140705714714307,DLL
14.7333333333333,-0.842185318470001,-1.55935871601105,9.50209903717041,2.33233189582825,0.586893975734711,-8.07169818878174,-1142.70007324219,20.7000007629395,-885.300048828125,0.353868303780376,-0.0861489784104351,0.159792607645942,DLL
14.7666666666667,-0.837400138378143,-1.07546103000641,9.22994422912598,1.6844619512558,1.09756803512573,-9.35219383239746,-1128.30004882812,9.90000057220459,-890.100036621094,0.451625833887264,-0.0899061465909097,0.11456030700637,DLL
14.8,-1.14544379711151,-0.57062840461731,10.2168798446655,2.40092992782593,1.50153398513794,-9.35219383239746,-1130.70007324219,9.30000019073486,-875.700012207031,0.545425227674035,-0.113198267148451,0.0535118230857329,DLL
14.8333333333333,-1.3458217382431,0.0221312902867794,9.7898063659668,3.27745985984802,0.594515979290009,-7.98023366928101,-1133.10009765625,8.70000076293945,-880.500061035156,0.619663569167811,-0.137704081022224,-0.0059866269905563,DLL
14.8666666666667,-1.06290006637573,0.16568560898304,9.377685546875,2.45428395271301,0.632625997066498,-4.41313791275024,-1125.90002441406,12.3000001907349,-885.300048828125,0.66338013691444,-0.114136373597703,-0.021051021853781,DLL
14.9,-0.878672003746033,0.0358885787427425,8.94941520690918,1.12043392658234,1.51677799224854,-2.26373386383057,-1130.70007324219,9.30000019073486,-885.300048828125,0.688783396589078,-0.100549018160042,-0.0055810253997926,DLL
14.9333333333333,-1.25550210475922,-0.65436840057373,10.158860206604,-0.579271972179413,2.86587190628052,0.0228659994900227,-1130.70007324219,6.90000009536743,-902.100036621094,0.697406565043837,-0.127675921136253,0.0652930964788585,DLL
14.9666666666667,-1.47442245483398,-1.13647162914276,11.3312206268311,-0.99848198890686,2.25611186027527,1.21189796924591,-1118.70007324219,5.10000038146973,-894.900024414062,0.691183367201134,-0.13288018093746,0.101435306286188,DLL
15.0,-1.3440272808075,-1.3781213760376,10.5075778961182,-0.282013982534409,0.960371971130371,1.6692179441452,-1118.70007324219,8.70000076293945,-894.900024414062,0.679238841924705,-0.128195382070751,0.130533661084738,DLL
15.0333333333333,-0.857138872146606,-1.52646088600159,8.82859039306641,0.121951997280121,0.434453994035721,1.95123195648193,-1118.70007324219,11.7000007629395,-880.500061035156,0.665797804903578,-0.096736558915214,0.170636278019105,ST
15.0666666666667,-0.519188106060028,-1.95353496074677,8.72511196136475,-0.274392008781433,0.754577994346619,1.54726600646973,-1104.30004882812,9.90000057220459,-890.100036621094,0.656295294250329,-0.0599181290243623,0.220547679603791,ST
15.1,-1.49535739421844,-1.94157207012177,8.74006462097168,-0.0914639979600906,0.83841997385025,0.449698001146317,-1125.90002441406,5.10000038146973,-875.700012207031,0.653225294712959,-0.167037457917381,0.218681584621596,ST
15.1333333333333,-2.13955736160278,-2.12400579452515,8.3518705368042,0.6250039935112,1.98934197425842,0.442075997591019,-1113.90002441406,6.90000009536743,-882.900024414062,0.661255079852149,-0.246856238473218,0.247952123268422,ST
15.1666666666667,-2.44520854949951,-2.4577693939209,8.61146450042725,0.419209986925125,2.72105383872986,1.16616594791412,-1116.30004882812,11.7000007629395,-892.500061035156,0.665879821357404,-0.271660089802839,0.277086574626357,ST
15.2,-2.67968058586121,-2.71855974197388,10.3622283935547,0.198172003030777,1.2347639799118,1.82165801525116,-1109.10009765625,17.7000007629395,-897.300048828125,0.646343553938678,-0.248011212386721,0.255598318240154,ST
15.2333333333333,-2.50263023376465,-2.82443118095398,10.2659282684326,1.21189796924591,-1.07470202445984,1.77592599391937,-1101.90002441406,18.9000015258789,-878.100036621094,0.632433667187616,-0.229880316158198,0.265541779189647,ST
15.2666666666667,-2.23167133331299,-2.37702012062073,9.46262168884277,1.85214591026306,-1.15092194080353,1.41769194602966,-1104.30004882812,12.9000005722046,-890.100036621094,0.615431609729179,-0.223518412189389,0.242244936015561,ST
15.3,-1.86022460460663,-2.01933073997498,9.1210823059082,1.6844619512558,-1.02134799957275,1.45580196380615,-1099.5,11.1000003814697,-892.500061035156,0.596774080974939,-0.195379560796167,0.214393406143812,ST
15.3333333333333,-2.33814096450806,-1.65506160259247,10.4136695861816,1.41769194602966,-1.12043392658234,1.12805593013763,-1094.70007324219,7.50000047683716,-887.700012207031,0.574504539119482,-0.216571044695146,0.154683410298802,ST
15.3666666666667,-1.7423905134201,-1.31112945079803,8.63539028167725,1.76068198680878,-1.6692179441452,1.31098401546478,-1101.90002441406,6.90000009536743,-887.700012207031,0.561533509281014,-0.194381458390976,0.147084885849305,ST
15.4,-1.51868498325348,-1.13467717170715,8.28966331481934,1.50915598869324,-2.18751406669617,1.53964400291443,-1099.5,11.1000003814697,-892.500061035156,0.544003450919577,-0.17614784660825,0.132848526521815,ST
15.4333333333333,-0.699827253818512,-0.708799421787262,8.41467571258545,1.42531394958496,-4.26069784164429,1.64635193347931,-1106.70007324219,0.300000011920929,-892.500061035156,0.517980345300741,-0.0755739889978891,0.0813156772223575,ST
15.4666666666667,-1.2578946352005,-0.888242304325104,11.0339431762695,1.21189796924591,-5.12198400497437,1.95885396003723,-1118.70007324219,8.70000076293945,-873.300048828125,0.494587369315183,-0.104483628547615,0.0777826803721809,ST
15.5,-0.0723752975463867,0.374437510967255,8.07313537597656,1.93598794937134,-3.49849796295166,0.350611984729767,-1121.10009765625,10.5,-878.100036621094,0.485622634911676,-0.002939419022165,-0.0495870541885306,ST
15.5333333333333,-0.783567309379578,0.785959839820862,10.0171003341675,1.82927989959717,0.0533539988100529,1.02134799957275,-1142.70007324219,5.70000028610229,-885.300048828125,0.475494401262888,-0.0776913206983082,-0.0815966764744488,ST
15.5666666666667,-0.790146887302399,1.07665729522705,11.0130081176758,1.12043392658234,0.647870004177094,1.2500079870224,-1140.30004882812,2.10000014305115,-878.100036621094,0.461465447555841,-0.0721975404896058,-0.0995613626087049,ST
15.6,-0.523973226547241,1.18193054199219,10.1959447860718,0.0457319989800453,0.228659987449646,0.914639949798584,-1133.10009765625,11.1000003814697,-892.500061035156,0.451366152692138,-0.0512399648740889,-0.115552599525832,ST
15.6333333333333,-0.407335370779037,0.693247675895691,9.95728588104248,-1.70732796192169,0.815553963184357,0.403965979814529,-1140.30004882812,5.70000028610229,-880.500061035156,0.448378991783629,-0.0421701233875996,-0.0666181076979013,ST
15.6666666666667,-0.884653449058533,0.270360618829727,10.840145111084,-2.40855193138123,1.82165801525116,0.335367977619171,-1140.30004882812,3.90000009536743,-880.500061035156,0.445675770255652,-0.0845234871692528,-0.020838555357378,ST
15.7,-0.291893780231476,0.241051614284515,9.53140830993652,-1.61586391925812,1.60824191570282,0.0609759986400604,-1133.10009765625,4.5,-887.700012207031,0.443961691054467,-0.0334654918412485,-0.0224688641104868,ST
15.7333333333333,-0.41750380396843,-0.47552365064621,9.17551326751709,-0.457319974899292,1.11281192302704,-0.236281991004944,-1130.70007324219,6.90000009536743,-897.300048828125,0.449852107491296,-0.0473223823331436,0.0525722082785374,ST
15.7666666666667,-0.324193477630615,-0.709397554397583,7.70467948913574,-0.78506600856781,0.78506600856781,-1.45580196380615,-1118.70007324219,7.50000047683716,-873.300048828125,0.466198492744372,-0.0430089559830276,0.0932542563748843,ST
15.8,-1.08981645107269,-1.07187223434448,8.17481994628906,-1.61586391925812,1.80641400814056,-1.69970595836639,-1118.70007324219,17.7000007629395,-880.500061035156,0.486516162885261,-0.134050637233363,0.133600197342735,ST
15.8333333333333,-1.93140363693237,-2.00138640403748,9.55294132232666,-2.57623600959778,3.20886182785034,-1.72257196903229,-1106.70007324219,12.3000001907349,-882.900024414062,0.518714982575426,-0.200172452156602,0.211803220924015,ST
15.8666666666667,-2.25679349899292,-2.75564455986023,9.28557109832764,-2.4923939704895,3.7957558631897,-1.90549993515015,-1109.10009765625,14.7000007629395,-882.900024414062,0.558343720287875,-0.234260673226636,0.293955396425777,ST
15.9,-2.20774579048157,-3.54997849464417,8.90754508972168,-2.12653803825378,3.21648383140564,-1.99696397781372,-1099.5,15.9000005722046,-885.300048828125,0.6053275087418,-0.230201272507846,0.384155306333009,ST
15.9333333333333,-2.74966335296631,-3.71626234054565,10.2485818862915,-1.20427596569061,1.96647596359253,-1.41769194602966,-1094.70007324219,17.1000003814697,-887.700012207031,0.613690562109085,-0.249424938095444,0.350895345876428,ST
15.9666666666667,-2.71437287330627,-3.35737657546997,10.3646211624146,0.160062000155449,0.266770005226135,-0.518296003341675,-1087.5,9.90000057220459,-885.300048828125,0.610345783990655,-0.244341802110858,0.313273265842596,ST
16.0,-1.92542219161987,-2.56603336334229,8.81184196472168,1.34909391403198,-1.96647596359253,1.53964400291443,-1089.90002441406,10.5,-899.700012207031,0.586329529404663,-0.204282040675376,0.280313883477272,ST
16.0333333333333,-1.53782558441162,-2.36744999885559,8.54028511047363,2.24848985671997,-1.53964400291443,2.53812599182129,-1106.70007324219,15.9000005722046,-894.900024414062,0.559933897602805,-0.170422244596983,0.265651994144006,ST
16.0666666666667,-1.85843026638031,-2.1012761592865,9.79877853393555,1.95123195648193,-0.442075997591019,2.43903994560242,-1106.70007324219,9.30000019073486,-887.700012207031,0.529200091498045,-0.183469583959477,0.207100543922273,ST
16.1,-2.38419795036316,-1.92960917949677,10.6212244033813,2.02745199203491,0.861285984516144,2.01220798492432,-1097.10009765625,10.5,-878.100036621094,0.5096140265909,-0.219426178406777,0.175501197563499,ST
16.1333333333333,-2.39616084098816,-1.45049667358398,8.80466461181641,2.00458598136902,0.617381989955902,1.77592599391937,-1094.70007324219,9.30000019073486,-894.900024414062,0.494980025545649,-0.263846758632933,0.159016703769452,ST
16.1666666666667,-2.4655454158783,-0.92771977186203,9.34897422790527,1.92074394226074,0.480185985565186,1.73019397258759,-1104.30004882812,7.50000047683716,-875.700012207031,0.466756043671888,-0.257774408312897,0.0948278814728606,ST
16.2,-1.98882532119751,-0.119030453264713,8.96197605133057,2.18751406669617,-1.38720393180847,2.08842802047729,-1101.90002441406,12.9000005722046,-897.300048828125,0.431022680387862,-0.216022095661332,0.0087494297367874,ST
16.2333333333333,-1.32428848743439,0.625657558441162,7.74834394454956,2.09605002403259,-3.07928800582886,2.24086785316467,-1104.30004882812,9.30000019073486,-892.500061035156,0.395452524741989,-0.163074798366462,-0.0847655838256556,ST
16.2666666666667,-1.75375521183014,1.42537474632263,8.80346870422363,1.6768399477005,-1.41006994247437,2.53812599182129,-1113.90002441406,9.90000057220459,-880.500061035156,0.362389401763845,-0.190994132773806,-0.164124748604041,ST
16.3,-0.815867006778717,1.30215728282928,9.44288349151611,0.701223969459534,-0.457319974899292,2.73629784584045,-1111.5,15.3000001907349,-890.100036621094,0.340827811918911,-0.0840489217222806,-0.138678216684067,ST
16.3333333333333,-0.542515695095062,0.61548912525177,9.41716289520264,-1.44055795669556,-0.457319974899292,-0.358233988285065,-1106.70007324219,9.90000057220459,-887.700012207031,0.349222304377762,-0.0566899840430482,-0.0627775862887719,ST
16.3666666666667,-1.90747797489166,-0.12441373616457,11.4478578567505,-2.46190595626831,1.05945801734924,-1.95885396003723,-1106.70007324219,13.5000009536743,-878.100036621094,0.373430576298337,-0.166773597581959,0.0156528478283161,ST
16.4,-2.15869808197021,-1.03299295902252,12.2457809448242,-2.68294382095337,1.89025592803955,-2.4847719669342,-1099.5,14.1000003814697,-890.100036621094,0.406768976337428,-0.176774886334293,0.0895776852939787,ST
16.4333333333333,-1.3201014995575,-0.325987905263901,9.28437519073486,-1.78354799747467,-0.46494197845459,-2.5152599811554,-1104.30004882812,10.5,-882.900024414062,0.422304865548052,-0.140190313807838,0.0388511467658112,ST
16.4666666666667,-1.29438138008118,-0.687266290187836,9.2401123046875,-0.266770005226135,-1.98171997070312,-1.14329993724823,-1099.5,5.70000028610229,-897.300048828125,0.436647123100583,-0.135206384681547,0.0749034498269888,ST
16.5,-0.456981241703033,-0.869699895381927,7.11371421813965,-0.525918006896973,-2.81251788139343,-1.01372599601746,-1106.70007324219,8.10000038146973,-887.700012207031,0.447601027930091,-0.0586754168976506,0.122587274927421,ST
16.5333333333333,-0.451597929000854,-1.48279643058777,8.21609210968018,-1.79117000102997,-1.43293595314026,-0.853663980960846,-1111.5,11.7000007629395,-890.100036621094,0.45634470645076,-0.0513128254101944,0.181708387636582,ST
16.5666666666667,-1.9086742401123,-2.33335566520691,10.6732635498047,-2.10367202758789,0.746955990791321,-0.449698001146317,-1101.90002441406,11.7000007629395,-875.700012207031,0.463281119117208,-0.173953988826378,0.219053033014741,ST
16.6,-1.86620604991913,-2.28131723403931,8.50020980834961,-0.0685980021953583,2.04269599914551,-0.503051996231079,-1111.5,11.7000007629395,-897.300048828125,0.481699462416831,-0.212139376106098,0.262676680068704,ST
16.6333333333333,-2.9303023815155,-3.11453056335449,10.5769624710083,0.342989981174469,4.51984596252441,0.861285984516144,-1101.90002441406,15.9000005722046,-875.700012207031,0.492318661088872,-0.267703600589916,0.285966274080081,ST
16.6666666666667,-3.12589526176453,-3.07026791572571,9.67795372009277,0.754577994346619,3.10215401649475,0.564027965068817,-1089.90002441406,9.30000019073486,-890.100036621094,0.503770984084032,-0.304080715500326,0.306079985835253,ST
16.7,-3.36874127388,-3.1587929725647,10.7276945114136,-0.304879993200302,1.85976791381836,0.693601965904236,-1099.5,11.7000007629395,-890.100036621094,0.495968562416,-0.29605460555374,0.286838056241309,ST
16.7333333333333,-1.94456279277802,-2.48408770561218,8.26992511749268,0.182927995920181,-1.91312193870544,0.990859985351562,-1109.10009765625,11.1000003814697,-892.500061035156,0.483160035750463,-0.218884180612891,0.290894702334796,ST
16.7666666666667,-1.58328449726105,-2.03488230705261,7.53301239013672,0.861285984516144,-3.97868394851685,1.28049600124359,-1099.5,11.7000007629395,-882.900024414062,0.456883739759116,-0.194087568089065,0.261579997699881,ST
16.8,-1.7483719587326,-1.99241423606873,8.33272933959961,1.12805593013763,-2.25611186027527,1.87501192092896,-1097.10009765625,9.90000057220459,-894.900024414062,0.430680459555122,-0.198220412783102,0.23194128861468,ST
16.8333333333333,-1.77289581298828,-1.76930689811707,9.30471229553223,0.320124000310898,-0.724089980125427,2.14940404891968,-1104.30004882812,17.7000007629395,-890.100036621094,0.399087739726685,-0.184504084354968,0.186640491017166,ST
16.8666666666667,-2.05761170387268,-1.53603112697601,9.55353927612305,1.2423859834671,0.739333987236023,2.52288198471069,-1099.5,13.5000009536743,-887.700012207031,0.371069778482183,-0.211473072145124,0.156375097061901,ST
16.9,-2.51279854774475,-1.29677391052246,10.6708707809448,1.41006994247437,1.50153398513794,2.52288198471069,-1109.10009765625,11.1000003814697,-878.100036621094,0.342974520920719,-0.232741551663516,0.117543222290932,ST
16.9333333333333,-2.17484784126282,-0.691453278064728,10.0284652709961,1.44055795669556,0.137196004390717,2.05031800270081,-1099.5,13.5000009536743,-902.100036621094,0.315057788988191,-0.213566904221304,0.0656119231987249,ST
16.9666666666667,-1.89970207214355,0.0149535741657019,8.93864822387695,1.16616594791412,-1.65397393703461,1.37958192825317,-1106.70007324219,11.7000007629395,-887.700012207031,0.289514702097944,-0.206523887913549,-0.0041348294835376,ST
17.0,-1.10118126869202,0.542515695095062,7.95889043807983,0.853663980960846,-1.55488801002502,0.670735955238342,-1106.70007324219,11.7000007629395,-887.700012207031,0.274004826478055,-0.134463346891891,-0.0696112459390715,ST
17.0333333333333,-1.0335910320282,0.567039549350739,9.23592567443848,0.289635986089706,-1.28811800479889,0.564027965068817,-1113.90002441406,11.7000007629395,-885.300048828125,0.270575383374395,-0.108961794339353,-0.06192455520554,ST
17.0666666666667,-1.30694234371185,0.428270369768143,10.015305519104,0.282013982534409,-0.701223969459534,-0.182927995920181,-1101.90002441406,7.50000047683716,-892.500061035156,0.275228667122104,-0.128413740562436,-0.0432006461301521,ST
17.1,-1.62575256824493,0.364867210388184,9.93993949890137,-0.0533539988100529,0.83841997385025,-0.137196004390717,-1101.90002441406,14.7000007629395,-890.100036621094,0.277187713770258,-0.163462840348098,-0.0365714114562352,ST
17.1333333333333,-1.74777376651764,0.403148353099823,10.6601037979126,-0.731711983680725,1.06708002090454,0.388722002506256,-1109.10009765625,6.30000019073486,-887.700012207031,0.27171423862848,-0.164230512893675,-0.0366472788880829,ST
17.1666666666667,-1.47801125049591,0.250621914863586,11.5710754394531,-0.922261953353882,-0.967993974685669,1.06708002090454,-1104.30004882812,14.7000007629395,-887.700012207031,0.262745970080965,-0.12533180916049,-0.0202947928334878,ST
17.2,-0.86491471529007,-0.10527316480875,10.1247663497925,-1.12043392658234,-1.89787793159485,0.724089980125427,-1106.70007324219,9.30000019073486,-880.500061035156,0.257946701804001,-0.0819652309817253,0.0122098967904933,ST
17.2333333333333,-0.440831363201141,-0.594554126262665,8.33033752441406,-1.32622802257538,-0.868907988071442,-0.342989981174469,-1109.10009765625,13.5000009536743,-882.900024414062,0.264170000964047,-0.0512058746170366,0.073538712899735,ST
17.2666666666667,-0.613096535205841,-1.50373148918152,7.8296914100647,-2.37806391716003,0.731711983680725,-2.0579400062561,-1109.10009765625,9.30000019073486,-885.300048828125,0.291244315692751,-0.0772831920101617,0.194052220839083,ST
17.3,-1.89252436161041,-2.16408133506775,8.88601207733154,-2.85062789916992,1.79117000102997,-2.84300589561462,-1113.90002441406,12.9000005722046,-880.500061035156,0.324009848452483,-0.205741730887128,0.244961786776846,ST
17.3333333333333,-2.72095227241516,-2.5576593875885,8.50858402252197,-2.0579400062561,2.42379593849182,-2.83538389205933,-1106.70007324219,17.1000003814697,-902.100036621094,0.363534535654671,-0.29967874109645,0.297374643961478,ST
17.3666666666667,-2.96559286117554,-3.12469887733459,8.18080139160156,-0.815553963184357,2.9192259311676,-1.30336201190948,-1094.70007324219,16.5,-892.500061035156,0.403480783501192,-0.330429651167947,0.367550794395146,ST
17.4,-3.25748658180237,-3.2347571849823,9.79997444152832,-0.160062000155449,2.16464805603027,-0.0838419944047928,-1101.90002441406,6.30000019073486,-887.700012207031,0.395538513428554,-0.309303942881688,0.319551725645357,ST
17.4333333333333,-3.02002382278442,-3.09060478210449,10.0757179260254,0.922261953353882,-0.266770005226135,0.602137982845306,-1089.90002441406,16.5,-887.700012207031,0.384902023986432,-0.278964320388012,0.295710395685868,ST
17.4666666666667,-2.98293900489807,-2.66173624992371,9.96446418762207,1.57013201713562,-0.739333987236023,0.914639949798584,-1082.70007324219,11.7000007629395,-899.700012207031,0.36855332725098,-0.280694190692771,0.25778910863149,ST
17.5,-2.20176434516907,-2.13596844673157,9.28557109832764,2.03507399559021,-0.442075997591019,1.15854394435883,-1092.30004882812,11.7000007629395,-892.500061035156,0.35256095014859,-0.226849996021501,0.222089517185104,ST
17.5333333333333,-2.02710652351379,-1.76631617546082,9.28437519073486,1.85976791381836,-1.14329993724823,1.39482593536377,-1094.70007324219,8.10000038146973,-904.500061035156,0.333015164966932,-0.209792123557901,0.184206365192098,ST
