seconds,sensor_accX_m_s_,sensor_accY_m_s_,sensor_accZ_m_s_,sensor_gyroX___s_,sensor_gyroY___s_,sensor_gyroZ___s_,sensor_magX__T_,sensor_magY__T_,sensor_magZ__T_,sensor_yaw___,sensor_pitch___,sensor_roll___,label4
0.0,-0.601133704185486,-1.35718643665314,9.37589073181152,0.114329993724823,0.693601965904236,0.282013982534409,-873.900024414062,178.5,-940.500061035156,1.86105651150161,-0.0646322155429233,0.143539079650729,ST
0.0333333333333333,-0.469542235136032,-1.3458217382431,9.46202373504639,0.457319974899292,0.602137982845306,0.0228659994900227,-866.700012207031,179.700012207031,-935.700012207031,1.86162696124444,-0.0501717847635209,0.14050114612383,ST
0.0666666666666667,-0.510814070701599,-1.40264523029327,9.51824951171875,0.602137982845306,0.0990860015153885,-0.403965979814529,-866.700012207031,173.100006103516,-950.100036621094,1.86595219963286,-0.053108112636721,0.145290709235931,ST
0.1,-0.443822085857391,-1.34043836593628,9.29095458984375,0.259148001670837,-0.0152439996600151,-0.0457319989800453,-854.700012207031,179.100006103516,-950.100036621094,1.86632392389761,-0.0472184545520344,0.14284087278262,ST
0.133333333333333,-0.571226537227631,-1.45229113101959,10.1672344207764,-0.0076219998300075,-0.548784017562866,0.350611984729767,-864.300048828125,174.900009155273,-947.700012207031,1.86260534880065,-0.0546812279732434,0.141855820334182,ST
0.166666666666667,-0.424681514501572,-1.52705895900726,9.82868576049805,0.274392008781433,-0.83841997385025,0.342989981174469,-857.100036621094,174.300003051758,-945.300048828125,1.85925596452617,-0.0413484640661607,0.153593463286956,ST
0.2,-0.318810194730759,-1.38230836391449,9.6522331237793,0.381099998950958,-0.0838419944047928,0.442075997591019,-861.900024414062,179.100006103516,-950.100036621094,1.85504330475936,-0.0326700055768525,0.141582784171275,ST
0.233333333333333,-0.840988993644714,-1.27464270591736,10.1026344299316,0.442075997591019,0.274392008781433,0.579271972179413,-871.500061035156,180.900009155273,-942.900024414062,1.84969571062301,-0.0828801509751407,0.124698746078082,ST
0.266666666666667,-0.66334056854248,-1.19568777084351,9.46142578125,0.381099998950958,0.899396002292633,0.762199997901917,-857.100036621094,171.300003051758,-942.900024414062,1.84408473228074,-0.0711865142755109,0.124962852888787,ST
0.3,-0.531150937080383,-1.10716259479523,9.27001953125,0.274392008781433,1.27287399768829,1.08994603157043,-861.900024414062,171.900009155273,-950.100036621094,1.83577502488775,-0.0592921692740398,0.118312374460891,ST
0.333333333333333,-0.0394774377346039,-1.12869584560394,9.1802978515625,0.419209986925125,1.15092194080353,0.868907988071442,-857.100036621094,179.100006103516,-950.100036621094,1.82969251190458,-0.0065759239250561,0.121584751517335,ST
0.366666666666667,-0.257201462984085,-1.1938933134079,9.91661262512207,0.381099998950958,0.37347799539566,0.457319974899292,-859.500061035156,180.900009155273,-950.100036621094,1.82618894568013,-0.0264379274696285,0.119138786908055,ST
0.4,-0.211144462227821,-1.24054849147797,9.5505485534668,0.525918006896973,-0.365855991840363,0.190549999475479,-854.700012207031,171.900009155273,-945.300048828125,1.82447636163642,-0.021342168375084,0.128220561696071,ST
0.433333333333333,-0.37324121594429,-1.36556041240692,9.23173904418945,0.320124000310898,0.0609759986400604,-0.0609759986400604,-861.900024414062,177.900009155273,-950.100036621094,1.82576956949574,-0.0400342934427196,0.146273088501672,ST
0.466666666666667,-0.982150733470917,-1.42836546897888,10.0218858718872,-0.0990860015153885,0.564027965068817,0.320124000310898,-854.700012207031,176.700012207031,-959.700012207031,1.8232140609315,-0.0976807524943597,0.141710983361671,ST
0.5,-0.868503570556641,-1.49117040634155,9.68991661071777,-0.0685980021953583,0.739333987236023,0.937505960464478,-861.900024414062,176.700012207031,-942.900024414062,1.8167363098169,-0.0898923779281625,0.152665480393725,ST
0.533333333333333,-0.872092425823212,-1.39307498931885,9.40938663482666,0.0228659994900227,1.63110792636871,1.45580196380615,-847.500061035156,173.700012207031,-947.700012207031,1.80589156349094,-0.0946045677644822,0.146759745966615,ST
0.566666666666667,-1.10776078701019,-1.27225005626678,9.51645469665527,0.198172003030777,2.10367202758789,1.51677799224854,-849.900024414062,180.900009155273,-940.500061035156,1.79376777409154,-0.118811951996401,0.13232948276016,ST
0.6,-0.903195858001709,-1.29797029495239,9.48056602478027,0.46494197845459,1.95123195648193,1.27287399768829,-847.500061035156,181.5,-950.100036621094,1.78588098910605,-0.097834202407118,0.135073186096874,ST
0.633333333333333,-1.287801861763,-1.20525813102722,9.98121166229248,0.617381989955902,1.35671591758728,1.08994603157043,-845.100036621094,177.900009155273,-950.100036621094,1.77684315268847,-0.129896705533322,0.118924345634172,ST
0.666666666666667,-0.955234348773956,-1.27823150157928,9.51047325134277,0.693601965904236,1.2500079870224,0.746955990791321,-835.500061035156,182.700012207031,-942.900024414062,1.77404972544631,-0.101622562619532,0.132256075856357,ST
0.7,-1.09340536594391,-1.29497957229614,9.11450290679932,0.221037998795509,1.74543797969818,0.388722002506256,-842.700012207031,176.100006103516,-947.700012207031,1.77398435784274,-0.121279574765058,0.140698155997133,ST
0.733333333333333,-1.39068245887756,-1.45229113101959,9.497314453125,-0.396344006061554,2.69818782806396,0.525918006896973,-825.900024414062,181.5,-952.500061035156,1.77389557799446,-0.148515485927035,0.152391609315566,ST
0.766666666666667,-1.36615860462189,-1.4600670337677,9.20721435546875,-0.266770005226135,2.66770005226135,0.403965979814529,-816.300048828125,180.900009155273,-952.500061035156,1.77449227248026,-0.150216970617479,0.157726438978344,ST
0.8,-1.83988773822784,-1.49057233333588,9.56131553649902,-0.129574000835419,3.15550804138184,0.518296003341675,-818.700012207031,174.300003051758,-945.300048828125,1.77359916574079,-0.193365680557525,0.154875722294801,ST
0.833333333333333,-1.56175124645233,-1.53962004184723,9.4853515625,0.182927995920181,2.40855193138123,0.571649968624115,-818.700012207031,179.100006103516,-954.900024414062,1.77332646348607,-0.165491029591241,0.160526955576109,ST
0.866666666666667,-1.87517821788788,-1.41281366348267,9.341796875,0.350611984729767,2.10367202758789,0.480185985565186,-806.700012207031,178.5,-950.100036621094,1.77051805264735,-0.199629008537554,0.149447280238731,ST
0.9,-2.02351760864258,-1.42358028888702,9.40101337432861,0.342989981174469,1.79879200458527,0.533540010452271,-794.700012207031,173.700012207031,-947.700012207031,1.76883040960224,-0.212916839685612,0.149590401126088,ST
0.933333333333333,-2.1210150718689,-1.43195426464081,9.32026386260986,0.152439996600151,1.35671591758728,0.754577994346619,-799.500061035156,178.5,-947.700012207031,1.76494277626126,-0.223767435692344,0.151961743863767,ST
0.966666666666667,-2.10665965080261,-1.43673944473267,9.20960712432861,0.160062000155449,1.07470202445984,0.693601965904236,-794.700012207031,175.5,-950.100036621094,1.76137518607316,-0.224315682632321,0.154265042011162,ST
1.0,-2.24782133102417,-1.3278774023056,9.1509895324707,0.167683988809586,1.21951997280121,0.792688012123108,-792.300048828125,182.700012207031,-947.700012207031,1.75415265132849,-0.240729846431533,0.143574682094277,ST
1.03333333333333,-2.28789687156677,-1.33445692062378,9.15158748626709,0.167683988809586,1.21189796924591,0.899396002292633,-794.700012207031,179.100006103516,-959.700012207031,1.74864685526137,-0.24482355726304,0.144190555724426,ST
1.06666666666667,-2.25141024589539,-1.40982294082642,9.1988410949707,0.0762199983000755,0.983237981796265,0.571649968624115,-804.300048828125,183.300003051758,-947.700012207031,1.74710713912729,-0.239224861073925,0.151748762398295,ST
1.1,-2.41350698471069,-1.35180306434631,9.06425857543945,0.0609759986400604,0.792688012123108,0.396344006061554,-785.100036621094,180.300003051758,-942.900024414062,1.7439756452962,-0.258928623905612,0.147820672475447,ST
1.13333333333333,-2.53492999076843,-1.47262799739838,9.521240234375,-0.121951997280121,0.457319974899292,0.342989981174469,-794.700012207031,175.5,-947.700012207031,1.74268645842321,-0.258161112786881,0.15353351404287,ST
1.16666666666667,-2.24423241615295,-1.52227389812469,9.38785362243652,0.121951997280121,0.129574000835419,0.480185985565186,-794.700012207031,184.5,-954.900024414062,1.7403463386186,-0.232118079476644,0.160347768865101,ST
1.2,-2.34412240982056,-1.58806955814362,9.48056602478027,0.0228659994900227,0.388722002506256,0.472563982009888,-782.700012207031,180.900009155273,-942.900024414062,1.73827585393279,-0.239975467530351,0.165742266488176,ST
1.23333333333333,-2.66412878036499,-1.50373148918152,9.38905048370361,-0.0076219998300075,0.266770005226135,0.37347799539566,-794.700012207031,181.5,-952.500061035156,1.73374562763031,-0.273653382306465,0.158680472669937,ST
1.26666666666667,-2.68207311630249,-1.61618232727051,9.18388748168945,-0.228659987449646,1.02134799957275,0.83841997385025,-780.300048828125,179.700012207031,-966.900024414062,1.73204883004551,-0.282050350082843,0.174229278348285,ST
1.3,-3.27124381065369,-1.60900461673737,9.0792121887207,-0.548784017562866,1.85214591026306,0.807931959629059,-785.100036621094,179.100006103516,-957.300048828125,1.72721463489194,-0.344196349237927,0.17605616841997,ST
1.33333333333333,-3.44350910186768,-1.53124594688416,8.58395004272461,-0.3125019967556,2.24848985671997,0.846041977405548,-777.900024414062,176.700012207031,-954.900024414062,1.72255083378298,-0.380199791160581,0.176767242008867,ST
1.36666666666667,-4.20973014831543,-1.22320234775543,8.11141681671143,-0.807931959629059,3.09453201293945,0.937505960464478,-777.900024414062,183.300003051758,-942.900024414062,1.70514501818717,-0.479481906286139,0.150729544957948,ST
1.4,-4.13615846633911,-1.17056584358215,8.49901390075684,-0.762199997901917,2.68294382095337,1.41006994247437,-768.300048828125,179.100006103516,-942.900024414062,1.68829010391767,-0.454273162939272,0.137351860414594,ST
1.43333333333333,-4.39575290679932,-0.973776757717133,8.35486125946045,-0.655492007732391,1.95123195648193,1.65397393703461,-773.100036621094,176.100006103516,-938.100036621094,1.66435145306118,-0.485227351666483,0.115903782512222,ST
1.46666666666667,-4.23006725311279,-1.07426476478577,8.44458293914795,-0.769822001457214,1.90549993515015,1.55488801002502,-777.900024414062,182.100006103516,-950.100036621094,1.65622206904934,-0.464869129240185,0.12671063087384,ST
1.5,-4.14273834228516,-1.41042113304138,8.58215522766113,-0.967993974685669,1.52439999580383,0.342989981174469,-768.300048828125,179.700012207031,-938.100036621094,1.66839916309906,-0.447296316886615,0.16440800531765,ST
1.53333333333333,-4.77318096160889,-1.40862667560577,8.76578521728516,-0.922261953353882,1.86738991737366,-0.541162014007568,-751.5,180.900009155273,-938.100036621094,1.66984679638036,-0.49623880170526,0.161734785548981,ST
1.56666666666667,-4.68525409698486,-1.42298209667206,8.85969352722168,-0.571649968624115,2.27135586738586,-0.670735955238342,-758.700012207031,174.300003051758,-942.900024414062,1.6751177439125,-0.484952962694859,0.161192460600745,ST
1.6,-4.82940626144409,-1.57191967964172,8.31717777252197,-0.274392008781433,1.94360995292664,-0.78506600856781,-744.300048828125,176.700012207031,-945.300048828125,1.69551547735798,-0.521473272995171,0.188338380519157,ST
1.63333333333333,-5.06208419799805,-1.51270353794098,8.18199729919434,-0.198172003030777,2.45428395271301,-0.571649968624115,-741.900024414062,185.700012207031,-947.700012207031,1.70003284838447,-0.550512037678385,0.18425338702109,ST
1.66666666666667,-5.28878021240234,-1.45588004589081,8.03485488891602,0.0076219998300075,2.65245604515076,-0.0152439996600151,-741.900024414062,179.100006103516,-935.700012207031,1.70157995424965,-0.57925926114927,0.179799885123816,ST
1.7,-5.4496808052063,-1.18252861499786,7.92838525772095,0.3125019967556,2.17989206314087,0.67835795879364,-739.5,182.700012207031,-935.700012207031,1.68245667413975,-0.600973086516525,0.147148186766888,ST
1.73333333333333,-5.01243829727173,-1.26208162307739,7.83268213272095,0.503051996231079,1.65397393703461,0.868907988071442,-727.5,187.5,-930.900024414062,1.68654159789893,-0.566641896504772,0.158191812677927,ST
1.76666666666667,-5.09019660949707,-1.14065861701965,7.5611252784729,0.579271972179413,1.31098401546478,0.579271972179413,-737.100036621094,177.900009155273,-930.900024414062,1.68118911235495,-0.58968263012525,0.148297433150956,ST
1.8,-5.59203863143921,-1.10058307647705,7.81473779678345,0.327746003866196,1.15854394435883,0.320124000310898,-741.900024414062,175.5,-933.300048828125,1.67656022587191,-0.618486842045496,0.139167269774216,ST
1.83333333333333,-5.55076694488525,-1.22679126262665,7.85600996017456,0.3125019967556,1.08994603157043,0.190549999475479,-727.5,177.900009155273,-923.700012207031,1.68676565961823,-0.61139347589706,0.154314910106543,ST
1.86666666666667,-5.82352018356323,-1.29438138008118,7.83208417892456,0.198172003030777,1.17378795146942,0.221037998795509,-720.300048828125,177.900009155273,-923.700012207031,1.69294756496131,-0.634974432237374,0.163394332976938,ST
1.9,-5.72781705856323,-1.13946235179901,7.80935478210449,0.129574000835419,1.06708002090454,0.434453994035721,-722.700012207031,172.5,-926.100036621094,1.68045578686079,-0.629778550514465,0.144357206503221,ST
1.93333333333333,-5.32825756072998,-1.29079258441925,7.99597501754761,0.106707997620106,0.762199997901917,0.358233988285065,-729.900024414062,185.700012207031,-926.100036621094,1.68796067169773,-0.583401751990821,0.159559274453258,ST
1.96666666666667,-5.39943647384644,-1.30754053592682,7.8859167098999,0.160062000155449,0.335367977619171,0.167683988809586,-729.900024414062,173.100006103516,-916.500061035156,1.69034451311465,-0.594670989071878,0.163891495956931,ST
2.0,-5.19487190246582,-1.35299944877625,8.12637042999268,0.198172003030777,0.228659987449646,0.182927995920181,-717.900024414062,177.900009155273,-923.700012207031,1.69055030532785,-0.563126194399645,0.164476789031744,ST
2.03333333333333,-5.16197395324707,-1.88953363895416,8.24659729003906,0.114329993724823,0.0609759986400604,-0.0990860015153885,-729.900024414062,180.900009155273,-918.900024414062,1.72385268726759,-0.547939625135822,0.225040500806286,ST
2.06666666666667,-5.27681732177734,-1.88953363895416,8.01511573791504,0.0762199983000755,0.121951997280121,-0.327746003866196,-710.700012207031,177.300003051758,-914.100036621094,1.73030010146642,-0.569896857909359,0.231757049404708,ST
2.1,-5.30134105682373,-1.75076448917389,7.67297792434692,0.449698001146317,0.815553963184357,-0.0152439996600151,-717.900024414062,181.5,-928.500061035156,1.72982059872548,-0.594138038050605,0.223788682042313,ST
2.13333333333333,-4.61826181411743,-2.29088759422302,7.93436670303345,0.518296003341675,0.403965979814529,0.350611984729767,-729.900024414062,176.100006103516,-926.100036621094,1.75985731265753,-0.510842082305129,0.279894802392212,ST
2.16666666666667,-4.81744337081909,-3.12948393821716,7.73518466949463,-0.0457319989800453,-0.518296003341675,-1.21951997280121,-717.900024414062,180.900009155273,-914.100036621094,1.8195374774794,-0.521940613337436,0.385333442872959,ST
2.2,-5.61895513534546,-3.34900259971619,8.04263019561768,-0.67835795879364,-0.617381989955902,-0.975615978240967,-701.100036621094,182.700012207031,-918.900024414062,1.82717292253713,-0.571099218703461,0.396478977609195,ST
2.23333333333333,-5.88094186782837,-3.1946816444397,8.63598823547363,-0.541162014007568,-0.3125019967556,0.137196004390717,-722.700012207031,187.5,-923.700012207031,1.80031771801515,-0.567954867831237,0.355060271469356,ST
2.26666666666667,-5.13146877288818,-2.73650407791138,8.37998294830322,0.556405961513519,-0.221037998795509,1.98934197425842,-732.300048828125,177.900009155273,-914.100036621094,1.76507180665291,-0.52790568433798,0.312719954430521,ST
2.3,-4.3126106262207,-2.66711950302124,7.61136913299561,1.10518991947174,0.419209986925125,1.70732796192169,-715.5,180.300003051758,-921.300048828125,1.76866614275013,-0.492794297653521,0.333681946891254,ST
2.33333333333333,-4.87007999420166,-1.99779748916626,8.28427982330322,1.01372599601746,0.891773998737335,1.44055795669556,-725.100036621094,179.700012207031,-914.100036621094,1.7150447347776,-0.521263897205439,0.233772913707119,ST
2.36666666666667,-4.2085337638855,-2.56124830245972,8.28128910064697,1.03659200668335,0.990859985351562,1.70732796192169,-717.900024414062,178.5,-902.100036621094,1.73742657903666,-0.45457970398623,0.296938877692485,ST
2.4,-4.79890108108521,-2.43623638153076,8.14431476593018,0.503051996231079,2.03507399559021,1.19665396213531,-720.300048828125,176.700012207031,-916.500061035156,1.73167714997512,-0.517765374634697,0.289243546748946,ST
2.43333333333333,-5.34261322021484,-2.34531855583191,7.26205396652222,0.769822001457214,3.02593398094177,2.42379593849182,-715.5,176.100006103516,-911.700012207031,1.73620354483469,-0.616858423863022,0.309282045380975,ST
2.46666666666667,-5.44788599014282,-2.08751893043518,6.86129808425903,0.792688012123108,3.87197589874268,2.95733594894409,-710.700012207031,184.5,-911.700012207031,1.71817241035195,-0.657491672914274,0.291715165463435,ST
2.5,-6.00296306610107,-1.40025269985199,6.96537494659424,1.63872992992401,3.3613018989563,3.28508186340332,-703.5,174.900009155273,-914.100036621094,1.64712636281613,-0.708329477458225,0.191864362912826,ST
2.53333333333333,-5.78523874282837,-1.34881234169006,6.63878870010376,1.99696397781372,2.5000159740448,2.9420919418335,-696.300048828125,184.5,-902.100036621094,1.64360752826254,-0.712073523878339,0.19336039462444,ST
2.56666666666667,-6.11840438842773,-0.902597725391388,6.62981653213501,2.13416004180908,0.914639949798584,1.82927989959717,-703.5,174.900009155273,-906.900024414062,1.60253656369656,-0.742695653380798,0.128960575652942,ST
2.6,-5.88393259048462,-0.820053994655609,7.08919048309326,1.65397393703461,-1.34909391403198,2.01982998847961,-703.5,168.300003051758,-899.700012207031,1.58451630756416,-0.687683844850185,0.109224649655448,ST
2.63333333333333,-5.27562093734741,-0.873288750648499,7.46542263031006,1.02897000312805,-3.23172783851624,2.04269599914551,-708.300048828125,177.300003051758,-892.500061035156,1.57448606842417,-0.606987737346317,0.111729588392719,ST
2.66666666666667,-4.42147302627563,-0.836802005767822,7.24769830703735,0.807931959629059,-4.10825777053833,1.70732796192169,-717.900024414062,169.5,-892.500061035156,1.56207776145439,-0.538215598864576,0.111278614955275,ST
2.7,-4.50341844558716,-1.21363210678101,7.31947565078735,0.365855991840363,-2.72867584228516,0.92988395690918,-722.700012207031,168.900009155273,-911.700012207031,1.57996057634865,-0.541091049537597,0.162119182904922,ST
2.73333333333333,-5.51128911972046,-1.42118775844574,8.32973861694336,-0.403965979814529,-2.36281991004944,0.884151995182037,-722.700012207031,173.100006103516,-906.900024414062,1.57211643214809,-0.574042234036418,0.168247486510242,ST
2.76666666666667,-5.12907600402832,-2.25739169120789,8.01691055297852,-0.403965979814529,-3.46038794517517,-0.0838419944047928,-737.100036621094,170.100006103516,-918.900024414062,1.6198033655754,-0.546156491117849,0.27416529217635,ST
2.8,-6.40910196304321,-2.14135193824768,7.82550430297852,-1.02134799957275,-2.32470989227295,-0.388722002506256,-741.900024414062,175.5,-911.700012207031,1.60946442780858,-0.664264474126909,0.268569908624772,ST
2.83333333333333,-6.04064607620239,-1.95951640605927,8.55643558502197,-1.44817996025085,-3.46800994873047,0.87652999162674,-746.700012207031,170.100006103516,-906.900024414062,1.56535351165911,-0.597346980132889,0.225817983518248,ST
2.86666666666667,-5.17154407501221,-1.9206371307373,8.51097679138184,-0.807931959629059,-3.87959790229797,1.53964400291443,-753.900024414062,173.700012207031,-906.900024414062,1.54046268568402,-0.52914321343254,0.220957895749416,ST
2.9,-4.43582820892334,-1.55098474025726,8.98889255523682,-0.0914639979600906,-4.93143367767334,1.20427596569061,-746.700012207031,172.5,-909.300048828125,1.49904504972432,-0.444626733917341,0.169411234175969,ST
2.93333333333333,-4.07694244384766,-0.966000914573669,8.61026763916016,0.724089980125427,-4.87807989120483,1.08232402801514,-768.300048828125,175.5,-906.900024414062,1.46248799236432,-0.431574256131644,0.10925198361704,ST
2.96666666666667,-3.89809775352478,-0.901999592781067,8.81064605712891,1.39482593536377,-2.55336999893188,0.663114011287689,-773.100036621094,171.900009155273,-911.700012207031,1.45586595366075,-0.410349528942474,0.098912989502241,ST
3.0,-3.71745848655701,-0.857138872146606,8.6623067855835,0.990859985351562,-1.10518991947174,0.335367977619171,-768.300048828125,170.100006103516,-911.700012207031,1.45480168816039,-0.401779156309719,0.0965775240559146,ST
3.03333333333333,-4.65833759307861,-0.79373574256897,8.00793838500977,-0.0838419944047928,0.403965979814529,1.6615959405899,-763.5,171.900009155273,-911.700012207031,1.44145382876841,-0.525573795848552,0.0973102127611825,ST
3.06666666666667,-4.15649557113647,-0.687864422798157,8.596510887146,-0.853663980960846,0.175305992364883,2.56099200248718,-765.900024414062,174.900009155273,-904.500061035156,1.40798118629531,-0.449871483692594,0.0792151893002778,ST
3.1,-4.26416110992432,-0.974973022937775,8.51695823669434,-0.937505960464478,-0.0685980021953583,2.34757590293884,-761.100036621094,164.700012207031,-906.900024414062,1.3993922029374,-0.461909576401565,0.113539182336134,ST
3.13333333333333,-4.55844736099243,-0.941477060317993,8.80945014953613,-1.08232402801514,-0.228659987449646,1.50153398513794,-770.700012207031,172.5,-911.700012207031,1.38051116053672,-0.4750467230531,0.10701111291797,ST
3.16666666666667,-4.14632701873779,-1.00129127502441,8.50379848480225,-0.685979962348938,0.0685980021953583,1.57775402069092,-761.100036621094,177.300003051758,-911.700012207031,1.37029455740998,-0.45145844533356,0.117059337056503,ST
3.2,-4.27851676940918,-0.976767480373383,8.4948263168335,-0.236281991004944,1.35671591758728,1.55488801002502,-758.700012207031,172.5,-899.700012207031,1.35714221886079,-0.466562638664073,0.113680816281628,ST
3.23333333333333,-4.658935546875,-1.11733102798462,8.10782814025879,0.0457319989800453,1.6768399477005,1.34147191047668,-761.100036621094,179.700012207031,-897.300048828125,1.35941163507284,-0.520579402532645,0.13571081032007,ST
3.26666666666667,-4.70977783203125,-1.12032175064087,8.1245756149292,0.114329993724823,2.27135586738586,1.16616594791412,-744.300048828125,176.100006103516,-904.500061035156,1.353167726609,-0.525476692263063,0.135973861347796,ST
3.3,-5.25109720230103,-1.34223282337189,8.46372318267822,-0.0990860015153885,1.78354799747467,0.739333987236023,-741.900024414062,170.100006103516,-906.900024414062,1.35975927020897,-0.552995940923345,0.156937739002123,ST
3.33333333333333,-5.75174283981323,-1.31352198123932,7.86498212814331,-0.213415995240211,1.42531394958496,0.769822001457214,-739.5,177.900009155273,-906.900024414062,1.3592964476247,-0.627449704166237,0.165177122539909,ST
3.36666666666667,-5.92221355438232,-1.05332982540131,7.26624059677124,0.0609759986400604,2.20275783538818,0.891773998737335,-734.700012207031,175.5,-904.500061035156,1.34241061406869,-0.682644124225466,0.143106329718869,ST
3.4,-6.10823583602905,-1.17475283145905,7.27939987182617,0.0914639979600906,2.84300589561462,0.716467976570129,-746.700012207031,173.700012207031,-902.100036621094,1.35154015648991,-0.696879237587991,0.159428952569943,ST
3.43333333333333,-6.5915355682373,-1.00488018989563,7.6269211769104,0.175305992364883,2.29422187805176,0.365855991840363,-744.300048828125,175.5,-899.700012207031,1.33356423299211,-0.712467483340899,0.130670668848791,ST
3.46666666666667,-6.26494932174683,-1.06888151168823,7.01502084732056,0.190549999475479,1.73781597614288,0.0304879993200302,-737.100036621094,170.700012207031,-894.900024414062,1.34962288082713,-0.726251978472757,0.151182399353422,ST
3.5,-5.37371635437012,-1.25610029697418,6.64118146896362,-0.266770005226135,-0.121951997280121,-1.15854394435883,-737.100036621094,172.5,-906.900024414062,1.38608845592209,-0.671130355111822,0.188941909329846,ST
3.53333333333333,-5.88871765136719,-1.30933499336243,6.78294134140015,-0.708845973014832,-1.01372599601746,-1.89025592803955,-744.300048828125,177.300003051758,-902.100036621094,1.39703497979142,-0.703482199637925,0.194379451013878,ST
3.56666666666667,-5.21879720687866,-1.51748871803284,7.73578310012817,-1.12805593013763,-2.74391984939575,-1.83690190315247,-746.700012207031,177.900009155273,-892.500061035156,1.40268591344344,-0.579573776743356,0.197127394659806,ST
3.6,-4.91254806518555,-1.85244882106781,7.79320478439331,-1.16616594791412,-4.12350177764893,-2.0731840133667,-749.100036621094,173.700012207031,-890.100036621094,1.42631629555626,-0.542374578715805,0.236428932628289,ST
3.63333333333333,-4.45137977600098,-1.78007352352142,8.38656234741211,-0.716467976570129,-4.54271173477173,-1.72257196903229,-749.100036621094,179.100006103516,-882.900024414062,1.41691134536779,-0.470584510270506,0.211082130839748,ST
3.66666666666667,-4.25100231170654,-1.7926344871521,8.69460582733154,0.167683988809586,-3.65855979919434,-1.30336201190948,-741.900024414062,177.900009155273,-894.900024414062,1.41834426153174,-0.439948775023321,0.203496567200238,ST
3.7,-4.81445264816284,-1.35000872612,8.73886871337891,1.31860601902008,-2.01220798492432,-0.708845973014832,-763.5,177.900009155273,-897.300048828125,1.40305425753984,-0.494791185544728,0.151471327638551,ST
3.73333333333333,-4.51837205886841,-1.16039741039276,8.46671390533447,1.97409796714783,-1.28811800479889,0.907018005847931,-765.900024414062,177.900009155273,-904.500061035156,1.39358102264602,-0.484363122661349,0.131812583453191,ST
3.76666666666667,-4.50282049179077,-1.33684957027435,7.84524297714233,1.76068198680878,0.0609759986400604,0.381099998950958,-761.100036621094,179.700012207031,-899.700012207031,1.41425889003686,-0.515034780293825,0.165262526981487,ST
3.8,-4.63381338119507,-1.09101283550262,7.81234550476074,0.739333987236023,0.503051996231079,-0.0914639979600906,-763.5,179.700012207031,-899.700012207031,1.40503599039042,-0.531947201839309,0.137683766046773,ST
3.83333333333333,-4.682861328125,-1.00846910476685,8.29743957519531,-0.0,-0.518296003341675,0.396344006061554,-765.900024414062,180.300003051758,-897.300048828125,1.39274282609411,-0.509892339131886,0.120522345599352,ST
3.86666666666667,-3.63431668281555,-1.41759884357452,8.32076644897461,-0.350611984729767,-1.98934197425842,0.259148001670837,-756.300048828125,177.300003051758,-897.300048828125,1.40833499091329,-0.40349726140005,0.168805793531338,ST
3.9,-4.01533365249634,-1.29916656017303,8.22506427764893,-0.647870004177094,-2.30946588516235,-0.0457319989800453,-763.5,177.900009155273,-890.100036621094,1.39821118719628,-0.44527603384521,0.157537701859065,ST
3.93333333333333,-3.6773829460144,-1.19150078296661,9.56131553649902,-0.663114011287689,-2.4847719669342,0.46494197845459,-763.5,172.5,-899.700012207031,1.37691661233649,-0.360602983220441,0.124704528724905,ST
3.96666666666667,-3.64568138122559,-1.20705246925354,9.66778469085693,0.213415995240211,-2.59148001670837,0.182927995920181,-775.500061035156,171.300003051758,-894.900024414062,1.37308048956437,-0.353628959592411,0.123516874037172,ST
4.0,-3.87536835670471,-1.30215728282928,9.63070011138916,0.503051996231079,-1.34909391403198,-0.160062000155449,-780.300048828125,177.300003051758,-899.700012207031,1.37807446662977,-0.377016200666864,0.133475701113512,ST
4.03333333333333,-4.06438159942627,-1.14903259277344,10.5709810256958,0.236281991004944,-0.830797970294952,0.495429992675781,-775.500061035156,169.5,-904.500061035156,1.36468998053203,-0.36378158880947,0.107535881397479,ST
4.06666666666667,-2.84117913246155,-1.12749946117401,9.53798770904541,1.12043392658234,-0.175305992364883,0.701223969459534,-777.900024414062,178.5,-890.100036621094,1.36416710660655,-0.287643421516474,0.115320209267092,ST
4.1,-2.78375744819641,-1.34163463115692,9.73238468170166,1.27287399768829,0.846041977405548,-0.396344006061554,-765.900024414062,185.700012207031,-902.100036621094,1.37686028417134,-0.277509286739137,0.134972121355914,ST
4.13333333333333,-3.12350249290466,-1.64908015727997,8.43979740142822,0.640248000621796,0.830797970294952,-0.87652999162674,-763.5,178.5,-902.100036621094,1.40464678805432,-0.349361992957035,0.192344748388273,ST
4.16666666666667,-3.60859656333923,-1.76571810245514,8.36203861236572,-0.274392008781433,1.10518991947174,-0.228659987449646,-763.5,175.5,-904.500061035156,1.41339983646861,-0.401202316420276,0.208873157632632,ST
4.2,-4.34550857543945,-1.80399918556213,8.76159858703613,-0.320124000310898,1.76830399036407,0.304879993200302,-785.100036621094,174.900009155273,-904.500061035156,1.41053489975007,-0.455205355439994,0.203682109454941,ST
4.23333333333333,-4.41489315032959,-2.05282664299011,8.1012487411499,0.693601965904236,2.69056582450867,-0.0076219998300075,-765.900024414062,174.900009155273,-906.900024414062,1.43893771680995,-0.490512462511548,0.247528798686428,ST
4.26666666666667,-5.18530130386353,-2.095294713974,8.11440753936768,0.792688012123108,2.66770005226135,-0.663114011287689,-758.700012207031,179.100006103516,-899.700012207031,1.45475712950478,-0.558128672309902,0.252725604487451,ST
4.3,-4.96458673477173,-2.10665965080261,7.63230419158936,0.92988395690918,1.76068198680878,-1.82927989959717,-746.700012207031,180.300003051758,-904.500061035156,1.48455483166359,-0.56215333096155,0.27010089969666,ST
4.33333333333333,-4.94305372238159,-1.88714110851288,7.74654960632324,0.724089980125427,0.922261953353882,-1.80641400814056,-753.900024414062,177.300003051758,-904.500061035156,1.48634123255443,-0.555800652031809,0.239906302940305,ST
4.36666666666667,-5.51906538009644,-1.91226303577423,7.75611972808838,0.442075997591019,0.289635986089706,-0.777444005012512,-744.300048828125,183.300003051758,-899.700012207031,1.49550499241054,-0.604628589132466,0.241943674742142,ST
4.4,-5.63809585571289,-1.27763342857361,8.09048175811768,0.221037998795509,-0.221037998795509,0.213415995240211,-739.5,182.700012207031,-904.500061035156,1.44608510097938,-0.602551103958434,0.156155030059266,ST
4.43333333333333,-4.28868532180786,-1.41939330101013,7.61017322540283,0.3125019967556,-0.495429992675781,1.21951997280121,-749.100036621094,181.5,-897.300048828125,1.45173617543798,-0.505678777679952,0.182538137738156,ST
4.46666666666667,-5.08780431747437,-1.48459088802338,8.74843883514404,-0.160062000155449,-0.0533539988100529,0.716467976570129,-741.900024414062,179.700012207031,-902.100036621094,1.43820762894457,-0.52069603594433,0.167689557273136,ST
4.5,-5.26963949203491,-1.52466642856598,8.67068004608154,-0.335367977619171,-1.53202199935913,0.823175966739655,-756.300048828125,179.700012207031,-902.100036621094,1.43168672791031,-0.536941743774517,0.173515522511663,ST
4.53333333333333,-5.34081840515137,-1.54859220981598,8.52832221984863,-0.320124000310898,-0.434453994035721,0.99848198890686,-749.100036621094,177.900009155273,-892.500061035156,1.42529047167239,-0.551751342916351,0.179031831719183,ST
4.56666666666667,-5.35457611083984,-1.29318511486053,8.10304260253906,0.731711983680725,1.02897000312805,1.2576299905777,-749.100036621094,179.700012207031,-902.100036621094,1.40845635231602,-0.580214058173312,0.155804256536191,ST
4.6,-5.36055707931519,-1.54201257228851,8.18259620666504,1.91312193870544,2.9192259311676,0.426831990480423,-732.300048828125,174.300003051758,-904.500061035156,1.43304285573034,-0.577150339516833,0.18299752959025,ST
4.63333333333333,-5.4018292427063,-1.41640257835388,8.00913429260254,2.09605002403259,1.91312193870544,0.129574000835419,-734.700012207031,176.700012207031,-904.500061035156,1.43862968435462,-0.589566623825854,0.17164247146381,ST
4.66666666666667,-4.79710674285889,-1.38589727878571,7.9038610458374,1.76830399036407,0.0609759986400604,-0.0914639979600906,-725.100036621094,179.700012207031,-890.100036621094,1.44757616609752,-0.538951204572044,0.170600639953221,ST
4.7,-4.27313327789307,-1.45647811889648,6.94025278091431,1.2500079870224,-0.457319974899292,0.327746003866196,-739.5,179.700012207031,-906.900024414062,1.46735447777326,-0.54164223811152,0.204157402044811,ST
4.73333333333333,-4.53212928771973,-1.33445692062378,7.04133892059326,0.388722002506256,-0.129574000835419,0.724089980125427,-739.5,179.100006103516,-897.300048828125,1.45413770381875,-0.563852714926517,0.185851989149437,ST
4.76666666666667,-5.06806516647339,-1.56952714920044,7.5730881690979,-0.221037998795509,0.335367977619171,1.57013201713562,-717.900024414062,171.300003051758,-902.100036621094,1.45173796383727,-0.581171651335273,0.203016592800703,ST
4.8,-4.93587589263916,-1.69513714313507,8.17063331604004,-0.342989981174469,0.541162014007568,1.78354799747467,-729.900024414062,178.5,-897.300048828125,1.43834637113251,-0.53581453034117,0.203464774599794,ST
4.83333333333333,-5.05131721496582,-1.46903908252716,8.07612609863281,-0.0990860015153885,0.0990860015153885,2.18751406669617,-729.900024414062,186.300003051758,-906.900024414062,1.40892257837361,-0.552447892505762,0.17787271114829,ST
4.86666666666667,-5.24691009521484,-1.25968909263611,8.69939136505127,0.449698001146317,-0.0457319989800453,2.17227005958557,-729.900024414062,169.5,-902.100036621094,1.37575167422028,-0.53863527177562,0.140858317461347,ST
4.9,-4.50880193710327,-1.17893981933594,8.15149211883545,1.10518991947174,-0.0533539988100529,2.0655620098114,-725.100036621094,176.700012207031,-899.700012207031,1.36436269781627,-0.501372852051103,0.139742549277836,ST
4.93333333333333,-4.24262809753418,-1.30335354804993,7.88830947875977,1.03659200668335,-0.198172003030777,0.975615978240967,-722.700012207031,177.300003051758,-904.500061035156,1.37107551231993,-0.487827039072093,0.160964003730221,ST
4.96666666666667,-4.12180328369141,-1.38290655612946,8.1012487411499,0.335367977619171,-1.6768399477005,0.190549999475479,-732.300048828125,171.900009155273,-902.100036621094,1.37189480839938,-0.462082680091136,0.168068263780515,ST
5.0,-4.3281626701355,-1.31112945079803,7.53301239013672,0.571649968624115,-1.70732796192169,0.990859985351562,-727.5,173.700012207031,-899.700012207031,1.36564105245443,-0.512314471980376,0.170077346312092,ST
5.03333333333333,-5.15359973907471,-1.58268630504608,8.06117248535156,-0.0533539988100529,-0.259148001670837,1.79879200458527,-732.300048828125,177.900009155273,-904.500061035156,1.36158518436217,-0.560384783565454,0.191952877663066,ST
5.06666666666667,-5.55196285247803,-1.2297819852829,9.43989276885986,-0.114329993724823,-0.594515979290009,1.95885396003723,-729.900024414062,177.300003051758,-914.100036621094,1.31186459216949,-0.527444048593388,0.127788935954161,ST
5.1,-4.29107761383057,-0.949252903461456,9.5984001159668,2.15702605247498,-1.89025592803955,1.05183601379395,-729.900024414062,173.100006103516,-904.500061035156,1.29452260628451,-0.415627690189397,0.0939010622000118,ST
5.13333333333333,-4.10445690155029,-0.836802005767822,8.32315921783447,2.76678586006165,-2.20275783538818,-0.67835795879364,-741.900024414062,177.900009155273,-906.900024414062,1.30921750514572,-0.452123762749881,0.0957522506506016,ST
5.16666666666667,-4.93408155441284,-0.70162171125412,7.83985996246338,1.50915598869324,-1.75305998325348,-0.632625997066498,-729.900024414062,176.700012207031,-909.300048828125,1.31621367360524,-0.556656891335294,0.0871459393822009,ST
5.2,-5.04533576965332,-0.627451956272125,8.52293872833252,0.365855991840363,-1.6920839548111,-0.396344006061554,-741.900024414062,171.900009155273,-902.100036621094,1.31257816458306,-0.530380151642401,0.0731596893609286,ST
5.23333333333333,-4.10625171661377,-1.03179657459259,7.11371421813965,-0.815553963184357,-1.82165801525116,0.221037998795509,-746.700012207031,179.100006103516,-911.700012207031,1.34146126091968,-0.515960562663997,0.144810979423983,ST
5.26666666666667,-5.06806516647339,-0.911569893360138,8.49901390075684,-1.6692179441452,-1.47866797447205,-0.0076219998300075,-751.5,176.100006103516,-894.900024414062,1.31509797213209,-0.532594524971048,0.109676632602607,ST
5.3,-4.65415048599243,-1.34881234169006,8.84294605255127,-1.39482593536377,-2.10367202758789,0.899396002292633,-729.900024414062,170.700012207031,-897.300048828125,1.3211166087795,-0.476498566918732,0.152605614827908,ST
5.33333333333333,-3.32328224182129,-1.40503787994385,8.98649978637695,-0.411587983369827,-3.46800994873047,0.990859985351562,-744.300048828125,179.100006103516,-906.900024414062,1.30776759873482,-0.344792478377566,0.154855710875027,ST
5.36666666666667,-3.08402514457703,-1.25131511688232,8.59411811828613,0.449698001146317,-2.87349390983582,0.731711983680725,-739.5,180.900009155273,-906.900024414062,1.29584372218216,-0.336458051819205,0.143134323392172,ST
5.4,-3.12768959999084,-1.11733102798462,9.78801155090332,1.20427596569061,-1.46342396736145,0.144817993044853,-753.900024414062,178.5,-904.500061035156,1.28650839648598,-0.30493777387538,0.111419605240848,ST
5.43333333333333,-3.01523876190186,-0.96061760187149,9.37948036193848,1.69970595836639,-1.83690190315247,-0.342989981174469,-739.5,177.900009155273,-902.100036621094,1.28870567961772,-0.306269486410842,0.0992035892646979,ST
5.46666666666667,-4.49145555496216,-0.598741114139557,8.1491003036499,1.22714197635651,-0.685979962348938,0.282013982534409,-756.300048828125,177.900009155273,-906.900024414062,1.27977103657195,-0.500952432241612,0.0709562136440998,ST
5.5,-4.61347675323486,-0.416905641555786,8.24061584472656,0.144817993044853,1.00610399246216,1.33385002613068,-763.5,170.100006103516,-904.500061035156,1.26013595999178,-0.511669399459044,0.0490944518159862,ST
5.53333333333333,-4.00396919250488,-0.658555388450623,8.40271282196045,-0.182927995920181,1.12043392658234,0.815553963184357,-758.700012207031,171.300003051758,-902.100036621094,1.26703000532084,-0.445713760220288,0.0778585705246411,ST
5.56666666666667,-3.8717794418335,-0.812876284122467,8.38416957855225,-0.289635986089706,0.602137982845306,-0.823175966739655,-749.100036621094,175.5,-904.500061035156,1.28131709722664,-0.431783238128264,0.0978140800769633,ST
5.6,-3.67259788513184,-0.800913453102112,7.72860527038574,-0.846041977405548,-0.396344006061554,-1.6768399477005,-753.900024414062,173.700012207031,-902.100036621094,1.29499588242396,-0.440531022383666,0.106063442573876,ST
5.63333333333333,-3.68575692176819,-0.976767480373383,7.79739189147949,-1.10518991947174,-0.78506600856781,-0.602137982845306,-773.100036621094,167.700012207031,-914.100036621094,1.30372353159424,-0.437075448729285,0.126930053577856,ST
5.66666666666667,-4.49683904647827,-1.24892246723175,8.66110992431641,-1.05945801734924,0.0685980021953583,-0.746955990791321,-749.100036621094,176.100006103516,-916.500061035156,1.31364230598937,-0.474530963035995,0.145684998574873,ST
5.7,-3.9938006401062,-1.64967834949493,9.28557109832764,-0.556405961513519,-0.861285984516144,-1.6768399477005,-751.5,177.900009155273,-899.700012207031,1.33845865549034,-0.398658186071596,0.177870507501897,ST
5.73333333333333,-4.62484169006348,-1.76511991024017,9.48116397857666,-0.564027965068817,-1.57775402069092,-1.47104597091675,-761.100036621094,177.900009155273,-904.500061035156,1.34879564372073,-0.443864541449766,0.18598754452027,ST
5.76666666666667,-4.59971952438354,-1.53662931919098,9.11211013793945,-0.282013982534409,-1.60061991214752,-0.228659987449646,-758.700012207031,181.5,-909.300048828125,1.33931696485974,-0.458998971712861,0.167567087784962,ST
5.8,-2.72693371772766,-1.56892895698547,9.2167854309082,-0.510673999786377,-2.24848985671997,0.83841997385025,-756.300048828125,175.5,-902.100036621094,1.32858879271498,-0.280614881016465,0.168884646535917,ST
5.83333333333333,-2.71915793418884,-1.38709354400635,8.87165641784668,-0.701223969459534,-2.14178204536438,0.914639949798584,-765.900024414062,176.700012207031,-911.700012207031,1.3121423575483,-0.290581749524549,0.155695948102928,ST
5.86666666666667,-2.74667263031006,-1.51449799537659,8.81004810333252,-0.861285984516144,-0.868907988071442,1.39482593536377,-773.100036621094,181.5,-921.300048828125,1.30091735094887,-0.297012143366854,0.170908507512874,ST
5.9,-2.8040943145752,-1.61378967761993,9.68034553527832,-0.708845973014832,0.0,0.975615978240967,-775.500061035156,183.300003051758,-918.900024414062,1.28982218728263,-0.278636894208637,0.165957047085889,ST
5.93333333333333,-3.25748658180237,-1.52107763290405,9.56131553649902,0.731711983680725,0.533540010452271,1.02134799957275,-761.100036621094,182.100006103516,-904.500061035156,1.28122279416113,-0.325646340266049,0.155968152262288,ST
5.96666666666667,-3.38788175582886,-1.35060679912567,8.83397388458252,1.21951997280121,1.61586391925812,1.14329993724823,-785.100036621094,174.300003051758,-909.300048828125,1.27536455016885,-0.365349628969469,0.149010718909752,ST
6.0,-3.09538984298706,-1.37513065338135,8.84294605255127,1.31098401546478,1.93598794937134,0.495429992675781,-758.700012207031,178.5,-921.300048828125,1.27853501343701,-0.336545675855147,0.151858207831375,ST
6.03333333333333,-3.49853825569153,-1.4600670337677,8.42544174194336,1.18140995502472,2.14940404891968,-0.3125019967556,-756.300048828125,180.900009155273,-914.100036621094,1.29411076737505,-0.391827685932427,0.169965785804116,ST
6.06666666666667,-4.40472507476807,-1.61139714717865,9.09536170959473,0.274392008781433,2.71343183517456,-1.41769194602966,-753.900024414062,183.300003051758,-916.500061035156,1.31237872554614,-0.449048765890885,0.176421559999217,ST
6.1,-4.32696628570557,-1.9008983373642,9.32205867767334,0.609759986400604,2.41617393493652,-1.62348592281342,-756.300048828125,185.100006103516,-918.900024414062,1.34152418156989,-0.430453690705432,0.201692931627066,ST
6.13333333333333,-4.56562519073486,-2.16587567329407,8.86567497253418,0.960371971130371,1.81403601169586,-2.13416004180908,-744.300048828125,176.100006103516,-911.700012207031,1.38112955333087,-0.465964514950917,0.240028166392914,ST
6.16666666666667,-5.0531120300293,-1.99660122394562,8.50200462341309,0.663114011287689,1.51677799224854,-1.89787793159485,-739.5,176.700012207031,-904.500061035156,1.398868383481,-0.52629389603478,0.231733747766954,ST
6.2,-4.51298856735229,-1.93319809436798,7.55215311050415,0.815553963184357,1.63110792636871,-0.37347799539566,-749.100036621094,176.100006103516,-916.500061035156,1.41722217238416,-0.527363379682876,0.249909234669012,ST
6.23333333333333,-5.05969142913818,-1.79442894458771,7.63409852981567,0.78506600856781,2.0655620098114,0.503051996231079,-739.5,179.700012207031,-914.100036621094,1.41029953081678,-0.576620874191463,0.229506455881674,ST
6.26666666666667,-4.60809326171875,-1.66164112091064,7.43491697311401,0.868907988071442,1.92836594581604,1.30336201190948,-720.300048828125,176.100006103516,-911.700012207031,1.40135704613093,-0.547805992887983,0.217469613747281,ST
6.3,-4.75344228744507,-1.77947533130646,7.14242506027222,0.92988395690918,1.07470202445984,1.35671591758728,-732.300048828125,176.100006103516,-909.300048828125,1.41034276035364,-0.575758486691277,0.24132043319698,ST
6.33333333333333,-5.44908237457275,-1.75674593448639,6.71774387359619,0.541162014007568,1.265251994133,1.50153398513794,-715.5,179.700012207031,-904.500061035156,1.41231725195713,-0.667945378503721,0.253245246542367,ST
6.36666666666667,-5.80318307876587,-2.06837844848633,8.06954669952393,-0.129574000835419,1.79879200458527,2.67532205581665,-720.300048828125,168.300003051758,-909.300048828125,1.39378420941058,-0.61278650978927,0.248519579815133,ST
6.4,-6.0370569229126,-1.87039303779602,8.38895511627197,0.350611984729767,0.609759986400604,2.88873791694641,-727.5,175.5,-911.700012207031,1.35757423671704,-0.614451738760664,0.215531851028087,ST
6.43333333333333,-5.25648021697998,-1.76751244068146,8.64137172698975,0.914639949798584,0.213415995240211,2.78965187072754,-720.300048828125,176.700012207031,-906.900024414062,1.33111212693054,-0.53888124147344,0.19737838151593,ST
6.46666666666667,-4.36764001846313,-1.71367967128754,8.27530765533447,1.36433792114258,-1.20427596569061,1.86738991737366,-732.300048828125,175.5,-909.300048828125,1.32116424995712,-0.475687017518055,0.19994823385558,ST
6.5,-4.17623424530029,-1.7405960559845,7.97743272781372,1.265251994133,-1.28811800479889,0.975615978240967,-725.100036621094,172.5,-906.900024414062,1.32172848053742,-0.470952597446661,0.211505774771963,ST
6.53333333333333,-4.78035879135132,-1.58627510070801,8.1012487411499,0.365855991840363,-0.647870004177094,1.265251994133,-720.300048828125,172.5,-894.900024414062,1.30339389881813,-0.524075563773132,0.19139557924752,ST
6.56666666666667,-3.9656879901886,-1.7244461774826,7.95948839187622,-0.121951997280121,-0.259148001670837,2.55336999893188,-732.300048828125,175.5,-909.300048828125,1.29262338419114,-0.453807895806179,0.211345724609811,ST
6.6,-4.13615846633911,-1.69752979278564,8.0115270614624,-0.579271972179413,0.259148001670837,2.46190595626831,-737.100036621094,169.5,-911.700012207031,1.27058502049973,-0.468981169084423,0.207736543134965,ST
6.63333333333333,-4.19896364212036,-1.37991583347321,8.34349632263184,-0.853663980960846,0.0914639979600906,2.5152599811554,-734.700012207031,174.900009155273,-909.300048828125,1.22832310566855,-0.46174977516888,0.163360466480863,ST
6.66666666666667,-3.99679136276245,-1.27165198326111,8.43262004852295,-0.304879993200302,0.0,2.01220798492432,-734.700012207031,181.5,-909.300048828125,1.20524528778201,-0.438847116677333,0.148610730178776,ST
6.7,-4.66671133041382,-1.17714536190033,8.11620235443115,0.160062000155449,0.533540010452271,1.00610399246216,-741.900024414062,170.100006103516,-909.300048828125,1.19631578090588,-0.518314080916547,0.14285388861114,ST
6.73333333333333,-5.66261959075928,-1.35120499134064,9.0792121887207,-0.67835795879364,0.685979962348938,1.39482593536377,-739.5,176.100006103516,-909.300048828125,1.18546505333322,-0.554236462719249,0.1475358957172,ST
6.76666666666667,-4.83239698410034,-0.873288750648499,7.55454587936401,-0.754577994346619,0.342989981174469,2.47714996337891,-725.100036621094,176.700012207031,-906.900024414062,1.14507307762281,-0.567135716590435,0.11376627851479,ST
6.8,-5.10754299163818,-0.874485015869141,8.12577247619629,-0.937505960464478,0.800309956073761,2.46190595626831,-722.700012207031,176.100006103516,-902.100036621094,1.11816645739633,-0.560420327363478,0.106266923351317,ST
6.83333333333333,-4.68585205078125,-0.863120317459106,8.4176664352417,-0.655492007732391,-1.06708002090454,1.61586391925812,-739.5,174.900009155273,-906.900024414062,1.10014616420895,-0.504300934066557,0.101678693493654,ST
6.86666666666667,-4.48128700256348,-0.99889874458313,7.97324562072754,-0.647870004177094,-1.6920839548111,1.36433792114258,-722.700012207031,179.700012207031,-904.500061035156,1.09656528573819,-0.506080733472788,0.124194411245417,ST
6.9,-4.42865037918091,-1.12211620807648,7.8918981552124,-0.480185985565186,-2.0731840133667,0.807931959629059,-739.5,176.700012207031,-909.300048828125,1.09447736825558,-0.503735464359943,0.140985645340764,ST
6.93333333333333,-4.72772216796875,-1.13108837604523,8.01511573791504,-0.426831990480423,-2.30946588516235,1.11281192302704,-739.5,176.100006103516,-909.300048828125,1.08124278273254,-0.52484565698711,0.139503538483386,ST
6.96666666666667,-4.35926580429077,-0.878672003746033,7.98461055755615,0.609759986400604,-2.44666194915771,1.35671591758728,-746.700012207031,175.5,-904.500061035156,1.05443919626723,-0.493247658590616,0.107054729343845,ST
7.0,-5.38448286056519,-1.04435765743256,8.32854270935059,0.731711983680725,-1.80641400814056,0.411587983369827,-746.700012207031,176.700012207031,-902.100036621094,1.06108346539699,-0.567180375703238,0.122730207264455,ST
7.03333333333333,-5.29177093505859,-1.16936945915222,9.54995059967041,1.41769194602966,-2.67532205581665,-0.274392008781433,-761.100036621094,174.900009155273,-904.500061035156,1.06534551345828,-0.498264421972682,0.119322545922579,ST
7.06666666666667,-4.70379638671875,-0.742893576622009,7.41637468338013,1.31098401546478,-3.65855979919434,-0.411587983369827,-749.100036621094,179.100006103516,-909.300048828125,1.06096216164772,-0.556448701388976,0.0976311663491399,ST
7.1,-4.88742637634277,-0.391185492277145,7.51447010040283,0.807931959629059,-2.33995389938354,-0.0076219998300075,-761.100036621094,174.900009155273,-902.100036621094,1.03859363446371,-0.57192326483432,0.0505894794056394,ST
7.13333333333333,-4.15529918670654,-0.863120317459106,8.14969825744629,0.274392008781433,-2.56099200248718,-0.396344006061554,-756.300048828125,168.900009155273,-894.900024414062,1.06806865533142,-0.464911034992545,0.105064874238894,ST
7.16666666666667,-4.29347038269043,-1.07426476478577,8.32614994049072,-0.777444005012512,-2.90398192405701,-1.37958192825317,-761.100036621094,169.5,-921.300048828125,1.08422606866535,-0.467399956524905,0.13048604489198,ST
7.2,-3.87596654891968,-1.1436493396759,9.12287616729736,-1.2576299905777,-3.87197589874268,-1.18903195858002,-782.700012207031,173.700012207031,-914.100036621094,1.0840914655563,-0.392175402032934,0.127416165357312,ST
7.23333333333333,-3.36874127388,-1.19808042049408,8.19515705108643,-1.58537602424622,-5.19058179855347,-1.34909391403198,-780.300048828125,182.700012207031,-914.100036621094,1.09156964915575,-0.377035629510414,0.148284890442965,ST
7.26666666666667,-3.52425837516785,-1.1938933134079,8.66051197052002,-1.59299790859222,-2.0655620098114,0.594515979290009,-765.900024414062,178.5,-914.100036621094,1.07605728947071,-0.379762729400104,0.139187527149411,ST
7.3,-3.01882767677307,-1.51689052581787,9.76288986206055,-1.45580196380615,-1.08994603157043,1.40244793891907,-773.100036621094,177.300003051758,-911.700012207031,1.06495241202301,-0.295247551982816,0.15581307154618,ST
7.33333333333333,-3.54100632667542,-1.35299944877625,10.2880592346191,-0.693601965904236,-0.960371971130371,1.10518991947174,-770.700012207031,175.5,-916.500061035156,1.04477551952063,-0.327397672852418,0.131287616769806,ST
7.36666666666667,-2.65814733505249,-1.22858572006226,9.449462890625,0.320124000310898,-0.289635986089706,1.05945801734924,-785.100036621094,181.5,-914.100036621094,1.03486014987945,-0.271842002629747,0.128206164777249,ST
7.4,-3.12410068511963,-1.251913189888,9.58703517913818,0.457319974899292,0.342989981174469,0.304879993200302,-768.300048828125,174.300003051758,-904.500061035156,1.03412045590474,-0.313094417873303,0.128903618890253,ST
7.43333333333333,-2.71437287330627,-1.11613476276398,9.1982421875,1.02134799957275,2.40855193138123,-0.205793991684914,-763.5,177.900009155273,-918.900024414062,1.03870417456476,-0.289129535233113,0.119235553805566,ST
7.46666666666667,-2.75205588340759,-1.43135607242584,9.13663387298584,1.2347639799118,2.69056582450867,0.0228659994900227,-753.900024414062,178.5,-914.100036621094,1.05465463259153,-0.293873295547769,0.153366489600629,ST
7.5,-3.46384596824646,-1.60481762886047,9.08758640289307,0.731711983680725,2.62196803092957,0.0381099991500378,-758.700012207031,179.700012207031,-906.900024414062,1.06669402273116,-0.363428739194472,0.173739948570081,ST
7.53333333333333,-3.39984464645386,-1.58149003982544,8.69879341125488,0.320124000310898,1.53202199935913,0.594515979290009,-746.700012207031,181.5,-904.500061035156,1.06688745849938,-0.369915671443864,0.179067052654789,ST
7.56666666666667,-4.03686714172363,-1.63472473621368,7.36553239822388,-0.0381099991500378,1.05945801734924,-0.228659987449646,-763.5,182.100006103516,-911.700012207031,1.08685048993469,-0.492711956615523,0.218786330822328,ST
7.6,-4.67209482192993,-2.03966760635376,7.99059200286865,-0.396344006061554,1.2423859834671,-0.754577994346619,-765.900024414062,176.100006103516,-916.500061035156,1.10957587211869,-0.517197736388893,0.251611646216846,ST
7.63333333333333,-4.86888360977173,-2.06598591804504,8.80286979675293,-0.182927995920181,-0.228659987449646,-0.99848198890686,-753.900024414062,171.300003051758,-904.500061035156,1.10654559009074,-0.493197586792715,0.231735626547932,ST
7.66666666666667,-4.51298856735229,-1.74777376651764,8.46312522888184,0.426831990480423,-1.63110792636871,-0.556405961513519,-765.900024414062,174.300003051758,-909.300048828125,1.09649501174737,-0.478328189476718,0.203172939054991,ST
7.7,-4.20494508743286,-1.47502052783966,8.19455909729004,0.975615978240967,-1.15854394435883,0.632625997066498,-746.700012207031,175.5,-909.300048828125,1.08108009746746,-0.465873186123195,0.175690305929482,ST
7.73333333333333,-4.25817966461182,-1.45946884155273,9.14799880981445,1.09756803512573,-1.21189796924591,0.800309956073761,-741.900024414062,176.700012207031,-911.700012207031,1.0686833767985,-0.429080083367869,0.155555572809301,ST
7.76666666666667,-3.60680222511292,-1.10417187213898,8.9296760559082,1.50153398513794,-1.57013201713562,0.434453994035721,-744.300048828125,179.100006103516,-914.100036621094,1.05461323227527,-0.378742904518742,0.120058962819877,ST
7.8,-3.02062201499939,-1.25550210475922,9.07024002075195,1.33385002613068,-1.20427596569061,-0.182927995920181,-761.100036621094,178.5,-911.700012207031,1.06380184701165,-0.316637096088194,0.135198539708056,ST
7.83333333333333,-2.90996551513672,-1.38290655612946,8.61206245422363,0.685979962348938,-0.990859985351562,-1.48628997802734,-770.700012207031,170.700012207031,-906.900024414062,1.08497417739967,-0.319887542026818,0.158749706226128,ST
7.86666666666667,-3.45008873939514,-1.60421943664551,8.70118618011475,-0.0,0.518296003341675,-1.30336201190948,-765.900024414062,177.900009155273,-918.900024414062,1.10471777628072,-0.37217315791548,0.183207120469037,ST
7.9,-4.25937604904175,-2.00019001960754,9.08638954162598,-0.518296003341675,1.15854394435883,-0.259148001670837,-761.100036621094,176.700012207031,-926.100036621094,1.12052293670824,-0.431109191006617,0.217926040634506,ST
7.93333333333333,-3.58825969696045,-2.00856399536133,9.61514854431152,-0.396344006061554,1.59299790859222,0.213415995240211,-756.300048828125,179.100006103516,-906.900024414062,1.11597592741707,-0.353136297939968,0.206714532757574,ST
7.96666666666667,-4.41250085830688,-1.81476581096649,8.32076644897461,0.571649968624115,2.98782396316528,0.144817993044853,-749.100036621094,177.300003051758,-906.900024414062,1.12539145153709,-0.48298327947297,0.214178853169932,ST
8.0,-4.71695566177368,-1.75674593448639,8.78313159942627,0.754577994346619,3.48325395584106,0.548784017562866,-746.700012207031,180.300003051758,-902.100036621094,1.12149105823204,-0.490850982480974,0.196255045523724,ST
8.03333333333333,-3.63252234458923,-1.63532292842865,8.44278812408447,1.09756803512573,1.21189796924591,0.884151995182037,-739.5,181.5,-911.700012207031,1.11709780603817,-0.402173908298735,0.188947072802368,ST
8.06666666666667,-4.43403387069702,-1.18970632553101,8.33572006225586,1.28049600124359,0.426831990480423,0.746955990791321,-734.700012207031,168.900009155273,-916.500061035156,1.09541341758432,-0.485513900881792,0.138970597340395,ST
8.1,-3.91723823547363,-1.19688403606415,8.03485488891602,1.31860601902008,-1.20427596569061,0.754577994346619,-734.700012207031,170.100006103516,-916.500061035156,1.09584067139461,-0.447501314124163,0.144787496502008,ST
8.13333333333333,-4.45257616043091,-0.711790144443512,7.50370359420776,0.990859985351562,-1.77592599391937,1.02897000312805,-737.100036621094,176.700012207031,-911.700012207031,1.06605734008949,-0.530453569268161,0.0917637244493372,ST
8.16666666666667,-4.623046875,-0.810483753681183,8.88003063201904,0.243903994560242,-0.762199997901917,2.53812599182129,-741.900024414062,181.5,-916.500061035156,1.0455418025169,-0.477500642795636,0.0882528240883774,ST
8.2,-4.74327373504639,-1.00129127502441,9.67376613616943,-0.266770005226135,-2.56861400604248,2.85062789916992,-749.100036621094,176.700012207031,-906.900024414062,1.02472028324814,-0.449858065643245,0.10097098772789,ST
8.23333333333333,-3.71566414833069,-0.82065212726593,8.30940246582031,-0.609759986400604,-4.11588001251221,3.00306797027588,-749.100036621094,173.700012207031,-911.700012207031,0.994124202463721,-0.412137491610137,0.0969248744066519,ST
8.26666666666667,-3.36634874343872,-0.715378999710083,7.75671815872192,-1.15854394435883,-4.15398979187012,2.0579400062561,-770.700012207031,173.100006103516,-909.300048828125,0.968967928219255,-0.401056008400141,0.0922010271550426,ST
8.3,-3.74078607559204,-0.925925314426422,8.06416320800781,-1.76830399036407,-2.61434602737427,1.03659200668335,-773.100036621094,174.300003051758,-916.500061035156,0.960478906411346,-0.42748532315744,0.116320111886163,ST
8.33333333333333,-3.25150513648987,-1.32727921009064,9.49851036071777,-0.967993974685669,-3.01068997383118,0.564027965068817,-768.300048828125,176.100006103516,-923.700012207031,0.957837570286905,-0.321961369479264,0.139920347649959,ST
8.36666666666667,-2.54988360404968,-1.54560148715973,9.69171047210693,-0.358233988285065,-2.86587190628052,-0.449698001146317,-775.500061035156,180.900009155273,-921.300048828125,0.962281876399912,-0.249223026991263,0.158743943973189,ST
8.4,-2.77837419509888,-1.3721399307251,9.14859676361084,0.213415995240211,-0.602137982845306,0.190549999475479,-785.100036621094,179.700012207031,-914.100036621094,0.957556528555707,-0.290722292515013,0.148369550203942,ST
8.43333333333333,-2.97576117515564,-1.03119850158691,8.84115123748779,0.891773998737335,1.15854394435883,1.14329993724823,-768.300048828125,182.100006103516,-916.500061035156,0.941040239604508,-0.324817171696223,0.114021276237975,ST
8.46666666666667,-3.5212676525116,-1.02701151371002,9.17431735992432,1.03659200668335,2.65245604515076,1.15854394435883,-763.5,173.700012207031,-909.300048828125,0.935461267301603,-0.36913646290089,0.109102796197716,ST
8.5,-3.48059391975403,-1.13288283348083,9.5684928894043,0.739333987236023,1.87501192092896,0.617381989955902,-758.700012207031,182.100006103516,-909.300048828125,0.936975929400503,-0.350069247275296,0.116290351397363,ST
8.53333333333333,-4.03985786437988,-1.01026344299316,8.81363677978516,0.891773998737335,1.92074394226074,0.167683988809586,-770.700012207031,183.900009155273,-906.900024414062,0.93909379346263,-0.430486343853192,0.112620449828467,ST
8.56666666666667,-4.01533365249634,-0.770408153533936,8.39673137664795,0.983237981796265,2.42379593849182,-0.129574000835419,-758.700012207031,174.900009155273,-918.900024414062,0.93597114005622,-0.448576824540364,0.0901287779490055,ST
8.6,-3.97824883460999,-0.973776757717133,8.74604606628418,0.914639949798584,2.42379593849182,-0.0914639979600906,-756.300048828125,178.5,-918.900024414062,0.950243115612935,-0.428810442180846,0.109525549870487,ST
8.63333333333333,-4.75164794921875,-1.34641981124878,9.55114650726318,1.08994603157043,1.54726600646973,-0.571649968624115,-749.100036621094,180.300003051758,-909.300048828125,0.973243432879029,-0.460205476600737,0.138761449653438,ST
8.66666666666667,-3.79760980606079,-1.1735565662384,8.93087291717529,0.967993974685669,-0.289635986089706,-0.975615978240967,-744.300048828125,180.900009155273,-911.700012207031,0.980168238398201,-0.398416732003112,0.129672953346692,ST
8.7,-3.34780621528625,-0.892429292201996,7.48874998092651,0.495429992675781,-1.11281192302704,-1.15854394435883,-758.700012207031,177.300003051758,-906.900024414062,0.985524680771335,-0.415562426605282,0.118557050497579,ST
8.73333333333333,-4.19238424301147,-0.937888205051422,7.98939561843872,0.472563982009888,1.06708002090454,-0.289635986089706,-758.700012207031,177.900009155273,-911.700012207031,0.989624669256546,-0.482062238834042,0.116412554981557,ST
8.76666666666667,-4.30902194976807,-1.06708705425262,8.63299751281738,0.907018005847931,-0.0228659994900227,-0.198172003030777,-749.100036621094,177.300003051758,-904.500061035156,0.997270627228206,-0.459885590979484,0.121558682307063,ST
8.8,-3.82512426376343,-1.04734838008881,8.81961822509766,0.533540010452271,-1.53964400291443,-0.853663980960846,-737.100036621094,180.900009155273,-909.300048828125,1.0032451315149,-0.403915804334097,0.117770825642022,ST
8.83333333333333,-3.34122657775879,-1.04495573043823,8.52293872833252,0.556405961513519,-2.14940404891968,-1.00610399246216,-756.300048828125,173.100006103516,-916.500061035156,1.01306122695395,-0.367195628520881,0.121515839273654,ST
8.86666666666667,-4.02430582046509,-1.12869584560394,8.96496677398682,0.396344006061554,-1.21951997280121,-1.04421401023865,-751.5,178.5,-918.900024414062,1.02285521043115,-0.416540910085208,0.125221734146207,ST
8.9,-4.27014255523682,-1.30335354804993,9.56669902801514,0.259148001670837,-0.792688012123108,-1.03659200668335,-756.300048828125,173.100006103516,-904.500061035156,1.03524855074044,-0.414795586689252,0.135634165837237,ST
8.93333333333333,-2.77119636535645,-1.64010798931122,9.30889892578125,0.182927995920181,-1.08994603157043,-1.69970595836639,-768.300048828125,180.900009155273,-911.700012207031,1.06301888929356,-0.282926817991609,0.174796829145389,ST
8.96666666666667,-2.52535963058472,-1.54081630706787,8.32614994049072,0.137196004390717,-0.564027965068817,-1.75305998325348,-758.700012207031,177.900009155273,-909.300048828125,1.07926242201687,-0.288302683128267,0.18356514383266,ST
9.0,-3.00207948684692,-1.56713461875916,8.79509449005127,-0.0838419944047928,0.137196004390717,-1.45580196380615,-749.100036621094,170.700012207031,-918.900024414062,1.08912398743108,-0.323886505719661,0.17734680625702,ST
9.03333333333333,-3.2808141708374,-1.70052051544189,8.48465824127197,0.457319974899292,0.800309956073761,-0.945127964019775,-763.5,171.300003051758,-918.900024414062,1.10610731603582,-0.363340709969217,0.19767117401771,ST
9.06666666666667,-4.10984039306641,-1.79682147502899,8.42484378814697,0.25152599811554,0.952749967575073,-0.731711983680725,-761.100036621094,170.700012207031,-918.900024414062,1.11921991493279,-0.446309557748857,0.210417836248597,ST
9.1,-4.26057243347168,-1.80818617343903,8.98111629486084,-0.0762199983000755,0.602137982845306,-0.190549999475479,-765.900024414062,179.100006103516,-916.500061035156,1.11656476420762,-0.436291489288033,0.199080003547301,ST
9.13333333333333,-3.89211630821228,-1.97028291225433,9.81313323974609,0.320124000310898,-0.990859985351562,0.0914639979600906,-761.100036621094,178.5,-904.500061035156,1.11466936063812,-0.369368966801289,0.19739818636735,ST
9.16666666666667,-4.12778472900391,-1.72504436969757,8.39553451538086,0.670735955238342,-0.602137982845306,0.182927995920181,-741.900024414062,172.5,-916.500061035156,1.11628150710896,-0.447662822296518,0.201218584451681,ST
9.2,-4.0595965385437,-1.56534016132355,8.3339262008667,0.37347799539566,0.571649968624115,0.731711983680725,-768.300048828125,168.300003051758,-916.500061035156,1.105690049926,-0.447715204255166,0.184539228022951,ST
9.23333333333333,-3.46564030647278,-1.60003244876862,8.12936115264893,0.320124000310898,0.670735955238342,1.08994603157043,-773.100036621094,175.5,-906.900024414062,1.10204422036575,-0.397733539561245,0.193080862462307,ST
9.26666666666667,-4.08950328826904,-1.61139714717865,8.66170883178711,-0.0685980021953583,0.365855991840363,0.564027965068817,-756.300048828125,170.100006103516,-909.300048828125,1.09404493116972,-0.435310183381768,0.183677258451886,ST
9.3,-3.80897450447083,-1.7364090681076,8.49183559417725,0.0838419944047928,-0.221037998795509,1.03659200668335,-758.700012207031,176.100006103516,-904.500061035156,1.09250200776476,-0.414063828924648,0.200713393126165,ST
9.33333333333333,-3.63312029838562,-1.88355219364166,9.33162879943848,-0.0228659994900227,-0.533540010452271,0.693601965904236,-758.700012207031,174.900009155273,-911.700012207031,1.08535075552736,-0.364026309754398,0.198691438047784,ST
9.36666666666667,-3.92621040344238,-1.75196075439453,8.72451305389404,0.304879993200302,-1.13567793369293,1.21189796924591,-756.300048828125,176.700012207031,-916.500061035156,1.07437547438783,-0.413869005597173,0.196565650149058,ST
9.4,-4.12778472900391,-2.03368616104126,9.58524131774902,0.243903994560242,-0.449698001146317,1.18140995502472,-749.100036621094,178.5,-909.300048828125,1.06966914352154,-0.398395969222592,0.207697321139277,ST
9.43333333333333,-3.41300368309021,-1.62455630302429,7.81952285766602,0.853663980960846,0.0762199983000755,1.48628997802734,-753.900024414062,174.900009155273,-916.500061035156,1.05900450285469,-0.404494470424602,0.202290317783877,ST
9.46666666666667,-3.79521703720093,-1.49655365943909,7.10354614257812,0.37347799539566,2.11891603469849,1.36433792114258,-744.300048828125,180.900009155273,-918.900024414062,1.05486035564307,-0.485696942826516,0.206155434743284,ST
9.5,-3.47281813621521,-1.99480676651001,10.4878387451172,-0.510673999786377,0.67835795879364,1.12805593013763,-751.5,177.300003051758,-909.300048828125,1.03762837358043,-0.316241345317324,0.188304859113822,ST
9.53333333333333,-3.36455416679382,-1.45887064933777,7.46542263031006,0.495429992675781,-2.52288198471069,2.43903994560242,-761.100036621094,177.900009155273,-906.900024414062,1.01503893220568,-0.412808785274467,0.18992184827127,ST
9.56666666666667,-3.5332305431366,-1.3458217382431,10.3209571838379,-0.693601965904236,0.266770005226135,2.39330792427063,-751.5,171.300003051758,-911.700012207031,0.970242827966134,-0.328363808265251,0.129554302810479,ST
9.6,-3.86639618873596,-1.15621042251587,8.01212501525879,0.221037998795509,-0.365855991840363,3.49087595939636,-758.700012207031,175.5,-911.700012207031,0.944939410480575,-0.44565788529489,0.13999966010035,ST
9.63333333333333,-4.42506170272827,-0.701023578643799,8.17362403869629,-0.350611984729767,0.975615978240967,3.24697184562683,-761.100036621094,183.900009155273,-911.700012207031,0.892230428032529,-0.496763555713044,0.0832810462231415,ST
9.66666666666667,-4.61048603057861,-0.672910869121552,8.01212501525879,-0.327746003866196,0.37347799539566,2.98020195960999,-751.5,176.700012207031,-911.700012207031,0.865707768020214,-0.521688801566006,0.0814176747320923,ST
9.7,-3.44889235496521,-0.814072608947754,9.30231952667236,-0.564027965068817,-1.57775402069092,1.31860601902008,-756.300048828125,173.700012207031,-911.700012207031,0.854023120675912,-0.351525603026612,0.0873320737824057,ST
9.73333333333333,-4.71575927734375,-0.582591235637665,8.32854270935059,0.0457319989800453,-2.83538389205933,0.182927995920181,-753.900024414062,179.700012207031,-914.100036621094,0.843452806511879,-0.509092065115928,0.0694062905898828,ST
9.76666666666667,-5.08182287216187,-0.619676113128662,9.33521747589111,0.480185985565186,-0.137196004390717,0.586893975734711,-758.700012207031,173.700012207031,-916.500061035156,0.83875479228082,-0.497445381545146,0.0648925386143404,ST
9.8,-3.71506595611572,-0.716575264930725,9.47219181060791,0.899396002292633,-1.14329993724823,0.579271972179413,-751.5,179.700012207031,-899.700012207031,0.840144988513631,-0.371197314677029,0.0734645635593905,ST
9.83333333333333,-4.0356707572937,-0.678294122219086,9.34000205993652,1.45580196380615,0.365855991840363,-0.0381099991500378,-758.700012207031,171.900009155273,-904.500061035156,0.844575412521671,-0.40747576566008,0.0700079746453946,ST
9.86666666666667,-3.50631403923035,-0.65137767791748,9.3717041015625,2.22562384605408,0.388722002506256,-0.67835795879364,-761.100036621094,176.700012207031,-906.900024414062,0.854904177560833,-0.358015438550536,0.0659859521983937,ST
9.9,-3.5733060836792,-0.608909547328949,8.524733543396,1.98934197425842,0.78506600856781,-1.05945801734924,-765.900024414062,173.100006103516,-911.700012207031,0.871280200468725,-0.39715980182386,0.0686415037641842,ST
9.93333333333333,-3.66362571716309,-0.65436840057373,7.89488887786865,1.34909391403198,2.11129403114319,-1.34909391403198,-753.900024414062,172.5,-916.500061035156,0.893221391195508,-0.436555055431974,0.081543858328181,ST
9.96666666666667,-4.03088569641113,-0.845774173736572,8.15627765655518,1.21189796924591,1.85214591026306,-1.2500079870224,-756.300048828125,179.700012207031,-906.900024414062,0.917917863188021,-0.459817674380063,0.10239821189702,ST
10.0,-4.72413301467896,-0.630442678928375,8.17123126983643,1.22714197635651,1.32622802257538,-0.762199997901917,-744.300048828125,174.300003051758,-914.100036621094,0.918124630021027,-0.525033740711404,0.0757640111160348,ST
10.0333333333333,-3.58227825164795,-1.27045571804047,9.14201736450195,0.663114011287689,-0.0762199983000755,-1.11281192302704,-744.300048828125,176.100006103516,-914.100036621094,0.955954290398693,-0.370208661350677,0.137528672163399,ST
10.0666666666667,-2.32318735122681,-1.30813872814178,9.76887130737305,-0.0304879993200302,-3.53660798072815,-1.98171997070312,-761.100036621094,176.700012207031,-916.500061035156,0.967270792498308,-0.22526489339807,0.133781284643653,ST
10.1,-2.44281578063965,-0.901401460170746,7.78423261642456,-0.724089980125427,-2.9192259311676,-1.72257196903229,-770.700012207031,173.100006103516,-914.100036621094,0.972841117242213,-0.296633196894477,0.11731401149322,ST
10.1333333333333,-2.54808902740479,-1.36017715930939,9.56490421295166,-1.86738991737366,0.411587983369827,-0.449698001146317,-758.700012207031,174.900009155273,-914.100036621094,0.980299586988287,-0.258532956346369,0.144706879641949,ST
10.1666666666667,-4.20554304122925,-1.07785367965698,8.06954669952393,-0.87652999162674,1.99696397781372,0.777444005012512,-763.5,170.100006103516,-911.700012207031,0.969346491222634,-0.479902151748534,0.133887783595381,ST
10.2,-4.26894617080688,-1.03897428512573,8.93087291717529,-0.586893975734711,2.42379593849182,0.884151995182037,-751.5,176.100006103516,-914.100036621094,0.954511142030573,-0.447726899762444,0.116370749214703,ST
10.2333333333333,-4.48846483230591,-1.43255245685577,8.79449653625488,-0.365855991840363,0.205793991684914,-0.0762199983000755,-746.700012207031,175.5,-906.900024414062,0.97411268016621,-0.466916084163142,0.162093404870241,ST
10.2666666666667,-3.49554753303528,-1.46485209465027,6.94743061065674,-0.541162014007568,-1.2347639799118,-0.87652999162674,-737.100036621094,177.300003051758,-916.500061035156,0.997825518188013,-0.455082260330841,0.209171533960438,ST
10.3,-4.39874362945557,-1.49655365943909,7.38945817947388,-0.990859985351562,0.403965979814529,-1.37195992469788,-758.700012207031,182.100006103516,-906.900024414062,1.00145472656791,-0.528173915040534,0.203017620109968,DLR
10.3333333333333,-4.81564903259277,-2.06957459449768,8.38596439361572,-0.800309956073761,1.20427596569061,-1.03659200668335,-751.5,173.700012207031,-909.300048828125,1.02834685572805,-0.510249937958154,0.24451607917176,DLR
10.3666666666667,-4.91374444961548,-2.39017939567566,9.58823204040527,-0.503051996231079,-0.762199997901917,-0.899396002292633,-739.5,181.5,-914.100036621094,1.03226670958796,-0.459904808052407,0.245773701875191,DLR
10.4,-4.9394645690918,-2.57141661643982,10.6361780166626,-0.434453994035721,-2.61434602737427,-0.731711983680725,-751.5,182.100006103516,-902.100036621094,1.02806958594148,-0.419330689458383,0.238052621893075,DLR
10.4333333333333,-2.50322842597961,-2.61926817893982,10.1624488830566,0.571649968624115,-5.25918006896973,-1.59299790859222,-763.5,176.100006103516,-911.700012207031,1.03571076233807,-0.225049287093937,0.251314113963436,DLR
10.4666666666667,-2.75863528251648,-2.37283325195312,8.13833332061768,1.02897000312805,-2.4847719669342,-0.891773998737335,-756.300048828125,180.300003051758,-918.900024414062,1.04788703327564,-0.309803012047882,0.281912976771664,DLR
10.5,-3.67857933044434,-2.07974314689636,7.86916875839233,0.564027965068817,-0.0533539988100529,0.685979962348938,-753.900024414062,180.900009155273,-914.100036621094,1.03533388748349,-0.42446263507554,0.256916322679844,DLR
10.5333333333333,-2.30344867706299,-1.98104953765869,8.37101078033447,0.320124000310898,-0.37347799539566,1.47104597091675,-761.100036621094,176.700012207031,-904.500061035156,1.01494354709157,-0.261990643757364,0.231165650784397,DLR
10.5666666666667,-3.34900259971619,-1.87099123001099,7.29614782333374,0.350611984729767,0.0838419944047928,2.40855193138123,-746.700012207031,185.100006103516,-909.300048828125,1.00343143267884,-0.419160324022195,0.24857737091973,DLR
10.6,-4.20554304122925,-1.84108412265778,8.84174919128418,-0.426831990480423,0.670735955238342,2.26373386383057,-753.900024414062,174.300003051758,-916.500061035156,0.967301772371255,-0.437704323307654,0.204449863477402,DLR
10.6333333333333,-3.96209907531738,-1.87039303779602,9.11928749084473,-0.548784017562866,-0.884151995182037,2.88111591339111,-749.100036621094,173.700012207031,-909.300048828125,0.938679152816389,-0.401938963459758,0.201033166193934,DLR
10.6666666666667,-4.80787324905396,-1.89252436161041,9.34837627410889,-0.472563982009888,-0.518296003341675,3.32319188117981,-756.300048828125,174.300003051758,-902.100036621094,0.909367842358776,-0.466994157408933,0.197626841419187,DLR
10.7,-4.45377254486084,-2.05641555786133,10.3030128479004,-0.701223969459534,-0.198172003030777,2.38568592071533,-741.900024414062,182.700012207031,-911.700012207031,0.887633417361049,-0.401587366583372,0.196464655041519,DLR
10.7333333333333,-3.50511789321899,-1.60122871398926,8.58335208892822,0.182927995920181,-1.31098401546478,2.17989206314087,-761.100036621094,176.700012207031,-914.100036621094,0.863799459691338,-0.380238522973086,0.182481792581345,DLR
10.7666666666667,-3.38489103317261,-1.19867849349976,7.63050985336304,0.541162014007568,0.259148001670837,2.45428395271301,-756.300048828125,175.5,-921.300048828125,0.835389942769819,-0.414039062109779,0.153118697205454,DLR
10.8,-3.38608741760254,-1.17116391658783,8.89558219909668,0.304879993200302,0.670735955238342,2.33995389938354,-756.300048828125,180.300003051758,-914.100036621094,0.808727702241468,-0.362654098704211,0.128937869868485,DLR
10.8333333333333,-3.20425200462341,-1.14065861701965,8.26095294952393,0.46494197845459,0.0914639979600906,2.42379593849182,-758.700012207031,183.900009155273,-902.100036621094,0.791895550162973,-0.367560972485949,0.134785165703675,DLR
10.8666666666667,-3.11692309379578,-1.32129776477814,8.06595802307129,-0.114329993724823,0.0076219998300075,1.89787793159485,-756.300048828125,184.5,-914.100036621094,0.785901773000823,-0.364874234835326,0.161256024341229,DLR
10.9,-4.71456289291382,-1.23337078094482,8.87285327911377,-2.34757590293884,-0.92988395690918,2.37044191360474,-741.900024414062,177.900009155273,-918.900024414062,0.748979170932327,-0.483134818101449,0.14001609588079,DLR
10.9333333333333,-4.17443990707397,-1.21303391456604,8.70357799530029,-3.94057393074036,-3.17837381362915,4.51222372055054,-749.100036621094,181.5,-911.700012207031,0.69330877908371,-0.439160477577168,0.141328142697606,DLR
10.9666666666667,-4.53990507125854,-1.53722739219666,7.71425008773804,-5.96040391921997,-4.46649169921875,6.98937368392944,-739.5,189.300003051758,-916.500061035156,0.636925986966073,-0.518026376855123,0.199284538136622,DLR
11.0,-4.10326099395752,-1.8566358089447,8.32854270935059,-9.20737552642822,-4.1311240196228,9.25310802459717,-765.900024414062,192.300003051758,-906.900024414062,0.537486726536069,-0.445016687162879,0.227056731622528,DLR
11.0333333333333,-4.05481100082397,-2.00198459625244,7.24291324615479,-10.1601257324219,-5.82320785522461,12.3857498168945,-753.900024414062,191.100006103516,-914.100036621094,0.406337146693992,-0.490825069350856,0.274766788219417,DLR
11.0666666666667,-2.7801685333252,-2.7442798614502,8.09048175811768,-9.83237934112549,-2.78202986717224,12.7897157669067,-768.300048828125,194.100006103516,-904.500061035156,0.295833217097234,-0.317815987401962,0.336510450753289,DLR
11.1,-2.85194563865662,-2.57739806175232,8.49602317810059,-8.44517612457275,-3.3460578918457,11.9131860733032,-763.5,201.900009155273,-902.100036621094,0.161095956689892,-0.311464569590933,0.302411059511232,DLR
11.1333333333333,-3.13187670707703,-2.78076672554016,8.95061111450195,-8.10980796813965,-3.95581793785095,10.6708002090454,-765.900024414062,202.500015258789,-909.300048828125,0.0478230485603403,-0.321550342790953,0.30876000293643,DLR
11.1666666666667,-3.6253445148468,-3.02241635322571,8.72451305389404,-7.17230176925659,-3.98630595207214,9.62658596038818,-770.700012207031,199.500015258789,-914.100036621094,-0.0478729873855247,-0.37304130800547,0.338841582666383,DLR
11.2,-3.37771344184875,-2.89740467071533,8.74126148223877,-6.60827398300171,-3.74240183830261,8.68908023834229,-753.900024414062,205.500015258789,-911.700012207031,-0.148792671274105,-0.35027776738786,0.325614916160298,DLR
11.2333333333333,-3.07924008369446,-3.28739380836487,8.42723655700684,-6.53205394744873,-3.71953582763672,8.20127201080322,-763.5,211.500015258789,-911.700012207031,-0.223204004387428,-0.327403762375095,0.377870599849362,DLR
11.2666666666667,-3.77906727790833,-2.94525599479675,8.57378101348877,-6.18144178390503,-2.35519790649414,6.89790964126587,-763.5,212.100006103516,-894.900024414062,-0.32086975259998,-0.394957053661557,0.336450303735755,DLR
11.3,-2.03787302970886,-3.49554753303528,7.73757743835449,-5.83083009719849,-1.72257196903229,7.21041202545166,-753.900024414062,215.100006103516,-904.500061035156,-0.365410499797504,-0.238469080556524,0.431150760404526,DLR
11.3333333333333,-2.60012745857239,-3.11034345626831,8.41527366638184,-6.24241781234741,-0.243903994560242,6.50156593322754,-746.700012207031,224.700012207031,-897.300048828125,-0.449057191113762,-0.28561269487638,0.361941128002467,DLR
11.3666666666667,-2.42786240577698,-3.70429944992065,9.02059459686279,-4.20734405517578,1.10518991947174,4.93143367767334,-753.900024414062,218.100006103516,-890.100036621094,-0.484153641487825,-0.249194243482828,0.395070356700657,DLR
11.4,-2.72274684906006,-4.13017702102661,8.99906063079834,-2.35519790649414,0.830797970294952,2.62196803092957,-732.300048828125,222.900009155273,-890.100036621094,-0.496712605108516,-0.271530082771331,0.433304207130457,DLR
11.4333333333333,-3.29038453102112,-4.250403881073,8.94104099273682,-1.18140995502472,-0.137196004390717,0.548784017562866,-749.100036621094,221.700012207031,-892.500061035156,-0.500835306643467,-0.320953518442217,0.445470209388407,DLR
11.4666666666667,-3.13367104530334,-4.14393472671509,8.60787582397461,0.564027965068817,-0.411587983369827,-0.167683988809586,-751.5,222.300003051758,-870.900024414062,-0.498809707479591,-0.316192461211077,0.447662561650048,DLR
11.5,-3.03318309783936,-4.14034557342529,8.07493019104004,1.13567793369293,-0.609759986400604,-0.342989981174469,-749.100036621094,216.300003051758,-890.100036621094,-0.487908759071138,-0.321345947968548,0.471762036641667,DLR
11.5333333333333,-3.5152862071991,-3.75932860374451,7.81653213500977,0.777444005012512,-0.0381099991500378,-0.586893975734711,-758.700012207031,216.900009155273,-885.300048828125,-0.489781222889632,-0.384397148286737,0.447353962381686,DLR
11.5666666666667,-3.68635511398315,-4.06019449234009,8.20353126525879,0.221037998795509,0.586893975734711,-0.114329993724823,-751.5,216.900009155273,-887.700012207031,-0.481647123241356,-0.383693103089194,0.459425486525099,DLR
11.6,-3.5972318649292,-3.99499678611755,8.54566860198975,0.724089980125427,0.609759986400604,-0.0457319989800453,-763.5,223.500015258789,-890.100036621094,-0.485423062467768,-0.365285409469733,0.436294394192189,DLR
11.6333333333333,-3.9537250995636,-3.92680859565735,8.35127258300781,1.13567793369293,0.480185985565186,0.0762199983000755,-749.100036621094,216.900009155273,-887.700012207031,-0.480043391467263,-0.405488741211236,0.437643934580404,DLR
11.6666666666667,-3.53083801269531,-3.45786452293396,8.01332092285156,1.58537602424622,0.3125019967556,0.403965979814529,-753.900024414062,216.300003051758,-887.700012207031,-0.489570754806353,-0.38526348620786,0.404514805066513,DLR
11.7,-3.64029812812805,-3.20006489753723,7.70587587356567,1.89787793159485,0.701223969459534,0.289635986089706,-741.900024414062,216.300003051758,-878.100036621094,-0.488184308099529,-0.412670576593146,0.390316288796422,DLR
11.7333333333333,-4.08770895004272,-3.27363657951355,7.58445310592651,1.93598794937134,1.84452390670776,-0.403965979814529,-744.300048828125,216.900009155273,-897.300048828125,-0.46615460971397,-0.462066071693623,0.40500752599864,DLR
11.7666666666667,-4.54050350189209,-3.46863102912903,8.27112102508545,0.342989981174469,0.152439996600151,-2.0731840133667,-746.700012207031,219.900009155273,-899.700012207031,-0.451657510204262,-0.467464486139787,0.398237324966432,DLR
11.8,-4.21272087097168,-3.71506595611572,7.79200839996338,0.304879993200302,-0.129574000835419,-1.58537602424622,-744.300048828125,219.900009155273,-894.900024414062,-0.418823534971003,-0.452657881852625,0.44541897970733,DLR
11.8333333333333,-3.99499678611755,-3.97645449638367,8.07552814483643,1.12043392658234,0.175305992364883,-1.6844619512558,-751.5,217.500015258789,-894.900024414062,-0.397510047548183,-0.416766604756287,0.456801585753076,DLR
11.8666666666667,-3.93817329406738,-3.90467739105225,7.90565586090088,1.2347639799118,-0.289635986089706,-1.27287399768829,-756.300048828125,215.700012207031,-890.100036621094,-0.384929475205012,-0.418616139597935,0.457393186370759,DLR
11.9,-4.25100231170654,-3.4913604259491,8.06236934661865,1.49391198158264,-0.0457319989800453,-0.289635986089706,-753.900024414062,216.900009155273,-902.100036621094,-0.398937143103126,-0.450290920142116,0.406392645335029,DLR
11.9333333333333,-3.40104103088379,-3.66661643981934,8.03784561157227,2.70580983161926,0.221037998795509,0.0304879993200302,-741.900024414062,211.500015258789,-890.100036621094,-0.382918051957058,-0.368059457098051,0.423255348166328,DLR
11.9666666666667,-4.15410280227661,-3.3167028427124,8.19216632843018,3.29270386695862,0.190549999475479,-0.99848198890686,-749.100036621094,209.700012207031,-890.100036621094,-0.379197281084325,-0.438934189435192,0.379828550312798,DLR
12.0,-4.49803495407104,-2.89680647850037,8.10005187988281,3.81099987030029,0.762199997901917,-1.32622802257538,-749.100036621094,210.300003051758,-894.900024414062,-0.368654807536109,-0.482219727710958,0.33822843646043,DLR
12.0333333333333,-4.37541580200195,-3.46623849868774,8.46790981292725,3.30032587051392,0.0,-1.88263392448425,-753.900024414062,212.700012207031,-902.100036621094,-0.319659367317721,-0.444871605574745,0.384165790883332,DLR
12.0666666666667,-4.2803111076355,-3.12948393821716,7.52164793014526,2.44666194915771,-0.884151995182037,-1.21189796924591,-751.5,206.700012207031,-904.500061035156,-0.301050521426439,-0.48144359815292,0.39069916373786,DLR
12.1,-4.28210544586182,-2.81366443634033,7.63708925247192,1.45580196380615,-0.792688012123108,-0.0838419944047928,-761.100036621094,210.900009155273,-906.900024414062,-0.315447453813912,-0.482978981779134,0.350370146376398,DLR
12.1333333333333,-4.25339460372925,-2.74547624588013,7.43013191223145,1.30336201190948,-0.289635986089706,1.12043392658234,-773.100036621094,209.700012207031,-911.700012207031,-0.318809700670433,-0.492956854454946,0.350590293502479,DLR
12.1666666666667,-4.10027027130127,-2.89142322540283,7.74355888366699,0.403965979814529,-0.365855991840363,0.647870004177094,-758.700012207031,210.300003051758,-902.100036621094,-0.320416119201515,-0.460362033870003,0.356010170187085,DLR
12.2,-4.22827243804932,-2.96738719940186,7.60478973388672,0.137196004390717,-0.602137982845306,0.937505960464478,-749.100036621094,207.300003051758,-911.700012207031,-0.321592890374277,-0.47748811023082,0.37076717418434,DLR
12.2333333333333,-3.33823585510254,-3.43692946434021,8.28667259216309,0.0533539988100529,-0.815553963184357,0.533540010452271,-763.5,208.500015258789,-902.100036621094,-0.318998087202161,-0.355573720708438,0.39249270931425,DLR
12.2666666666667,-3.9118549823761,-3.26586055755615,8.14132404327393,-0.586893975734711,-2.12653803825378,0.0076219998300075,-756.300048828125,205.500015258789,-906.900024414062,-0.331336783967684,-0.415893292152501,0.381930946393155,DLR
12.3,-4.83957481384277,-3.02720165252686,8.28547668457031,-0.403965979814529,-1.46342396736145,1.28811800479889,-761.100036621094,210.300003051758,-897.300048828125,-0.360430063320044,-0.499955440296423,0.349455125964869,DLR
12.3333333333333,-2.69941926002502,-3.89032196998596,8.78612232208252,-0.282013982534409,-1.22714197635651,1.14329993724823,-761.100036621094,209.100006103516,-897.300048828125,-0.349326394704292,-0.27299993262042,0.416492090182743,DLR
12.3666666666667,-2.78914070129395,-3.68396258354187,8.94582653045654,0.701223969459534,-1.72257196903229,-0.426831990480423,-770.700012207031,211.500015258789,-904.500061035156,-0.357281610870779,-0.277606911469141,0.389357202641032,DLR
12.4,-3.26406621932983,-3.07924008369446,7.94034814834595,1.85214591026306,-0.525918006896973,0.37347799539566,-770.700012207031,211.500015258789,-909.300048828125,-0.363441998963699,-0.365157619735964,0.366408484250358,DLR
12.4333333333333,-3.08940839767456,-3.2568883895874,8.13414669036865,1.65397393703461,0.533540010452271,0.922261953353882,-768.300048828125,207.900009155273,-916.500061035156,-0.360160798152631,-0.340493066245736,0.377533437277987,DLR
12.4666666666667,-4.28748893737793,-2.34412240982056,7.55095672607422,0.152439996600151,-0.891773998737335,1.13567793369293,-763.5,209.700012207031,-909.300048828125,-0.40167550013161,-0.495611875960558,0.299682153745094,DLR
12.5,-3.59962439537048,-2.95362997055054,7.69271659851074,-1.10518991947174,-0.807931959629059,1.6692179441452,-761.100036621094,204.300003051758,-906.900024414062,-0.390601532531522,-0.411786386163761,0.366951920882046,DLR
12.5333333333333,-3.61996126174927,-3.20245742797852,8.53131294250488,-2.24086785316467,-1.77592599391937,1.45580196380615,-765.900024414062,209.100006103516,-911.700012207031,-0.416531621372681,-0.37620389575058,0.361650260677927,DLR
12.5666666666667,-3.3507969379425,-3.35737657546997,8.17541790008545,-2.14178204536438,-2.19513607025146,1.05945801734924,-780.300048828125,217.500015258789,-902.100036621094,-0.426734843077745,-0.359600006206314,0.392140231480864,DLR
12.6,-3.59184861183167,-3.06667900085449,8.26035404205322,-1.75305998325348,-1.89025592803955,1.2347639799118,-761.100036621094,212.100006103516,-906.900024414062,-0.460896924115558,-0.384704400271905,0.357314105520936,DLR
12.6333333333333,-3.59005403518677,-2.88903045654297,8.42005825042725,-0.228659987449646,-0.754577994346619,2.0579400062561,-763.5,216.900009155273,-899.700012207031,-0.49019284129141,-0.383260119007671,0.329437753553703,DLR
12.6666666666667,-2.82921624183655,-3.46803283691406,8.34947776794434,-0.0762199983000755,-0.853663980960846,1.00610399246216,-773.100036621094,210.300003051758,-899.700012207031,-0.480188485551267,-0.302671906221344,0.393046788754276,DLR
12.7,-3.87716269493103,-3.02421092987061,8.28966331481934,-0.289635986089706,-1.6615959405899,-0.0228659994900227,-763.5,210.300003051758,-897.300048828125,-0.50064880055402,-0.41098566269626,0.350015638705503,DLR
12.7333333333333,-3.56852102279663,-3.05471611022949,8.66768932342529,0.37347799539566,-0.403965979814529,0.746955990791321,-782.700012207031,216.900009155273,-897.300048828125,-0.510903148429816,-0.370243178584159,0.337643523358007,DLR
12.7666666666667,-4.12299966812134,-3.10436201095581,8.77774810791016,-0.0,0.0533539988100529,-0.0762199983000755,-756.300048828125,209.100006103516,-904.500061035156,-0.509240664851066,-0.416847353913904,0.33999957366873,DLR
12.8,-4.08591461181641,-3.30174922943115,8.40450668334961,-0.396344006061554,-0.350611984729767,-0.129574000835419,-773.100036621094,210.300003051758,-887.700012207031,-0.496544335092204,-0.42426340050458,0.374973640319622,DLR
12.8333333333333,-3.33943223953247,-3.51947331428528,8.31179428100586,-0.807931959629059,-0.548784017562866,0.106707997620106,-780.300048828125,215.100006103516,-897.300048828125,-0.491690882022095,-0.353655475214053,0.40170885128204,DLR
12.8666666666667,-3.60082077980042,-3.67618680000305,8.53490161895752,-0.617381989955902,-0.609759986400604,0.891773998737335,-773.100036621094,216.900009155273,-897.300048828125,-0.500573769968822,-0.369273970866542,0.407059985004836,DLR
12.9,-3.02720165252686,-3.3047399520874,7.85122442245483,0.0685980021953583,-0.129574000835419,1.02134799957275,-780.300048828125,223.500015258789,-892.500061035156,-0.511684962411951,-0.342002242677926,0.397696497500788,DLR
12.9333333333333,-3.51648259162903,-3.36634874343872,8.01212501525879,0.769822001457214,0.426831990480423,1.43293595314026,-768.300048828125,217.500015258789,-899.700012207031,-0.519267403129424,-0.386035189406109,0.395603915807911,DLR
12.9666666666667,-2.64797902107239,-3.96209907531738,8.0474157333374,0.434453994035721,0.0304879993200302,0.0152439996600151,-770.700012207031,210.900009155273,-890.100036621094,-0.497917072512537,-0.287358397458961,0.456601000653131,DLR
13.0,-3.41300368309021,-3.8598165512085,8.07552814483643,-1.14329993724823,-1.08994603157043,-0.746955990791321,-777.900024414062,218.100006103516,-902.100036621094,-0.502437995753674,-0.361872246829204,0.448012571533565,DLR
13.0333333333333,-3.42735934257507,-3.94116401672363,8.1664457321167,-1.57775402069092,-0.739333987236023,0.205793991684914,-773.100036621094,210.900009155273,-894.900024414062,-0.509926181422619,-0.360375753960007,0.452045104709169,DLR
13.0666666666667,-3.37233018875122,-3.85323691368103,8.21369934082031,-0.792688012123108,0.121951997280121,1.60061991214752,-777.900024414062,218.700012207031,-906.900024414062,-0.528141553641181,-0.35726695197862,0.439147230533221,DLR
13.1,-3.12649321556091,-3.72643065452576,8.16824054718018,-0.0304879993200302,0.6250039935112,1.59299790859222,-773.100036621094,217.500015258789,-894.900024414062,-0.542211358029241,-0.337286446890846,0.427353393214066,DLR
13.1333333333333,-3.36335802078247,-3.66422390937805,7.71006298065186,0.0838419944047928,0.602137982845306,1.13567793369293,-773.100036621094,212.700012207031,-892.500061035156,-0.542884518175588,-0.377042009773868,0.442946748838289,DLR
13.1666666666667,-3.308926820755,-3.89271450042725,7.14960289001465,-0.228659987449646,1.15092194080353,0.769822001457214,-761.100036621094,217.500015258789,-885.300048828125,-0.524102705704552,-0.388467405869638,0.498838561683687,DLR
13.2,-4.08412027359009,-3.5954372882843,7.46661853790283,-1.00610399246216,0.609759986400604,0.663114011287689,-763.5,216.900009155273,-892.500061035156,-0.550291950474504,-0.459178937263242,0.450361014351318,DLR
13.2333333333333,-4.12599039077759,-3.80239486694336,7.94453477859497,-1.17378795146942,0.182927995920181,1.30336201190948,-770.700012207031,222.900009155273,-897.300048828125,-0.565974005201278,-0.439389017964694,0.447547147600925,DLR
13.2666666666667,-4.3724250793457,-3.72284173965454,7.62991189956665,-0.922261953353882,0.0152439996600151,1.55488801002502,-756.300048828125,218.100006103516,-882.900024414062,-0.578173491589524,-0.476752610044415,0.454289031423421,DLR
13.3,-3.96209907531738,-4.33593845367432,8.4350118637085,-1.48628997802734,-0.708845973014832,1.36433792114258,-763.5,224.700012207031,-880.500061035156,-0.586181012296212,-0.395912056491406,0.476233321133337,DLR
13.3333333333333,-3.60859656333923,-4.46752977371216,8.75202751159668,-1.79879200458527,-1.72257196903229,0.746955990791321,-761.100036621094,215.700012207031,-887.700012207031,-0.604121775343909,-0.349982495973036,0.474197149521878,DLR
13.3666666666667,-3.84067606925964,-4.20554304122925,8.68982124328613,-0.78506600856781,-1.79879200458527,1.18903195858002,-765.900024414062,216.900009155273,-887.700012207031,-0.629827805027566,-0.37665081242167,0.450884834183516,DLR
13.4,-2.68566203117371,-4.08412027359009,8.27590656280518,1.16616594791412,-0.205793991684914,2.03507399559021,-758.700012207031,215.700012207031,-873.300048828125,-0.641150676412027,-0.284655113596529,0.455402872349624,DLR
13.4333333333333,-3.16776514053345,-3.5733060836792,7.70886659622192,2.0579400062561,0.0457319989800453,1.80641400814056,-770.700012207031,215.700012207031,-902.100036621094,-0.656936068299248,-0.35813177347408,0.429442886097481,DLR
13.4666666666667,-3.51588439941406,-2.95004105567932,7.10653686523438,2.46190595626831,0.228659987449646,1.93598794937134,-761.100036621094,216.900009155273,-882.900024414062,-0.677694538301846,-0.430081552505581,0.387918145304666,DLR
13.5,-3.41838717460632,-3.27363657951355,7.76449394226074,2.22562384605408,0.472563982009888,1.6768399477005,-763.5,221.100006103516,-887.700012207031,-0.678929146969886,-0.38734643373406,0.394137503285,DLR
13.5333333333333,-4.21870231628418,-3.12350249290466,7.59402322769165,1.2347639799118,-0.327746003866196,1.05183601379395,-751.5,216.900009155273,-894.900024414062,-0.68564781780306,-0.474550068608858,0.387098990217265,DLR
13.5666666666667,-4.11701822280884,-3.41958332061768,7.96546983718872,-0.243903994560242,-0.800309956073761,0.586893975734711,-751.5,221.100006103516,-885.300048828125,-0.685643765836255,-0.442571095157774,0.405198021307509,DLR
13.6,-3.84605932235718,-3.49016427993774,8.19874572753906,-0.914639949798584,-1.69970595836639,0.129574000835419,-756.300048828125,219.900009155273,-885.300048828125,-0.695748613241544,-0.40491984644615,0.403471411586041,DLR
13.6333333333333,-2.89082503318787,-3.84426498413086,8.02707862854004,-0.480185985565186,-1.42531394958496,0.243903994560242,-746.700012207031,216.900009155273,-892.500061035156,-0.68855253510845,-0.31222627313871,0.446897477658106,DLR
13.6666666666667,-3.06907153129578,-4.18101930618286,8.19814777374268,0.129574000835419,-1.05183601379395,-0.449698001146317,-761.100036621094,219.300003051758,-897.300048828125,-0.681210129263831,-0.319885431422567,0.471280879803008,DLR
13.7,-3.78624510765076,-3.66063499450684,8.0175085067749,0.594515979290009,-1.04421401023865,0.426831990480423,-765.900024414062,213.900009155273,-892.500061035156,-0.701639788335631,-0.404192618515185,0.426776460385336,DLR
13.7333333333333,-3.38608741760254,-3.6253445148468,7.96307754516602,0.381099998950958,-0.724089980125427,0.967993974685669,-753.900024414062,216.300003051758,-882.900024414062,-0.710297665085982,-0.368886852107521,0.425766917610342,DLR
13.7666666666667,-3.70310306549072,-3.49375319480896,7.73638105392456,-0.426831990480423,-0.137196004390717,1.70732796192169,-763.5,215.700012207031,-878.100036621094,-0.725329245826552,-0.412251644664016,0.423705222560203,DLR
13.8,-3.56493210792542,-3.62235379219055,8.18558692932129,-1.17378795146942,-0.213415995240211,2.20275783538818,-761.100036621094,219.900009155273,-899.700012207031,-0.74970548879166,-0.380273098412758,0.417214625831239,DLR
13.8333333333333,-3.87955522537231,-3.44530344009399,7.9194130897522,-1.38720393180847,-0.830797970294952,2.56861400604248,-763.5,221.100006103516,-899.700012207031,-0.778304941744422,-0.422553321158922,0.410680145614544,DLR
13.8666666666667,-4.18999147415161,-3.1468300819397,7.81832695007324,-1.45580196380615,0.0076219998300075,3.3689239025116,-763.5,218.100006103516,-902.100036621094,-0.820040528504778,-0.463481361017806,0.38254573479389,DLR
13.9,-3.23116827011108,-3.97107124328613,8.33093547821045,-2.17989206314087,-0.37347799539566,2.9268479347229,-753.900024414062,227.100006103516,-880.500061035156,-0.824276684965426,-0.338699247155725,0.446727180203214,DLR
13.9333333333333,-3.88015341758728,-3.5093047618866,8.44876956939697,-1.91312193870544,-1.21951997280121,1.93598794937134,-751.5,222.900009155273,-878.100036621094,-0.867089175365674,-0.400319533856438,0.395486997421697,DLR
13.9666666666667,-3.52545475959778,-3.3149082660675,8.15089416503906,-0.282013982534409,-0.0076219998300075,2.56099200248718,-753.900024414062,220.500015258789,-887.700012207031,-0.890966911389196,-0.382783480753931,0.385109717360826,DLR
14.0,-3.31969356536865,-3.18331694602966,8.12038898468018,1.08994603157043,0.472563982009888,1.95885396003723,-737.100036621094,218.700012207031,-870.900024414062,-0.906168711671661,-0.365730291894798,0.370633118742458,DLR
14.0333333333333,-3.86161112785339,-2.8902268409729,8.10603332519531,1.63872992992401,-0.0914639979600906,0.937505960464478,-746.700012207031,219.300003051758,-892.500061035156,-0.920020741198252,-0.42211312593139,0.338964419141247,DLR
14.0666666666667,-3.78026366233826,-3.2467200756073,7.48575925827026,1.15092194080353,-0.442075997591019,0.289635986089706,-753.900024414062,220.500015258789,-878.100036621094,-0.891130638872036,-0.433331041950738,0.406760717353014,DLR
14.1,-3.97525811195374,-3.00865912437439,7.82789707183838,-0.335367977619171,-0.754577994346619,0.221037998795509,-749.100036621094,220.500015258789,-892.500061035156,-0.913351852104278,-0.441552237899905,0.367184493616266,DLR
14.1333333333333,-3.12350249290466,-3.54758596420288,7.89130020141602,-0.87652999162674,-1.09756803512573,0.891773998737335,-744.300048828125,219.900009155273,-885.300048828125,-0.904692501482914,-0.345580719191816,0.423085414404625,DLR
14.1666666666667,-4.13496255874634,-3.2586829662323,8.39134788513184,-1.38720393180847,-1.12043392658234,0.0762199983000755,-746.700012207031,214.500015258789,-880.500061035156,-0.932414979144522,-0.428622125339079,0.372586515776581,DLR
14.2,-3.64029812812805,-3.60440945625305,8.04920959472656,-0.518296003341675,0.403965979814529,0.975615978240967,-763.5,216.900009155273,-873.300048828125,-0.92141103446871,-0.392833513229599,0.421352787179206,DLR
14.2333333333333,-4.31739616394043,-2.88903045654297,8.02289199829102,-0.205793991684914,0.0533539988100529,0.586893975734711,-753.900024414062,216.900009155273,-882.900024414062,-0.958058768370018,-0.46896879815026,0.345685941443958,DLR
14.2666666666667,-3.77129149436951,-3.04813647270203,7.46003913879395,0.670735955238342,0.190549999475479,1.16616594791412,-746.700012207031,217.500015258789,-887.700012207031,-0.945869709446579,-0.438850627413242,0.385800170907994,DLR
14.3,-3.87297582626343,-3.50272512435913,8.14192199707031,0.152439996600151,-0.0381099991500378,0.0457319989800453,-746.700012207031,220.500015258789,-875.700012207031,-0.937478944957502,-0.411995992067208,0.405915619947784,DLR
14.3333333333333,-3.96209907531738,-3.74437499046326,8.49363040924072,-1.59299790859222,-1.53964400291443,-1.12043392658234,-751.5,219.900009155273,-887.700012207031,-0.934981908623571,-0.400196303492862,0.418278064008242,DLR
14.3666666666667,-3.30174922943115,-4.08412027359009,7.87455224990845,-0.487807989120483,-0.868907988071442,-0.0762199983000755,-751.5,227.100006103516,-873.300048828125,-0.916702152949219,-0.355027736504501,0.478943182044727,DLR
14.4,-4.09608316421509,-3.55954885482788,8.59352016448975,0.37347799539566,0.0457319989800453,-0.0838419944047928,-753.900024414062,221.100006103516,-873.300048828125,-0.947067690065848,-0.414757993899339,0.392230179238164,DLR
14.4333333333333,-2.76521492004395,-4.26117038726807,7.87335586547852,1.01372599601746,0.274392008781433,0.0609759986400604,-756.300048828125,219.900009155273,-873.300048828125,-0.907537847192551,-0.300197222960943,0.494224821883243,DLR
14.4666666666667,-3.36754488945007,-3.87417197227478,7.83208417892456,0.655492007732391,0.129574000835419,-0.510673999786377,-741.900024414062,222.900009155273,-870.900024414062,-0.912871377329803,-0.367528737153638,0.458634922145105,DLR
14.5,-2.69941926002502,-4.10266256332397,7.19924879074097,0.548784017562866,-0.297257989645004,-0.739333987236023,-746.700012207031,223.500015258789,-878.100036621094,-0.887654734694615,-0.313976350849035,0.517155380085206,DLR
14.5333333333333,-3.39446139335632,-4.02729654312134,7.19147300720215,0.403965979814529,0.327746003866196,-1.39482593536377,-756.300048828125,216.900009155273,-873.300048828125,-0.877115542071286,-0.389823206786259,0.510789255130337,DLR
14.5666666666667,-4.69841289520264,-3.70190691947937,8.1251745223999,0.891773998737335,1.02897000312805,-0.480185985565186,-753.900024414062,221.700012207031,-880.500061035156,-0.90154834365548,-0.485565763328851,0.426855960843299,DLR
14.6,-4.07634449005127,-4.53153133392334,8.07493019104004,-0.144817993044853,-0.693601965904236,-1.6692179441452,-763.5,220.500015258789,-873.300048828125,-0.855664639977047,-0.41236570414065,0.512334592561982,DLR
14.6333333333333,-4.15529918670654,-4.28988122940063,7.60239696502686,-0.129574000835419,-0.952749967575073,-1.00610399246216,-758.700012207031,228.300003051758,-873.300048828125,-0.851963069348292,-0.44192328294135,0.514300510339846,DLR
14.6666666666667,-4.03507232666016,-3.8717794418335,7.99178838729858,0.655492007732391,-0.282013982534409,0.640248000621796,-768.300048828125,224.100006103516,-873.300048828125,-0.88233733016908,-0.42657799628409,0.449605872713261,DLR
14.7,-3.75932860374451,-3.69114017486572,7.6388840675354,1.29574000835419,-0.175305992364883,1.06708002090454,-763.5,221.700012207031,-873.300048828125,-0.88712091699739,-0.417659433377543,0.447061034857407,DLR
14.7333333333333,-3.40044283866882,-3.83469462394714,7.77406406402588,0.754577994346619,-0.533540010452271,0.533540010452271,-758.700012207031,219.300003051758,-880.500061035156,-0.886995229982419,-0.373478383998544,0.456427070234284,DLR
14.7666666666667,-4.23664665222168,-3.92321968078613,8.11440753936768,0.160062000155449,-0.480185985565186,0.381099998950958,-751.5,219.900009155273,-873.300048828125,-0.893777817236421,-0.438860086048138,0.449628674715364,DLR
14.8,-4.37601375579834,-3.98482847213745,8.34170150756836,-0.213415995240211,-0.182927995920181,0.548784017562866,-756.300048828125,225.300003051758,-887.700012207031,-0.900945261428553,-0.442226128745061,0.445554898828513,DLR
14.8333333333333,-4.56323289871216,-3.76770257949829,8.35904788970947,-0.243903994560242,-0.190549999475479,1.60824191570282,-765.900024414062,218.700012207031,-873.300048828125,-0.924249949857947,-0.462602115393717,0.422591323078924,DLR
14.8666666666667,-3.5152862071991,-3.93518257141113,7.65563201904297,0.647870004177094,0.190549999475479,1.73019397258759,-773.100036621094,219.300003051758,-875.700012207031,-0.913828606794719,-0.389474603359987,0.472572633216716,DLR
14.9,-3.08462333679199,-3.68874764442444,7.08201265335083,0.891773998737335,-0.487807989120483,1.265251994133,-768.300048828125,221.100006103516,-885.300048828125,-0.919959712573422,-0.368949219077076,0.477718339301799,DLR
14.9333333333333,-3.59244680404663,-3.60500764846802,7.22257614135742,0.853663980960846,-0.205793991684914,1.45580196380615,-761.100036621094,222.300003051758,-880.500061035156,-0.934701643681304,-0.419401425147535,0.460421595761831,DLR
14.9666666666667,-4.23664665222168,-3.37292814254761,7.82550430297852,0.708845973014832,-0.3125019967556,1.30336201190948,-768.300048828125,222.300003051758,-882.900024414062,-0.966008735262249,-0.461677873501632,0.404713886118313,DLR
15.0,-3.89869594573975,-3.42855548858643,7.69451141357422,0.426831990480423,-0.762199997901917,1.70732796192169,-744.300048828125,221.100006103516,-882.900024414062,-0.973788746305064,-0.43352323718912,0.416889693781034,DLR
15.0333333333333,-3.90108847618103,-3.81316137313843,8.37699222564697,-0.548784017562866,-1.32622802257538,0.960371971130371,-756.300048828125,216.900009155273,-890.100036621094,-0.982832526984195,-0.399563425504475,0.427047920066056,DLR
15.0666666666667,-3.9716694355011,-3.86819052696228,8.09945392608643,-0.388722002506256,-1.55488801002502,0.983237981796265,-768.300048828125,218.100006103516,-880.500061035156,-0.989364303508264,-0.414841235713738,0.444993805457811,DLR
15.1,-2.84955310821533,-3.99738955497742,7.43850612640381,0.0533539988100529,-1.59299790859222,0.853663980960846,-753.900024414062,219.900009155273,-875.700012207031,-0.984346922463882,-0.323921697370734,0.492021139157579,DLR
15.1333333333333,-3.3866856098175,-3.70908451080322,7.97982549667358,0.182927995920181,-1.02134799957275,0.617381989955902,-763.5,219.900009155273,-878.100036621094,-1.01139913725563,-0.366124292783972,0.434263489508266,DLR
15.1666666666667,-2.74727058410645,-4.0057635307312,7.36194372177124,0.518296003341675,-0.823175966739655,0.899396002292633,-763.5,220.500015258789,-882.900024414062,-0.99873549531125,-0.316361545532404,0.496582753860182,DLR
15.2,-3.55177307128906,-3.7252345085144,8.12756633758545,0.365855991840363,-0.952749967575073,1.28811800479889,-768.300048828125,225.900009155273,-882.900024414062,-1.03352478698882,-0.377418425731879,0.428224197077382,DLR
15.2333333333333,-3.82093739509583,-3.43453693389893,8.52772426605225,0.46494197845459,-1.2347639799118,1.87501192092896,-761.100036621094,227.100006103516,-880.500061035156,-1.0689804587781,-0.393095504899983,0.380530043595785,DLR
15.2666666666667,-3.08641767501831,-3.56612849235535,8.488844871521,0.884151995182037,-1.88263392448425,2.0655620098114,-765.900024414062,221.100006103516,-882.900024414062,-1.0846923039995,-0.321878492410676,0.394614278186974,DLR
15.3,-2.67369914054871,-3.55177307128906,8.452956199646,0.304879993200302,-1.88263392448425,1.01372599601746,-768.300048828125,217.500015258789,-875.700012207031,-1.09834936597241,-0.281441849831931,0.396407161654556,DLR
15.3333333333333,-3.06608080863953,-3.10914707183838,8.59531402587891,0.548784017562866,-1.44817996025085,0.716467976570129,-763.5,223.500015258789,-870.900024414062,-1.12189506400377,-0.321617298160192,0.345548867989393,DLR
15.3666666666667,-3.00088334083557,-3.19707417488098,8.45953559875488,1.93598794937134,0.411587983369827,0.282013982534409,-751.5,225.300003051758,-887.700012207031,-1.1134539170128,-0.321242359943797,0.35786609206933,DLR
15.4,-3.3047399520874,-3.2766273021698,8.44936752319336,2.0655620098114,0.457319974899292,-0.243903994560242,-763.5,227.100006103516,-887.700012207031,-1.10138346554456,-0.350200389226957,0.366563968825723,DLR
15.4333333333333,-3.58945608139038,-3.06667900085449,8.59531402587891,1.98934197425842,0.274392008781433,-0.617381989955902,-756.300048828125,223.500015258789,-899.700012207031,-1.09784040553238,-0.374805771189301,0.339722966644071,DLR
15.4666666666667,-3.29038453102112,-3.01404237747192,8.69939136505127,2.0579400062561,-0.0914639979600906,-1.20427596569061,-763.5,221.700012207031,-870.900024414062,-1.08594304361901,-0.342489429012161,0.330644053281952,DLR
15.5,-3.50212717056274,-3.00387406349182,8.34648704528809,2.65245604515076,-0.144817993044853,-1.03659200668335,-756.300048828125,222.300003051758,-892.500061035156,-1.06640480792104,-0.375096777489335,0.341442630119296,DLR
15.5333333333333,-3.67558860778809,-2.79871106147766,8.16345500946045,2.30184388160706,-0.472563982009888,-1.2347639799118,-753.900024414062,212.700012207031,-880.500061035156,-1.05513455656613,-0.401132397233906,0.327032130404994,DLR
15.5666666666667,-3.27543091773987,-3.44231271743774,8.93027496337891,1.46342396736145,-0.243903994560242,-1.63872992992401,-773.100036621094,217.500015258789,-887.700012207031,-1.02412161387883,-0.328432924218262,0.366160366546958,DLR
15.6,-3.6193630695343,-3.00626659393311,8.37818813323975,1.04421401023865,-0.685979962348938,-1.2576299905777,-777.900024414062,216.300003051758,-894.900024414062,-1.02080530792475,-0.38421892834259,0.343404793955243,DLR
15.6333333333333,-3.46922922134399,-2.93448948860168,8.28188800811768,1.10518991947174,0.0609759986400604,-0.571649968624115,-780.300048828125,218.700012207031,-887.700012207031,-1.01370489396761,-0.375830079774956,0.338985334885242,DLR
15.6666666666667,-3.9638934135437,-2.8722825050354,8.66051197052002,1.31860601902008,0.884151995182037,-0.487807989120483,-770.700012207031,217.500015258789,-892.500061035156,-1.01115675606322,-0.410941776563194,0.318549713071026,DLR
15.7,-3.85622763633728,-2.81127190589905,7.8595986366272,0.960371971130371,0.434453994035721,-0.487807989120483,-770.700012207031,219.300003051758,-887.700012207031,-0.992238395516143,-0.433175729258238,0.342294830133877,DLR
15.7333333333333,-3.2186074256897,-3.29098272323608,7.70946455001831,-0.0685980021953583,0.503051996231079,-0.121951997280121,-770.700012207031,215.100006103516,-892.500061035156,-0.966057808864827,-0.367496808766216,0.403639733773833,DLR
15.7666666666667,-3.6791775226593,-3.05232357978821,8.31717777252197,-0.807931959629059,-0.152439996600151,0.0304879993200302,-770.700012207031,213.300003051758,-887.700012207031,-0.988087111715112,-0.393313239713734,0.353207586286505,DLR
15.8,-3.42915368080139,-3.14922285079956,8.18080139160156,-1.06708002090454,-1.05945801734924,0.586893975734711,-768.300048828125,215.100006103516,-887.700012207031,-0.993151198348994,-0.371583842365352,0.368660225127078,DLR
15.8333333333333,-2.89261937141418,-3.6193630695343,8.32854270935059,-0.922261953353882,-0.823175966739655,0.754577994346619,-780.300048828125,214.500015258789,-890.100036621094,-0.990871208679208,-0.307662131967383,0.410942905784552,DLR
15.8666666666667,-3.28260850906372,-3.37352633476257,8.30521488189697,-0.609759986400604,0.0076219998300075,0.503051996231079,-763.5,220.500015258789,-880.500061035156,-1.00442122251601,-0.351282533703901,0.386651676545671,DLR
15.9,-3.37053561210632,-3.33046007156372,7.91761827468872,-0.182927995920181,0.480185985565186,-0.0609759986400604,-780.300048828125,217.500015258789,-906.900024414062,-0.998795725913977,-0.374610067341293,0.398626882069988,DLR
15.9333333333333,-3.27124381065369,-3.44350910186768,8.06296730041504,-0.0762199983000755,0.640248000621796,-0.182927995920181,-775.500061035156,221.100006103516,-894.900024414062,-0.993705189492442,-0.358055399531114,0.404022755949173,DLR
15.9666666666667,-3.54220271110535,-3.3507969379425,8.02169513702393,-0.167683988809586,0.510673999786377,-0.0914639979600906,-789.900024414062,212.100006103516,-897.300048828125,-0.994830763747698,-0.387606992235562,0.396198130068247,DLR
16.0,-3.52186584472656,-3.61397981643677,8.28069114685059,0.114329993724823,0.495429992675781,0.221037998795509,-744.300048828125,213.900009155273,-892.500061035156,-0.988909029046163,-0.372662070457892,0.411283796163878,DLR
16.0333333333333,-3.92561221122742,-3.65704607963562,8.06117248535156,-0.243903994560242,-0.0381099991500378,-0.0838419944047928,-765.900024414062,219.900009155273,-899.700012207031,-0.983509534726624,-0.41725034981954,0.426352536733023,DLR
16.0666666666667,-4.346107006073,-3.57450246810913,8.79688835144043,-0.830797970294952,-1.01372599601746,0.503051996231079,-773.100036621094,224.700012207031,-882.900024414062,-1.0102997028863,-0.427925271626911,0.386782116810504,DLR
16.1,-3.42795729637146,-3.69771981239319,8.59112739562988,-0.0838419944047928,-0.937505960464478,0.922261953353882,-773.100036621094,221.100006103516,-897.300048828125,-1.01404919991726,-0.350529696153013,0.405790598026508,DLR
16.1333333333333,-3.30414175987244,-3.40941500663757,8.09167766571045,0.777444005012512,-0.716467976570129,0.99848198890686,-768.300048828125,221.700012207031,-885.300048828125,-1.02523861946302,-0.359418904293488,0.396642288929534,DLR
16.1666666666667,-3.27124381065369,-3.24133682250977,8.1371374130249,0.87652999162674,-1.17378795146942,0.87652999162674,-765.900024414062,212.100006103516,-880.500061035156,-1.04035394749926,-0.356095551942509,0.376757495321053,DLR
16.2,-3.18989658355713,-3.00686478614807,8.01870441436768,1.40244793891907,-0.708845973014832,0.853663980960846,-770.700012207031,210.300003051758,-885.300048828125,-1.0522347224577,-0.35592119141093,0.355659489709889,DLR
16.2333333333333,-3.29636597633362,-3.08163261413574,8.25736331939697,1.42531394958496,-0.327746003866196,0.762199997901917,-765.900024414062,211.500015258789,-897.300048828125,-1.05522688588522,-0.357822155269828,0.354164508923263,DLR
16.2666666666667,-3.48777174949646,-3.23415899276733,8.24480247497559,0.190549999475479,-0.792688012123108,0.0914639979600906,-780.300048828125,218.100006103516,-902.100036621094,-1.05081816092292,-0.373890731028599,0.373185492164865,DLR
16.3,-3.79461908340454,-3.26765513420105,8.78552436828613,-0.640248000621796,-0.503051996231079,0.342989981174469,-780.300048828125,222.900009155273,-880.500061035156,-1.06290158128902,-0.384019138548511,0.356889567017923,DLR
16.3333333333333,-3.14982080459595,-3.57031536102295,8.48406028747559,-0.0152439996600151,0.0457319989800453,-0.190549999475479,-768.300048828125,213.300003051758,-894.900024414062,-1.04685270980423,-0.329785770602226,0.398372521359834,DLR
16.3666666666667,-3.24432754516602,-3.75035643577576,8.45176029205322,0.945127964019775,0.746955990791321,-0.868907988071442,-773.100036621094,219.900009155273,-890.100036621094,-1.02924462465014,-0.338010131962136,0.416611249022632,DLR
16.4,-3.45786452293396,-3.62414836883545,8.10782814025879,1.05945801734924,0.426831990480423,-1.05183601379395,-770.700012207031,217.500015258789,-892.500061035156,-1.01590176863346,-0.371149782563809,0.41926467221418,DLR
16.4333333333333,-2.97516322135925,-3.76710438728333,8.08450031280518,1.00610399246216,-0.0685980021953583,-0.746955990791321,-763.5,212.700012207031,-882.900024414062,-1.00154576601414,-0.321357202926901,0.434658258813506,DLR
16.4666666666667,-3.35139513015747,-3.2688512802124,8.04621887207031,1.35671591758728,-0.403965979814529,0.0,-768.300048828125,218.700012207031,-880.500061035156,-1.01594628870122,-0.367516433101567,0.383548621433962,DLR
16.5,-3.36395597457886,-3.31909537315369,8.47568607330322,1.265251994133,0.152439996600151,-0.3125019967556,-782.700012207031,207.300003051758,-882.900024414062,-1.01285617555463,-0.354063731940446,0.37127312988662,DLR
16.5333333333333,-3.52545475959778,-3.06966972351074,8.22087669372559,1.12805593013763,-0.381099998950958,-0.0228659994900227,-770.700012207031,212.700012207031,-894.900024414062,-1.01590001307543,-0.381308345468639,0.355358960630665,DLR
16.5666666666667,-3.40343356132507,-3.00148153305054,8.10005187988281,0.457319974899292,-0.579271972179413,0.495429992675781,-794.700012207031,210.900009155273,-897.300048828125,-1.02044121481058,-0.374686333383191,0.353613426545471,DLR
16.6,-2.91953587532043,-2.8722825050354,7.98042345046997,0.907018005847931,-0.480185985565186,0.739333987236023,-775.500061035156,215.100006103516,-875.700012207031,-1.02834824242208,-0.331270157084013,0.343407416920942,DLR
16.6333333333333,-3.37532067298889,-2.95183563232422,8.2621488571167,1.17378795146942,-0.434453994035721,-0.106707997620106,-780.300048828125,215.100006103516,-906.900024414062,-1.02594491312868,-0.366395339852589,0.341064900692596,DLR
16.6666666666667,-3.45307946205139,-2.72274684906006,8.73468208312988,0.655492007732391,-1.53964400291443,-0.6250039935112,-773.100036621094,215.700012207031,-892.500061035156,-1.03704992672462,-0.358020444972781,0.30121554329154,DLR
16.7,-3.2646644115448,-2.9021897315979,8.96795749664307,0.937505960464478,-1.84452390670776,-0.457319974899292,-792.300048828125,214.500015258789,-897.300048828125,-1.0319242615554,-0.33015590878117,0.311250059447316,DLR
16.7333333333333,-2.2173159122467,-3.09299731254578,8.89498424530029,0.602137982845306,-1.64635193347931,-2.19513607025146,-792.300048828125,219.900009155273,-894.900024414062,-1.010931810945,-0.227468469854153,0.334173892593673,DLR
16.7666666666667,-2.37343120574951,-2.95482635498047,8.96975231170654,2.30946588516235,-0.266770005226135,-2.89635992050171,-799.500061035156,211.500015258789,-880.500061035156,-0.985710537290914,-0.244188561216646,0.31537678573842,DLR
16.8,-1.52885341644287,-3.70788836479187,9.24190711975098,4.26832008361816,1.08232402801514,-4.93905591964722,-799.500061035156,220.500015258789,-899.700012207031,-0.92502018272376,-0.151179393712656,0.375287367204332,DLR
16.8333333333333,-2.4697322845459,-3.43094801902771,9.66359806060791,4.72563982009888,0.442075997591019,-8.35371208190918,-806.700012207031,206.700012207031,-887.700012207031,-0.856028414136839,-0.232056563240809,0.336293334067753,DLR
16.8666666666667,-2.18980145454407,-3.73480463027954,9.22635555267334,5.29728984832764,0.724089980125427,-8.47566413879395,-799.500061035156,213.900009155273,-911.700012207031,-0.767965748370261,-0.212324537093127,0.378347083650312,DLR
16.9,-2.58995914459229,-2.78196287155151,9.33701133728027,6.77595806121826,2.08842802047729,-10.3278093338013,-809.100036621094,206.100006103516,-899.700012207031,-0.687969349469502,-0.25817177581669,0.282803325110496,DLR
16.9333333333333,-2.06957459449768,-3.27363657951355,8.56361293792725,7.23327779769897,2.69818782806396,-8.8643856048584,-811.500061035156,203.100006103516,-911.700012207031,-0.578433909212394,-0.22116045974131,0.355963984062673,DLR
16.9666666666667,-2.64439010620117,-2.82502913475037,9.05827713012695,6.60065174102783,2.80489587783813,-10.1906137466431,-816.300048828125,197.100006103516,-906.900024414062,-0.480710048726436,-0.271227736574519,0.295982567408771,DLR
17.0,-3.5553617477417,-1.84228038787842,7.66280937194824,7.13419198989868,3.68142580986023,-7.98023366928101,-816.300048828125,194.100006103516,-909.300048828125,-0.404933422921318,-0.426615534119719,0.230403829113767,DLR
17.0333333333333,-3.32746934890747,-1.77588653564453,8.19934368133545,5.29728984832764,4.68753004074097,-5.84607410430908,-816.300048828125,197.100006103516,-918.900024414062,-0.338074464914068,-0.383550410958933,0.208809113472575,DLR
17.0666666666667,-3.3167028427124,-1.73222208023071,8.60368824005127,4.86283588409424,3.76526784896851,-5.3506441116333,-801.900024414062,196.500015258789,-914.100036621094,-0.278078774503052,-0.366005091926438,0.194227461188507,DLR
17.1,-3.05232357978821,-2.02411580085754,8.8937873840332,4.34454011917114,3.11739802360535,-5.18296003341675,-787.500061035156,194.700012207031,-906.900024414062,-0.205019159297535,-0.326320409983468,0.219559330568967,DLR
17.1333333333333,-2.95602250099182,-1.89132809638977,8.49243354797363,4.2302098274231,2.9268479347229,-6.2043080329895,-799.500061035156,192.900009155273,-914.100036621094,-0.13973302072488,-0.330181043023719,0.215759393550646,DLR
17.1666666666667,-3.10256767272949,-1.44630968570709,9.84961986541748,4.71039581298828,2.35519790649414,-6.75309181213379,-792.300048828125,190.5,-916.500061035156,-0.0840882673474318,-0.304541564029027,0.14150266521332,DLR
17.2,-3.06787538528442,-1.31950342655182,9.09296989440918,5.03814172744751,1.74543797969818,-5.91467189788818,-782.700012207031,187.5,-906.900024414062,-0.0173148817601309,-0.323815479250719,0.138890641789286,DLR
17.2333333333333,-2.72573757171631,-1.65685606002808,8.71554088592529,3.55185198783875,2.56099200248718,-4.35216188430786,-782.700012207031,184.5,-918.900024414062,0.0448209556477792,-0.301154889116195,0.184132255712385,DLR
17.2666666666667,-2.30344867706299,-1.78306424617767,8.61266040802002,2.53812599182129,1.15092194080353,-4.90856790542603,-782.700012207031,186.300003051758,-911.700012207031,0.0975077611047689,-0.256504683413114,0.201983944499174,DLR
17.3,-3.54878234863281,-1.42477655410767,8.37400150299072,2.18751406669617,1.44817996025085,-3.803377866745,-797.100036621094,183.300003051758,-906.900024414062,0.125517895863847,-0.396773584626504,0.167704836164512,DLR
17.3333333333333,-3.27602910995483,-1.80280292034149,8.65153980255127,1.47866797447205,1.86738991737366,-2.17227005958557,-785.100036621094,178.5,-902.100036621094,0.163749547436758,-0.357518269362496,0.204407349536498,DLR
17.3666666666667,-3.33046007156372,-1.90149652957916,8.57437992095947,1.32622802257538,2.31708788871765,-2.24848985671997,-787.500061035156,183.900009155273,-899.700012207031,0.195033039826053,-0.36554008548461,0.217693238127615,DLR
17.4,-4.64158964157104,-1.44092643260956,8.66290473937988,1.82165801525116,2.17227005958557,-1.63110792636871,-756.300048828125,181.5,-894.900024414062,0.194973631329792,-0.489185878068847,0.163604905998793,DLR
17.4333333333333,-4.07455015182495,-1.71547400951385,9.38845252990723,2.19513607025146,1.06708002090454,-0.46494197845459,-775.500061035156,177.300003051758,-899.700012207031,0.213792290323843,-0.405400866900068,0.177353663550015,DLR
17.4666666666667,-3.33763766288757,-1.59584546089172,9.87892913818359,2.5152599811554,0.525918006896973,-0.823175966739655,-770.700012207031,180.900009155273,-902.100036621094,0.220856832147211,-0.32281582129794,0.156343812250321,DLR
17.5,-4.24023532867432,-1.15142524242401,8.43202114105225,2.65245604515076,0.945127964019775,-0.381099998950958,-765.900024414062,179.700012207031,-892.500061035156,0.226280950012612,-0.463620704846204,0.13155544973588,DLR
17.5333333333333,-4.88742637634277,-1.08981645107269,8.83277702331543,1.79117000102997,2.28659987449646,-0.0076219998300075,-770.700012207031,176.700012207031,-885.300048828125,0.231299692184068,-0.506110616916049,0.119928771599617,DLR
