seconds,sensor_accX_m_s_,sensor_accY_m_s_,sensor_accZ_m_s_,sensor_gyroX___s_,sensor_gyroY___s_,sensor_gyroZ___s_,sensor_magX__T_,sensor_magY__T_,sensor_magZ__T_,sensor_yaw___,sensor_pitch___,sensor_roll___,label2
0.0,-3.488369703,-1.489375949,8.865077019,0.167683989,-0.083841994,0.525918007,-785.1000366,211.5000153,-882.9000244,0.388752124,-0.370410072,0.165558982,ST
0.033333333,-3.526052713,-1.457674384,8.917115211,0.251525998,-0.221037999,0.411587983,-775.500061,211.5000153,-890.1000366,0.38586424,-0.371743015,0.161484056,ST
0.066666667,-3.478201389,-1.367952943,8.670680046,0.266770005,-0.350611985,0.396344006,-777.9000244,212.1000061,-882.9000244,0.382598589,-0.376463525,0.156055674,ST
0.1,-3.50870657,-1.414608121,8.783131599,0.182927996,-0.106707998,0.40396598,-780.3000488,215.1000061,-885.3000488,0.38235473,-0.37564946,0.158899371,ST
0.133333333,-3.522464037,-1.446907878,9.011023521,0.221037999,-0.167683989,0.411587983,-789.9000244,210.9000092,-887.7000122,0.380926535,-0.368624121,0.15855577,ST
0.166666667,-3.462649584,-1.44032824,8.79928112,0.228659987,-0.327746004,0.312501997,-775.500061,209.1000061,-875.7000122,0.380936435,-0.369863536,0.161419755,ST
0.2,-3.487771749,-1.431356072,8.866871834,0.228659987,-0.228659987,0.304879993,-782.7000122,208.5000153,-875.7000122,0.379321773,-0.370075414,0.159540426,ST
0.233333333,-3.543398857,-1.430159807,8.822608948,0.29725799,-0.190549999,0.365855992,-775.500061,206.7000122,-878.1000366,0.378419233,-0.376784566,0.159892052,ST
0.266666667,-3.462649584,-1.434346795,8.728102684,0.221037999,-0.198172003,0.335367978,-761.1000366,213.9000092,-892.500061,0.378193883,-0.373123516,0.162104234,ST
0.3,-3.568521023,-1.406832218,8.866272926,0.167683989,-0.167683989,0.350611985,-785.1000366,209.7000122,-878.1000366,0.375220841,-0.377859473,0.157131453,ST
0.333333333,-3.478799582,-1.463655829,8.792701721,0.221037999,-0.221037999,0.464941978,-787.500061,207.9000092,-880.500061,0.376002008,-0.372084262,0.163948033,ST
0.366666667,-3.507510424,-1.455281854,8.860291481,0.282013983,-0.121951997,0.365855992,-785.1000366,207.9000092,-882.9000244,0.374334388,-0.372286818,0.162157876,ST
0.4,-3.533230543,-1.427169085,8.790906906,0.289635986,-0.243903995,0.320124,-777.9000244,213.3000031,-890.1000366,0.372754506,-0.377041969,0.160310609,ST
0.433333333,-3.529641628,-1.430757999,8.84414196,0.243903995,-0.182927996,0.449698001,-787.500061,208.5000153,-882.9000244,0.37093114,-0.375184639,0.159660739,ST
0.466666667,-3.515286207,-1.431356072,8.835169792,0.289635986,-0.259148002,0.40396598,-773.1000366,207.3000031,-878.1000366,0.369756254,-0.373986818,0.1597954,ST
0.5,-3.541604519,-1.424178362,8.796888351,0.251525998,-0.251525998,0.365855992,-777.9000244,219.9000092,-894.9000244,0.368621503,-0.377710709,0.159786904,ST
0.533333333,-3.558950663,-1.40503788,8.75023365,0.167683989,-0.228659987,0.373477995,-780.3000488,206.7000122,-882.9000244,0.366955683,-0.381344285,0.158706373,ST
0.566666667,-3.582278252,-1.452291131,8.950611115,0.190549999,-0.236281991,0.434453994,-770.7000122,211.5000153,-892.500061,0.366010233,-0.376281392,0.160109184,ST
0.6,-3.486575365,-1.436141253,8.775355339,0.327746004,-0.457319975,0.243903995,-777.9000244,205.5000153,-887.7000122,0.365714144,-0.37310293,0.161373086,ST
0.633333333,-3.52066946,-1.399056435,8.826197624,0.327746004,-0.411587983,0.228659987,-780.3000488,202.5000153,-887.7000122,0.363411005,-0.374556578,0.156732279,ST
0.666666667,-3.435733318,-1.399056435,8.751429558,0.320124,-0.640248001,0.129574001,-763.5,210.9000092,-882.9000244,0.363389598,-0.369113897,0.157746009,ST
0.7,-3.419583321,-1.379915833,8.76458931,0.29725799,-0.434453994,0.045731999,-775.500061,207.3000031,-880.500061,0.362658885,-0.367250678,0.155697811,ST
0.733333333,-3.566726446,-1.396663785,8.935657501,0.312501997,-0.411587983,0.129574001,-794.7000122,206.1000061,-878.1000366,0.361924444,-0.374588783,0.15443615,ST
0.766666667,-3.440518379,-1.422384024,8.921302795,0.228659987,-0.602137983,0.045731999,-770.7000122,204.3000031,-885.3000488,0.362810658,-0.363567924,0.157422277,ST
0.8,-3.393265009,-1.427169085,8.943433762,0.251525998,-0.579271972,0.152439997,-780.3000488,208.5000153,-880.500061,0.362281841,-0.357793382,0.157636359,ST
0.833333333,-3.334048986,-1.43793571,8.823804855,0.342989981,-0.487807989,0.251525998,-770.7000122,212.7000122,-878.1000366,0.362516893,-0.356261509,0.160578529,ST
0.866666667,-3.429751873,-1.422384024,8.854908943,0.312501997,-0.350611985,0.304879993,-777.9000244,222.3000031,-875.7000122,0.360831923,-0.364371396,0.1585813,ST
0.9,-3.363955975,-1.428365469,8.848927498,0.312501997,-0.304879993,0.388722003,-780.3000488,210.9000092,-878.1000366,0.359750947,-0.358865843,0.159180171,ST
0.933333333,-3.395059586,-1.385299087,8.891395569,0.282013983,-0.282013983,0.335367978,-787.500061,212.1000061,-868.500061,0.356880912,-0.360302218,0.154083839,ST
0.966666667,-3.352591276,-1.43554318,8.796290398,0.282013983,-0.205793992,0.358233988,-780.3000488,210.9000092,-885.3000488,0.358103922,-0.359575437,0.160647925,ST
1.0,-3.411807537,-1.443318963,8.895582199,0.259148002,-0.175305992,0.304879993,-777.9000244,213.9000092,-878.1000366,0.3570769,-0.361567567,0.160208477,ST
1.033333333,-3.402237177,-1.443318963,8.874647141,0.266770005,-0.243903995,0.350611985,-777.9000244,212.1000061,-880.500061,0.356102863,-0.361429734,0.16048481,ST
1.066666667,-3.347806215,-1.446907878,8.86268425,0.251525998,-0.167683989,0.396344006,-773.1000366,204.9000092,-887.7000122,0.355089912,-0.356956611,0.161080893,ST
1.1,-3.390872478,-1.476216912,8.899170876,0.251525998,-0.076219998,0.342989981,-777.9000244,207.3000031,-887.7000122,0.354965516,-0.359382058,0.163572744,ST
1.133333333,-3.460855246,-1.436739445,8.863881111,0.289635986,-0.198172003,0.312501997,-775.500061,218.7000122,-890.1000366,0.352793573,-0.367253393,0.16011745,ST
1.166666667,-3.455471992,-1.417000651,8.810048103,0.251525998,-0.312501997,0.411587983,-777.9000244,210.3000031,-887.7000122,0.350973645,-0.368927666,0.15881111,ST
1.2,-3.411807537,-1.439131975,8.859095573,0.198172003,-0.358233988,0.42683199,-782.7000122,209.7000122,-882.9000244,0.349855037,-0.363038492,0.160307747,ST
1.233333333,-3.441116571,-1.454683661,8.830983162,0.167683989,-0.40396598,0.411587983,-782.7000122,203.1000061,-880.500061,0.349065169,-0.366290922,0.162522625,ST
1.266666667,-3.351993322,-1.535433054,8.790906906,0.266770005,-0.472563982,0.289635986,-787.500061,206.1000061,-892.500061,0.351300176,-0.359051936,0.171625576,ST
1.3,-3.247318268,-1.563545704,8.729298592,0.312501997,-0.571649969,0.083841994,-775.500061,208.5000153,-880.500061,0.352663957,-0.35059999,0.176273996,ST
1.333333333,-3.40762043,-1.575508595,8.834571838,0.312501997,-0.693601966,0.106707998,-780.3000488,211.5000153,-887.7000122,0.35208905,-0.361070186,0.175814133,ST
1.366666667,-3.516482592,-1.655659795,9.091175079,0.670735955,-0.685979962,0.152439997,-775.500061,209.7000122,-882.9000244,0.353018103,-0.362413055,0.17862917,ST
1.4,-4.047035217,-1.566536427,8.749635696,0.541162014,-0.670735955,0.243903995,-780.3000488,213.3000031,-875.7000122,0.351580491,-0.422296964,0.176103409,ST
1.433333333,-3.974061966,-1.495357394,8.844739914,0.213415995,-0.945127964,0.304879993,-797.1000366,211.5000153,-878.1000366,0.346658088,-0.41591487,0.167322032,ST
1.466666667,-4.063185215,-1.585677028,8.231045723,0.327746004,-1.615863919,0.205793992,-780.3000488,218.1000061,-863.7000122,0.354047055,-0.446669194,0.187963302,ST
1.5,-4.331153393,-1.44032824,7.66759491,0.182927996,-2.096050024,-0.114329994,-782.7000122,211.5000153,-878.1000366,0.352187214,-0.499725277,0.185279763,ST
1.533333333,-4.599719524,-1.388289809,8.030667305,0.022865999,-2.164648056,0.632625997,-787.500061,208.5000153,-890.1000366,0.341688712,-0.50972282,0.17100423,ST
1.566666667,-4.24561882,-1.207650661,7.260857582,0.373477995,-2.888737917,1.013725996,-799.500061,209.7000122,-887.7000122,0.333097762,-0.518073053,0.163107288,ST
1.6,-4.601513863,-1.016843081,6.767389774,0.160062,-2.378063917,0.91463995,-811.500061,213.3000031,-882.9000244,0.321432064,-0.583839561,0.148416014,ST
1.633333333,-4.462146759,-1.056918621,7.638884068,-0.579271972,-2.690565825,0.304879993,-809.1000366,206.7000122,-875.7000122,0.31208157,-0.522482555,0.138211717,ST
1.666666667,-4.373023033,-0.806296706,7.836271286,-0.457319975,-3.68142581,-0.358233988,-818.7000122,208.5000153,-878.1000366,0.294830516,-0.501667883,0.105395595,ST
1.7,-3.585867167,-1.323092222,8.752027512,0.068598002,-4.611310005,-0.510674,-821.1000366,210.3000031,-894.9000244,0.31258607,-0.384378299,0.147238219,ST
1.733333333,-2.65455842,-1.812971354,10.0194931,0.464941978,-5.891805649,-1.661595941,-828.3000488,211.5000153,-878.1000366,0.325483331,-0.249905426,0.177293223,ST
1.766666667,-2.435039997,-1.595845461,10.7324791,1.524399996,-6.532053947,-1.844523907,-833.1000366,210.9000092,-878.1000366,0.323092763,-0.211485105,0.147206168,ST
1.8,-1.656257868,-1.323690414,10.8975668,2.057940006,-4.626554012,-0.876529992,-849.9000244,212.7000122,-873.3000488,0.320595179,-0.14578098,0.119159189,ST
1.833333333,-1.421785831,-0.952841759,10.88859463,2.187514067,-3.048799992,-0.205793992,-847.500061,206.1000061,-861.3000488,0.316856295,-0.125341316,0.085612706,ST
1.866666667,-2.119818687,-0.513206661,10.64993572,1.55488801,-0.541162014,0.655492008,-859.500061,208.5000153,-870.9000244,0.309092924,-0.191549476,0.047443383,ST
1.9,-2.133575916,-0.251220047,10.11100864,0.838419974,0.853663981,1.150921941,-869.1000366,207.3000031,-861.3000488,0.300772892,-0.208363787,0.024453256,ST
1.933333333,-2.182025671,-0.272753209,9.738964081,0.175305992,1.44817996,1.143299937,-847.500061,201.9000092,-858.9000244,0.29713772,-0.222026003,0.027091209,ST
1.966666667,-2.516985655,-0.345128506,9.425537109,-0.632625997,1.600619912,0.685979962,-854.7000122,198.9000092,-856.500061,0.296362702,-0.261093961,0.036786088,ST
2.0,-2.650969744,-0.64001298,9.208411217,-1.150921941,2.08842802,0.632625997,-852.3000488,204.9000092,-863.7000122,0.301775177,-0.282029731,0.069061042,ST
2.033333333,-2.931498766,-1.13886416,9.330431938,-1.547266006,2.25611186,0.274392009,-842.7000122,201.3000031,-856.500061,0.314825702,-0.305103243,0.121436523,ST
2.066666667,-3.251505136,-1.337447643,9.41895771,-1.684461951,2.46952796,0.137196004,-847.500061,197.7000122,-858.9000244,0.32009615,-0.331905444,0.142733808,ST
2.1,-3.018827677,-1.549788475,9.712645531,-1.387203932,2.629590034,0.411587983,-835.500061,202.5000153,-861.3000488,0.32355605,-0.303744867,0.159871562,ST
2.133333333,-3.2383461,-1.774690151,9.499108315,-0.792688012,2.278977871,0.53354001,-854.7000122,207.3000031,-851.7000122,0.329681822,-0.326391052,0.184859951,ST
2.166666667,-3.373526335,-1.932001829,9.360937119,-0.480185986,2.87349391,0.663114011,-840.3000488,201.9000092,-846.9000244,0.334708317,-0.343348571,0.203140027,ST
2.2,-3.821535349,-1.674202204,9.350769043,0.259148002,3.437521935,0.746955991,-845.1000366,211.5000153,-858.9000244,0.325865538,-0.385873961,0.178258058,ST
2.233333333,-3.923219681,-1.65685606,8.619239807,0.434453994,4.077769756,0.868907988,-837.9000244,206.7000122,-854.1000366,0.330184711,-0.425086687,0.188415262,ST
2.266666667,-3.454275608,-1.926020384,8.541481972,0.175305992,4.275941849,0.846041977,-828.3000488,202.5000153,-856.500061,0.34297081,-0.385907422,0.219582387,ST
2.3,-3.630727768,-1.959516406,7.986404896,0.495429993,3.841487885,0.266770005,-813.9000244,203.1000061,-851.7000122,0.353672612,-0.420193499,0.238968952,ST
2.333333333,-4.06916666,-1.963105202,7.702885151,0.510674,3.239349842,0.274392009,-809.1000366,201.3000031,-849.3000488,0.360584816,-0.475166142,0.248482975,ST
2.366666667,-4.783947468,-1.924225926,7.209417343,0.114329994,3.38416791,0.983237982,-813.9000244,203.7000122,-856.500061,0.366152879,-0.570095424,0.259753731,ST
2.4,-5.467026711,-2.132977724,7.33323288,-0.228659987,3.978683949,0.960371971,-816.3000488,197.7000122,-854.1000366,0.378758794,-0.624876816,0.282177277,ST
2.433333333,-5.319883823,-2.521770716,7.714848042,-1.089946032,3.269837856,0.251525998,-804.3000488,201.9000092,-842.1000366,0.398581446,-0.587678678,0.316980773,ST
2.466666667,-5.300144672,-2.956022501,8.027676582,-1.23476398,2.355197906,-0.045731999,-797.1000366,202.5000153,-837.3000488,0.418721407,-0.560118408,0.353824213,ST
2.5,-4.954418182,-2.778972149,8.603090286,-0.510674,0.891773999,-0.106707998,-804.3000488,208.5000153,-858.9000244,0.399644454,-0.50555358,0.315589276,ST
2.533333333,-4.639794827,-2.618669987,7.988797665,0.960371971,0.282013983,0.221037999,-794.7000122,207.3000031,-849.3000488,0.400883742,-0.50491711,0.314992562,ST
2.566666667,-4.197767258,-2.101276159,7.751334667,1.143299937,0.373477995,0.251525998,-794.7000122,201.9000092,-846.9000244,0.379008864,-0.483502399,0.265129659,ST
2.6,-4.599719524,-1.79562521,7.55933094,1.501533985,1.440557957,0.975615978,-797.1000366,197.7000122,-844.500061,0.363676911,-0.534726398,0.231728281,ST
2.633333333,-5.00825119,-1.661641121,7.886515141,1.432935953,1.646351933,0.388722003,-782.7000122,201.3000031,-839.7000122,0.353623576,-0.557491344,0.206741705,ST
2.666666667,-5.341416836,-1.43554318,7.621537685,1.166165948,1.135677934,0.228659987,-804.3000488,204.3000031,-844.500061,0.344583287,-0.602246525,0.185523076,ST
2.7,-5.51188755,-1.481600165,8.26095295,0.198172003,-0.556405962,0.625003994,-777.9000244,203.1000061,-825.3000488,0.337701112,-0.58153178,0.176792273,ST
2.733333333,-4.550671577,-1.609004617,8.139529228,0.464941978,-2.271355867,0.602137983,-794.7000122,197.7000122,-839.7000122,0.343212645,-0.503026405,0.192392801,ST
2.766666667,-3.800002337,-1.786653042,7.870963573,0.876529992,-2.278977871,0.221037999,-797.1000366,204.9000092,-846.9000244,0.354597095,-0.440277044,0.219404415,ST
2.8,-3.700112343,-2.060004473,8.184390068,0.967993975,-2.179892063,-0.632625997,-797.1000366,204.3000031,-842.1000366,0.366517899,-0.411115381,0.243426497,ST
2.833333333,-3.832900047,-2.552276134,7.878140926,0.861285985,-1.501533985,-0.114329994,-787.500061,202.5000153,-837.3000488,0.392885422,-0.429772951,0.307334233,ST
2.866666667,-4.696020603,-2.524761438,8.538491249,0.053353999,-0.121951997,0.800309956,-797.1000366,199.5000153,-842.1000366,0.381570823,-0.482147555,0.287968408,ST
2.9,-4.156495571,-2.577996254,9.100745201,0.548784018,-0.198172003,2.454283953,-794.7000122,198.9000092,-834.9000244,0.367661161,-0.418930026,0.274045016,ST
2.933333333,-4.10206461,-2.377020121,8.128165245,1.349093914,-0.708845973,1.371959925,-801.9000244,195.3000031,-834.9000244,0.36713988,-0.448634641,0.280461987,ST
2.966666667,-4.611682415,-1.827326775,8.636586189,1.219519973,-0.091463998,0.167683989,-804.3000488,197.7000122,-842.1000366,0.337486573,-0.479391581,0.21077511,ST
3.0,-3.966285944,-1.051535368,9.324450493,1.463423967,-2.736297846,-1.356715918,-813.9000244,197.7000122,-825.3000488,0.303102984,-0.400069791,0.116374483,ST
3.033333333,-3.861012936,-0.756052732,8.55045414,1.692083955,-3.673803806,-1.867389917,-816.3000488,191.1000061,-832.500061,0.300202368,-0.415044433,0.088242031,ST
3.066666667,-3.100773096,-0.771006286,7.777054787,1.250007987,-2.896359921,-2.301843882,-828.3000488,191.1000061,-834.9000244,0.313199845,-0.374884166,0.097451313,ST
3.1,-4.51597929,-0.57182467,8.492433548,0.861285985,-1.722571969,-1.783547997,-823.500061,190.5,-827.7000122,0.309239691,-0.479164793,0.068758808,ST
3.133333333,-4.379602909,-0.819455862,9.230542183,-0.099086002,-1.547266006,-0.647870004,-818.7000122,188.7000122,-818.1000366,0.31967167,-0.440691913,0.088159482,ST
3.166666667,-3.682168245,-0.746482432,8.716139793,-0.457319975,-1.471045971,0.342989981,-818.7000122,194.1000061,-830.1000366,0.316326019,-0.398607561,0.086017261,ST
3.2,-3.672597885,-1.211837649,9.412976265,-0.983237982,-1.440557957,0.548784018,-825.9000244,186.9000092,-827.7000122,0.327401904,-0.368589455,0.126924246,ST
3.233333333,-3.642690659,-1.232174516,9.261645317,-0.983237982,-1.394825935,0.381099999,-835.500061,192.9000092,-834.9000244,0.326128469,-0.369371134,0.133195822,ST
3.266666667,-3.55356741,-1.288998127,8.509181976,-0.701223969,-0.61738199,0.632625997,-837.9000244,193.5000153,-822.9000244,0.328611839,-0.389388106,0.149962218,ST
3.3,-4.082923889,-1.609004617,8.539687157,-0.670735955,0.053353999,0.685979962,-845.1000366,191.1000061,-820.500061,0.338922675,-0.437084499,0.185014394,ST
3.333333333,-4.248609543,-1.837495208,8.720924377,-0.777444005,-0.175305992,0.480185986,-835.500061,197.1000061,-832.500061,0.345067995,-0.444379593,0.207557843,ST
3.366666667,-4.486072063,-1.76990509,8.548061371,-0.800309956,-0.099086002,0.381099999,-840.3000488,198.9000092,-834.9000244,0.341147691,-0.47302191,0.205348959,ST
3.4,-4.46693182,-1.80280292,8.298635483,-0.594515979,0.228659987,0.815553963,-845.1000366,192.9000092,-822.9000244,0.341129053,-0.484275377,0.213780234,ST
3.433333333,-4.20075798,-1.924824119,8.248391151,-0.564027965,0.015244,0.487807989,-835.500061,194.7000122,-832.500061,0.345276909,-0.462060296,0.228864026,ST
3.466666667,-4.514184952,-1.985236526,8.426039696,-0.708845973,-0.594515979,0.365855992,-835.500061,195.9000092,-832.500061,0.343281789,-0.479108204,0.232048917,ST
3.5,-4.206141472,-2.128192663,8.566603661,-0.868907988,-1.204275966,0.769822001,-835.500061,190.5,-837.3000488,0.342941231,-0.444930194,0.243493097,ST
3.533333333,-3.947743654,-2.307635546,8.763392448,-0.792688012,-1.219519973,0.868907988,-828.3000488,195.9000092,-832.500061,0.343074126,-0.411331002,0.257112753,ST
3.566666667,-4.426856041,-2.126996517,8.714942932,-0.312501997,-0.480185986,1.478667974,-825.9000244,198.3000031,-822.9000244,0.328898924,-0.456154907,0.239446689,ST
3.6,-4.318592072,-1.991217971,8.466713905,0.282013983,0.602137983,1.951231956,-833.1000366,197.1000061,-825.3000488,0.318683048,-0.462268768,0.229599368,ST
3.633333333,-4.670898438,-1.83330822,8.123379707,1.173787951,1.646351933,1.387203932,-835.500061,190.5,-839.7000122,0.312492658,-0.512434803,0.219374282,ST
3.666666667,-4.779760361,-1.817158341,8.295046806,1.265251994,1.028970003,1.097568035,-830.7000122,197.7000122,-827.7000122,0.308850632,-0.514702725,0.212978845,ST
3.7,-5.300743103,-1.634724736,7.97563839,1.12805593,0.907018006,1.074702024,-840.3000488,197.7000122,-830.1000366,0.301414235,-0.576219453,0.19983525,ST
3.733333333,-4.780956745,-1.495955586,8.553444862,1.166165948,-0.015244,0.838419974,-830.7000122,186.3000031,-837.3000488,0.286575656,-0.507923618,0.172017284,ST
3.766666667,-4.23365593,-1.643098712,7.863187313,1.04421401,-0.434453994,0.213415995,-825.9000244,195.9000092,-837.3000488,0.301827769,-0.485812884,0.201993475,ST
3.8,-4.135560513,-1.705903769,7.803373337,0.769822001,0.060975999,-0.228659987,-818.7000122,200.1000061,-834.9000244,0.309380877,-0.478252511,0.213366139,ST
3.833333333,-4.317994118,-1.65207088,7.657426357,0.663114011,0.190549999,0.129574001,-828.3000488,198.3000031,-837.3000488,0.309405506,-0.502575705,0.211377621,ST
3.866666667,-3.931593657,-1.65446341,8.448769569,0.388722003,-0.625003994,0.472563982,-813.9000244,195.9000092,-827.7000122,0.29967535,-0.431148603,0.193125794,ST
3.9,-3.622353792,-1.573714137,8.325551987,0.609759986,-1.135677934,0.594515979,-823.500061,195.3000031,-822.9000244,0.294530711,-0.40366124,0.185544097,ST
3.933333333,-3.384891033,-1.266866803,7.86019659,0.785066009,0.259148002,0.259148002,-821.1000366,195.3000031,-830.1000366,0.284933585,-0.402592493,0.159922213,ST
3.966666667,-3.727627039,-1.462459564,7.937955379,0.503051996,1.410069942,0.099086002,-825.9000244,191.7000122,-832.500061,0.294490169,-0.433127599,0.18011403,ST
4.0,-4.25997448,-1.034189224,8.411086082,0.304879993,1.166165948,0.274392009,-813.9000244,193.5000153,-832.500061,0.270532009,-0.466198799,0.124607328,ST
4.033333333,-4.102662563,-0.989328504,9.182092667,0.480185986,0.503051996,1.150921941,-821.1000366,197.1000061,-839.7000122,0.259294334,-0.421209759,0.106448925,ST
4.066666667,-4.197767258,-0.852951884,10.51355934,0.716467977,-1.653973937,1.432935953,-818.7000122,199.5000153,-830.1000366,0.243731486,-0.378063278,0.079808536,ST
4.1,-2.79093504,-0.189013183,9.672570229,1.836901903,-2.06556201,1.12805593,-811.500061,203.7000122,-832.500061,0.221111294,-0.281276228,0.018171679,ST
4.133333333,-2.183221817,-0.167480037,8.925489426,2.431417942,-0.342989981,0.670735955,-823.500061,190.5,-825.3000488,0.220001717,-0.241817975,0.014465143,ST
4.166666667,-2.356085062,-0.715977132,8.500807762,1.028970003,0.815553963,-1.310984015,-816.3000488,186.9000092,-837.3000488,0.243736906,-0.269600842,0.080162531,ST
4.2,-2.900395155,-1.251315117,8.774757385,0.137196004,0.983237982,-2.629590034,-823.500061,197.1000061,-827.7000122,0.271362479,-0.31447232,0.13906676,ST
4.233333333,-4.215711594,-1.953534961,8.848927498,0.518296003,1.814036012,-2.903981924,-825.9000244,195.3000031,-837.3000488,0.311257112,-0.430038861,0.213744207,ST
4.266666667,-4.808471203,-2.667717695,8.861488342,0.907018006,3.094532013,-1.905499935,-813.9000244,195.3000031,-837.3000488,0.356302954,-0.480889394,0.289249478,ST
4.3,-5.710471153,-2.228680611,9.540978432,1.714949965,2.416173935,-1.875011921,-806.7000122,198.3000031,-825.3000488,0.340823113,-0.528015453,0.23262581,ST
4.333333333,-4.425659657,-2.635417938,8.683241844,2.46952796,0.121951997,-1.12805593,-799.500061,199.5000153,-830.1000366,0.37567286,-0.458000694,0.287933434,ST
4.366666667,-4.777368069,-1.482796431,7.624528408,2.332331896,-0.891773999,-0.464941978,-799.500061,196.5000153,-832.500061,0.33628824,-0.544242857,0.194628944,ST
4.4,-4.171449184,-1.594051003,8.305812836,0.731711984,-1.608241916,0.548784018,-797.1000366,191.1000061,-827.7000122,0.331510211,-0.460991154,0.188005453,ST
4.433333333,-4.270142555,-1.343429089,7.683146477,-0.106707998,-1.211897969,1.013725996,-816.3000488,191.1000061,-822.9000244,0.320134079,-0.496814413,0.173136977,ST
4.466666667,-4.361658573,-1.379317641,8.172427177,-1.181409955,-0.670735955,0.93750596,-813.9000244,195.9000092,-837.3000488,0.311488636,-0.484139744,0.168518643,ST
4.5,-3.977650642,-1.182528615,9.243103027,-1.547266006,-1.051836014,1.821658015,-809.1000366,189.9000092,-834.9000244,0.283926159,-0.405280421,0.129965964,ST
4.533333333,-3.679177523,-1.107760787,9.019397736,-0.983237982,-1.577754021,2.522881985,-811.500061,199.5000153,-825.3000488,0.269470436,-0.383890791,0.122485036,ST
4.566666667,-3.68515873,-1.281222224,9.146801949,-0.83079797,-1.333850026,2.416173935,-811.500061,195.9000092,-825.3000488,0.2637222,-0.378201731,0.138027785,ST
4.6,-4.014137268,-1.314718246,9.398022652,-0.381099999,0.716467977,2.690565825,-813.9000244,195.3000031,-830.1000366,0.25286946,-0.4008943,0.137783108,ST
4.633333333,-3.560745001,-1.366756678,8.928480148,0.701223969,1.532021999,2.118916035,-813.9000244,188.7000122,-832.500061,0.250928116,-0.379911536,0.148744675,ST
4.666666667,-5.066869259,-1.239352226,8.056985855,0.93750596,3.727157831,1.036592007,-811.500061,194.7000122,-827.7000122,0.251821445,-0.551600007,0.150352269,ST
4.7,-5.286985874,-1.009067178,7.725614548,0.754577994,3.887219906,1.349093914,-804.3000488,191.7000122,-820.500061,0.238941472,-0.600703457,0.128719078,ST
4.733333333,-5.282200813,-1.190304518,8.082107544,0.541162014,2.675322056,1.082324028,-799.500061,198.3000031,-818.1000366,0.246055296,-0.580193598,0.143558776,ST
4.766666667,-4.529138565,-1.179537892,7.642472744,0.29725799,0.632625997,-0.060975999,-782.7000122,199.5000153,-827.7000122,0.2518109,-0.533889994,0.152235745,ST
4.8,-4.255787373,-1.049142718,7.508488655,0.0,-0.746955991,-0.342989981,-789.9000244,200.1000061,-825.3000488,0.246402811,-0.511071386,0.139571922,ST
4.833333333,-4.197169304,-1.33684957,8.108426094,0.129574001,-1.303362012,-0.503051996,-780.3000488,190.5,-813.3000488,0.258313305,-0.47231739,0.162016861,ST
4.866666667,-4.285096169,-1.612593412,8.192166328,0.495429993,-1.615863919,-0.846041977,-801.9000244,192.9000092,-825.3000488,0.275135713,-0.471192387,0.192390678,ST
4.9,-4.80129385,-1.778279066,8.409292221,0.091463998,-1.493911982,-1.006103992,-797.1000366,195.9000092,-815.7000122,0.285248157,-0.504774933,0.208056851,ST
4.933333333,-4.384985924,-1.845271111,8.833374977,0.015244,-2.713431835,-0.510674,-804.3000488,197.1000061,-830.1000366,0.284128977,-0.450966268,0.205990384,ST
4.966666667,-4.351490021,-1.708296299,8.931470871,0.198172003,-3.833865881,-0.129574001,-809.1000366,189.3000031,-834.9000244,0.274996759,-0.440399712,0.18922472,ST
5.0,-3.422574043,-1.569527149,9.186279297,-0.030487999,-5.320156097,-0.586893976,-816.3000488,198.3000031,-818.1000366,0.266314941,-0.348546242,0.170236506,ST
5.033333333,-2.468536139,-0.949252903,8.798085213,0.411587983,-6.814067841,-0.975615978,-823.500061,197.7000122,-820.500061,0.249025164,-0.265411469,0.110609347,ST
5.066666667,-2.948246717,-0.7554546,8.84832859,0.739333987,-4.359784126,-0.548784018,-849.9000244,196.5000153,-815.7000122,0.243309385,-0.310548899,0.085301412,ST
5.1,-2.6898489,-0.732127011,10.10024261,1.265251994,-3.338435888,-1.112811923,-845.1000366,193.5000153,-825.3000488,0.244138694,-0.257113334,0.071443959,ST
5.133333333,-3.85263896,-0.919345737,9.222766876,1.158543944,-1.219519973,0.304879993,-840.3000488,180.9000092,-822.9000244,0.251819385,-0.385219059,0.095696092,ST
5.166666667,-3.520071268,-1.13886416,9.901061058,-0.091463998,-0.701223969,1.013725996,-849.9000244,191.7000122,-820.500061,0.253720751,-0.341329314,0.112905674,ST
5.2,-2.856730938,-1.009067178,9.848423958,-0.274392009,-1.844523907,0.701223969,-859.500061,200.1000061,-813.3000488,0.246842984,-0.281693952,0.102760926,ST
5.233333333,-3.025407076,-1.051535368,9.412976265,-0.045731999,-0.449698001,0.83079797,-869.1000366,195.3000031,-830.1000366,0.245623474,-0.306926991,0.110355688,ST
5.266666667,-3.09957695,-1.104770064,8.842946053,0.434453994,0.40396598,0.80793196,-864.3000488,190.5,-813.3000488,0.246968227,-0.334187816,0.122446914,ST
5.3,-3.849050045,-1.141854882,8.456544876,1.082324028,1.600619912,0.792688012,-845.1000366,189.3000031,-820.500061,0.24973591,-0.421618304,0.13133647,ST
5.333333333,-4.386780739,-1.271651983,8.019302368,1.257629991,2.073184013,0.495429993,-842.7000122,189.9000092,-813.3000488,0.261105271,-0.494350376,0.153408928,ST
5.366666667,-4.26416111,-1.484590888,8.606081009,0.548784018,1.006103992,-0.205793992,-845.1000366,191.7000122,-822.9000244,0.2706732,-0.458223894,0.169195737,ST
5.4,-4.680468559,-1.318307161,8.670680046,-0.045731999,-0.556405962,0.449698001,-854.7000122,187.5,-813.3000488,0.260688301,-0.487493667,0.151633498,ST
5.433333333,-3.622951984,-1.283614874,8.865077019,-0.304879993,-2.134160042,1.028970003,-849.9000244,186.3000031,-820.500061,0.251996816,-0.387353229,0.14382622,ST
5.466666667,-2.318402052,-1.175350904,8.816627502,-0.129574001,-3.292703867,1.013725996,-840.3000488,188.7000122,-810.9000244,0.242740404,-0.257851654,0.132728182,ST
5.5,-2.753252029,-1.129892111,8.652137756,-0.007622,-3.064043999,0.792688012,-861.9000244,192.3000031,-820.500061,0.237249845,-0.297935631,0.129459694,ST
5.533333333,-2.106659651,-0.951047301,9.236523628,-0.114329994,-1.189031959,1.028970003,-852.3000488,194.1000061,-810.9000244,0.226003903,-0.225877147,0.103935423,ST
5.566666667,-1.896711349,-0.923532724,9.077417374,-0.221037999,-1.082324028,0.708845973,-861.9000244,191.1000061,-808.500061,0.222106966,-0.204576454,0.101625314,ST
5.6,-1.499544382,-0.839792728,9.079212189,-0.564027965,-0.594515979,0.457319975,-861.9000244,191.7000122,-818.1000366,0.218190943,-0.164620168,0.093578761,ST
5.633333333,-2.068378448,-0.714780867,7.947525501,-0.685979962,1.524399996,1.280496001,-859.500061,189.3000031,-813.3000488,0.212033257,-0.25242548,0.090545512,ST
5.666666667,-3.246121883,-1.000693202,8.381178856,-0.929883957,3.521363974,1.417691946,-845.1000366,195.3000031,-830.1000366,0.215272934,-0.366152552,0.117974068,ST
5.7,-4.018922806,-0.992917359,9.94532299,-0.701223969,2.301843882,1.097568035,-830.7000122,195.3000031,-798.9000244,0.204916966,-0.385280904,0.101216398,ST
5.733333333,-3.883742332,-1.098788619,10.19415092,0.434453994,1.074702024,1.310984015,-833.1000366,194.1000061,-820.500061,0.202662424,-0.365467058,0.105539368,ST
5.766666667,-2.91355443,-1.17654717,10.04820347,1.570132017,0.015244,0.411587983,-833.1000366,195.9000092,-818.1000366,0.205579183,-0.283850697,0.113305469,ST
5.8,-2.360870361,-0.701621711,9.805357933,1.996963978,-1.173787951,-0.564027965,-847.500061,192.9000092,-815.7000122,0.198525252,-0.236325334,0.070589697,ST
5.833333333,-1.640706182,-0.824839175,8.570192337,2.23324585,-0.594515979,-1.112811923,-835.500061,197.1000061,-813.3000488,0.208903754,-0.190088668,0.091112458,ST
5.866666667,-2.719756126,-1.321895957,8.382375717,0.708845973,1.836901903,-2.560992002,-849.9000244,191.1000061,-815.7000122,0.236009104,-0.305976042,0.152929807,ST
5.9,-3.535623074,-1.812971354,8.295046806,-0.411587983,2.606724024,-2.736297846,-828.3000488,192.3000031,-822.9000244,0.269346758,-0.39351642,0.214853418,ST
5.933333333,-3.552969217,-2.071369171,8.470302582,-1.173787951,1.592997909,-2.057940006,-828.3000488,188.1000061,-818.1000366,0.287223195,-0.389004368,0.242181491,ST
5.966666667,-4.256385326,-2.390777349,8.954798698,-1.097568035,1.112811923,-0.93750596,-825.9000244,186.3000031,-803.7000122,0.297882523,-0.429354834,0.262427279,ST
6.0,-4.223487377,-2.570220232,9.409985542,-0.381099999,-0.594515979,0.022865999,-825.9000244,191.1000061,-813.3000488,0.298417417,-0.40892844,0.266877618,DLR
6.033333333,-3.929799318,-2.220306635,9.354955673,0.457319975,-1.227141976,0.655492008,-825.9000244,198.9000092,-806.1000366,0.282774172,-0.387577272,0.233687637,DLR
6.066666667,-3.702504873,-1.964301467,8.661708832,1.067080021,-0.480185986,0.907018006,-835.500061,194.1000061,-810.9000244,0.275976625,-0.394079489,0.221232601,DLR
6.1,-3.609792948,-1.553377271,8.834571838,1.196653962,0.182927996,1.394825935,-816.3000488,195.9000092,-810.9000244,0.25490934,-0.384013277,0.174040258,DLR
6.133333333,-3.943556547,-1.467842817,8.676661491,1.166165948,0.358233988,1.432935953,-818.7000122,191.1000061,-818.1000366,0.248261444,-0.420006665,0.165086388,DLR
6.166666667,-3.436929464,-1.263876081,8.540883064,0.907018006,-0.190549999,1.196653962,-825.9000244,194.1000061,-818.1000366,0.237599405,-0.381318127,0.145703445,DLR
6.2,-3.556558132,-1.217220902,8.922498703,0.960371971,-1.013725996,1.387203932,-825.9000244,194.7000122,-806.1000366,0.22889923,-0.375117054,0.133643927,DLR
6.233333333,-2.720952272,-0.964206457,8.50977993,1.85214591,-0.480185986,0.541162014,-823.500061,196.5000153,-810.9000244,0.221287853,-0.310237513,0.110429422,DLR
6.266666667,-3.052921772,-1.230380058,8.822010994,2.408551931,0.198172003,-0.525918007,-825.9000244,188.7000122,-820.500061,0.23360999,-0.329204098,0.133206964,DLR
6.3,-4.334144115,-1.506722093,9.427330971,3.239349842,0.640248001,-2.096050024,-818.7000122,189.3000031,-815.7000122,0.253916761,-0.420784051,0.153092596,DLR
6.333333333,-3.067277193,-1.584480762,10.09904575,4.108257771,-0.213415995,-2.843005896,-830.7000122,188.7000122,-822.9000244,0.269092077,-0.298278279,0.150244462,DLR
6.366666667,-2.680876732,-1.299764633,9.4907341,5.81558609,-0.625003994,-6.097599983,-830.7000122,181.5,-810.9000244,0.295610705,-0.271625869,0.129822213,DLR
6.4,-2.16049242,-1.513899803,8.571389198,6.318637848,-0.685979962,-8.559505463,-845.1000366,171.9000092,-810.9000244,0.347225005,-0.241138341,0.165776869,DLR
6.433333333,-3.051725388,-1.169967651,8.7239151,6.15095377,-0.358233988,-10.35067558,-837.9000244,174.3000031,-796.500061,0.383906505,-0.325230983,0.130677703,DLR
6.466666667,-2.397955179,-0.775193274,9.199439049,7.408583641,-0.419209987,-10.68604374,-854.7000122,171.9000092,-798.9000244,0.418554767,-0.256251742,0.079435812,DLR
6.5,-2.873478889,-0.258397758,8.192764282,7.957367897,-0.708845973,-10.76988602,-847.500061,167.1000061,-789.3000488,0.454273052,-0.33048503,0.027294355,DLR
6.533333333,-2.594744205,-0.004187001,8.750831604,7.439071655,0.282013983,-9.352193832,-847.500061,162.3000031,-796.500061,0.489247675,-0.291299255,-0.005413317,DLR
6.566666667,-3.391470671,-0.135778457,8.470302582,8.285114288,0.769822001,-9.573231697,-842.7000122,156.3000031,-789.3000488,0.540900364,-0.376538369,0.007068003,DLR
6.6,-4.036867142,-0.088525161,9.353759766,8.094563484,0.442075998,-9.237863541,-835.500061,156.9000092,-789.3000488,0.586044477,-0.406217026,0.002483457,DLR
6.633333333,-3.504519701,0.370250493,9.55772686,8.750056267,-1.951231956,-8.231760025,-837.9000244,155.1000061,-774.9000244,0.612216531,-0.351881878,-0.045483544,DLR
6.666666667,-3.31610465,0.827231705,8.703577995,8.46804142,-2.042695999,-7.522913933,-825.9000244,145.5,-784.500061,0.633751641,-0.359712423,-0.100917634,DLR
6.7,-3.095389843,1.311129451,9.042725563,7.43144989,-1.166165948,-5.525949955,-821.1000366,144.3000031,-801.3000488,0.648453308,-0.328054419,-0.150384762,DLR
6.733333333,-2.77478528,1.567134619,8.493032455,6.760714054,-1.028970003,-5.686011791,-835.500061,144.9000092,-794.1000366,0.667089134,-0.311962164,-0.188528016,DLR
6.766666667,-3.252103329,1.552779198,9.470995903,4.336917877,-0.076219998,-3.81099987,-828.3000488,145.5,-782.1000366,0.69309405,-0.326771803,-0.169123455,DLR
6.8,-3.356778383,1.693940878,8.981715202,3.140264034,-0.564027965,-2.774407864,-825.9000244,135.3000031,-779.7000122,0.701538124,-0.350371166,-0.188823379,DLR
6.833333333,-3.101969481,1.896711349,8.930274963,1.42531395,-0.221037999,-0.548784018,-830.7000122,128.1000061,-784.500061,0.698577595,-0.32875373,-0.210057305,DLR
6.866666667,-3.31131959,1.280025959,9.545763969,0.457319975,0.685979962,-0.144817993,-818.7000122,141.9000092,-772.500061,0.72308702,-0.332265512,-0.137063891,DLR
6.9,-3.285001278,1.579695582,9.674962997,0.358233988,0.579271972,-0.663114011,-828.3000488,138.3000031,-779.7000122,0.718179541,-0.324903318,-0.160916324,DLR
6.933333333,-2.52057457,1.235165238,9.069044113,0.701223969,-0.167683989,-1.288118005,-833.1000366,140.7000122,-782.1000366,0.731140396,-0.271816357,-0.137279019,DLR
6.966666667,-3.274832726,1.197482228,8.338112831,-0.152439997,0.144817993,-1.707327962,-821.1000366,143.1000061,-784.500061,0.736476772,-0.366538611,-0.141089401,DLR
7.0,-3.222794294,1.680183649,9.14799881,-0.472563982,0.167683989,-0.205793992,-818.7000122,143.1000061,-779.7000122,0.723457752,-0.335350325,-0.178992794,DLR
7.033333333,-2.48767662,0.910373628,8.89318943,-0.342989981,0.068598002,0.396344006,-828.3000488,138.9000092,-779.7000122,0.743478029,-0.274965146,-0.105760568,DLR
7.066666667,-2.952433825,1.087423921,8.796290398,-0.945127964,0.525918007,0.518296003,-818.7000122,138.9000092,-779.7000122,0.73536038,-0.320267153,-0.120965928,DLR
7.1,-3.424966574,1.15082705,9.367517471,-0.952749968,0.899396002,1.318606019,-816.3000488,143.7000122,-782.1000366,0.728542951,-0.34762781,-0.12143285,DLR
7.133333333,-3.058903217,1.130490184,8.982313156,-0.868907988,2.027451992,1.455801964,-823.500061,138.9000092,-794.1000366,0.719912265,-0.330161226,-0.124509692,DLR
7.166666667,-3.983034134,1.132284641,9.978818893,-0.442075998,1.836901903,1.082324028,-806.7000122,138.3000031,-794.1000366,0.718129382,-0.377485357,-0.11379377,DLR
7.2,-3.270047665,1.32967186,8.20173645,0.243903995,1.539644003,0.93750596,-823.500061,143.1000061,-789.3000488,0.697286785,-0.377375485,-0.159331847,DLR
7.233333333,-3.793422699,1.446907878,8.93386364,-0.060975999,1.440557957,1.166165948,-813.9000244,135.3000031,-786.9000244,0.691286399,-0.397745562,-0.16133383,DLR
7.266666667,-3.351993322,1.268661261,8.75023365,0.137196004,0.670735955,0.777444005,-811.500061,134.1000061,-779.7000122,0.694018284,-0.365413538,-0.145794559,DLR
7.3,-3.319095373,1.206454396,9.300524712,0.015244,-0.42683199,0.060975999,-818.7000122,136.5,-789.3000488,0.699574994,-0.340542911,-0.129759145,DLR
7.333333333,-2.958415031,0.855942607,8.913526535,0.266770005,-1.577754021,-0.442075998,-804.3000488,143.7000122,-784.500061,0.712843048,-0.31761969,-0.097505777,DLR
7.366666667,-3.101371288,0.787156165,8.816029549,0.106707998,-1.013725996,-1.585376024,-811.500061,143.1000061,-784.500061,0.722578203,-0.334633644,-0.08868806,DLR
7.4,-3.410611153,0.656760991,9.186878204,0.266770005,-1.661595941,-0.731711984,-823.500061,140.1000061,-786.9000244,0.731977197,-0.351006481,-0.072153346,DLR
7.433333333,-4.176832199,0.422887087,9.597204208,0.076219998,-1.775925994,0.221037999,-813.9000244,137.7000122,-782.1000366,0.741271564,-0.403624434,-0.04600854,DLR
7.466666667,-2.853740215,0.476121813,9.785618782,0.647870004,-2.560992002,0.960371971,-813.9000244,146.7000122,-782.1000366,0.737596213,-0.286431175,-0.049962121,DLR
7.5,-2.796318293,0.294884473,8.503200531,0.922261953,-2.522881985,0.083841994,-825.9000244,136.5,-786.9000244,0.742748824,-0.311957211,-0.03688333,DLR
7.533333333,-3.630129576,0.769810021,9.652831078,0.487807989,-1.356715918,1.120433927,-813.9000244,136.5,-794.1000366,0.72592762,-0.35349063,-0.078354699,DLR
7.566666667,-3.09239912,1.043161392,10.03743744,1.608241916,-0.891773999,2.179892063,-828.3000488,138.9000092,-782.1000366,0.710491831,-0.297962572,-0.106236588,DLR
7.6,-2.200567961,1.245931864,8.787916183,1.989341974,-0.42683199,1.875011921,-821.1000366,143.1000061,-784.500061,0.695133852,-0.244305727,-0.143423957,DLR
7.633333333,-2.527752161,1.481600165,8.865077019,1.181409955,0.564027965,2.035073996,-816.3000488,139.5,-786.9000244,0.68213772,-0.272713215,-0.16713141,DLR
7.666666667,-3.12529707,1.393673182,8.141324043,0.205793992,1.074702024,1.615863919,-818.7000122,141.3000031,-770.1000366,0.674496768,-0.357598346,-0.170789368,DLR
7.7,-4.030287266,1.324288487,9.286170006,-0.579271972,1.501533985,1.806414008,-816.3000488,139.5,-779.7000122,0.676101735,-0.404895132,-0.143891686,DLR
7.733333333,-3.509902954,0.726145566,9.469799995,-0.373477995,0.419209987,1.280496001,-821.1000366,143.1000061,-770.1000366,0.694129605,-0.357609305,-0.080739441,DLR
7.766666667,-3.09239912,1.2590909,9.600792885,-0.068598002,-1.371959925,0.487807989,-811.500061,146.1000061,-791.7000122,0.677437073,-0.309753061,-0.127496996,DLR
7.8,-2.527153969,0.983945191,8.827992439,0.076219998,-0.967993975,0.388722003,-811.500061,144.3000031,-779.7000122,0.680888211,-0.277504899,-0.112246683,DLR
7.833333333,-2.98892045,1.258492827,9.204223633,0.068598002,-0.342989981,0.144817993,-825.9000244,138.3000031,-779.7000122,0.67412427,-0.308645865,-0.134602225,DLR
7.866666667,-1.809382439,1.448104143,8.746644974,0.983237982,-1.303362012,1.082324028,-825.9000244,138.3000031,-796.500061,0.664107022,-0.205429674,-0.164261838,DLR
7.9,-2.844169855,1.439730167,8.580361366,0.708845973,-0.411587983,0.739333987,-830.7000122,144.3000031,-779.7000122,0.661443884,-0.308353052,-0.167625853,DLR
7.933333333,-3.331656456,1.817158341,9.566699028,0.525918007,0.304879993,1.371959925,-823.500061,139.5,-789.3000488,0.649605931,-0.328891525,-0.188594266,DLR
7.966666667,-3.085221529,1.114938498,8.199343681,0.518296003,0.762199998,1.013725996,-813.9000244,144.3000031,-765.3000488,0.662406812,-0.356540298,-0.139339676,DLR
8.0,-3.807179928,1.57191968,9.59481144,0.0,-0.068598002,1.730193973,-825.9000244,144.3000031,-784.500061,0.647192263,-0.371919096,-0.162466953,DLR
8.033333333,-3.12529707,1.724446177,9.798179626,0.480185986,-0.61738199,1.592997909,-825.9000244,144.3000031,-786.9000244,0.637842682,-0.306596188,-0.175165656,DLR
8.066666667,-1.868000507,1.29198885,7.725614548,1.23476398,-1.63872993,0.777444005,-830.7000122,138.3000031,-784.500061,0.639018506,-0.235631069,-0.168490371,DLR
8.1,-3.514688015,1.537227392,8.335122108,-0.495429993,0.434453994,0.564027965,-823.500061,135.3000031,-782.1000366,0.631739423,-0.386642283,-0.18132518,DLR
8.133333333,-2.858525276,1.29916656,10.08469009,-0.091463998,-0.289635986,1.653973937,-837.9000244,144.3000031,-782.1000366,0.641734594,-0.280033469,-0.131881711,DLR
8.166666667,-2.339337111,1.450496674,8.936256409,0.632625997,-0.769822001,0.266770005,-825.9000244,147.9000092,-784.500061,0.634220926,-0.252727099,-0.160762132,DLR
8.2,-2.870488167,1.758540392,9.243103027,0.525918007,-0.038109999,-0.251525998,-809.1000366,144.9000092,-789.3000488,0.628700504,-0.294217255,-0.187545126,DLR
8.233333333,-2.836992025,1.454085588,8.70537281,0.312501997,0.335367978,-0.022865999,-828.3000488,141.3000031,-779.7000122,0.635037358,-0.310740894,-0.167128464,DLR
8.266666667,-3.581081867,1.256100297,9.427330971,-0.571649969,1.714949965,-0.335367978,-816.3000488,147.9000092,-786.9000244,0.645609563,-0.359986774,-0.133601948,DLR
8.3,-4.03866148,1.03777802,10.15586948,-0.594515979,1.432935953,-0.365855992,-825.9000244,146.7000122,-791.7000122,0.65665432,-0.378108078,-0.102655983,DLR
8.333333333,-2.652764082,1.43315053,8.866272926,-0.182927996,-0.152439997,-0.312501997,-813.9000244,140.1000061,-782.1000366,0.639744969,-0.290619479,-0.157583494,DLR
8.366666667,-3.067875385,1.110153317,9.027173996,-0.335367978,0.175305992,-0.121951997,-809.1000366,143.1000061,-782.1000366,0.650007759,-0.32394223,-0.123501167,DLR
8.4,-2.957218885,1.439730167,9.334020615,0.121951997,0.80793196,-0.236281991,-806.7000122,149.1000061,-774.9000244,0.641878459,-0.305746448,-0.151893512,DLR
8.433333333,-3.219205379,1.352999449,8.404506683,-0.083841994,1.158543944,-0.129574001,-806.7000122,142.5,-779.7000122,0.639156642,-0.361023382,-0.15916519,DLR
8.466666667,-3.530838013,1.208248854,8.805860519,-0.457319975,1.181409955,0.289635986,-806.7000122,146.7000122,-774.9000244,0.644633233,-0.379166817,-0.137019943,DLR
8.5,-2.871684313,0.68248111,8.417067528,-0.640248001,0.114329994,-0.381099999,-806.7000122,136.5,-786.9000244,0.663951749,-0.331167079,-0.082986292,DLR
8.533333333,-3.9489398,0.516197383,7.426543236,-1.798792005,0.472563982,-0.91463995,-799.500061,149.1000061,-767.7000122,0.670761987,-0.48084022,-0.066393544,DLR
8.566666667,-3.753347158,0.372044921,9.304114342,-1.722571969,-0.213415995,-0.320124,-797.1000366,146.1000061,-791.7000122,0.680919195,-0.388741223,-0.038470745,DLR
8.6,-3.613381624,0.585581958,9.866966248,-0.396344006,-1.669217944,-0.358233988,-809.1000366,148.5,-772.500061,0.675280177,-0.350095563,-0.057113148,DLR
8.633333333,-2.350103617,0.497654945,10.34069538,1.44817996,-3.81099987,-0.663114011,-806.7000122,146.1000061,-789.3000488,0.682643326,-0.221884156,-0.0505228,DLR
8.666666667,-2.533135414,0.535337985,8.851918221,0.670735955,-2.294221878,-0.960371971,-797.1000366,150.3000031,-782.1000366,0.68556299,-0.272025933,-0.060583886,DLR
8.7,-2.076154232,0.657359123,9.924387932,0.304879993,-1.74543798,-0.282013983,-816.3000488,143.1000061,-786.9000244,0.686063337,-0.206969819,-0.066168329,DLR
8.733333333,-1.902692795,0.57182467,8.859693527,0.731711984,-0.83079797,-0.510674,-809.1000366,150.3000031,-782.1000366,0.689025012,-0.209563188,-0.065560632,DLR
8.766666667,-2.481695175,0.775193274,9.275403023,0.495429993,0.678357959,-0.030487999,-813.9000244,147.9000092,-786.9000244,0.685345726,-0.258582444,-0.08311244,DLR
8.8,-3.213223934,0.737510264,9.570287704,0.236281991,1.257629991,0.792688012,-813.9000244,140.1000061,-784.500061,0.683611271,-0.321069691,-0.078157419,DLR
8.833333333,-3.416592598,0.690855145,9.770665169,0.396344006,1.158543944,1.280496001,-806.7000122,149.1000061,-786.9000244,0.680766719,-0.336472606,-0.072475961,DLR
8.866666667,-3.438724041,0.345128506,9.453051567,0.129574001,1.089946032,1.021348,-806.7000122,152.1000061,-782.1000366,0.687792291,-0.349891349,-0.038944263,DLR
8.9,-3.509304762,0.438438803,9.26463604,-0.137196004,0.792688012,0.564027965,-799.500061,146.1000061,-794.1000366,0.682372319,-0.362406334,-0.047026431,DLR
8.933333333,-2.972770452,0.829026163,9.122876167,0.396344006,-0.182927996,1.051836014,-794.7000122,141.3000031,-782.1000366,0.664340148,-0.315491264,-0.089974419,DLR
8.966666667,-2.420684576,0.401353925,7.972049713,0.693601966,-0.060975999,0.746955991,-799.500061,143.1000061,-782.1000366,0.673085579,-0.295564404,-0.054201876,DLR
9.0,-3.769496918,0.857737005,9.168335915,-0.388722003,0.685979962,0.503051996,-799.500061,142.5,-784.500061,0.658334022,-0.383946977,-0.090553986,DLR
9.033333333,-3.254495859,0.568235815,8.655727386,-0.320124,-0.243903995,0.975615978,-799.500061,144.3000031,-777.3000488,0.662795911,-0.359942116,-0.067126329,DLR
9.066666667,-3.586465359,0.462962657,9.540978432,-0.754577994,-0.586893976,0.838419974,-794.7000122,154.5,-777.3000488,0.665104437,-0.358191162,-0.048874089,DLR
9.1,-3.073258638,0.654368401,9.327441216,-0.137196004,-0.754577994,0.91463995,-801.9000244,145.5,-784.500061,0.654926042,-0.318684094,-0.06902665,DLR
9.133333333,-2.855534554,1.065292597,9.781432152,1.349093914,-0.685979962,0.952749968,-797.1000366,150.9000092,-779.7000122,0.641318953,-0.283382185,-0.108752826,DLR
9.166666667,-2.493658066,0.957626879,9.250281334,2.149404049,-0.853663981,0.975615978,-801.9000244,156.9000092,-774.9000244,0.640477315,-0.261332351,-0.107383015,DLR
9.2,-3.133671045,1.059909344,8.20592308,1.379581928,0.640248001,0.030487999,-789.9000244,149.7000122,-789.3000488,0.63509363,-0.358122221,-0.129753091,DLR
9.233333333,-3.338834047,1.610799074,10.45314693,0.967993975,0.396344006,0.785066009,-804.3000488,141.3000031,-784.500061,0.625359413,-0.30940344,-0.153550461,DLR
9.266666667,-1.534834862,1.442122698,8.868067741,1.798792005,-1.653973937,1.501533985,-806.7000122,146.7000122,-772.500061,0.619625907,-0.174605932,-0.164100143,DLR
9.3,-3.248514414,1.232772708,8.064163208,0.205793992,1.051836014,0.480185986,-809.1000366,143.1000061,-777.3000488,0.620312568,-0.368003114,-0.153246483,DLR
9.333333333,-3.852040768,1.350008726,9.795188904,0.121951997,0.182927996,1.85214591,-794.7000122,142.5,-774.9000244,0.617997086,-0.371206496,-0.139087883,DLR
9.366666667,-3.509304762,1.385299087,9.146203995,-0.152439997,0.0,1.943609953,-806.7000122,145.5,-789.3000488,0.605906279,-0.362533036,-0.150731097,DLR
9.4,-3.398648262,0.660947978,7.76150322,-0.594515979,0.289635986,0.434453994,-804.3000488,150.9000092,-770.1000366,0.626808278,-0.409181469,-0.087962789,DLR
9.433333333,-4.581775188,1.484590888,9.797581673,-1.189031959,0.853663981,0.640248001,-792.3000488,147.3000031,-772.500061,0.598726582,-0.432926633,-0.145174879,DLR
9.466666667,-2.469732285,0.698630989,8.773561478,0.152439997,-1.135677934,0.53354001,-804.3000488,141.9000092,-774.9000244,0.618943759,-0.281302676,-0.083726153,DLR
9.5,-4.605102539,0.782370985,9.020594597,0.099086002,0.129574001,-0.40396598,-799.500061,146.1000061,-772.500061,0.619662174,-0.459155665,-0.086224509,DLR
9.533333333,-3.972865582,1.250118852,9.340600967,1.12805593,-0.030487999,0.625003994,-801.9000244,147.3000031,-779.7000122,0.599882991,-0.402447591,-0.13257145,DLR
9.566666667,-3.098380566,0.991721034,8.787916183,1.730193973,-0.518296003,0.72408998,-813.9000244,145.5,-786.9000244,0.605647837,-0.33956418,-0.116693856,DLR
9.6,-3.627139091,1.394271255,8.827992439,1.592997909,-0.099086002,-0.586893976,-813.9000244,144.3000031,-779.7000122,0.596200813,-0.383007681,-0.156666537,DLR
9.633333333,-3.707888365,1.125106931,8.530714989,0.990859985,0.266770005,-0.571649969,-797.1000366,141.9000092,-782.1000366,0.608603498,-0.406142941,-0.133803395,DLR
9.666666667,-2.97935009,1.277633429,8.70118618,0.419209987,-0.259148002,-0.472563982,-797.1000366,147.3000031,-784.500061,0.606885688,-0.331140076,-0.145484994,DLR
9.7,-3.904677391,0.752463877,8.453554153,-0.030487999,-0.182927996,-0.960371971,-801.9000244,147.9000092,-774.9000244,0.630356729,-0.42499426,-0.091630964,DLR
9.733333333,-3.689345837,1.343429089,9.764683723,-0.060975999,-0.304879993,-0.510674,-806.7000122,144.3000031,-782.1000366,0.616099378,-0.360712197,-0.134345368,DLR
9.766666667,-3.140848637,1.342232823,9.630700111,0.792688012,-1.021348,0.083841994,-799.500061,145.5,-774.9000244,0.615649021,-0.313672663,-0.139499823,DLR
9.8,-2.253204584,1.415804386,8.662904739,1.120433927,-1.120433927,0.099086002,-804.3000488,144.9000092,-779.7000122,0.610754421,-0.252462833,-0.162740364,DLR
9.833333333,-3.895705223,1.385897279,9.456640244,0.099086002,1.196653962,-0.160062,-797.1000366,137.1000061,-786.9000244,0.615755223,-0.380805527,-0.146804554,DLR
9.866666667,-3.108549118,1.288399935,8.734084129,0.282013983,0.777444005,0.632625997,-797.1000366,142.5,-779.7000122,0.613151195,-0.342210402,-0.147379722,DLR
9.9,-3.356778383,1.172360182,8.941638947,-0.411587983,0.602137983,0.388722003,-797.1000366,143.1000061,-772.500061,0.616301917,-0.356625227,-0.130721285,DLR
9.933333333,-3.337637663,1.68736136,9.28676796,0.266770005,-0.358233988,0.91463995,-797.1000366,145.5,-779.7000122,0.597413934,-0.340085409,-0.177708126,DLR
9.966666667,-2.533733606,1.349410534,8.7239151,0.983237982,-0.929883957,1.036592007,-806.7000122,143.1000061,-774.9000244,0.601599332,-0.281402244,-0.156944601,DLR
10.0,-2.901591539,1.068283319,8.983509064,0.899396002,-0.312501997,-1.577754021,-797.1000366,143.1000061,-767.7000122,0.619763341,-0.30876748,-0.120925545,DLR
10.03333333,-3.634914875,0.985739589,9.097754478,0.632625997,-0.632625997,-1.935987949,-809.1000366,152.7000122,-779.7000122,0.633180635,-0.374346181,-0.108296773,DLR
10.06666667,-3.935780764,0.807493031,9.359741211,0.083841994,-0.236281991,-0.876529992,-799.500061,145.5,-791.7000122,0.644969453,-0.395374889,-0.086685559,DLR
10.1,-4.251002312,1.071274042,11.41914749,0.29725799,-0.487807989,0.381099999,-806.7000122,143.7000122,-772.500061,0.641440176,-0.356058711,-0.093912388,DLR
10.13333333,-2.01215291,0.933103025,8.509181976,1.166165948,-1.310984015,0.754577994,-799.500061,147.9000092,-784.500061,0.635381927,-0.234692763,-0.110693974,DLR
10.16666667,-3.813161373,1.001889467,8.143118858,-0.259148002,1.280496001,0.434453994,-811.500061,145.5,-782.1000366,0.629267122,-0.424756296,-0.121659849,DLR
10.2,-4.201356411,0.57182467,9.17431736,-1.135677934,1.067080021,1.074702024,-804.3000488,145.5,-782.1000366,0.646656297,-0.430123001,-0.06485236,DLR
10.23333333,-3.168363333,0.975571215,8.680849075,-0.510674,-0.556405962,1.371959925,-809.1000366,141.3000031,-774.9000244,0.624059233,-0.351794823,-0.109134822,DLR
10.26666667,-2.071369171,1.049740911,8.315383911,0.457319975,-0.899396002,0.990859985,-792.3000488,137.1000061,-779.7000122,0.616040535,-0.245956066,-0.125942719,DLR
10.3,-3.062491894,1.504927754,8.814234734,0.411587983,0.076219998,0.282013983,-794.7000122,150.3000031,-779.7000122,0.60376887,-0.324917156,-0.167253321,DLR
10.33333333,-3.408218622,0.672312677,9.605578423,0.243903995,0.495429993,1.349093914,-789.9000244,145.5,-777.3000488,0.628245147,-0.339964278,-0.077014419,DLR
10.36666667,-4.681664944,1.131686449,10.97592354,0.320124,0.838419974,1.204275966,-794.7000122,138.9000092,-772.500061,0.614337106,-0.3994436,-0.102867928,DLR
10.4,-3.270645857,0.796726465,9.475780487,0.29725799,0.274392009,1.051836014,-792.3000488,151.5,-777.3000488,0.616731903,-0.33569223,-0.086121943,DLR
10.43333333,-3.054117918,0.887046039,8.300430298,0.388722003,1.120433927,-0.838419974,-801.9000244,148.5,-774.9000244,0.613746097,-0.352159592,-0.10587052,DLR
10.46666667,-3.177335501,1.123312473,8.354263306,0.144817993,0.548784018,-0.670735955,-794.7000122,147.9000092,-777.3000488,0.607146921,-0.361000746,-0.131839877,DLR
10.5,-3.382498503,1.071274042,7.735184669,-0.266770005,0.144817993,-0.167683989,-799.500061,148.5,-772.500061,0.605458536,-0.406127496,-0.136722667,DLR
10.53333333,-3.730019569,1.543208838,9.2724123,-0.015244,-0.91463995,1.539644003,-789.9000244,144.3000031,-782.1000366,0.589379614,-0.377241724,-0.16443815,DLR
10.56666667,-3.126493216,1.303951621,8.909937859,0.358233988,-1.410069942,2.294221878,-804.3000488,144.3000031,-772.500061,0.58774653,-0.333937893,-0.148237728,DLR
10.6,-4.562036514,1.350606799,9.780235291,-0.137196004,-0.091463998,2.019829988,-797.1000366,146.1000061,-774.9000244,0.583513319,-0.426210947,-0.139146007,DLR
10.63333333,-3.829909563,1.872187495,10.14271069,0.746955991,-0.960371971,2.019829988,-809.1000366,148.5,-774.9000244,0.561249581,-0.357704947,-0.18234217,DLR
10.66666667,-2.05462122,1.955927491,8.10782814,1.204275966,-1.265251994,1.516777992,-813.9000244,143.7000122,-777.3000488,0.541923449,-0.246001478,-0.23602264,DLR
10.7,-2.525957823,1.942768335,7.894888878,0.060975999,-0.022865999,0.922261953,-797.1000366,143.1000061,-782.1000366,0.537067278,-0.297474519,-0.241500064,DLR
10.73333333,-3.947145462,1.498348117,8.241213799,-1.417691946,1.349093914,0.373477995,-806.7000122,142.5,-782.1000366,0.553845412,-0.433724727,-0.18194835,DLR
10.76666667,-3.877760887,0.911569893,7.768082619,-1.440557957,0.983237982,-0.137196004,-806.7000122,136.5,-782.1000366,0.578762194,-0.460331343,-0.118436361,DLR
10.8,-4.407715321,0.476121813,8.407497406,-1.265251994,0.42683199,-0.922261953,-804.3000488,145.5,-784.500061,0.607249061,-0.481716124,-0.057527265,DLR
10.83333333,-5.042345047,0.715977132,10.43101501,-0.175305992,-0.998481989,-0.72408998,-787.500061,144.9000092,-777.3000488,0.605536062,-0.44976368,-0.066959169,DLR
10.86666667,-3.55835247,0.831418753,9.752122879,1.402447939,-2.995445967,-0.228659987,-787.500061,151.5,-767.7000122,0.601984539,-0.349950484,-0.085999472,DLR
10.9,-4.506409168,1.031198502,9.572081566,1.539644003,-0.907018006,-0.83079797,-787.500061,140.7000122,-782.1000366,0.599496621,-0.431099951,-0.107834749,DLR
10.93333333,-4.262964725,0.89661634,9.52722168,1.577754021,-0.579271972,-0.564027965,-782.7000122,149.1000061,-789.3000488,0.608933501,-0.41896816,-0.096812088,DLR
10.96666667,-3.185111284,1.492964864,9.345385551,1.592997909,-1.105189919,-0.670735955,-806.7000122,144.9000092,-789.3000488,0.592272744,-0.328757777,-0.156938396,DLR
11.0,-2.107257605,1.53423667,7.474992752,1.387203932,-1.051836014,-0.83079797,-799.500061,144.9000092,-786.9000244,0.584591668,-0.271616725,-0.201519485,DLR
11.03333333,-2.771196365,1.336251378,7.918814659,0.274392009,0.602137983,-1.082324028,-799.500061,144.9000092,-774.9000244,0.598163855,-0.329881094,-0.169219459,DLR
11.06666667,-2.536724329,1.585078835,8.837562561,0.365855992,0.099086002,-1.280496001,-785.1000366,145.5,-784.500061,0.601063186,-0.279183069,-0.17698079,DLR
11.1,-3.71386981,1.049142718,8.235232353,-0.304879993,0.388722003,-0.442075998,-806.7000122,140.7000122,-777.3000488,0.618851801,-0.415788,-0.128043365,DLR
11.13333333,-4.947838783,0.863120317,11.20979786,-0.518296003,0.099086002,0.175305992,-799.500061,146.1000061,-791.7000122,0.637027471,-0.414812684,-0.079229768,DLR
11.16666667,-4.033277988,0.895420015,10.91850185,0.40396598,-1.387203932,0.625003994,-794.7000122,148.5,-786.9000244,0.634428589,-0.354163843,-0.082653052,DLR
11.2,-2.695830345,1.175949097,8.033658028,0.708845973,-0.182927996,0.182927996,-792.3000488,143.7000122,-779.7000122,0.614773033,-0.322305924,-0.142837399,DLR
11.23333333,-3.277823448,1.341634631,8.863881111,-0.327746004,1.532021999,-0.114329994,-792.3000488,144.9000092,-784.500061,0.611774229,-0.35133091,-0.1492987,DLR
11.26666667,-2.770598173,0.945664048,8.631801605,0.022865999,0.221037999,0.167683989,-787.500061,144.3000031,-777.3000488,0.623322214,-0.3117676,-0.111661846,DLR
11.3,-3.090604782,0.903195858,8.817225456,0.213415995,-0.030487999,-0.259148002,-787.500061,143.7000122,-779.7000122,0.6274413,-0.33420976,-0.102811297,DLR
11.33333333,-3.270645857,1.045553923,9.799376488,0.929883957,-0.472563982,-0.571649969,-787.500061,147.9000092,-777.3000488,0.629568962,-0.320603101,-0.107268969,DLR
11.36666667,-3.217411041,1.064096332,9.718029022,1.417691946,-1.23476398,-0.91463995,-794.7000122,147.3000031,-789.3000488,0.634442112,-0.316230613,-0.110739336,DLR
11.4,-3.453677416,1.098788619,9.045716286,0.564027965,-1.028970003,-0.769822001,-792.3000488,149.1000061,-777.3000488,0.635287751,-0.357965248,-0.120644881,DLR
11.43333333,-3.812563181,0.662742436,8.981715202,-0.769822001,0.182927996,0.022865999,-789.9000244,146.1000061,-774.9000244,0.650905145,-0.398898282,-0.074501104,DLR
11.46666667,-3.222196102,0.304454774,8.280093193,-1.509155989,0.495429993,0.304879993,-792.3000488,142.5,-791.7000122,0.66155066,-0.372932929,-0.03609167,DLR
11.5,-4.077540398,0.085534446,8.798085213,-1.76830399,1.105189919,-0.022865999,-782.7000122,150.9000092,-789.3000488,0.669546778,-0.432077745,-0.008452862,DLR
11.53333333,-4.242030144,0.227294326,9.735375404,-0.80793196,-0.213415995,0.967993975,-797.1000366,152.7000122,-777.3000488,0.659192392,-0.411734739,-0.021820997,DLR
11.56666667,-3.594241142,0.083740018,9.338806152,0.236281991,-0.990859985,1.04421401,-797.1000366,146.1000061,-784.500061,0.659901611,-0.368423269,-0.010784566,DLR
11.6,-3.346011877,0.824839175,8.877039909,1.189031959,-1.082324028,1.257629991,-777.9000244,147.9000092,-774.9000244,0.627872958,-0.357465892,-0.092160095,DLR
11.63333333,-3.432742596,0.602329969,8.373403549,0.792688012,-0.396344006,1.455801964,-799.500061,144.9000092,-782.1000366,0.629672283,-0.385813982,-0.075089974,DLR
11.66666667,-3.912453175,1.029404044,9.223962784,-0.114329994,-0.060975999,1.265251994,-797.1000366,146.7000122,-782.1000366,0.611642826,-0.397839966,-0.109615707,DLR
11.7,-2.854338169,0.944467723,7.817728519,-0.670735955,-0.396344006,1.12805593,-792.3000488,143.1000061,-770.1000366,0.602964175,-0.34960454,-0.119215071,DLR
11.73333333,-3.374722719,0.861923993,8.918910027,-1.097568035,-0.91463995,0.800309956,-799.500061,146.1000061,-777.3000488,0.606453495,-0.35808042,-0.095959581,DLR
11.76666667,-3.77966547,0.543113828,9.311889648,-0.548784018,-2.317087889,0.975615978,-777.9000244,153.9000092,-791.7000122,0.615398949,-0.379851722,-0.059572607,DLR
11.8,-3.337637663,1.085629463,10.0129137,0.327746004,-2.87349391,1.44817996,-797.1000366,149.7000122,-786.9000244,0.594903754,-0.31795694,-0.106861672,DLR
11.83333333,-2.47571373,0.893625617,9.2724123,0.983237982,-2.76678586,2.050318003,-801.9000244,150.9000092,-791.7000122,0.591385682,-0.258432935,-0.099123542,DLR
11.86666667,-2.674895287,1.457076311,9.543969154,0.929883957,-1.006103992,1.722571969,-809.1000366,153.3000031,-791.7000122,0.572164778,-0.267693064,-0.151448614,DLR
11.9,-2.384796143,1.478609443,8.824402809,1.089946032,-0.632625997,2.073184013,-813.9000244,155.1000061,-791.7000122,0.560823203,-0.259183448,-0.168057779,DLR
11.93333333,-2.920732021,1.491768599,8.542677879,0.495429993,0.396344006,1.478667974,-813.9000244,146.7000122,-789.3000488,0.553433349,-0.321864031,-0.174292063,DLR
11.96666667,-3.670803308,1.301559091,9.898070335,0.137196004,0.40396598,0.990859985,-799.500061,147.9000092,-777.3000488,0.562882467,-0.350950284,-0.134256033,DLR
12.0,-3.352591276,1.196884036,9.695897102,0.304879993,-0.266770005,0.213415995,-816.3000488,146.7000122,-784.500061,0.566010191,-0.331334173,-0.124110319,DLR
12.03333333,-2.770598173,0.517393649,8.95659256,-0.099086002,-0.129574001,-0.93750596,-806.7000122,155.7000122,-779.7000122,0.589149617,-0.301385562,-0.061039065,DLR
12.06666667,-4.355677128,0.747678697,10.23303032,-0.099086002,0.960371971,-1.059458017,-792.3000488,145.5,-786.9000244,0.589214482,-0.397055521,-0.07137109,DLR
12.1,-3.024809122,1.175350904,9.078016281,0.967993975,0.0,0.304879993,-811.500061,149.7000122,-772.500061,0.569707687,-0.323829752,-0.12713438,DLR
12.13333333,-2.726335764,0.962412059,7.934964657,0.708845973,1.44817996,-0.274392009,-792.3000488,152.7000122,-782.1000366,0.572571799,-0.330827579,-0.122196653,DLR
12.16666667,-3.914845705,0.86371845,9.008631706,0.579271972,1.501533985,-0.541162014,-794.7000122,148.5,-774.9000244,0.583584436,-0.406108836,-0.097940719,DLR
12.2,-3.475808859,0.815268874,8.912928581,0.739333987,0.129574001,-0.685979962,-792.3000488,145.5,-784.500061,0.589319241,-0.372902448,-0.092393854,DLR
12.23333333,-3.474612474,0.389989227,8.646156311,0.266770005,0.510674,-1.250007987,-799.500061,149.7000122,-774.9000244,0.611291234,-0.382302109,-0.047033598,DLR
12.26666667,-4.340723515,0.691453278,10.54406452,0.571649969,0.304879993,-1.12805593,-792.3000488,147.3000031,-779.7000122,0.609809039,-0.389988365,-0.064668914,DLR
12.3,-3.358572721,1.031796575,9.911229134,1.55488801,-0.72408998,-0.091463998,-787.500061,142.5,-801.3000488,0.598769219,-0.327858847,-0.103871108,DLR
12.33333333,-3.218607426,0.963608325,8.394338608,1.471045971,-0.030487999,0.274392009,-797.1000366,147.3000031,-786.9000244,0.595600592,-0.361662462,-0.116233528,DLR
12.36666667,-3.672597885,1.344027281,8.640773773,0.480185986,1.402447939,0.525918007,-782.7000122,143.7000122,-774.9000244,0.579935226,-0.397586808,-0.153252922,DLR
12.4,-3.063688278,1.151425242,9.009827614,0.442075998,0.320124,1.150921941,-782.7000122,150.9000092,-786.9000244,0.58433624,-0.329957834,-0.130058237,DLR
12.43333333,-2.519378185,0.953439891,8.708363533,1.326228023,-0.060975999,0.198172003,-809.1000366,142.5,-784.500061,0.590467294,-0.282920574,-0.112569528,DLR
12.46666667,-2.528350353,1.008469105,7.987003326,2.225623846,0.076219998,-0.282013983,-799.500061,144.3000031,-779.7000122,0.58991973,-0.3036533,-0.128674915,DLR
12.5,-3.8927145,0.814072609,9.017004967,1.85214591,-0.876529992,0.190549999,-797.1000366,146.7000122,-779.7000122,0.604051156,-0.400062032,-0.095000143,DLR
12.53333333,-4.184608459,0.875083148,9.466210365,1.486289978,-3.010689974,0.708845973,-809.1000366,146.7000122,-789.3000488,0.604872372,-0.408857597,-0.095095261,DLR
12.56666667,-3.354984045,0.936093748,9.168933868,0.625003994,-4.108257771,1.42531395,-809.1000366,140.1000061,-772.500061,0.599081963,-0.345778778,-0.102980269,DLR
12.6,-2.648576975,1.201669216,9.211999893,-0.106707998,-3.986305952,1.897877932,-818.7000122,140.7000122,-777.3000488,0.585678314,-0.274976799,-0.12861564,DLR
12.63333333,-2.739494801,1.14364934,8.704176903,-1.943609953,-3.285081863,3.750023842,-833.1000366,144.9000092,-779.7000122,0.569246984,-0.295026889,-0.128963486,DLR
12.66666667,-2.593547821,1.093405366,8.819020271,-3.574717999,-2.46952796,6.074733734,-835.500061,145.5,-798.9000244,0.544636968,-0.279305292,-0.120488521,DLR
12.7,-2.744279861,1.209445119,9.430321693,-4.672286034,-1.798792005,8.292736053,-816.3000488,146.1000061,-801.3000488,0.506543585,-0.27629112,-0.123205572,DLR
12.73333333,-2.712578297,0.541917503,9.425537109,-5.693634033,-2.06556201,9.268351555,-818.7000122,147.3000031,-779.7000122,0.483300082,-0.275219645,-0.056300958,DLR
12.76666667,-2.747868776,0.806296706,10.13014889,-5.693634033,-1.989341974,9.565609932,-833.1000366,153.9000092,-791.7000122,0.436245283,-0.260407895,-0.072829893,DLR
12.8,-1.792036295,0.175854027,9.408190727,-6.120465755,-2.042695999,9.100667953,-837.9000244,153.9000092,-796.500061,0.407162394,-0.188425045,-0.014490782,DLR
12.83333333,-2.156305313,0.446812809,9.586437225,-5.602169991,-1.371959925,8.208893776,-830.7000122,156.9000092,-815.7000122,0.363209679,-0.21667267,-0.038616473,DLR
12.86666667,-2.26157856,0.168676317,9.137829781,-5.30491209,-1.836901903,7.774439812,-830.7000122,158.7000122,-827.7000122,0.331446141,-0.238051022,-0.013722316,DLR
12.9,-1.430757999,-0.135180309,9.110913277,-5.571681976,-2.103672028,7.83541584,-837.9000244,166.5,-830.1000366,0.302777896,-0.157477518,0.020067624,DLR
12.93333333,-1.558162451,-0.742295444,9.697093964,-6.089977741,-2.49239397,7.286632061,-837.9000244,164.7000122,-827.7000122,0.278907472,-0.155583899,0.081052766,DLR
12.96666667,-1.683772445,-0.997104347,9.502696991,-6.051867962,-2.87349391,7.233277798,-830.7000122,173.1000061,-839.7000122,0.245982876,-0.170215333,0.111628229,DLR
13.0,-1.817756534,-0.839194596,9.613353729,-4.946677685,-2.08842802,7.233277798,-847.500061,171.3000031,-842.1000366,0.210031011,-0.182967196,0.094457029,DLR
13.03333333,-1.257894635,-1.268063068,9.372900009,-5.175337791,-0.853663981,8.193650246,-833.1000366,168.3000031,-844.500061,0.181028,-0.135686163,0.138617807,DLR
13.06666667,-1.443917155,-1.025815248,9.271814346,-5.000031948,-1.455801964,8.132674217,-828.3000488,181.5,-854.1000366,0.142234353,-0.151732011,0.118078637,DLR
13.1,-2.143146276,-1.411019325,9.200037003,-5.320156097,-1.082324028,8.887251854,-818.7000122,189.3000031,-851.7000122,0.109659191,-0.222218983,0.155646388,DLR
13.13333333,-1.914057493,-1.276437044,9.680345535,-4.72563982,-0.891773999,8.833897591,-811.500061,190.5,-858.9000244,0.066952766,-0.195886162,0.137384396,DLR
13.16666667,-1.530647874,-1.988227248,10.0392313,-3.567095995,-1.532021999,9.45127964,-816.3000488,189.9000092,-851.7000122,0.03652172,-0.151772679,0.195368178,DLR
13.2,-1.458870649,-2.338140965,10.16543961,-3.231727839,-2.263733864,8.262248039,-818.7000122,195.3000031,-861.3000488,0.005184019,-0.139118794,0.22752684,DLR
13.23333333,-1.829121232,-1.524068236,9.76408577,-1.42531395,-2.25611186,5.282045841,-811.500061,200.7000122,-856.500061,-0.028741757,-0.178194732,0.160017224,DLR
13.26666667,-1.656257868,-1.561751246,9.100745201,0.129574001,-2.408551931,4.336917877,-813.9000244,201.3000031,-861.3000488,-0.045837516,-0.174812362,0.167778142,DLR
13.3,-2.397955179,-0.854746282,8.679652214,1.006103992,-0.701223969,1.8292799,-816.3000488,203.1000061,-854.1000366,-0.067068643,-0.26183954,0.100034078,DLR
13.33333333,-2.024713993,-1.019833803,8.825001717,1.417691946,-0.106707998,0.541162014,-816.3000488,201.9000092,-854.1000366,-0.065065094,-0.226298159,0.111616102,DLR
13.36666667,-1.11553669,-1.62156558,9.569090843,0.40396598,-2.06556201,-1.166165948,-811.500061,201.3000031,-873.3000488,-0.052406455,-0.117589936,0.164024466,DLR
13.4,-1.016244888,-1.577303052,9.409386635,-0.434453994,-3.51374197,-2.004585981,-818.7000122,197.7000122,-846.9000244,-0.04667845,-0.100586059,0.166910251,DLR
13.43333333,-1.859626532,-1.903290987,10.01590443,-0.967993975,0.472563982,0.541162014,-825.9000244,195.9000092,-873.3000488,-0.04617572,-0.176984468,0.188108381,DLR
13.46666667,-1.491768599,-1.674202204,9.950706482,-0.823175967,1.577754021,2.096050024,-813.9000244,197.7000122,-875.7000122,-0.056972181,-0.151742203,0.168867115,DLR
13.5,-1.589864016,-1.430159807,9.211401939,-0.342989981,3.300325871,2.141782045,-821.1000366,200.1000061,-868.500061,-0.066186058,-0.174051477,0.154866852,DLR
13.53333333,-2.447002888,-0.896018147,9.073230743,0.076219998,4.001549721,2.49239397,-811.500061,203.1000061,-861.3000488,-0.086633303,-0.265411867,0.099940813,DLR
13.56666667,-0.92712158,-1.330269933,9.045716286,-0.213415995,2.416173935,3.422277927,-804.3000488,195.3000031,-863.7000122,-0.090873774,-0.115736644,0.142957122,DLR
13.6,-1.603023171,-1.681379914,7.829093456,-1.120433927,3.452765942,3.948195934,-797.1000366,201.3000031,-863.7000122,-0.094291418,-0.199443038,0.2081707,DLR
13.63333333,-2.229278803,-1.838691473,10.69419861,-2.248489857,3.910085917,3.78813386,-792.3000488,201.9000092,-854.1000366,-0.114664544,-0.209858701,0.175193,DLR
13.66666667,-0.885849714,-2.061798811,10.98609161,-2.17227006,-1.897877932,2.202757835,-777.9000244,202.5000153,-861.3000488,-0.125246245,-0.081797474,0.188353355,DLR
13.7,-1.550386548,-1.417598844,8.960780144,-0.625003994,-1.173787951,1.714949965,-780.3000488,201.9000092,-866.1000366,-0.136658846,-0.162509346,0.159387182,DLR
13.73333333,-1.50133884,-1.409224868,9.32145977,1.105189919,2.59910202,2.073184013,-787.500061,200.1000061,-863.7000122,-0.14449764,-0.162928075,0.148279889,DLR
13.76666667,-1.448104143,-1.080844402,8.643165588,2.507637978,1.631107926,0.632625997,-787.500061,198.3000031,-846.9000244,-0.148912623,-0.167470909,0.121295506,DLR
13.8,-2.448199272,-0.720762253,7.500114918,2.98020196,2.698187828,-1.006103992,-792.3000488,195.3000031,-854.1000366,-0.147526986,-0.309458037,0.093132138,DLR
13.83333333,-3.322684288,-1.65924859,7.858402252,1.105189919,2.942091942,-2.423795938,-787.500061,197.7000122,-863.7000122,-0.097443805,-0.391842549,0.201722564,ST
13.86666667,-4.434631824,-1.845869184,9.91481781,-0.335367978,1.42531395,-2.179892063,-782.7000122,200.1000061,-856.500061,-0.094439133,-0.414684894,0.187328084,ST
13.9,-4.181019306,-2.136566639,9.747936249,-0.548784018,-0.373477995,-1.23476398,-777.9000244,198.3000031,-863.7000122,-0.079891989,-0.396818791,0.215736249,ST
13.93333333,-2.363262892,-2.577398062,9.70068264,-0.655492008,-0.708845973,-1.859767914,-770.7000122,194.1000061,-861.3000488,-0.060499601,-0.238368717,0.259188817,ST
13.96666667,-2.300457954,-2.329168797,8.790308952,-0.076219998,-0.243903995,-2.004585981,-775.500061,198.3000031,-858.9000244,-0.053061887,-0.245974738,0.259921935,ST
14.0,-3.324478626,-2.243634224,7.806364059,1.067080021,2.751541853,-0.289635986,-780.3000488,196.5000153,-866.1000366,-0.042303847,-0.383999573,0.27748551,ST
14.03333333,-3.395059586,-2.483489513,9.092969894,0.838419974,3.132642031,0.099086002,-777.9000244,195.9000092,-866.1000366,-0.042317021,-0.353028974,0.266342575,ST
14.06666667,-4.287488937,-2.090509653,8.525929451,1.021348,2.339953899,0.586893976,-773.1000366,193.5000153,-851.7000122,-0.050761832,-0.45211827,0.240406232,ST
14.1,-4.565625191,-1.921833396,9.884910583,1.074702024,1.074702024,1.097568035,-775.500061,197.7000122,-868.500061,-0.072951034,-0.428960912,0.191665053,ST
14.13333333,-3.750954628,-1.808784366,8.822010994,1.394825935,-0.53354001,1.181409955,-770.7000122,197.1000061,-854.1000366,-0.072792678,-0.395862909,0.198521823,ST
14.16666667,-2.686259985,-1.586275101,8.564808846,1.585376024,0.053353999,1.135677934,-775.500061,196.5000153,-856.500061,-0.081145304,-0.304297451,0.180643408,ST
14.2,-3.307730675,-1.430159807,8.416469574,1.905499935,0.0,-0.266770005,-768.3000488,190.5,-856.500061,-0.082091493,-0.36668697,0.165851243,ST
14.23333333,-2.94405961,-1.316512704,8.510976791,1.143299937,-0.411587983,0.663114011,-780.3000488,192.3000031,-844.500061,-0.08821889,-0.330521838,0.1516835,ST
14.26666667,-2.653362274,-1.309933066,8.889600754,0.53354001,-0.853663981,1.707327962,-782.7000122,197.7000122,-856.500061,-0.096637389,-0.288778766,0.144851282,ST
14.3,-3.242532969,-1.123312473,8.781934738,0.693601966,0.487807989,1.410069942,-773.1000366,192.9000092,-849.3000488,-0.106605461,-0.34837838,0.126395982,ST
14.33333333,-3.698916197,-1.120321751,9.59481144,1.028970003,0.312501997,1.493911982,-782.7000122,198.3000031,-858.9000244,-0.115137978,-0.365640586,0.114114527,ST
14.36666667,-4.027296543,-0.668723822,9.253272057,1.783547997,0.655492008,1.356715918,-785.1000366,203.7000122,-856.500061,-0.133515673,-0.408138687,0.07089359,ST
14.4,-3.968678713,-0.902597725,9.195850372,1.676839948,0.29725799,0.137196004,-780.3000488,193.5000153,-856.500061,-0.122218097,-0.406337578,0.09352731,ST
14.43333333,-4.05002594,-1.03777802,9.610363007,0.434453994,-1.04421401,-0.785066009,-777.9000244,188.7000122,-846.9000244,-0.113977832,-0.395511297,0.106469012,ST
14.46666667,-3.112137794,-0.910971761,8.307607651,-0.442075998,-1.539644003,0.419209987,-780.3000488,188.7000122,-846.9000244,-0.116051932,-0.355517793,0.109484827,ST
14.5,-3.132474661,-1.04495573,8.555836678,-0.861285985,0.160062,1.295740008,-787.500061,189.3000031,-844.500061,-0.118069868,-0.349478318,0.121533511,ST
14.53333333,-2.808879375,-1.299764633,8.071341515,-0.40396598,0.72408998,0.72408998,-797.1000366,194.1000061,-842.1000366,-0.108832506,-0.333434172,0.157684767,ST
14.56666667,-3.451284885,-1.247128129,8.451162338,-0.739333987,0.998481989,0.487807989,-799.500061,191.7000122,-844.500061,-0.11474114,-0.383495655,0.148026628,ST
14.6,-3.616372347,-1.314718246,8.820814133,-0.640248001,0.137196004,0.312501997,-780.3000488,186.9000092,-849.3000488,-0.116672353,-0.385467735,0.148833981,ST
14.63333333,-4.251600266,-1.483992696,8.717933655,-0.548784018,-0.091463998,0.015244,-789.9000244,192.3000031,-844.500061,-0.109858257,-0.444190784,0.168252053,ST
14.66666667,-4.171449184,-1.589864016,10.30600357,-0.685979962,-0.815553963,0.823175967,-787.500061,195.3000031,-854.1000366,-0.120496984,-0.382191444,0.154210903,ST
14.7,-3.148624659,-1.350008726,9.165943146,0.274392009,-1.600619912,1.585376024,-787.500061,197.7000122,-846.9000244,-0.130087367,-0.328686393,0.145230564,ST
14.73333333,-2.80289793,-1.411019325,9.288561821,0.647870004,0.121951997,0.693601966,-785.1000366,196.5000153,-846.9000244,-0.130803233,-0.292197986,0.149077517,ST
14.76666667,-2.91594696,-1.023422599,7.644865513,1.173787951,1.135677934,0.640248001,-785.1000366,197.1000061,-837.3000488,-0.136575286,-0.359221521,0.131854646,ST
14.8,-2.94166708,-1.277633429,9.036146164,0.685979962,2.164648056,0.541162014,-792.3000488,198.3000031,-844.500061,-0.134316254,-0.318330804,0.138696336,ST
14.83333333,-3.646279573,-0.952243626,9.000855446,0.647870004,0.609759986,-0.29725799,-787.500061,199.5000153,-842.1000366,-0.142981232,-0.379985855,0.106639882,ST
14.86666667,-4.27133894,-1.035385489,9.258056641,0.40396598,0.998481989,0.152439997,-785.1000366,195.9000092,-851.7000122,-0.141014861,-0.428526034,0.11038617,ST
14.9,-4.197767258,-1.443318963,9.67436409,-0.419209987,0.571649969,0.068598002,-775.500061,194.7000122,-844.500061,-0.126789883,-0.407373735,0.147166196,ST
14.93333333,-3.453079462,-1.499544382,9.122876167,-0.480185986,-0.457319975,-0.022865999,-789.9000244,194.7000122,-839.7000122,-0.121854175,-0.359727939,0.162733564,ST
14.96666667,-3.043949604,-1.402047157,8.237625122,-0.274392009,-0.228659987,-0.091463998,-787.500061,194.7000122,-846.9000244,-0.119962571,-0.349573709,0.168712497,ST
15.0,-2.333355665,-1.656257868,7.727408886,-0.274392009,0.304879993,-0.160062,-787.500061,195.3000031,-844.500061,-0.106711684,-0.291330147,0.20917943,ST
15.03333333,-2.743083715,-2.064191341,8.092276573,-0.609759986,-0.464941978,-0.556405962,-787.500061,192.9000092,-834.9000244,-0.093669575,-0.315353582,0.249394504,ST
15.06666667,-3.74437499,-2.860917807,9.056482315,-1.653973937,0.61738199,-0.518296003,-780.3000488,197.1000061,-842.1000366,-0.074462591,-0.372609661,0.305604709,ST
15.1,-4.00097847,-2.95123744,8.958387375,-2.218001842,-0.396344006,-0.053353999,-777.9000244,191.7000122,-842.1000366,-0.072308197,-0.398807822,0.321056778,ST
15.13333333,-4.411304474,-2.853740215,9.821507454,-2.149404049,-0.045731999,1.653973937,-792.3000488,194.1000061,-849.3000488,-0.095525436,-0.407523315,0.287081829,ST
15.16666667,-3.974061966,-2.460161924,9.687523842,-1.028970003,0.282013983,2.111294031,-785.1000366,197.7000122,-856.500061,-0.118523233,-0.381367392,0.251139541,ST
15.2,-4.299451828,-1.801008463,8.211904526,0.266770005,0.381099999,1.356715918,-787.500061,195.3000031,-839.7000122,-0.137414524,-0.469814424,0.21604469,ST
15.23333333,-3.730617762,-1.674800277,8.18319416,0.777444005,1.158543944,1.692083955,-789.9000244,194.1000061,-854.1000366,-0.148035169,-0.425477204,0.200371197,ST
15.26666667,-3.551773071,-1.348214269,7.937955379,1.310984015,0.670735955,1.310984015,-789.9000244,191.7000122,-854.1000366,-0.163773115,-0.417514002,0.167168674,ST
15.3,-4.405920982,-1.050339103,8.513368607,1.707327962,0.670735955,1.775925994,-794.7000122,194.1000061,-846.9000244,-0.186974675,-0.473181967,0.120748158,ST
15.33333333,-3.700710535,-1.022824526,8.463723183,2.141782045,-0.739333987,1.34147191,-789.9000244,186.3000031,-846.9000244,-0.190921675,-0.411071774,0.115649819,ST
15.36666667,-3.790431976,-1.253707647,8.267532349,1.501533985,-0.106707998,1.158543944,-804.3000488,185.7000122,-839.7000122,-0.180803088,-0.424819254,0.145046704,ST
15.4,-4.533923626,-1.090414643,8.961976051,0.518296003,-0.594515979,1.250007987,-792.3000488,185.1000061,-839.7000122,-0.195145659,-0.462234409,0.120645768,ST
15.43333333,-2.287896872,-1.112545967,9.367517471,1.410069942,-2.210379839,0.487807989,-799.500061,183.3000031,-842.1000366,-0.197838748,-0.247993796,0.115725702,ST
15.46666667,-2.480498791,-0.901999593,8.148501396,2.042695999,-2.042695999,-0.525918007,-801.9000244,189.9000092,-834.9000244,-0.196673815,-0.287604395,0.107370868,ST
15.5,-3.914845705,-0.80031532,8.162259102,1.463423967,-0.137196004,-0.342989981,-813.9000244,188.7000122,-839.7000122,-0.197207568,-0.435420449,0.096191323,ST
15.53333333,-4.478894711,-1.252511382,8.7239151,0.960371971,1.021348,-0.121951997,-799.500061,186.3000031,-839.7000122,-0.175960568,-0.469947951,0.138649695,ST
15.56666667,-4.612878799,-1.025815248,8.392543793,0.701223969,1.615863919,-0.72408998,-797.1000366,191.1000061,-827.7000122,-0.178666487,-0.500672,0.122046827,ST
15.6,-4.039259434,-1.290194392,8.938648224,0.282013983,0.205793992,-0.922261953,-789.9000244,191.1000061,-846.9000244,-0.165651721,-0.425535148,0.142365242,ST
15.63333333,-3.586465359,-1.265072346,9.308898926,0.442075998,-1.562510014,-1.455801964,-804.3000488,182.7000122,-834.9000244,-0.163009778,-0.365502641,0.135569674,ST
15.66666667,-3.189298391,-1.257296562,9.027173996,0.457319975,-2.515259981,-1.394825935,-801.9000244,191.7000122,-839.7000122,-0.157589187,-0.333955313,0.138067206,ST
15.7,-3.52784729,-0.79553014,8.055789948,0.167683989,-1.753059983,-0.647870004,-792.3000488,186.3000031,-827.7000122,-0.169051753,-0.403348349,0.100961539,ST
15.73333333,-3.524856567,-1.074264765,9.143811226,-0.388722003,0.678357959,0.861285985,-785.1000366,188.1000061,-822.9000244,-0.166840585,-0.369192856,0.116132949,ST
15.76666667,-3.050529242,-0.910373628,8.138931274,-0.320124,-0.335367978,-0.068598002,-794.7000122,187.5,-827.7000122,-0.168572528,-0.356769541,0.112220632,ST
15.8,-3.780263662,-1.067087054,8.263943672,-1.242385983,0.571649969,0.060975999,-797.1000366,190.5,-837.3000488,-0.163926821,-0.422641685,0.129456814,ST
15.83333333,-4.224085808,-1.19090271,8.449965477,-1.219519973,0.823175967,-0.129574001,-794.7000122,190.5,-825.3000488,-0.160016285,-0.459146089,0.141712041,ST
15.86666667,-4.367640018,-1.617976785,9.333422661,-1.295740008,0.708845973,-0.053353999,-794.7000122,192.9000092,-827.7000122,-0.148510115,-0.434810908,0.172109616,ST
15.9,-4.065577984,-1.717268467,8.827992439,-1.036592007,0.29725799,-0.571649969,-806.7000122,189.3000031,-827.7000122,-0.138982525,-0.425277365,0.193548489,ST
15.93333333,-3.331058264,-1.988227248,9.420153618,-1.12805593,0.060975999,-0.190549999,-797.1000366,193.5000153,-832.500061,-0.134042015,-0.338146249,0.209223015,ST
15.96666667,-3.780263662,-1.625752568,9.030164719,-0.083841994,-1.097568035,-0.251525998,-797.1000366,197.7000122,-808.500061,-0.144475903,-0.386618811,0.179700731,ST
16.0,-3.245523691,-1.384102821,8.232839584,0.632625997,0.068598002,0.068598002,-806.7000122,195.9000092,-815.7000122,-0.148714759,-0.371870221,0.16628054,ST
16.03333333,-3.580483913,-1.500142574,8.412282944,0.434453994,1.631107926,0.114329994,-797.1000366,189.9000092,-825.3000488,-0.143879597,-0.398407102,0.175414383,ST
16.06666667,-4.056605816,-1.341036558,9.029566765,0.503051996,0.625003994,-0.167683989,-811.500061,192.3000031,-818.1000366,-0.152789075,-0.418079086,0.148335772,ST
16.1,-4.013539314,-1.633528471,8.449367523,0.564027965,-0.350611985,-0.373477995,-801.9000244,190.5,-806.1000366,-0.134121885,-0.434820307,0.188158909,ST
16.13333333,-3.866396189,-1.675996661,8.734084129,0.746955991,-0.876529992,-0.411587983,-797.1000366,189.3000031,-822.9000244,-0.131890121,-0.410056159,0.188450243,ST
16.16666667,-3.114530563,-1.745381236,8.578566551,0.647870004,-3.010689974,-1.356715918,-806.7000122,188.1000061,-808.500061,-0.124123357,-0.340656408,0.19937362,ST
16.2,-3.547585964,-1.83330822,7.8482337,0.434453994,-3.589962006,-2.141782045,-813.9000244,188.1000061,-818.1000366,-0.10751652,-0.404752303,0.228280435,ST
16.23333333,-3.780861616,-1.72504437,9.55772686,-0.510674,-3.10977602,-2.157026052,-821.1000366,197.7000122,-791.7000122,-0.119424674,-0.366962508,0.182581477,ST
16.26666667,-2.933293104,-1.672407746,8.26513958,0.464941978,-2.530503988,-0.876529992,-823.500061,195.3000031,-810.9000244,-0.112050436,-0.332361134,0.198072586,ST
16.3,-3.633718491,-1.930805564,8.751429558,0.182927996,-0.129574001,-0.137196004,-818.7000122,188.7000122,-806.1000366,-0.105207084,-0.381743125,0.215735652,ST
16.33333333,-4.159486294,-2.083930016,8.625221252,-0.510674,0.068598002,0.358233988,-823.500061,194.7000122,-818.1000366,-0.099081809,-0.435150459,0.236328614,ST
16.36666667,-3.463247776,-2.052228451,8.752626419,-1.112811923,-0.320124,1.585376024,-823.500061,189.9000092,-810.9000244,-0.108748142,-0.371876838,0.231428039,ST
16.4,-3.519473314,-1.496553659,8.422451019,-0.754577994,-0.655492008,2.789651871,-811.500061,195.3000031,-801.3000488,-0.140230827,-0.389014654,0.178569275,ST
16.43333333,-2.176044226,-1.820149064,7.504899979,-1.23476398,0.602137983,4.961921692,-823.500061,191.7000122,-808.500061,-0.141469812,-0.284409922,0.234127321,ST
16.46666667,-3.009855509,-2.137164831,9.113903999,-1.867389917,-0.129574001,3.78813386,-813.9000244,195.9000092,-803.7000122,-0.159730126,-0.311014335,0.231659226,ST
16.5,-2.399749517,-2.5791924,10.29762936,-1.42531395,-1.55488801,2.240867853,-809.1000366,189.3000031,-806.1000366,-0.168626728,-0.224189606,0.24625975,ST
16.53333333,-4.291077614,-2.041461945,8.546266556,-0.434453994,-1.547266006,1.387203932,-825.9000244,194.1000061,-820.500061,-0.179385096,-0.438183229,0.234770118,ST
16.56666667,-2.923722744,-1.994806767,8.996668816,0.320124,-0.007622,2.400929928,-816.3000488,191.1000061,-810.9000244,-0.194197149,-0.315984056,0.217317669,ST
16.6,-3.412405729,-1.922431469,9.625914574,1.42531395,-0.152439997,1.486289978,-835.500061,194.7000122,-801.3000488,-0.205091739,-0.333678095,0.195174516,ST
16.63333333,-2.772990704,-1.923029661,9.332226753,2.179892063,-0.518296003,-0.038109999,-825.9000244,194.1000061,-808.500061,-0.20142717,-0.285105239,0.199163703,ST
16.66666667,-3.2383461,-1.475020528,8.93805027,2.477149963,-0.358233988,-0.838419974,-821.1000366,197.1000061,-808.500061,-0.20674751,-0.338983458,0.162119514,ST
16.7,-2.766411304,-1.205856204,8.741859436,2.583858013,-0.564027965,-1.089946032,-825.9000244,198.3000031,-803.7000122,-0.208297426,-0.304754146,0.134868078,ST
16.73333333,-2.968583584,-1.219613552,8.606678963,2.698187828,0.282013983,-1.349093914,-833.1000366,194.7000122,-808.500061,-0.199039101,-0.327770366,0.136739394,ST
16.76666667,-2.876469612,-0.999496877,8.089883804,2.179892063,0.053353999,-1.189031959,-818.7000122,186.3000031,-803.7000122,-0.196824269,-0.338392463,0.120872535,ST
16.8,-3.166568995,-1.123910666,8.177810669,1.272873998,-0.015244,-0.83079797,-833.1000366,185.1000061,-810.9000244,-0.187224865,-0.364569787,0.134122184,ST
16.83333333,-4.115821838,-1.284212947,9.469201088,0.678357959,-0.243903995,-0.487807989,-823.500061,194.1000061,-798.9000244,-0.184485269,-0.403888373,0.133953092,ST
16.86666667,-4.171449184,-1.216024637,8.95240593,0.419209987,-0.907018006,0.076219998,-821.1000366,187.5,-798.9000244,-0.184457921,-0.429359443,0.134105968,ST
16.9,-3.210831404,-1.245931864,9.176111221,0.053353999,-0.160062,0.213415995,-821.1000366,194.7000122,-801.3000488,-0.185030073,-0.339323353,0.134681366,ST
16.93333333,-2.051630497,-1.149032593,8.710158348,0.007622,-0.464941978,-0.663114011,-823.500061,190.5,-813.3000488,-0.183568159,-0.235158896,0.131606383,ST
16.96666667,-3.209037066,-1.326681137,9.08878231,-0.068598002,0.800309956,0.106707998,-806.7000122,192.3000031,-803.7000122,-0.180000347,-0.333470827,0.144523378,ST
17.0,-3.116923094,-1.507918477,9.424939156,0.541162014,-0.564027965,-0.632625997,-823.500061,195.3000031,-806.1000366,-0.172884388,-0.315331122,0.157421725,ST
17.03333333,-3.085819483,-1.618574858,9.103735924,0.40396598,-0.586893976,-0.632625997,-818.7000122,193.5000153,-803.7000122,-0.164929326,-0.32060596,0.1745583,ST
17.06666667,-4.12539196,-1.618574858,9.207214355,-0.137196004,0.449698001,0.320124,-821.1000366,192.9000092,-808.500061,-0.166169401,-0.410619676,0.174114155,ST
17.1,-3.075052977,-1.473824263,8.701784134,0.213415995,1.150921941,1.280496001,-821.1000366,189.3000031,-794.1000366,-0.172814365,-0.340821989,0.167047883,ST
17.13333333,-4.109840393,-1.381112099,8.028274536,0.442075998,1.676839948,0.983237982,-823.500061,187.5,-820.500061,-0.173889254,-0.462503236,0.168883428,ST
17.16666667,-3.295169592,-1.423580289,8.445180893,0.358233988,1.272873998,0.72408998,-801.9000244,194.1000061,-801.3000488,-0.17626285,-0.375303811,0.166191045,ST
17.2,-4.329957008,-1.19329524,8.605483055,0.114329994,0.266770005,0.480185986,-799.500061,191.1000061,-810.9000244,-0.188761276,-0.458143611,0.138869057,ST
17.23333333,-4.353284359,-1.646089435,9.472789764,0.099086002,-0.030487999,0.40396598,-801.9000244,194.1000061,-808.500061,-0.176850153,-0.427026312,0.169801831,ST
17.26666667,-3.813161373,-1.526460886,8.653932571,0.015244,-0.335367978,0.876529992,-809.1000366,190.5,-808.500061,-0.178669322,-0.410182443,0.173620067,ST
17.3,-4.018922806,-1.410421133,8.933265686,-0.213415995,-0.045731999,1.120433927,-809.1000366,189.9000092,-813.3000488,-0.19009329,-0.417999028,0.156964377,ST
17.33333333,-2.466741562,-1.41221559,8.292654037,0.106707998,-1.265251994,0.198172003,-811.500061,192.3000031,-803.7000122,-0.187795306,-0.289713716,0.167747987,ST
17.36666667,-2.529546738,-1.534834862,7.915225983,0.060975999,-1.402447939,-0.190549999,-809.1000366,192.9000092,-810.9000244,-0.181519644,-0.300830449,0.189944025,ST
17.4,-2.603716373,-1.642500639,8.19754982,0.007622,-0.525918007,-0.289635986,-811.500061,198.9000092,-806.1000366,-0.178612458,-0.300907694,0.197352806,ST
17.43333333,-3.131876707,-1.805793643,7.863785744,0.022865999,0.129574001,-0.419209987,-816.3000488,192.3000031,-810.9000244,-0.16813122,-0.366103921,0.224186536,ST
17.46666667,-4.764208794,-2.208941936,9.262842178,-0.373477995,1.173787951,-0.022865999,-804.3000488,196.5000153,-820.500061,-0.163599506,-0.459792162,0.234322468,ST
17.5,-3.446499825,-2.546294689,10.74683475,-0.72408998,-1.669217944,-0.381099999,-811.500061,198.9000092,-801.3000488,-0.164801432,-0.309174868,0.233919924,ST
17.53333333,-3.253897667,-1.780671597,8.871656418,0.762199998,-3.048799992,-0.411587983,-821.1000366,196.5000153,-803.7000122,-0.175856081,-0.337996253,0.198914925,ST
17.56666667,-2.530144691,-2.01215291,9.297533989,0.884151995,-0.640248001,0.312501997,-813.9000244,192.9000092,-818.1000366,-0.173049184,-0.262445996,0.210846222,ST
17.6,-3.302347422,-2.046247005,8.555238724,0.53354001,0.495429993,0.777444005,-809.1000366,183.9000092,-806.1000366,-0.168426219,-0.355959564,0.232399762,ST
17.63333333,-3.939369678,-2.293280125,9.232934952,-0.274392009,0.0,1.082324028,-816.3000488,197.7000122,-803.7000122,-0.169078318,-0.390788062,0.242522641,ST
17.66666667,-2.834599495,-1.954133034,7.504899979,0.121951997,-0.045731999,0.365855992,-825.9000244,186.9000092,-806.1000366,-0.166258685,-0.352948997,0.253573839,ST
17.7,-2.486480236,-2.079144955,8.351272583,-0.106707998,0.030487999,0.419209987,-818.7000122,195.3000031,-820.500061,-0.170751121,-0.28581059,0.244545323,ST
17.73333333,-3.168363333,-2.329766989,9.338208199,0.72408998,-0.350611985,0.998481989,-806.7000122,191.1000061,-813.3000488,-0.174652066,-0.316278226,0.242729761,ST
17.76666667,-2.967387199,-2.220904827,9.451256752,0.846041977,-0.91463995,0.365855992,-825.9000244,194.7000122,-815.7000122,-0.179705525,-0.296493795,0.229844273,ST
17.8,-3.695327282,-1.872187495,8.666493416,0.945127964,-0.495429993,0.998481989,-823.500061,191.7000122,-808.500061,-0.188595587,-0.388449146,0.211576426,ST
17.83333333,-4.147523403,-1.721455455,7.527629375,0.769822001,1.211897969,2.621968031,-801.9000244,188.1000061,-818.1000366,-0.19181942,-0.49004904,0.220816844,ST
17.86666667,-4.276722431,-1.801606655,8.835169792,0.640248001,1.928365946,2.012207985,-818.7000122,191.1000061,-808.500061,-0.205756476,-0.449491363,0.200005591,ST
17.9,-2.77478528,-1.763923645,8.682044983,0.876529992,-0.266770005,0.320124,-809.1000366,189.3000031,-818.1000366,-0.20630173,-0.312015731,0.198789682,ST
17.93333333,-2.956022501,-1.582686305,8.037845612,0.945127964,-1.707327962,0.53354001,-811.500061,192.9000092,-820.500061,-0.210292913,-0.341635538,0.19264194,ST
17.96666667,-3.617568731,-1.681977987,8.756215096,0.80793196,-0.510674,1.028970003,-830.7000122,190.5,-806.1000366,-0.21506034,-0.382528754,0.187876418,ST
18.0,-3.896303415,-1.76511991,9.540380478,0.381099999,-0.83079797,0.762199998,-816.3000488,194.1000061,-796.500061,-0.220039635,-0.380800348,0.182029175,DLL
18.03333333,-3.860414743,-1.787849307,9.853807449,-0.076219998,-2.073184013,0.899396002,-797.1000366,192.9000092,-810.9000244,-0.225986501,-0.365621242,0.178971119,DLL
18.06666667,-1.930805564,-1.342232823,9.105530739,0.030487999,-3.376545906,0.922261953,-813.9000244,189.9000092,-806.1000366,-0.240497206,-0.211145696,0.147663185,DLL
18.1,-2.202362537,-0.810483754,6.598114967,0.221037999,-2.400929928,1.326228023,-823.500061,185.7000122,-815.7000122,-0.253022922,-0.309664423,0.122647077,DLL
18.13333333,-3.31610465,-1.230978251,8.381777763,-0.998481989,-0.457319975,1.432935953,-821.1000366,193.5000153,-808.500061,-0.252690796,-0.369218447,0.145248425,DLL
18.16666667,-3.980641365,-1.096396089,8.281888008,-1.562510014,-0.792688012,2.164648056,-821.1000366,189.3000031,-815.7000122,-0.269290706,-0.440501738,0.13311908,DLL
18.2,-3.448892355,-1.844672918,10.35983658,-1.55488801,-1.478667974,2.789651871,-828.3000488,192.9000092,-815.7000122,-0.267325784,-0.322603674,0.174539392,DLL
18.23333333,-3.496145725,-1.662239313,9.916612625,-0.884151995,-3.445143938,0.899396002,-811.500061,198.3000031,-820.500061,-0.277284654,-0.328711371,0.167063143,DLL
18.26666667,-3.330460072,-1.390084267,9.247290611,-0.884151995,-2.477149963,1.44817996,-816.3000488,196.5000153,-818.1000366,-0.290722184,-0.337682621,0.150709727,DLL
18.3,-3.201261282,-1.419991374,8.941040993,-1.135677934,-2.187514067,2.835383892,-816.3000488,197.7000122,-813.3000488,-0.302046773,-0.336934362,0.157145982,DLL
18.33333333,-2.222101212,-1.348214269,7.966666222,-1.707327962,-1.821658015,2.942091942,-835.500061,194.1000061,-810.9000244,-0.313056257,-0.270385675,0.168311922,DLL
18.36666667,-3.298160315,-1.542610765,8.973340988,-2.675322056,-0.693601966,3.605206013,-823.500061,203.1000061,-830.1000366,-0.3292079,-0.342729749,0.172439481,DLL
18.4,-3.500930786,-1.793232679,8.721522331,-3.475631952,-2.347575903,4.397893906,-830.7000122,201.3000031,-818.1000366,-0.341231196,-0.370343614,0.203611953,DLL
18.43333333,-3.783852339,-1.771101356,8.474489212,-4.367405891,-3.62045002,5.884183884,-830.7000122,201.3000031,-827.7000122,-0.370300488,-0.405687545,0.208524381,DLL
18.46666667,-3.780263662,-2.043854475,8.654530525,-6.257661819,-4.062525749,10.16012573,-813.9000244,213.9000092,-834.9000244,-0.416392417,-0.39938195,0.23380446,DLL
18.5,-2.491863728,-2.759831667,8.721522331,-7.637243748,-5.693634033,11.01379013,-797.1000366,213.3000031,-844.500061,-0.447896371,-0.270478387,0.308805088,DLL
18.53333333,-2.616277456,-2.92312479,9.030164719,-7.507669926,-4.634175777,10.89945984,-806.7000122,218.1000061,-846.9000244,-0.498824228,-0.267439988,0.319798533,DLL
18.56666667,-2.40274024,-3.192289114,8.58095932,-7.561023712,-4.885701656,11.12811947,-794.7000122,227.7000122,-866.1000366,-0.543164652,-0.256154489,0.361095228,DLL
18.6,-2.04983592,-3.477005005,8.257363319,-7.195168018,-3.932951927,10.92232609,-809.1000366,230.7000122,-849.3000488,-0.585225446,-0.227817612,0.403583279,DLL
18.63333333,-1.799812198,-3.650466442,8.184390068,-6.654006004,-3.330813885,9.89335537,-797.1000366,233.7000122,-858.9000244,-0.631156145,-0.201234722,0.426347498,DLL
18.66666667,-2.021125078,-3.758730412,8.382375717,-5.830830097,-2.614346027,8.574749947,-775.500061,237.9000092,-854.1000366,-0.670694016,-0.217568854,0.4281936,DLL
18.7,-1.777680874,-4.297059059,8.314785004,-5.571681976,-2.446661949,7.02748394,-773.1000366,236.7000122,-858.9000244,-0.693647122,-0.19120821,0.480783923,DLL
18.73333333,-2.17006278,-4.287488937,8.957789421,-5.297289848,-2.652456045,6.021379948,-773.1000366,239.7000122,-861.3000488,-0.729136758,-0.214166311,0.45488355,DLL
18.76666667,-2.378216505,-4.454968929,8.807655334,-4.908567905,-2.652456045,5.686011791,-761.1000366,237.3000031,-868.500061,-0.754145225,-0.235439526,0.473077403,DLL
18.8,-2.268158197,-4.479492664,8.618641853,-3.528985977,-1.272873998,5.175337791,-749.1000366,247.5000153,-854.1000366,-0.778308805,-0.231772237,0.482933362,DLL
18.83333333,-2.293878317,-4.410108089,8.586342812,-3.246971846,-0.838419974,5.076251984,-749.1000366,252.9000092,-866.1000366,-0.801561825,-0.23583927,0.478394101,DLL
18.86666667,-2.381207228,-4.204347134,8.408694267,-2.644834042,-1.326228023,4.626554012,-741.9000244,249.3000031,-861.3000488,-0.826671325,-0.248974113,0.466780757,DLL
18.9,-2.935087442,-3.897499561,8.449367523,-1.417691946,-0.259148002,4.657042027,-734.7000122,251.1000061,-858.9000244,-0.855611809,-0.305965977,0.43387861,DLL
18.93333333,-2.887236118,-3.992006302,8.131155968,-0.823175967,0.419209987,4.230209827,-741.9000244,255.9000092,-858.9000244,-0.864311459,-0.312052126,0.454457011,DLL
18.96666667,-2.70898962,-3.950734377,7.658024311,-1.006103992,-0.137196004,4.009171963,-734.7000122,254.1000061,-851.7000122,-0.873346987,-0.307836933,0.47471371,DLL
19.0,-3.380704165,-4.239637375,8.84832859,-1.250007987,-0.419209987,4.001549721,-717.9000244,251.1000061,-851.7000122,-0.897625855,-0.332621106,0.448459627,DLL
19.03333333,-3.19587779,-4.47829628,7.762699604,-1.242385983,-0.815553963,2.17227006,-720.3000488,253.5000153,-861.3000488,-0.88506814,-0.342733166,0.520657907,DLL
19.06666667,-3.724038124,-3.906471729,7.92359972,-1.387203932,-0.335367978,1.974097967,-720.3000488,264.3000183,-854.1000366,-0.915105909,-0.396547788,0.4629244,DLL
19.1,-3.044547796,-4.367042065,8.159866333,-0.373477995,-0.121951997,2.560992002,-717.9000244,253.5000153,-854.1000366,-0.915210626,-0.324371704,0.489023029,DLL
19.13333333,-2.609099627,-4.781554699,7.881131649,-0.708845973,-1.349093914,1.036592007,-710.7000122,258.3000183,-854.1000366,-0.906390522,-0.277455213,0.542713709,DLL
19.16666667,-2.768205643,-4.512988567,8.217288017,-0.594515979,-1.897877932,0.304879993,-720.3000488,249.3000031,-842.1000366,-0.922604402,-0.284148987,0.504637643,DLL
19.2,-1.955329418,-4.539905071,7.729203701,1.760681987,-0.335367978,0.068598002,-710.7000122,258.3000183,-839.7000122,-0.916209747,-0.217748018,0.526808295,DLL
19.23333333,-2.811271906,-4.042250156,7.901468754,2.164648056,0.045731999,-1.402447939,-717.9000244,254.7000122,-846.9000244,-0.922163899,-0.302233121,0.472062732,DLL
19.26666667,-3.004472256,-3.832900047,8.248391151,1.943609953,-0.304879993,-1.501533985,-725.1000366,258.9000244,-856.500061,-0.926450654,-0.316531845,0.434722294,DLL
19.3,-3.209037066,-3.594839334,8.228652954,1.890255928,-0.785066009,-0.708845973,-737.1000366,251.7000122,-854.1000366,-0.93057327,-0.339963401,0.410366901,DLL
19.33333333,-2.931498766,-3.497940063,7.884720802,0.487807989,-1.570132017,-0.144817993,-739.5,253.5000153,-854.1000366,-0.929983227,-0.325904436,0.416035374,DLL
19.36666667,-2.783159256,-3.789833784,8.342898369,-0.335367978,-1.189031959,0.274392009,-734.7000122,246.9000092,-856.500061,-0.93019594,-0.295162366,0.425944385,DLL
19.4,-2.830412626,-3.677382946,8.879432678,-0.381099999,-1.112811923,0.121951997,-729.9000244,254.1000061,-875.7000122,-0.941622166,-0.28534123,0.395017317,DLL
19.43333333,-1.032394767,-4.259376049,7.931973934,-0.121951997,-1.219519973,0.243903995,-744.3000488,244.5000153,-837.3000488,-0.92586959,-0.123030388,0.487058806,DLL
19.46666667,-2.387188673,-3.608596563,7.827897072,-0.045731999,-0.754577994,-0.228659987,-746.7000122,256.5,-851.7000122,-0.936198989,-0.25993932,0.435472701,DLL
19.5,-2.62644577,-3.669607162,8.140726089,0.099086002,0.342989981,0.190549999,-734.7000122,248.1000061,-854.1000366,-0.93928262,-0.28511932,0.424049711,DLL
19.53333333,-2.621062517,-4.048829556,8.320766449,-0.007622,0.053353999,0.541162014,-725.1000366,256.5,-856.500061,-0.9336471,-0.277039889,0.450916945,DLL
19.56666667,-2.630632877,-4.091896057,8.581557274,-0.419209987,-0.868907988,0.190549999,-729.9000244,250.5000153,-844.500061,-0.937626503,-0.269225315,0.445736736,DLL
19.6,-3.362161636,-4.094288826,8.848927498,-0.411587983,-0.29725799,0.236281991,-727.5,255.3000031,-854.1000366,-0.94269246,-0.327964868,0.434619193,DLL
19.63333333,-3.12051177,-3.977650642,8.532509804,0.373477995,0.503051996,1.089946032,-746.7000122,245.1000061,-849.3000488,-0.945030095,-0.322053782,0.43508969,DLL
19.66666667,-3.323282242,-3.6761868,8.369216919,0.632625997,0.594515979,0.449698001,-739.5,250.5000153,-856.500061,-0.951815366,-0.348600809,0.413776222,DLL
19.7,-3.026005268,-3.592446804,8.045620918,0.998481989,0.952749968,0.891773999,-729.9000244,253.5000153,-863.7000122,-0.950798954,-0.333906185,0.417696366,DLL
19.73333333,-2.103070736,-4.072157383,7.654435635,-0.099086002,-0.198172003,0.213415995,-729.9000244,249.3000031,-868.500061,-0.932826568,-0.243693047,0.484760991,DLL
19.76666667,-2.932694912,-3.718654871,7.658024311,-0.731711984,-0.564027965,-0.076219998,-732.3000488,253.5000153,-851.7000122,-0.942994717,-0.326975124,0.454670853,DLL
19.8,-2.361468554,-4.329359055,7.914628029,-0.175305992,0.350611985,0.785066009,-734.7000122,253.5000153,-861.3000488,-0.93270622,-0.260288036,0.498623373,DLL
19.83333333,-2.920134068,-4.599719524,7.271624088,-0.945127964,-0.045731999,0.381099999,-737.1000366,249.3000031,-866.1000366,-0.917084089,-0.323793151,0.56173892,DLL
19.86666667,-2.438628912,-4.73011446,7.518058777,-2.187514067,-1.371959925,0.93750596,-744.3000488,252.3000031,-866.1000366,-0.92493657,-0.269904012,0.56449225,DLL
19.9,-1.819550872,-5.204442024,7.348784447,-1.402447939,-0.716467977,1.410069942,-753.9000244,257.7000122,-851.7000122,-0.920536617,-0.204024507,0.614863824,DLL
19.93333333,-2.813066483,-4.814452648,7.939749718,-0.327746004,0.472563982,1.143299937,-729.9000244,256.5,-846.9000244,-0.939572524,-0.290373294,0.549634972,DLL
19.96666667,-3.557156324,-4.350892067,8.484658241,0.975615978,1.067080021,1.326228023,-741.9000244,249.3000031,-846.9000244,-0.963965055,-0.355624147,0.476528885,DLL
20.0,-3.418387175,-4.428650379,8.050406456,1.570132017,0.708845973,0.960371971,-720.3000488,250.5000153,-851.7000122,-0.95603768,-0.357923638,0.498448157,DLL
20.03333333,-3.336441517,-4.569214344,8.209512711,0.381099999,-0.320124,-0.42683199,-715.5,250.5000153,-858.9000244,-0.951815004,-0.341437733,0.506813443,DLL
20.06666667,-2.837590218,-4.52315712,8.160464287,0.625003994,-0.945127964,1.250007987,-746.7000122,252.9000092,-854.1000366,-0.958082355,-0.297132762,0.504319466,DLL
20.1,-2.371038675,-4.40293026,7.918814659,1.112811923,-0.769822001,1.509155989,-741.9000244,255.3000031,-858.9000244,-0.96334371,-0.258534658,0.504689012,DLL
20.13333333,-2.483489513,-4.172047138,7.857205868,0.442075998,-0.022865999,0.663114011,-732.3000488,251.1000061,-856.500061,-0.969523417,-0.271883631,0.488138104,DLL
20.16666667,-2.617473602,-3.683364391,6.985113621,1.631107926,1.55488801,2.370441914,-729.9000244,251.7000122,-851.7000122,-0.974619943,-0.321199618,0.482030607,DLL
20.2,-3.338834047,-3.727028847,7.603593349,0.91463995,1.608241916,0.449698001,-732.3000488,253.5000153,-844.500061,-0.980939467,-0.37563332,0.455746179,DLL
20.23333333,-2.823832989,-4.013539314,7.55933094,-1.036592007,-0.792688012,-0.304879993,-722.7000122,255.9000092,-839.7000122,-0.97172571,-0.320762638,0.487813789,DLL
20.26666667,-4.402332306,-3.77727294,8.342300415,-1.204275966,-0.525918007,1.653973937,-722.7000122,255.9000092,-844.500061,-1.001455662,-0.440751393,0.429928554,DLL
20.3,-3.487173557,-3.839479685,8.50977993,-1.021348,-0.068598002,1.120433927,-734.7000122,254.7000122,-851.7000122,-1.008950094,-0.362667461,0.42517658,DLL
20.33333333,-3.014042377,-4.390967369,8.638381004,0.114329994,0.396344006,1.44817996,-725.1000366,253.5000153,-839.7000122,-0.999412926,-0.306912666,0.466817529,DLL
20.36666667,-4.044044495,-3.978847027,9.279589653,0.106707998,-0.564027965,-0.510674,-727.5,250.5000153,-837.3000488,-1.017769074,-0.375318811,0.408900858,DLL
20.4,-2.577996254,-4.099073887,7.655033588,1.280496001,-0.739333987,0.045731999,-717.9000244,252.9000092,-851.7000122,-0.992678487,-0.292878912,0.484464364,DLL
20.43333333,-3.017631292,-3.328067541,7.158575058,1.463423967,-0.42683199,-0.320124,-722.7000122,257.1000061,-844.500061,-1.005913617,-0.359885196,0.4359131,DLL
20.46666667,-3.341226578,-3.171952248,7.524040222,1.615863919,0.960371971,0.952749968,-729.9000244,249.3000031,-851.7000122,-1.019107891,-0.388751154,0.398245894,DLL
20.5,-1.90867424,-4.320386887,7.449272633,0.449698001,0.091463998,-1.432935953,-727.5,251.1000061,-849.3000488,-0.975559255,-0.223903397,0.52058747,DLL
20.53333333,-2.848954916,-4.013539314,7.74714756,-1.219519973,-0.655492008,-2.743919849,-734.7000122,246.9000092,-837.3000488,-0.978418076,-0.306993794,0.483733807,DLL
20.56666667,-3.023014545,-4.337134838,8.63000679,-2.484771967,-1.981719971,-1.295740008,-722.7000122,256.5,-849.3000488,-0.9845129,-0.299568394,0.47077178,DLL
20.6,-2.547490835,-4.728918552,9.314880371,-1.371959925,-1.981719971,-0.099086002,-727.5,256.5,-832.500061,-0.988972169,-0.23949196,0.471750569,DLL
20.63333333,-0.963608325,-5.348594666,8.707167625,0.030487999,-1.303362012,-0.053353999,-722.7000122,248.1000061,-837.3000488,-0.978664875,-0.101000613,0.545984599,DLL
20.66666667,-2.949443102,-4.084120274,8.691017151,1.699705958,1.34147191,0.320124,-708.3000488,251.1000061,-842.1000366,-0.995695228,-0.288208782,0.443470079,DLL
20.7,-1.579695582,-4.306031227,7.635294914,2.035073996,1.730193973,-0.175305992,-734.7000122,255.3000031,-846.9000244,-0.975197697,-0.187352387,0.506369862,DLL
20.73333333,-2.630034685,-3.657644272,6.828998089,1.882633924,2.111294031,-0.731711984,-739.5,252.9000092,-830.1000366,-0.970725886,-0.321227253,0.490421889,DLL
20.76666667,-4.258778095,-4.090101719,8.664699554,1.112811923,2.332331896,0.060975999,-734.7000122,255.9000092,-846.9000244,-0.982370319,-0.417024118,0.442392744,DLL
20.8,-3.524856567,-4.264759541,8.680849075,0.099086002,-0.060975999,-1.623485923,-734.7000122,253.5000153,-846.9000244,-0.970916345,-0.35116347,0.456776207,DLL
20.83333333,-4.262366772,-3.847853661,8.467311859,0.228659987,-0.137196004,-0.685979962,-725.1000366,251.7000122,-846.9000244,-0.979152258,-0.424281406,0.428479813,DLL
20.86666667,-3.122306347,-3.750356436,8.476284027,1.333850026,0.419209987,0.670735955,-732.3000488,252.9000092,-839.7000122,-0.983939113,-0.331398128,0.41475034,DLL
20.9,-2.500237703,-3.773684025,7.850626469,2.782029867,0.602137983,0.442075998,-734.7000122,245.1000061,-846.9000244,-0.97270957,-0.283037713,0.441935118,DLL
20.93333333,-2.611492157,-3.623550177,7.316484928,1.501533985,-0.152439997,-1.204275966,-715.5,249.3000031,-839.7000122,-0.96228556,-0.30716602,0.456995668,DLL
20.96666667,-3.125895262,-3.517678738,7.404411793,-0.129574001,-0.42683199,0.449698001,-734.7000122,247.5000153,-854.1000366,-0.969083644,-0.36117592,0.444045897,DLL
21.0,-3.709084511,-3.85503149,8.557033539,-0.899396002,0.015244,0.746955991,-732.3000488,247.5000153,-834.9000244,-0.979569532,-0.375978072,0.425586735,DLL
21.03333333,-3.197672367,-4.367640018,8.244204521,-1.112811923,-0.251525998,0.434453994,-729.9000244,250.5000153,-832.500061,-0.962324764,-0.332682145,0.485423841,DLL
21.06666667,-3.661233187,-4.18879509,8.084500313,-0.922261953,-0.640248001,0.381099999,-739.5,250.5000153,-839.7000122,-0.9684234,-0.379474516,0.479505184,DLL
21.1,-1.979853272,-4.877855778,8.194559097,-0.731711984,-1.173787951,0.960371971,-732.3000488,255.3000031,-839.7000122,-0.958719236,-0.212406452,0.534926561,DLL
21.13333333,-2.07794857,-4.015932083,7.846439362,-0.327746004,-1.775925994,0.983237982,-727.5,254.1000061,-834.9000244,-0.978487181,-0.228554885,0.476719647,DLL
21.16666667,-2.907572985,-3.606802225,7.982217789,1.143299937,0.304879993,2.644834042,-729.9000244,246.3000031,-844.500061,-1.001212631,-0.31918011,0.423381298,DLL
21.2,-2.333953857,-4.388575077,8.325551987,0.525918007,0.503051996,-0.015244,-729.9000244,251.7000122,-844.500061,-0.983246802,-0.247191836,0.481686303,DLL
21.23333333,-2.166473866,-4.482483387,7.789017677,-0.068598002,-0.998481989,-0.61738199,-725.1000366,251.1000061,-851.7000122,-0.973970451,-0.235292244,0.519876904,DLL
21.26666667,-3.290982723,-4.033876419,7.963675499,-0.068598002,-0.525918007,-0.472563982,-739.5,254.7000122,-842.1000366,-0.98697949,-0.344910495,0.472317623,DLL
21.3,-3.071464062,-4.427454472,8.027676582,-0.198172003,0.525918007,-0.480185986,-739.5,248.1000061,-842.1000366,-0.974654861,-0.324978903,0.502805645,DLL
21.33333333,-3.446499825,-4.295862675,8.066555977,-0.053353999,0.785066009,-0.525918007,-732.3000488,249.9000092,-839.7000122,-0.975525794,-0.35940973,0.490693791,DLL
21.36666667,-3.605605841,-4.707385063,8.173624039,0.388722003,0.266770005,-0.167683989,-727.5,242.7000122,-844.500061,-0.963499871,-0.365030344,0.520129679,DLL
21.4,-3.249112606,-4.672692776,7.751334667,-0.091463998,-0.998481989,-0.29725799,-737.1000366,246.3000031,-846.9000244,-0.957279661,-0.34424116,0.541144562,DLL
21.43333333,-3.592446804,-3.930995703,7.680753708,0.259148002,-1.387203932,1.349093914,-732.3000488,251.7000122,-842.1000366,-0.987374137,-0.390535849,0.475612696,DLL
21.46666667,-2.924919128,-4.450781822,8.573781013,0.137196004,-1.356715918,1.974097967,-729.9000244,247.5000153,-849.3000488,-0.99570158,-0.299352084,0.477174984,DLL
21.5,-3.213822126,-4.262366772,8.348879814,-0.945127964,-2.721053839,0.685979962,-734.7000122,255.9000092,-846.9000244,-1.005293738,-0.324951152,0.472894411,DLL
21.53333333,-2.589959145,-3.961500883,7.926590443,0.358233988,-0.495429993,2.736297846,-746.7000122,247.5000153,-851.7000122,-1.018382881,-0.288092,0.462127725,DLL
21.56666667,-2.631230831,-3.7324121,7.722623825,1.265251994,0.579271972,1.859767914,-727.5,257.1000061,-851.7000122,-1.026564643,-0.299327886,0.448049274,DLL
21.6,-3.938173294,-3.712075233,8.323159218,0.891773999,0.518296003,0.93750596,-725.1000366,246.3000031,-839.7000122,-1.037485647,-0.402686875,0.419444071,DLL
21.63333333,-3.066679001,-4.306629181,8.271718979,-0.495429993,-1.326228023,-0.29725799,-729.9000244,247.5000153,-832.500061,-1.018911968,-0.320724107,0.477092563,DLL
21.66666667,-3.829909563,-4.003969193,8.176015854,0.304879993,-0.61738199,0.868907988,-737.1000366,251.7000122,-837.3000488,-1.030401003,-0.394513053,0.455161121,DLL
21.7,-2.147333384,-4.938268185,8.131155968,-0.213415995,-1.028970003,-0.670735955,-737.1000366,249.9000092,-842.1000366,-1.003670793,-0.230516434,0.54096544,DLL
21.73333333,-4.103260994,-4.439417362,8.192764282,0.632625997,-0.472563982,-0.327746004,-729.9000244,242.1000061,-844.500061,-1.015759316,-0.402575542,0.498529264,DLL
21.76666667,-2.856132746,-4.705590725,7.809952736,0.632625997,-0.365855992,-0.221037999,-734.7000122,256.5,-834.9000244,-1.000805533,-0.308869987,0.538690302,DLL
21.8,-2.201166153,-4.79411602,6.90496254,0.282013983,-1.021348,1.143299937,-737.1000366,246.3000031,-842.1000366,-0.988860386,-0.258384395,0.602439708,DLL
21.83333333,-3.067277193,-4.073353767,7.540788651,0.609759986,-0.655492008,0.983237982,-727.5,250.5000153,-844.500061,-1.022707978,-0.338443158,0.500300491,DLL
21.86666667,-3.575100422,-3.832900047,8.067752838,1.158543944,-0.099086002,1.76830399,-727.5,251.7000122,-837.3000488,-1.046911524,-0.379309131,0.444065042,DLL
21.9,-3.131876707,-3.737197399,7.76150322,0.228659987,-1.394825935,1.250007987,-722.7000122,255.3000031,-849.3000488,-1.052048797,-0.349383611,0.447043076,DLL
21.93333333,-2.173053503,-4.215711594,7.094573975,-1.585376024,-2.339953899,0.769822001,-725.1000366,254.7000122,-851.7000122,-1.035078829,-0.260411864,0.532641747,DLL
21.96666667,-3.030790329,-3.962697268,8.429030418,-1.42531395,-1.821658015,1.379581928,-732.3000488,252.3000031,-851.7000122,-1.070697198,-0.310774295,0.444523785,DLL
22.0,-2.499041319,-4.229468822,8.930872917,-1.028970003,-1.699705958,1.112811923,-729.9000244,256.5,-839.7000122,-1.079578385,-0.248705428,0.443348696,DLL
22.03333333,-1.890729904,-4.623645306,8.711354256,-0.434453994,-1.676839948,0.548784018,-732.3000488,251.1000061,-837.3000488,-1.075647195,-0.190996811,0.485576218,DLL
22.06666667,-2.678484201,-4.006361485,8.46073246,0.320124,-0.838419974,-0.068598002,-739.5,249.3000031,-846.9000244,-1.08601289,-0.272070937,0.444285852,DLL
22.1,-2.805888653,-3.826320648,8.521742821,1.074702024,0.487807989,0.91463995,-739.5,254.7000122,-846.9000244,-1.093618557,-0.291951878,0.421312613,DLL
22.13333333,-2.91355443,-3.493155003,7.975040436,0.693601966,0.609759986,0.708845973,-737.1000366,249.3000031,-832.500061,-1.097195569,-0.32280567,0.411886299,DLL
22.16666667,-3.073258638,-3.909462452,8.317177773,-0.053353999,0.846041977,0.342989981,-734.7000122,255.3000031,-839.7000122,-1.088862721,-0.324222624,0.437844651,DLL
22.2,-3.582278252,-3.883742332,8.070144653,-0.030487999,0.907018006,-0.099086002,-737.1000366,245.1000061,-839.7000122,-1.083360727,-0.379010628,0.448367807,DLL
22.23333333,-2.860319614,-4.131373405,7.818924904,0.251525998,0.83079797,0.053353999,-734.7000122,253.5000153,-842.1000366,-1.069351244,-0.31701282,0.484251641,DLL
22.26666667,-2.767009497,-4.601513863,7.78064394,0.129574001,0.327746004,-0.655492008,-715.5,254.7000122,-837.3000488,-1.051639457,-0.297861889,0.532058029,DLL
22.3,-3.597830057,-4.309619904,8.707765579,0.251525998,-0.060975999,-0.030487999,-729.9000244,252.3000031,-842.1000366,-1.073406571,-0.351784245,0.46278527,DLL
22.33333333,-2.656951189,-4.247413158,8.516359329,0.525918007,-0.846041977,-0.144817993,-734.7000122,255.3000031,-844.500061,-1.074072628,-0.274775817,0.461663387,DLL
22.36666667,-2.677886009,-3.828713179,7.534807205,1.12805593,0.884151995,0.175305992,-729.9000244,252.9000092,-846.9000244,-1.06987601,-0.306704571,0.467970026,DLL
22.4,-3.243729353,-4.002174854,8.231045723,0.746955991,1.204275966,-0.609759986,-727.5,248.1000061,-839.7000122,-1.069568795,-0.339878992,0.452905333,DLL
22.43333333,-2.850749493,-4.466333389,7.778251171,0.213415995,0.579271972,-1.059458017,-720.3000488,257.7000122,-837.3000488,-1.04407216,-0.309707026,0.517430464,DLL
22.46666667,-3.670205355,-4.18939352,7.915823936,-0.038109999,0.53354001,-0.442075998,-734.7000122,251.7000122,-851.7000122,-1.051289008,-0.384546005,0.489173671,DLL
22.5,-2.801103592,-4.91374445,8.19396019,0.091463998,0.274392009,-0.167683989,-722.7000122,251.7000122,-858.9000244,-1.034087364,-0.291471569,0.537204509,DLL
22.53333333,-3.673196077,-4.271936893,8.004947662,-0.015244,-0.099086002,0.571649969,-729.9000244,255.9000092,-842.1000366,-1.050751488,-0.37931475,0.492858912,DLL
22.56666667,-3.427957296,-4.065577984,8.558229446,0.327746004,-0.030487999,1.44817996,-729.9000244,259.5,-844.500061,-1.0727492,-0.349732618,0.444529152,DLL
22.6,-1.624556303,-4.50461483,7.118499279,0.365855992,-0.381099999,0.083841994,-734.7000122,251.7000122,-844.500061,-1.042756624,-0.199826593,0.556528517,DLL
22.63333333,-2.104865074,-4.454370499,6.369026184,-0.274392009,0.907018006,-0.80793196,-739.5,242.7000122,-849.3000488,-1.026449374,-0.261418074,0.608285317,DLL
22.66666667,-3.640298128,-4.099073887,7.527030945,-0.480185986,1.615863919,-0.121951997,-744.3000488,258.9000244,-839.7000122,-1.056669612,-0.397765784,0.505205897,DLL
22.7,-3.198270559,-4.898192883,7.897879601,0.083841994,1.021348,-0.419209987,-725.1000366,246.3000031,-851.7000122,-1.035583351,-0.335467373,0.553389267,DLL
22.73333333,-3.431546211,-4.825219154,8.254971504,0.114329994,0.060975999,-0.396344006,-727.5,255.3000031,-834.9000244,-1.041646509,-0.343921205,0.530070051,DLL
22.76666667,-3.401041031,-5.072252274,8.491835594,0.053353999,-0.899396002,-0.083841994,-729.9000244,255.9000092,-837.3000488,-1.040571882,-0.330525752,0.537675215,DLL
22.8,-3.729421377,-4.44061327,7.623930454,-0.175305992,-0.640248001,0.114329994,-734.7000122,251.1000061,-846.9000244,-1.045802983,-0.39488728,0.528077155,DLL
22.83333333,-2.305841208,-4.332947731,7.291961193,0.731711984,0.61738199,1.760681987,-739.5,249.9000092,-849.3000488,-1.04749397,-0.275594451,0.533930274,DLL
22.86666667,-2.353094339,-4.218702316,7.233343124,0.846041977,0.091463998,0.815553963,-729.9000244,257.1000061,-844.500061,-1.051093996,-0.274848332,0.52666517,DLL
22.9,-3.689345837,-4.149916172,7.910440922,0.609759986,-0.289635986,0.419209987,-732.3000488,246.9000092,-849.3000488,-1.066144751,-0.386409007,0.48381664,DLL
22.93333333,-3.964491606,-4.022511482,8.028274536,0.579271972,-0.365855992,0.975615978,-715.5,249.3000031,-839.7000122,-1.077063605,-0.414508421,0.463730674,DLL
22.96666667,-2.98652792,-4.429846764,7.939749718,0.61738199,-0.602137983,1.303362012,-734.7000122,254.7000122,-856.500061,-1.066983229,-0.322312496,0.504950343,DLL
23.0,-4.262366772,-3.632522345,8.325551987,0.853663981,-0.365855992,0.670735955,-717.9000244,247.5000153,-849.3000488,-1.101458051,-0.431641007,0.41544487,DLL
23.03333333,-3.002677679,-4.222889423,8.305812836,0.815553963,-0.251525998,1.143299937,-713.1000366,251.7000122,-849.3000488,-1.086236338,-0.319499859,0.465232351,DLL
23.06666667,-2.196979046,-4.502820492,7.664604187,0.274392009,-1.387203932,-0.464941978,-737.1000366,252.9000092,-849.3000488,-1.069809732,-0.244651734,0.526681856,DLL
23.1,-2.566631556,-4.672692776,7.550956726,0.42683199,-0.541162014,-1.04421401,-732.3000488,248.7000122,-856.500061,-1.06042244,-0.277496012,0.552040123,DLL
23.13333333,-3.720449209,-4.315601349,8.408694267,0.746955991,-0.327746004,-0.282013983,-732.3000488,251.1000061,-844.500061,-1.082868313,-0.369552841,0.476967747,DLL
23.16666667,-2.967985392,-4.566821575,7.948721886,1.028970003,-0.022865999,0.678357959,-727.5,248.1000061,-839.7000122,-1.070361968,-0.317063485,0.51682978,DLL
23.2,-3.320291519,-4.021913528,8.090481758,1.928365946,0.541162014,0.754577994,-729.9000244,251.1000061,-849.3000488,-1.087579174,-0.351414289,0.461321231,DLL
23.23333333,-3.298758507,-3.727627039,8.173624039,2.012207985,0.320124,-0.099086002,-732.3000488,238.5000153,-846.9000244,-1.09581629,-0.352305977,0.426516069,DLL
23.26666667,-2.232269526,-4.558447361,7.372710228,1.501533985,-0.42683199,0.0,-734.7000122,248.1000061,-844.500061,-1.059536661,-0.25767665,0.543701186,DLL
23.3,-3.564932108,-3.782058001,7.871561527,-0.030487999,-1.95885396,-1.585376024,-737.1000366,247.5000153,-849.3000488,-1.086066614,-0.378350577,0.452315215,DLL
23.33333333,-2.208343744,-4.804882526,8.265737534,-0.975615978,-1.951231956,-0.42683199,-727.5,243.9000092,-854.1000366,-1.067697351,-0.230500428,0.52482777,DLL
23.36666667,-3.178531647,-4.224683762,8.936256409,-0.304879993,-1.524399996,1.204275966,-739.5,251.1000061,-839.7000122,-1.09562788,-0.304904219,0.446428337,DLL
23.4,-2.360272169,-4.378406525,8.79928112,0.388722003,-0.457319975,0.678357959,-737.1000366,245.7000122,-851.7000122,-1.094750105,-0.23969575,0.459840511,DLL
23.43333333,-2.637810469,-3.733608484,8.128165245,1.410069942,0.358233988,0.365855992,-737.1000366,250.5000153,-844.500061,-1.101666996,-0.284707569,0.42999392,DLL
23.46666667,-2.454778671,-3.74437499,7.733988762,1.760681987,0.548784018,-0.038109999,-737.1000366,253.5000153,-842.1000366,-1.09383851,-0.279416209,0.446970946,DLL
23.5,-3.095389843,-3.207840681,7.458842754,2.157026052,0.967993975,-0.091463998,-732.3000488,250.5000153,-851.7000122,-1.102187143,-0.360997646,0.40517794,DLL
23.53333333,-3.648672104,-3.364554167,7.833878517,2.25611186,0.83079797,0.266770005,-732.3000488,256.5,-856.500061,-1.099635558,-0.403163195,0.401988725,DLL
23.56666667,-3.592446804,-3.509902954,7.875748634,0.708845973,-0.518296003,-1.150921941,-741.9000244,255.9000092,-858.9000244,-1.0888261,-0.393571551,0.417885208,DLL
23.6,-3.4548738,-3.965089798,8.5588274,0.015244,-0.983237982,-0.152439997,-729.9000244,243.3000031,-858.9000244,-1.084410838,-0.352096757,0.43269859,DLL
23.63333333,-2.855534554,-4.058400154,8.230446815,-0.548784018,-1.775925994,-0.625003994,-725.1000366,253.5000153,-844.500061,-1.077958116,-0.30166801,0.457381739,DLL
23.66666667,-2.625847578,-4.154102802,8.047415733,-0.609759986,-0.922261953,0.663114011,-727.5,250.5000153,-861.3000488,-1.077333353,-0.282416044,0.476004282,DLL
23.7,-2.605510712,-4.166664124,8.063565254,-0.320124,0.038109999,0.708845973,-739.5,247.5000153,-861.3000488,-1.079753704,-0.280308607,0.477118539,DLL
23.73333333,-2.740691185,-3.966285944,7.768082619,0.518296003,0.998481989,0.548784018,-744.3000488,248.1000061,-856.500061,-1.080883675,-0.304857803,0.471522357,DLL
23.76666667,-2.822038651,-4.351490021,7.987003326,0.0,0.998481989,0.53354001,-720.3000488,244.5000153,-851.7000122,-1.073212268,-0.302955074,0.497206426,DLL
23.8,-3.652261019,-4.127784729,8.424245834,-0.304879993,0.144817993,0.792688012,-741.9000244,245.1000061,-861.3000488,-1.089514793,-0.369384851,0.457397633,DLL
23.83333333,-3.343021154,-4.526147842,8.339907646,-0.060975999,-0.411587983,1.097568035,-739.5,251.7000122,-854.1000366,-1.081181934,-0.34085281,0.494257383,DLL
23.86666667,-3.372330189,-4.099073887,8.293850899,0.213415995,-0.861285985,0.983237982,-715.5,243.3000031,-854.1000366,-1.09725344,-0.348491339,0.460063053,DLL
23.9,-2.571416616,-3.984828472,7.7357831,1.036592007,-0.647870004,1.23476398,-729.9000244,249.3000031,-846.9000244,-1.097445807,-0.291004722,0.47234807,DLL
23.93333333,-2.371038675,-4.155897141,7.510282993,0.556405962,-0.182927996,1.006103992,-732.3000488,241.5000153,-851.7000122,-1.092354278,-0.27134986,0.502068127,DLL
23.96666667,-2.466741562,-4.074550152,7.681352139,0.221037999,0.327746004,0.800309956,-732.3000488,245.1000061,-856.500061,-1.098066868,-0.277214507,0.487959457,DLL
24.0,-1.84048593,-4.548877239,7.162762165,0.327746004,0.838419974,-0.091463998,-741.9000244,245.1000061,-863.7000122,-1.077693834,-0.218208179,0.561281773,DLL
24.03333333,-3.457266331,-4.491455555,8.05100441,-0.670735955,0.480185986,-1.166165948,-713.1000366,246.9000092,-846.9000244,-1.086830487,-0.352301644,0.513181982,DLL
24.06666667,-3.09957695,-5.01961565,8.853114128,-0.213415995,0.762199998,-1.112811923,-725.1000366,247.5000153,-858.9000244,-1.080812659,-0.299249456,0.516689493,DLL
24.1,-3.389676332,-4.570410252,8.445778847,1.844523907,0.960371971,-1.295740008,-729.9000244,254.1000061,-858.9000244,-1.079072812,-0.337264835,0.495166967,DLL
24.13333333,-2.542107582,-4.642785549,8.32614994,3.40703392,1.12805593,-1.615863919,-739.5,246.3000031,-858.9000244,-1.06511759,-0.265580246,0.503217888,DLL
24.16666667,-3.117521048,-4.18879509,8.753822327,5.099117756,1.242385983,-3.597584009,-749.1000366,240.9000092,-861.3000488,-1.06155608,-0.307368379,0.443351804,DLL
24.2,-2.750859499,-4.060792446,8.036050797,6.257661819,1.364337921,-5.02289772,-749.1000366,239.1000061,-863.7000122,-1.029814063,-0.295567762,0.458719285,DLL
24.23333333,-2.811271906,-3.872377634,8.097061157,6.859799862,1.76830399,-5.647902012,-741.9000244,237.3000031,-873.3000488,-1.004990022,-0.301729392,0.438581925,DLL
24.26666667,-2.94884491,-3.758730412,8.360244751,6.402479649,0.945127964,-5.983269691,-753.9000244,236.1000061,-875.7000122,-0.978870025,-0.308221233,0.415629275,DLL
24.3,-4.501624107,-2.799907207,7.611967564,6.73022604,1.204275966,-5.929915905,-756.3000488,234.3000031,-873.3000488,-0.971219645,-0.49299363,0.350580265,DLL
24.33333333,-2.534929991,-3.721645594,8.274111748,5.586925983,2.621968031,-4.946677685,-758.7000122,237.9000092,-887.7000122,-0.918121252,-0.286606043,0.412616232,DLL
24.36666667,-2.523565292,-3.216214657,8.652137756,5.137228012,1.143299937,-6.349125862,-770.7000122,227.1000061,-885.3000488,-0.904008616,-0.266139965,0.353745868,DLL
24.4,-2.914152622,-3.100174904,7.663407803,5.861317635,1.349093914,-7.279009819,-785.1000366,231.3000031,-887.7000122,-0.862062465,-0.332221009,0.37687419,DLL
24.43333333,-2.748466969,-3.093595505,8.3405056,5.434485912,2.530503988,-8.727190018,-770.7000122,222.3000031,-885.3000488,-0.824536191,-0.299987394,0.351789261,DLL
24.46666667,-3.469229221,-2.853142023,8.594716072,5.312533855,1.105189919,-8.849142075,-780.3000488,218.1000061,-870.9000244,-0.793685724,-0.359356057,0.318776286,DLL
24.5,-2.971574306,-3.165970802,8.811244011,4.474113941,1.265251994,-7.035105705,-789.9000244,222.9000092,-890.1000366,-0.751896567,-0.307989636,0.340073055,DLL
24.53333333,-3.4548738,-3.103763819,9.153980255,4.710395813,0.358233988,-7.019861698,-775.500061,212.1000061,-885.3000488,-0.725142497,-0.338015555,0.32381841,DLL
24.56666667,-1.855439544,-3.590054035,8.633595467,4.275941849,-0.388722003,-6.059489727,-797.1000366,207.3000031,-870.9000244,-0.682817192,-0.200283494,0.384985247,DLL
24.6,-2.668913841,-2.675493479,8.591127396,3.879597902,-0.388722003,-7.111325741,-806.7000122,213.3000031,-870.9000244,-0.672503248,-0.27882669,0.303681719,DLL
24.63333333,-1.97925508,-2.332757473,9.400414467,3.445143938,-0.373477995,-3.833865881,-818.7000122,204.9000092,-878.1000366,-0.653423322,-0.199403172,0.238543889,DLL
24.66666667,-3.719851255,-0.926523447,8.571389198,2.423795938,1.85214591,-0.045731999,-801.9000244,206.7000122,-858.9000244,-0.798467512,-0.673183907,-0.186872883,DLL
24.7,-3.864003658,-0.827829897,7.965469837,1.806414008,3.597584009,0.510674,-806.7000122,200.7000122,-854.1000366,-0.6393202,-0.457077143,0.099062655,DLL
