seconds,sensor_accX_m_s_,sensor_accY_m_s_,sensor_accZ_m_s_,sensor_gyroX___s_,sensor_gyroY___s_,sensor_gyroZ___s_,sensor_magX__T_,sensor_magY__T_,sensor_magZ__T_,sensor_yaw___,sensor_pitch___,sensor_roll___,label3
0.0,-2.76162600517273,-1.28062415122986,9.19465351104736,0.503051996231079,-1.15854394435883,0.861285984516144,-729.900024414062,183.300003051758,-966.900024414062,2.53673760709304,-0.287398585424051,0.137105387095715,ST
0.0333333333333333,-2.7861499786377,-1.20465993881226,8.95180797576904,0.46494197845459,-0.952749967575073,0.868907988071442,-739.5,175.5,-969.300048828125,2.53074403067173,-0.2975626757825,0.132514183701896,ST
0.0666666666666667,-2.74667263031006,-1.20166921615601,9.23592567443848,0.160062000155449,-0.937505960464478,0.632625997066498,-732.300048828125,180.900009155273,-969.300048828125,2.52544295623652,-0.28543617462768,0.128761556084397,ST
0.1,-2.53492999076843,-1.22499680519104,9.15457820892334,0.198172003030777,-0.716467976570129,0.655492007732391,-725.100036621094,177.300003051758,-966.900024414062,2.52257774375161,-0.267112316807344,0.132254735453238,ST
0.133333333333333,-2.56663155555725,-1.31830716133118,9.26643085479736,0.190549999475479,-0.647870004177094,0.609759986400604,-734.700012207031,180.900009155273,-957.300048828125,2.52119085975326,-0.266678475950548,0.140501621612499,ST
0.166666666666667,-2.57321095466614,-1.29258692264557,9.16474628448486,0.3125019967556,-0.6250039935112,0.419209986925125,-737.100036621094,181.5,-966.900024414062,2.51857543509898,-0.270130194506508,0.139348240359697,ST
0.2,-2.66353058815002,-1.3099330663681,9.17312049865723,0.358233988285065,-0.419209986925125,0.487807989120483,-729.900024414062,177.900009155273,-957.300048828125,2.51656265007604,-0.279128558859958,0.140917087700407,ST
0.233333333333333,-2.69523215293884,-1.26626861095428,9.18269062042236,0.320124000310898,-0.495429992675781,0.564027965068817,-725.100036621094,182.700012207031,-969.300048828125,2.51231268056757,-0.282179838834765,0.136244429184715,ST
0.266666666666667,-2.56902408599854,-1.30574607849121,9.07981014251709,0.274392008781433,-0.487807989120483,0.609759986400604,-737.100036621094,179.700012207031,-966.900024414062,2.51047429209178,-0.272522950917591,0.141930329145497,ST
0.3,-2.63063287734985,-1.23277270793915,9.20302772521973,0.388722002506256,-0.434453994035721,0.792688012123108,-741.900024414062,174.300003051758,-978.900024414062,2.50339448512186,-0.275476068281395,0.132179732346576,ST
0.333333333333333,-2.5618462562561,-1.20107114315033,9.186279296875,0.388722002506256,-0.609759986400604,0.769822001457214,-744.300048828125,183.300003051758,-976.500061035156,2.49845950205832,-0.269020120272635,0.128983575667898,ST
0.366666666666667,-2.5797905921936,-1.1436493396759,9.13782978057861,0.350611984729767,-0.670735955238342,0.548784017562866,-744.300048828125,170.100006103516,-966.900024414062,2.49409906633224,-0.272034284518725,0.123689021282348,ST
0.4,-2.5116024017334,-1.11374223232269,9.28676795959473,0.335367977619171,-0.518296003341675,0.647870004177094,-741.900024414062,175.5,-966.900024414062,2.48932526177401,-0.26176354155958,0.118537409042263,ST
0.433333333333333,-2.54808902740479,-1.1035737991333,9.21199989318848,0.335367977619171,-0.602137982845306,0.46494197845459,-739.5,186.300003051758,-957.300048828125,2.48683262184945,-0.266988424657946,0.118392285790344,ST
0.466666666666667,-2.50861167907715,-1.15142524242401,9.24609375,0.167683988809586,-0.701223969459534,0.419209986925125,-744.300048828125,177.300003051758,-966.900024414062,2.48557225607663,-0.261968238778628,0.123274511420121,ST
0.5,-2.43324565887451,-1.18073427677155,9.19764423370361,0.213415995240211,-0.640248000621796,0.457319974899292,-744.300048828125,179.100006103516,-966.900024414062,2.48370411573936,-0.255690805324994,0.127007494031291,ST
0.533333333333333,-2.43623638153076,-1.14305126667023,9.15158748626709,0.236281991004944,-0.426831990480423,0.304879993200302,-741.900024414062,179.100006103516,-962.100036621094,2.48108666983906,-0.25756225418779,0.123721063698411,ST
0.566666666666667,-2.53792071342468,-1.25011885166168,9.210205078125,0.0457319989800453,-0.480185985565186,0.198172003030777,-739.5,179.100006103516,-947.700012207031,2.48239525561492,-0.26567510150626,0.134576972238903,ST
0.6,-2.49605059623718,-1.27464270591736,9.2281494140625,0.0304879993200302,-0.487807989120483,0.442075997591019,-746.700012207031,179.700012207031,-969.300048828125,2.47991762524226,-0.261096655631798,0.136944739855539,ST
0.633333333333333,-2.32557988166809,-1.32069969177246,9.38127422332764,0.0914639979600906,-0.442075997591019,0.419209986925125,-739.5,182.100006103516,-969.300048828125,2.47785624435556,-0.240336461351005,0.13946265678155,ST
0.666666666666667,-2.43743252754211,-1.25669836997986,9.24250507354736,0.243903994560242,-0.472563982009888,0.320124000310898,-749.100036621094,180.300003051758,-964.500061035156,2.47489369663701,-0.254593081979544,0.134632610905713,ST
0.7,-2.42726421356201,-1.28122222423553,9.16594314575195,0.198172003030777,-0.0152439996600151,0.304879993200302,-753.900024414062,177.900009155273,-964.500061035156,2.47442212617875,-0.256498774256697,0.138327244850095,ST
0.733333333333333,-2.40214228630066,-1.31830716133118,9.34299278259277,0.205793991684914,0.0304879993200302,0.282013982534409,-741.900024414062,181.5,-969.300048828125,2.47351873097081,-0.249539196427024,0.139669241880988,ST
0.766666666666667,-2.46434903144836,-1.30694234371185,9.1629524230957,0.297257989645004,-0.114329993724823,0.25152599811554,-739.5,177.900009155273,-962.100036621094,2.47281524864248,-0.259887565047936,0.14101107159999,ST
0.8,-2.56005191802979,-1.3159145116806,9.10074520111084,0.228659987449646,0.0457319989800453,0.144817993044853,-739.5,179.700012207031,-971.700012207031,2.47295112573233,-0.271430750603669,0.143094648095866,ST
0.833333333333333,-2.539715051651,-1.36256968975067,9.23652362823486,0.25152599811554,0.0381099991500378,0.327746003866196,-729.900024414062,186.900009155273,-964.500061035156,2.47216551447587,-0.265808553517792,0.145840890666091,ST
0.866666666666667,-2.51339673995972,-1.33565330505371,9.20601844787598,0.25152599811554,-0.114329993724823,0.266770005226135,-727.5,181.5,-957.300048828125,2.47031114183482,-0.263783727350518,0.143539630761673,ST
0.9,-2.52715396881104,-1.34342908859253,9.18388748168945,0.320124000310898,-0.0762199983000755,0.282013982534409,-737.100036621094,179.100006103516,-962.100036621094,2.46940941135515,-0.265739092919047,0.144538500977218,ST
0.933333333333333,-2.45896577835083,-1.36974740028381,9.22157001495361,0.358233988285065,-0.0685980021953583,0.282013982534409,-739.5,182.100006103516,-981.300048828125,2.46888130450647,-0.257984125622888,0.146661339124857,ST
0.966666666666667,-2.43623638153076,-1.30215728282928,9.28258037567139,0.289635986089706,-0.221037998795509,0.0152439996600151,-744.300048828125,176.100006103516,-962.100036621094,2.46723031721922,-0.253903303288617,0.138844127508433,ST
1.0,-2.65336227416992,-1.251913189888,9.74494552612305,0.327746003866196,-0.0076219998300075,0.0914639979600906,-734.700012207031,178.5,-976.500061035156,2.46426990513336,-0.26359664761887,0.127366598625799,ST
1.03333333333333,-2.4296567440033,-1.28660547733307,9.32445049285889,0.762199997901917,-0.152439996600151,-0.358233988285065,-741.900024414062,180.900009155273,-966.900024414062,2.46967553527948,-0.252392038928073,0.135838236210804,ST
1.06666666666667,-2.81486082077026,-1.33326065540314,8.608473777771,0.213415995240211,1.18903195858002,-1.12805593013763,-720.300048828125,180.900009155273,-957.300048828125,2.48261345433153,-0.31346141961528,0.153759707962601,ST
1.1,-3.5212676525116,-1.55218100547791,9.58823204040527,-0.403965979814529,1.37958192825317,-1.22714197635651,-729.900024414062,182.700012207031,-966.900024414062,2.49227696188367,-0.349162172667968,0.161946932617065,ST
1.13333333333333,-3.00746297836304,-1.64549136161804,8.14192199707031,-0.533540010452271,0.586893975734711,-1.15092194080353,-732.300048828125,180.900009155273,-974.100036621094,2.51108797466691,-0.348013213121041,0.200419509479842,ST
1.16666666666667,-4.15230846405029,-1.37453258037567,8.01511573791504,-1.21951997280121,1.37958192825317,-1.31098401546478,-729.900024414062,180.900009155273,-971.700012207031,2.50551956304079,-0.4717730288277,0.173845269029583,ST
1.2,-4.65953397750854,-1.13108837604523,8.18139934539795,-0.769822001457214,1.05183601379395,-0.609759986400604,-725.100036621094,176.700012207031,-966.900024414062,2.49123492423512,-0.514532195547336,0.140104230432857,ST
1.23333333333333,-4.24023532867432,-1.76452171802521,7.34818649291992,-0.579271972179413,0.983237981796265,-0.121951997280121,-729.900024414062,177.300003051758,-954.900024414062,2.53800538928235,-0.51301278369619,0.23525237732022,ST
1.26666666666667,-4.80428457260132,-1.36077523231506,7.72202587127686,-0.975615978240967,1.48628997802734,-0.655492007732391,-727.5,179.700012207031,-954.900024414062,2.51072758110239,-0.551370888689522,0.178187895969988,ST
1.3,-4.74506807327271,-1.29617583751678,8.41347885131836,-0.815553963184357,0.640248000621796,-0.274392008781433,-717.900024414062,176.100006103516,-964.500061035156,2.49854545660588,-0.510309163840283,0.155058018243827,ST
1.33333333333333,-4.63022470474243,-1.39187872409821,9.1270637512207,-0.602137982845306,-0.884151995182037,0.0609759986400604,-722.700012207031,177.900009155273,-959.700012207031,2.49464771475312,-0.464201405488586,0.152263131085276,ST
1.36666666666667,-3.83708715438843,-1.50851655006409,9.58105373382568,-0.114329993724823,-2.33995389938354,-0.0609759986400604,-727.5,182.700012207031,-959.700012207031,2.49429853350767,-0.374105210761429,0.156095392909228,ST
1.4,-3.46623849868774,-1.52406823635101,9.59301662445068,-0.0304879993200302,-2.98020195960999,-0.442075997591019,-727.5,184.5,-962.100036621094,2.49458867949766,-0.338176700332453,0.157563116246424,ST
1.43333333333333,-3.75514149665833,-1.43135607242584,9.63727951049805,-0.419209986925125,-1.99696397781372,-0.365855991840363,-715.5,185.700012207031,-962.100036621094,2.49092247185062,-0.363856575324275,0.148394754319086,ST
1.46666666666667,-3.69413089752197,-1.3458217382431,9.35017108917236,-0.983237981796265,-0.236281991004944,0.243903994560242,-725.100036621094,179.100006103516,-964.500061035156,2.48601283744429,-0.372270904093799,0.14455464374467,ST
1.5,-3.57809114456177,-1.52646088600159,9.07801628112793,-1.33385002613068,0.663114011287689,0.167683988809586,-737.100036621094,183.300003051758,-964.500061035156,2.49136737016891,-0.371915746632372,0.168600558795864,ST
1.53333333333333,-3.85443329811096,-1.52347016334534,8.9775276184082,-1.17378795146942,1.94360995292664,-0.342989981174469,-734.700012207031,185.700012207031,-959.700012207031,2.49313142017424,-0.403237085813696,0.170611489290639,ST
1.56666666666667,-4.190589427948,-1.68257617950439,8.84832859039307,-0.663114011287689,2.30946588516235,-0.564027965068817,-722.700012207031,177.900009155273,-971.700012207031,2.50439410937905,-0.438595145774303,0.189518139620061,ST
1.6,-4.26117038726807,-1.7405960559845,8.63479232788086,-0.342989981174469,2.36281991004944,-0.708845973014832,-732.300048828125,183.300003051758,-957.300048828125,2.51419712161704,-0.454079137626956,0.200298405844858,ST
1.63333333333333,-4.66850566864014,-1.77708280086517,8.38536643981934,0.0914639979600906,2.78202986717224,-1.40244793891907,-725.100036621094,182.700012207031,-969.300048828125,2.52960472802365,-0.502305272289879,0.21039435766644,ST
1.66666666666667,-4.63441181182861,-1.97387182712555,8.21130657196045,-0.0304879993200302,3.14788603782654,-1.71494996547699,-734.700012207031,184.5,-959.700012207031,2.55557879005976,-0.506476911945699,0.237910609285876,ST
1.7,-4.65714120864868,-2.23167133331299,8.05878067016602,-0.327746003866196,2.70580983161926,-2.14940404891968,-727.5,194.100006103516,-957.300048828125,2.58694381276717,-0.511639644116102,0.273050876780075,ST
1.73333333333333,-4.71695566177368,-2.68925070762634,8.76219654083252,-0.762199997901917,2.01982998847961,-2.65245604515076,-713.100036621094,191.100006103516,-959.700012207031,2.61424845068388,-0.477921002650941,0.301440265815004,ST
1.76666666666667,-4.45556688308716,-3.27363657951355,8.37041282653809,-0.365855991840363,1.28811800479889,-2.71343183517456,-710.700012207031,181.5,-962.100036621094,2.66185080167984,-0.460950217150615,0.374698008053198,ST
1.8,-4.52554988861084,-3.08641767501831,7.74535322189331,-0.137196004390717,1.71494996547699,-2.41617393493652,-715.5,185.100006103516,-962.100036621094,2.68039676195069,-0.49798857707545,0.382060172038073,ST
1.83333333333333,-4.74626445770264,-2.67310094833374,7.90924453735352,0.396344006061554,2.24848985671997,0.213415995240211,-713.100036621094,190.5,-959.700012207031,2.65734646450973,-0.520368235588228,0.326783926462099,ST
1.86666666666667,-2.98174262046814,-3.10137128829956,6.53650617599487,1.42531394958496,0.891773998737335,1.07470202445984,-703.5,183.900009155273,-962.100036621094,2.70706096618365,-0.394647043534974,0.438878818722953,ST
1.9,-4.08292388916016,-3.32328224182129,6.68544387817383,0.472563982009888,0.67835795879364,1.53202199935913,-710.700012207031,184.5,-959.700012207031,2.71114468428422,-0.501442838267077,0.45923129315813,ST
1.93333333333333,-4.35328435897827,-3.93936967849731,8.37639427185059,-0.152439996600151,-0.129574000835419,2.36281991004944,-701.100036621094,180.900009155273,-954.900024414062,2.68998596340526,-0.44225358410201,0.438415211455144,ST
1.96666666666667,-4.57818651199341,-4.00755786895752,8.14790344238281,-0.274392008781433,-0.83841997385025,2.64483404159546,-705.900024414062,180.900009155273,-942.900024414062,2.68233139960578,-0.467246692507118,0.454869786744969,ST
2.0,-4.56921434402466,-3.95432329177856,8.3937406539917,-0.830797970294952,-0.396344006061554,4.07014799118042,-713.100036621094,184.5,-959.700012207031,2.65107300238389,-0.460066826466561,0.438568996015558,ST
2.03333333333333,-3.94834184646606,-3.70429944992065,8.83816051483154,-0.419209986925125,-0.67835795879364,4.51984596252441,-705.900024414062,180.900009155273,-947.700012207031,2.60724939004694,-0.393686732697109,0.394949219906617,ST
2.06666666666667,-3.71207523345947,-2.94405961036682,9.03913688659668,0.442075997591019,-0.960371971130371,4.40551567077637,-693.900024414062,178.5,-954.900024414062,2.55340229448368,-0.373477987495212,0.31252693016863,ST
2.1,-3.50571584701538,-2.77837419509888,8.68503570556641,0.937505960464478,-1.76068198680878,4.30642986297607,-705.900024414062,185.100006103516,-962.100036621094,2.52700289403579,-0.366478130269277,0.304987750567263,ST
2.13333333333333,-3.28201055526733,-2.63182902336121,8.84234714508057,0.701223969459534,-1.6768399477005,3.81862187385559,-701.100036621094,183.900009155273,-964.500061035156,2.4993378706685,-0.341332194675717,0.28583901850521,ST
2.16666666666667,-3.38728356361389,-2.10546326637268,8.4057035446167,1.42531394958496,-0.243903994560242,4.02441596984863,-710.700012207031,177.900009155273,-966.900024414062,2.46469672894344,-0.3734131058263,0.240967465238737,ST
2.2,-3.9997820854187,-2.07376170158386,8.07253742218018,2.32470989227295,2.18751406669617,3.85673189163208,-701.100036621094,180.900009155273,-950.100036621094,2.45390662666456,-0.451865447002714,0.244661213960212,ST
2.23333333333333,-4.79411602020264,-1.90628159046173,8.19695091247559,2.14940404891968,2.02745199203491,3.13264203071594,-696.300048828125,180.300003051758,-942.900024414062,2.43594974170734,-0.521534354111374,0.222470064659897,ST
2.26666666666667,-4.61527109146118,-1.47561872005463,7.8859167098999,1.69970595836639,0.282013982534409,2.67532205581665,-693.900024414062,175.5,-947.700012207031,2.40690732212245,-0.523344498586331,0.180203596893351,ST
2.3,-4.47052049636841,-1.47621691226959,8.45176029205322,0.853663980960846,-1.85214591026306,2.99544596672058,-698.700012207031,183.900009155273,-964.500061035156,2.38709349356797,-0.478873208087425,0.168661528160104,ST
2.33333333333333,-3.74497318267822,-1.38051402568817,8.22685813903809,0.411587983369827,-4.37502813339233,2.87349390983582,-717.900024414062,182.100006103516,-952.500061035156,2.36703615767277,-0.416408681184214,0.162871373141667,ST
2.36666666666667,-2.82562732696533,-1.68676316738129,6.9139347076416,-0.365855991840363,-4.2302098274231,2.42379593849182,-705.900024414062,179.100006103516,-952.500061035156,2.3770013356022,-0.372575083354337,0.236284623396269,ST
2.4,-3.02241635322571,-1.86321532726288,8.00734043121338,-0.87652999162674,-1.51677799224854,2.24848985671997,-717.900024414062,177.900009155273,-954.900024414062,2.35885385722945,-0.351010382924979,0.228663027938637,ST
2.43333333333333,-4.58057880401611,-1.8566358089447,8.84294605255127,-0.160062000155449,-0.365855991840363,2.30946588516235,-734.700012207031,180.900009155273,-945.300048828125,2.33623988865866,-0.467793923008624,0.205534649502883,ST
2.46666666666667,-6.04662752151489,-1.57191967964172,9.05409049987793,0.693601965904236,0.518296003341675,3.94819593429565,-713.100036621094,182.100006103516,-950.100036621094,2.29925825426686,-0.582464922469643,0.166921468188073,ST
2.5,-4.36883640289307,-1.59943425655365,9.13424110412598,0.853663980960846,0.0076219998300075,3.69666981697083,-717.900024414062,182.700012207031,-945.300048828125,2.28389115915825,-0.44395551007813,0.16875116227328,ST
2.53333333333333,-5.02499914169312,-1.1376678943634,8.47867679595947,-0.0,-1.42531394958496,2.17227005958557,-710.700012207031,176.700012207031,-950.100036621094,2.2531080639654,-0.528303898992166,0.131402213974554,ST
2.56666666666667,-3.72463631629944,-0.877475738525391,10.5590181350708,-0.457319974899292,-2.75916385650635,2.55336999893188,-717.900024414062,178.5,-945.300048828125,2.21674173228907,-0.337188630258057,0.082760751441518,ST
2.6,-2.09230422973633,-0.650181412696838,8.6264181137085,1.47104597091675,-5.15247201919556,1.6768399477005,-741.900024414062,184.5,-945.300048828125,2.20446256445798,-0.230527571916382,0.0719890007749155,ST
2.63333333333333,-2.1533145904541,-0.69863098859787,8.04442501068115,0.365855991840363,-1.63872992992401,0.403965979814529,-741.900024414062,178.5,-954.900024414062,2.20504934794844,-0.257505152579743,0.0855817124742484,ST
2.66666666666667,-3.66960716247559,-0.423485219478607,10.1570653915405,-0.510673999786377,0.609759986400604,-0.891773998737335,-737.100036621094,179.100006103516,-942.900024414062,2.19678582079649,-0.345772157988378,0.0439284084174922,ST
2.7,-3.75155282020569,-1.48100197315216,7.95649766921997,-0.480185985565186,1.05183601379395,-0.487807989120483,-732.300048828125,176.700012207031,-947.700012207031,2.2519516952927,-0.434148220558087,0.182703611540714,ST
2.73333333333333,-4.6170654296875,-1.38350474834442,8.14790344238281,-1.48628997802734,1.41769194602966,-0.266770005226135,-734.700012207031,175.5,-947.700012207031,2.24535356802119,-0.510610589611785,0.171469427400753,ST
2.76666666666667,-4.80906963348389,-0.783567309379578,8.97812557220459,-0.327746003866196,0.510673999786377,1.40244793891907,-729.900024414062,178.5,-940.500061035156,2.1975055760386,-0.491674248870805,0.0878889118732621,ST
2.8,-4.21690797805786,-0.997702479362488,8.60787582397461,0.716467976570129,0.358233988285065,1.61586391925812,-727.5,179.100006103516,-947.700012207031,2.20242921583539,-0.454524420782297,0.11235673341279,ST
2.83333333333333,-4.46453905105591,-0.782370984554291,8.87524509429932,0.945127964019775,0.0304879993200302,0.769822001457214,-744.300048828125,178.5,-954.900024414062,2.18926704608123,-0.464506650785807,0.086096979825166,ST
2.86666666666667,-4.80966758728027,-0.942075192928314,8.05578994750977,0.777444005012512,-0.0685980021953583,0.495429992675781,-727.5,177.900009155273,-950.100036621094,2.20234578228718,-0.533951933753063,0.113997800310634,ST
2.9,-4.61048603057861,-0.874485015869141,7.85900068283081,0.0381099991500378,1.56251001358032,1.41769194602966,-732.300048828125,176.100006103516,-940.500061035156,2.19406913030862,-0.53090320172149,0.109564350999648,ST
2.93333333333333,-4.92331457138062,-1.58208811283112,7.99537706375122,-0.99848198890686,2.12653803825378,0.411587983369827,-732.300048828125,182.100006103516,-942.900024414062,2.2350037272229,-0.546911986680607,0.195488960176311,ST
2.96666666666667,-5.62553453445435,-1.43255245685577,8.29564476013184,-1.44817996025085,1.2423859834671,0.0838419944047928,-717.900024414062,181.5,-942.900024414062,2.21928698821245,-0.59066054081488,0.173986143536989,ST
3.0,-5.0232048034668,-1.7304276227951,8.12098693847656,-0.731711983680725,0.746955990791321,0.67835795879364,-722.700012207031,176.700012207031,-940.500061035156,2.23393237852202,-0.546409370413961,0.210024220768713,ST
3.03333333333333,-4.91135215759277,-1.5683308839798,7.7997841835022,-0.129574000835419,0.426831990480423,0.541162014007568,-715.5,180.900009155273,-942.900024414062,2.22499956616555,-0.553889231147365,0.19830955990104,ST
3.06666666666667,-5.49573755264282,-1.42776727676392,8.65333461761475,0.396344006061554,0.0685980021953583,0.579271972179413,-717.900024414062,177.900009155273,-942.900024414062,2.20474606652648,-0.559946328596882,0.162878128400757,ST
3.1,-5.15898323059082,-1.34641981124878,8.27889728546143,1.19665396213531,-0.800309956073761,0.853663980960846,-732.300048828125,179.700012207031,-945.300048828125,2.20113727042537,-0.550458709085279,0.158179193880011,ST
3.13333333333333,-4.64697265625,-1.13706982135773,7.80397129058838,1.06708002090454,-0.914639949798584,0.106707997620106,-722.700012207031,182.700012207031,-938.100036621094,2.19520836361882,-0.531274584689463,0.142861868746069,ST
3.16666666666667,-4.82820987701416,-1.35718643665314,7.42953395843506,0.663114011287689,0.0228659994900227,-0.175305992364883,-722.700012207031,177.900009155273,-945.300048828125,2.2170019001136,-0.568116790619273,0.179028270256021,ST
3.2,-5.30911684036255,-1.41341185569763,7.69331502914429,-0.0076219998300075,0.983237981796265,-0.495429992675781,-720.300048828125,184.5,-947.700012207031,2.22233548040217,-0.597499308308619,0.182453807821,ST
3.23333333333333,-5.09677648544312,-1.59943425655365,7.9935827255249,-0.0076219998300075,0.701223969459534,0.152439996600151,-720.300048828125,178.5,-942.900024414062,2.23033364197569,-0.560595913544719,0.197252141842151,ST
3.26666666666667,-4.9813346862793,-1.52705895900726,8.3339262008667,0.411587983369827,-0.541162014007568,-0.571649968624115,-722.700012207031,182.700012207031,-942.900024414062,2.22571623689848,-0.530794675684851,0.181198216538866,ST
3.3,-4.31560134887695,-1.44511342048645,7.64187479019165,1.12805593013763,-1.82927989959717,-1.08994603157043,-722.700012207031,174.300003051758,-945.300048828125,2.2353802258203,-0.503425738293399,0.185584660164042,ST
3.33333333333333,-4.92092227935791,-1.53184413909912,8.03246212005615,0.899396002292633,-1.64635193347931,-1.37195992469788,-729.900024414062,182.100006103516,-935.700012207031,2.24504857550333,-0.538055619253434,0.187923597761458,ST
3.36666666666667,-4.72951650619507,-1.25310957431793,8.42783451080322,1.20427596569061,-2.59910202026367,-0.609759986400604,-725.100036621094,183.900009155273,-935.700012207031,2.22908542728316,-0.502506711745485,0.146194174311369,ST
3.4,-4.02011871337891,-0.820053994655609,7.82789707183838,1.61586391925812,-2.38568592071533,-0.655492007732391,-732.300048828125,176.100006103516,-942.900024414062,2.21544856669122,-0.468366579635027,0.102419945510751,ST
3.43333333333333,-4.00695991516113,-0.613694667816162,7.60718250274658,1.28811800479889,-2.62959003448486,-0.907018005847931,-734.700012207031,173.700012207031,-945.300048828125,2.21214857839915,-0.478628029107204,0.0791952185704302,ST
3.46666666666667,-3.59663367271423,-0.0717771574854851,8.96078014373779,1.43293595314026,-2.24086785316467,-0.945127964019775,-749.100036621094,168.300003051758,-940.500061035156,2.19058308743457,-0.379124029014231,0.0071037008253116,ST
3.5,-3.01404237747192,-0.613694667816162,8.06177139282227,0.92988395690918,-0.983237981796265,-1.76830399036407,-734.700012207031,176.700012207031,-938.100036621094,2.22694538010393,-0.355191519391335,0.0746699312720549,ST
3.53333333333333,-3.61816692352295,-0.786558032035828,8.84234714508057,-0.525918006896973,-0.37347799539566,-2.36281991004944,-739.5,179.100006103516,-954.900024414062,2.24487739932833,-0.385585884362797,0.0910487402591909,ST
3.56666666666667,-4.08591461181641,-0.952243626117706,9.26164531707764,-1.15092194080353,-0.945127964019775,-1.63872992992401,-732.300048828125,179.700012207031,-945.300048828125,2.25595475879763,-0.411132231176433,0.105359436572164,ST
3.6,-3.23894429206848,-1.08383500576019,8.63897895812988,-1.76068198680878,-2.0655620098114,-0.0533539988100529,-744.300048828125,182.700012207031,-945.300048828125,2.25893834134692,-0.353133230314529,0.127528327915919,ST
3.63333333333333,-2.35967397689819,-0.863120317459106,9.2167854309082,-1.89025592803955,-1.21951997280121,-0.282013982534409,-739.5,176.100006103516,-942.900024414062,2.24766263730779,-0.248851957358719,0.0971426294545354,ST
3.66666666666667,-2.22568988800049,-1.19209897518158,10.0368394851685,-1.39482593536377,-0.739333987236023,-0.87652999162674,-732.300048828125,176.700012207031,-954.900024414062,2.25566875643592,-0.215895785434327,0.120523636373617,ST
3.7,-2.32199096679688,-1.46545028686523,10.0523910522461,-1.28811800479889,-1.94360995292664,-2.65245604515076,-739.5,176.100006103516,-952.500061035156,2.27420827444176,-0.220627624647988,0.147609645079428,ST
3.73333333333333,-1.79741966724396,-1.40144896507263,8.67486763000488,-0.899396002292633,-1.80641400814056,-1.98171997070312,-729.900024414062,177.300003051758,-950.100036621094,2.28637199041382,-0.198356035374026,0.162157844605626,ST
3.76666666666667,-2.84536600112915,-1.79562520980835,9.41357421875,-1.86738991737366,0.777444005012512,-0.609759986400604,-734.700012207031,181.5,-952.500061035156,2.29479547691176,-0.28808344192488,0.191567161380279,ST
3.8,-2.84895491600037,-2.37103867530823,9.00863170623779,-1.55488801002502,0.594515979290009,-0.282013982534409,-729.900024414062,182.100006103516,-966.900024414062,2.31396801962605,-0.297514644153958,0.259041670065203,ST
3.83333333333333,-3.40163898468018,-2.49664878845215,9.30830097198486,-1.52439999580383,1.52439999580383,-0.160062000155449,-717.900024414062,192.900009155273,-962.100036621094,2.3159971678852,-0.341115565851629,0.264955904245788,ST
3.86666666666667,-3.39745211601257,-2.88005828857422,8.72271919250488,-0.670735955238342,2.27135586738586,0.701223969459534,-722.700012207031,180.900009155273,-959.700012207031,2.33329672377606,-0.358174997683699,0.319361535546413,ST
3.9,-4.07036304473877,-3.29038453102112,9.38905048370361,-0.0533539988100529,2.66007804870605,-0.480185985565186,-727.5,177.300003051758,-974.100036621094,2.34745527474016,-0.391992505917827,0.337868905374756,ST
3.93333333333333,-4.55306434631348,-3.2527015209198,9.32803916931152,0.282013982534409,2.01220798492432,0.342989981174469,-717.900024414062,182.700012207031,-954.900024414062,2.34888968154187,-0.434594046716312,0.335345677671471,ST
3.96666666666667,-3.16776514053345,-2.83280515670776,9.39503192901611,1.39482593536377,1.89787793159485,1.37958192825317,-701.100036621094,186.900009155273,-940.500061035156,2.32919387409127,-0.316124365778823,0.289977323027701,ST
4.0,-3.68097186088562,-2.12819266319275,8.4469747543335,1.98934197425842,1.37958192825317,1.57775402069092,-705.900024414062,188.100006103516,-964.500061035156,2.31070731141565,-0.401243519281602,0.243356474826132,ST
4.03333333333333,-3.80837631225586,-2.17963290214539,8.15627765655518,1.95885396003723,1.92074394226074,1.62348592281342,-691.5,187.5,-942.900024414062,2.31490241125175,-0.427248256226768,0.256610999868747,ST
4.06666666666667,-4.08830738067627,-1.74478304386139,8.13474464416504,1.6692179441452,2.12653803825378,0.99848198890686,-691.5,182.100006103516,-947.700012207031,2.2959437522818,-0.460134090689735,0.208812696073996,ST
4.1,-4.21331930160522,-1.80758810043335,8.01451778411865,1.265251994133,3.3460578918457,0.792688012123108,-689.100036621094,189.300003051758,-947.700012207031,2.30398546074925,-0.479595758435624,0.219437412520047,ST
4.13333333333333,-5.02380275726318,-1.8446729183197,8.48346138000488,0.754577994346619,2.98020195960999,0.282013982534409,-691.5,191.100006103516,-962.100036621094,2.30517762788874,-0.529096583305625,0.213241357202195,ST
4.16666666666667,-5.17513275146484,-1.81356954574585,8.45774173736572,0.525918006896973,1.08232402801514,1.07470202445984,-689.100036621094,180.300003051758,-950.100036621094,2.30058698210324,-0.541228087794762,0.209498216952103,ST
4.2,-4.77078819274902,-1.49834811687469,7.93436670303345,0.564027965068817,0.617381989955902,1.77592599391937,-696.300048828125,181.5,-959.700012207031,2.28112417677356,-0.535382823800467,0.184369981739706,ST
4.23333333333333,-4.98791408538818,-1.63771545886993,7.61675262451172,0.846041977405548,2.09605002403259,1.08994603157043,-672.300048828125,180.900009155273,-962.100036621094,2.29360822901358,-0.572759035173218,0.209137249212078,ST
4.26666666666667,-5.39106273651123,-1.73162388801575,6.93606567382812,0.922261953353882,2.79727387428284,0.579271972179413,-674.700012207031,182.700012207031,-952.500061035156,2.31695204892445,-0.650337216395181,0.242833993368482,ST
4.3,-5.58426284790039,-1.59405100345612,8.06177139282227,1.01372599601746,2.5000159740448,1.62348592281342,-679.5,182.100006103516,-947.700012207031,2.28606377046245,-0.602581098061083,0.193001210437762,ST
4.33333333333333,-4.86768770217896,-1.41221559047699,7.01322650909424,1.00610399246216,0.297257989645004,2.46952795982361,-679.5,182.100006103516,-935.700012207031,2.27871716929595,-0.598874129241524,0.194116342893589,ST
4.36666666666667,-6.17403173446655,-1.22200608253479,7.40381383895874,0.388722002506256,-0.0533539988100529,2.82013988494873,-674.700012207031,184.5,-942.900024414062,2.24667601292091,-0.687530740979867,0.159606466288048,ST
4.4,-5.17094612121582,-1.33864402770996,7.89070224761963,0.777444005012512,-1.28811800479889,2.72105383872986,-667.5,181.5,-938.100036621094,2.23776592703181,-0.574282434811764,0.163325302838493,ST
4.43333333333333,-5.40721225738525,-1.23755776882172,7.73997020721436,0.861285984516144,-1.85976791381836,2.17227005958557,-674.700012207031,174.300003051758,-933.300048828125,2.22361974506234,-0.600837000014844,0.154280342268317,ST
4.46666666666667,-4.78693819046021,-1.39786016941071,8.15328693389893,0.632625997066498,-2.33995389938354,2.12653803825378,-679.5,177.300003051758,-942.900024414062,2.21954284158286,-0.52262926941439,0.165963604973323,ST
4.5,-4.32277917861938,-1.1837249994278,7.6388840675354,1.2423859834671,-2.62196803092957,2.26373386383057,-679.5,181.5,-947.700012207031,2.20159219286626,-0.506266092822885,0.149318222486857,ST
4.53333333333333,-4.15828990936279,-1.35778450965881,8.23164367675781,1.07470202445984,-3.07928800582886,1.54726600646973,-684.300048828125,175.5,-942.900024414062,2.19890082066271,-0.458399465052185,0.159658685707004,ST
4.56666666666667,-4.25698375701904,-1.00667464733124,8.17601585388184,0.899396002292633,-3.57471799850464,1.41769194602966,-703.5,182.100006103516,-940.500061035156,2.17307070530133,-0.470934555386468,0.119769515768138,ST
4.6,-4.31799411773682,-0.927121579647064,8.17302513122559,1.08994603157043,-2.21800184249878,1.29574000835419,-693.900024414062,177.300003051758,-952.500061035156,2.16306629853985,-0.479712950987507,0.109773244482821,ST
4.63333333333333,-4.17264556884766,-1.35957896709442,8.92848014831543,0.297257989645004,-2.20275783538818,-0.304879993200302,-717.900024414062,179.700012207031,-952.500061035156,2.1813914432063,-0.429854110160072,0.149845869149792,ST
4.66666666666667,-4.41010808944702,-1.23277270793915,10.3227510452271,-1.11281192302704,-3.73477983474731,-0.266770005226135,-710.700012207031,169.5,-950.100036621094,2.16622955607423,-0.395319557625184,0.121191727271665,ST
4.7,-3.33105826377869,-1.23875403404236,9.74973011016846,-1.15092194080353,-4.71801805496216,0.0685980021953583,-715.5,189.300003051758,-959.700012207031,2.16259918346066,-0.319830813080104,0.127890101146589,ST
4.73333333333333,-2.42247915267944,-1.39666378498077,9.05468845367432,-0.990859985351562,-3.7805118560791,-0.708845973014832,-727.5,174.300003051758,-945.300048828125,2.16936092843849,-0.253029179595448,0.154344012092969,ST
4.76666666666667,-2.39197373390198,-0.874485015869141,9.45723819732666,0.937505960464478,-1.94360995292664,-1.14329993724823,-729.900024414062,176.100006103516,-947.700012207031,2.1607136686065,-0.243314907099318,0.0919770213889002,ST
4.8,-2.8483567237854,-1.04017066955566,8.56241703033447,2.47714996337891,-0.0228659994900227,-0.967993974685669,-741.900024414062,179.700012207031,-947.700012207031,2.17699918791778,-0.31735022869413,0.116625876005655,ST
4.83333333333333,-4.32277917861938,-0.663938701152802,8.80286979675293,2.54574799537659,0.670735955238342,-1.2347639799118,-737.100036621094,176.100006103516,-945.300048828125,2.17386158648413,-0.454481184746165,0.0725356016866265,ST
4.86666666666667,-4.83598613739014,-0.598142981529236,8.99965953826904,1.90549993515015,-0.327746003866196,-0.396344006061554,-727.5,177.900009155273,-935.700012207031,2.1767553601319,-0.49087198378254,0.0635510091533471,ST
4.9,-4.60689735412598,-0.647190690040588,9.07741737365723,0.769822001457214,-0.37347799539566,0.0228659994900227,-734.700012207031,174.900009155273,-940.500061035156,2.18154058455523,-0.468233982538283,0.0697189098050611,ST
4.93333333333333,-4.45377254486084,-0.556871116161346,9.15756893157959,0.388722002506256,-0.907018005847931,0.114329993724823,-725.100036621094,171.300003051758,-954.900024414062,2.177372362297,-0.450699428229169,0.0600908694653273,ST
4.96666666666667,-4.83359336853027,-0.823044717311859,8.61684799194336,0.0762199983000755,0.0,1.37195992469788,-722.700012207031,180.300003051758,-945.300048828125,2.1859041913113,-0.508425273745387,0.0931373032004964,ST
5.0,-4.71635723114014,-0.690257012844086,8.51755619049072,0.297257989645004,0.0381099991500378,1.98171997070312,-727.5,176.100006103516,-945.300048828125,2.16979586360724,-0.504721447376643,0.0787085316157013,ST
5.03333333333333,-3.82871317863464,-1.04675018787384,8.3638334274292,0.449698001146317,-0.205793991684914,2.08842802047729,-739.5,167.100006103516,-954.900024414062,2.17813643251261,-0.427220303339353,0.121631660625261,ST
5.06666666666667,-3.67439222335815,-1.01923561096191,8.2442045211792,0.556405961513519,-0.769822001457214,1.13567793369293,-732.300048828125,174.300003051758,-947.700012207031,2.17280219471844,-0.415576687017674,0.121103003440052,ST
5.1,-3.77248764038086,-0.958225011825562,8.68264293670654,0.335367977619171,-1.22714197635651,0.0,-744.300048828125,171.300003051758,-952.500061035156,2.16818626524549,-0.405724723879018,0.109445325253579,ST
5.13333333333333,-3.52306199073792,-0.827829897403717,8.39074993133545,0.175305992364883,-1.98934197425842,-0.518296003341675,-734.700012207031,173.100006103516,-950.100036621094,2.1659791850693,-0.392496885886001,0.0984702535335459,ST
5.16666666666667,-3.19827055931091,-0.729136288166046,7.99717140197754,-0.388722002506256,-0.907018005847931,0.472563982009888,-741.900024414062,176.100006103516,-942.900024414062,2.15950275231783,-0.377789375951678,0.0913482597930294,ST
5.2,-2.70779323577881,-0.806894838809967,8.94522857666016,-0.533540010452271,-0.777444005012512,0.182927995920181,-732.300048828125,179.100006103516,-942.900024414062,2.15697432565864,-0.293069166486313,0.0907634465991675,ST
5.23333333333333,-2.515789270401,-0.798520863056183,8.43441390991211,-0.525918006896973,-0.769822001457214,-0.541162014007568,-739.5,177.300003051758,-947.700012207031,2.16014117599135,-0.287306729537324,0.0954869130148256,ST
5.26666666666667,-2.7442798614502,-1.06170380115509,9.58284854888916,-0.541162014007568,-0.228659987449646,-0.967993974685669,-737.100036621094,176.700012207031,-942.900024414062,2.16891731738781,-0.276910212085027,0.111456554769428,ST
5.3,-2.89441394805908,-0.884055316448212,9.07562351226807,-0.228659987449646,-0.754577994346619,-2.13416004180908,-734.700012207031,178.5,-945.300048828125,2.17618326340204,-0.30515494350044,0.0988598875781591,ST
5.33333333333333,-3.44949054718018,-1.08503139019012,9.15936374664307,-0.0609759986400604,0.167683988809586,-1.37195992469788,-741.900024414062,174.300003051758,-945.300048828125,2.18996729671092,-0.356936339671689,0.118535737727669,ST
5.36666666666667,-3.39087247848511,-0.626255691051483,8.71135425567627,0.160062000155449,0.37347799539566,-1.265251994133,-732.300048828125,176.700012207031,-947.700012207031,2.18166273635449,-0.370661651790725,0.072894960267192,ST
5.4,-2.46076011657715,-0.74349170923233,8.97812557220459,-0.655492007732391,0.0381099991500378,-0.693601965904236,-727.5,182.100006103516,-950.100036621094,2.18784691516433,-0.268510231412812,0.0839066897601312,ST
5.43333333333333,-2.94286346435547,-1.30096101760864,8.43082523345947,-0.800309956073761,1.12805593013763,-0.129574000835419,-722.700012207031,181.5,-950.100036621094,2.20854657490653,-0.332921652662254,0.153357455136939,ST
5.46666666666667,-3.2509069442749,-1.46903908252716,9.90046215057373,-0.853663980960846,0.99848198890686,-0.922261953353882,-717.900024414062,176.700012207031,-947.700012207031,2.21156057954887,-0.315854639446512,0.149473020105213,ST
5.5,-2.86570286750793,-1.29976463317871,8.9296760559082,-0.0914639979600906,0.87652999162674,-1.34909391403198,-710.700012207031,188.100006103516,-954.900024414062,2.21822502334055,-0.308801956763927,0.145587034527921,ST
5.53333333333333,-3.73061776161194,-1.92841291427612,9.44886493682861,0.396344006061554,3.17837381362915,-1.57775402069092,-717.900024414062,180.300003051758,-952.500061035156,2.24911724470701,-0.372835003404342,0.201043651116391,ST
5.56666666666667,-4.29646110534668,-2.30105590820312,10.1803932189941,-0.388722002506256,2.17989206314087,-1.95885396003723,-715.5,183.900009155273,-942.900024414062,2.27004207950436,-0.393139614692895,0.224322433056163,ST
5.6,-4.31380701065063,-2.25380277633667,9.13364315032959,-0.663114011287689,1.265251994133,-1.60061991214752,-691.5,177.300003051758,-964.500061035156,2.28619643887348,-0.430711268632459,0.244189371621891,ST
5.63333333333333,-3.77069330215454,-2.75145769119263,8.03963947296143,-1.48628997802734,1.98171997070312,-0.586893975734711,-713.100036621094,177.900009155273,-947.700012207031,2.32490018377059,-0.420799891236272,0.331650815642498,ST
5.66666666666667,-3.66362571716309,-2.60491275787354,7.9756383895874,-1.13567793369293,1.6768399477005,0.213415995240211,-691.5,184.5,-954.900024414062,2.31851089994228,-0.414710312066115,0.318161864338179,ST
5.7,-3.98901557922363,-2.73231720924377,8.85072135925293,0.0609759986400604,0.884151995182037,0.144817993044853,-691.5,185.100006103516,-954.900024414062,2.31197463989959,-0.408280312222742,0.299667102659906,ST
5.73333333333333,-3.51947331428528,-2.8722825050354,8.44817161560059,0.495429992675781,-1.05945801734924,0.632625997066498,-681.900024414062,183.900009155273,-950.100036621094,2.31781927243179,-0.374750093711799,0.325864179134296,ST
5.76666666666667,-3.82093739509583,-2.87587141990662,8.05220031738281,0.701223969459534,-0.602137982845306,0.137196004390717,-710.700012207031,180.900009155273,-950.100036621094,2.32362595276472,-0.418529892157762,0.341260041062138,ST
5.8,-4.89998722076416,-2.44221782684326,7.78602695465088,0.259148001670837,1.01372599601746,0.914639949798584,-696.300048828125,181.5,-950.100036621094,2.30366547184211,-0.541720197315602,0.303310353169004,ST
5.83333333333333,-4.87546348571777,-2.51040601730347,8.36502933502197,-0.137196004390717,1.53202199935913,2.57623600959778,-691.5,184.5,-957.300048828125,2.28548756858284,-0.513329865595627,0.28994785812409,ST
5.86666666666667,-5.20862913131714,-2.48648023605347,8.99128532409668,-0.144817993044853,1.35671591758728,2.53812599182129,-681.900024414062,179.100006103516,-957.300048828125,2.26337517656669,-0.512695767204396,0.268299715120178,ST
5.9,-4.66910409927368,-2.26935434341431,7.90685176849365,0.419209986925125,1.41006994247437,2.41617393493652,-679.5,180.900009155273,-938.100036621094,2.25897618870971,-0.519644756147388,0.276681058341713,ST
5.93333333333333,-4.38737869262695,-2.42606782913208,8.72989654541016,0.0457319989800453,1.71494996547699,1.62348592281342,-677.100036621094,178.5,-950.100036621094,2.25038373816283,-0.455771186242561,0.270147508040854,ST
5.96666666666667,-4.29466676712036,-1.94934797286987,9.01999568939209,0.129574000835419,-0.3125019967556,1.76068198680878,-669.900024414062,178.5,-950.100036621094,2.21641840890086,-0.436076264783525,0.21221927169847,ST
6.0,-3.3167028427124,-1.94276833534241,7.70527791976929,0.693601965904236,-0.846041977405548,3.32319188117981,-677.100036621094,180.900009155273,-954.900024414062,2.21075553101993,-0.395829709521608,0.242913847751322,ST
6.03333333333333,-3.6313259601593,-1.26088535785675,7.44987058639526,1.11281192302704,0.442075997591019,3.15550804138184,-686.700012207031,176.700012207031,-947.700012207031,2.16554446537193,-0.44873889462453,0.164668763752227,ST
6.06666666666667,-4.02430582046509,-1.22798752784729,7.70109081268311,2.19513607025146,1.51677799224854,2.68294382095337,-679.5,176.700012207031,-942.900024414062,2.15335809085826,-0.479171567024928,0.152343404069447,ST
6.1,-4.7486572265625,-1.26267981529236,7.98281621932983,2.04269599914551,1.33385002613068,2.12653803825378,-686.700012207031,174.300003051758,-940.500061035156,2.14920309112282,-0.533085034306522,0.151380604332565,ST
6.13333333333333,-5.14881467819214,-1.55337727069855,8.44996547698975,1.2347639799118,0.358233988285065,1.60824191570282,-679.5,177.900009155273,-933.300048828125,2.15871259432778,-0.540867577039904,0.177568681796823,ST
6.16666666666667,-5.33065032958984,-1.53782558441162,8.76997184753418,0.289635986089706,-0.556405961513519,1.13567793369293,-672.300048828125,177.900009155273,-940.500061035156,2.15066158918429,-0.538879860764646,0.171917859078538,ST
6.2,-4.09847545623779,-1.56653642654419,8.75501823425293,0.228659987449646,-1.41006994247437,1.11281192302704,-691.5,177.900009155273,-945.300048828125,2.14602410579709,-0.43171400210308,0.175497580140669,ST
6.23333333333333,-3.89749956130981,-1.50373148918152,8.29564476013184,0.685979962348938,-1.18903195858002,0.922261953353882,-674.700012207031,176.100006103516,-950.100036621094,2.14254114251169,-0.431277899340766,0.177192559866009,ST
6.26666666666667,-4.05780172348022,-1.51090919971466,8.12218379974365,0.472563982009888,-0.800309956073761,0.548784017562866,-684.300048828125,177.300003051758,-940.500061035156,2.14240966501901,-0.454919257115462,0.182412729015456,ST
6.3,-4.41190242767334,-1.20047295093536,8.27889728546143,-0.0,-1.31860601902008,1.06708002090454,-686.700012207031,176.700012207031,-950.100036621094,2.11841369911305,-0.482804655654968,0.143596215250505,ST
6.33333333333333,-4.00935220718384,-1.0276095867157,8.62761402130127,-0.0,-1.13567793369293,1.34147191047668,-691.5,172.5,-942.900024414062,2.09862422548598,-0.43124621714273,0.117657766902642,ST
6.36666666666667,-4.40293025970459,-0.919345736503601,8.81902027130127,-0.327746003866196,-1.78354799747467,1.42531394958496,-689.100036621094,176.700012207031,-928.500061035156,2.08271584234499,-0.457696349833658,0.103268269146274,ST
6.4,-4.37541580200195,-0.864316582679749,8.81423473358154,-0.3125019967556,-1.47104597091675,2.0655620098114,-698.700012207031,180.900009155273,-930.900024414062,2.0675722450604,-0.456675788419353,0.0965309161830381,ST
6.43333333333333,-3.94116401672363,-0.985141456127167,8.20592308044434,-0.190549999475479,-0.342989981174469,1.73019397258759,-705.900024414062,175.5,-938.100036621094,2.06730588813006,-0.444940707066655,0.117952039902024,ST
6.46666666666667,-4.80548048019409,-1.12450873851776,8.38357162475586,-0.990859985351562,-0.213415995240211,0.884151995182037,-693.900024414062,174.900009155273,-947.700012207031,2.06676465799624,-0.51565462425861,0.133984323855447,ST
6.5,-4.61586952209473,-1.30873680114746,8.64555835723877,-1.40244793891907,-0.510673999786377,1.01372599601746,-698.700012207031,176.100006103516,-945.300048828125,2.06581489364889,-0.485648060186934,0.151366151665609,ST
6.53333333333333,-4.17443990707397,-1.44690787792206,8.33811283111572,-1.05945801734924,-0.586893975734711,0.960371971130371,-703.5,181.5,-942.900024414062,2.06725054329816,-0.458041572169823,0.172377390909432,ST
6.56666666666667,-4.82581758499146,-1.43973016738892,8.37280559539795,-0.87652999162674,-0.320124000310898,0.640248000621796,-696.300048828125,180.900009155273,-940.500061035156,2.06080355408301,-0.515160676766325,0.171171704694058,ST
6.6,-4.26057243347168,-1.22200608253479,8.560622215271,0.0685980021953583,-0.685979962348938,0.952749967575073,-698.700012207031,181.5,-947.700012207031,2.04167329163053,-0.4579079236573,0.14130351260799,ST
6.63333333333333,-4.67807626724243,-1.08503139019012,7.51267576217651,0.503051996231079,-0.0152439996600151,1.99696397781372,-701.100036621094,177.300003051758,-942.900024414062,2.03285568264476,-0.551048118159643,0.140464513882202,ST
6.66666666666667,-4.44061326980591,-1.08323693275452,8.67367076873779,0.823175966739655,0.548784017562866,1.57775402069092,-696.300048828125,176.100006103516,-942.900024414062,2.01820641380982,-0.472580309207877,0.121746581905558,ST
6.7,-4.4382209777832,-0.691453278064728,7.82789707183838,1.59299790859222,-0.0914639979600906,1.41769194602966,-689.100036621094,179.700012207031,-942.900024414062,1.9978719090576,-0.513419160596967,0.08463139848963,ST
6.73333333333333,-4.85871553421021,-0.91575688123703,8.62761402130127,1.04421401023865,0.617381989955902,0.564027965068817,-696.300048828125,176.100006103516,-950.100036621094,2.00739559146241,-0.511701615641964,0.103143449776586,ST
6.76666666666667,-4.17264556884766,-0.915158748626709,9.07681941986084,1.13567793369293,-0.99848198890686,-0.541162014007568,-681.900024414062,174.300003051758,-935.700012207031,2.01063017186248,-0.428692758794135,0.0989347847942881,ST
6.8,-4.09907388687134,-0.804502308368683,8.2800931930542,1.01372599601746,-1.31860601902008,-0.0076219998300075,-696.300048828125,174.900009155273,-947.700012207031,2.01099174886856,-0.455162640039155,0.0950377403949645,ST
6.83333333333333,-3.56553030014038,-0.991721034049988,8.87703990936279,0.37347799539566,-0.92988395690918,-1.2500079870224,-717.900024414062,173.700012207031,-947.700012207031,2.02441872096146,-0.379351629964108,0.111118833366622,ST
6.86666666666667,-4.08112955093384,-1.05691862106323,8.15807151794434,0.525918006896973,-1.08232402801514,-1.57013201713562,-708.300048828125,173.100006103516,-928.500061035156,2.04032836840938,-0.45686655899186,0.128776880807438,ST
6.9,-4.04464292526245,-1.40264523029327,8.05459308624268,-0.144817993044853,-0.0609759986400604,-1.12043392658234,-708.300048828125,173.700012207031,-950.100036621094,2.0652877897881,-0.458942353592961,0.172903583687617,ST
6.93333333333333,-4.31141471862793,-1.22200608253479,8.59591293334961,-0.480185985565186,-0.182927995920181,-0.777444005012512,-713.100036621094,179.700012207031,-930.900024414062,2.05472564111207,-0.460369242087644,0.143247814943687,ST
6.96666666666667,-3.80598378181458,-1.4361412525177,8.68802642822266,-0.144817993044853,-0.396344006061554,-0.304879993200302,-701.100036621094,182.100006103516,-945.300048828125,2.0643659757434,-0.408026369634155,0.163930011874685,ST
7.0,-3.77129149436951,-1.34641981124878,8.76219654083252,-0.205793991684914,-1.19665396213531,-0.533540010452271,-703.5,181.5,-942.900024414062,2.06161686687414,-0.400105647631695,0.153208766536616,ST
7.03333333333333,-4.03985786437988,-1.338045835495,9.29454326629639,-0.0685980021953583,-1.41006994247437,0.0990860015153885,-701.100036621094,183.900009155273,-947.700012207031,2.05588647285894,-0.403798944698923,0.14306356280628,ST
7.06666666666667,-3.33046007156372,-1.5683308839798,9.2287483215332,0.487807989120483,-1.18140995502472,-0.282013982534409,-715.5,180.900009155273,-938.100036621094,2.06610109150481,-0.340870488860721,0.167096786498557,ST
7.1,-3.04215526580811,-1.03598368167877,8.07193946838379,0.92988395690918,-1.37958192825317,-0.0381099991500378,-710.700012207031,178.5,-947.700012207031,2.05333548180118,-0.355075260446553,0.126687610233743,ST
7.13333333333333,-4.14572906494141,-1.69453907012939,8.36921691894531,-0.442075997591019,0.160062000155449,0.0457319989800453,-720.300048828125,172.5,-940.500061035156,2.08076241855663,-0.450973895463897,0.199487882867439,ST
7.16666666666667,-4.73848867416382,-1.82493424415588,8.74604606628418,-1.6692179441452,-0.708845973014832,-1.28811800479889,-717.900024414062,170.700012207031,-935.700012207031,2.08667015351595,-0.485496890052855,0.209508342857852,ST
7.2,-4.51478338241577,-2.16946458816528,9.30770301818848,-2.14940404891968,-1.07470202445984,-1.265251994133,-727.5,182.700012207031,-933.300048828125,2.09692942741051,-0.43984074497166,0.233127147937117,ST
7.23333333333333,-3.79222655296326,-2.38718867301941,8.96078014373779,-1.2347639799118,-1.21189796924591,-1.05945801734924,-717.900024414062,175.5,-945.300048828125,2.10975445161542,-0.386660554501763,0.26248649681737,ST
7.26666666666667,-3.53203415870667,-2.48707842826843,8.596510887146,-0.556405961513519,-0.830797970294952,-0.403965979814529,-720.300048828125,181.5,-933.300048828125,2.11680975291839,-0.374551336848092,0.282335226752856,ST
7.3,-3.32447862625122,-2.24483060836792,8.74843883514404,0.449698001146317,0.762199997901917,-0.495429992675781,-710.700012207031,180.300003051758,-935.700012207031,2.11079277695907,-0.353971777311496,0.251134529815974,ST
7.33333333333333,-3.68157005310059,-2.03428435325623,8.1843900680542,0.937505960464478,0.922261953353882,0.144817993044853,-710.700012207031,182.100006103516,-918.900024414062,2.11011531919329,-0.412434291095099,0.242168642271355,ST
7.36666666666667,-4.17922496795654,-2.08093929290771,8.33093547821045,1.10518991947174,1.83690190315247,0.579271972179413,-703.5,179.100006103516,-938.100036621094,2.11245372601708,-0.455505240764757,0.242733374933458,ST
7.4,-4.15470123291016,-2.08153748512268,8.51396751403809,0.846041977405548,1.31860601902008,0.46494197845459,-705.900024414062,179.700012207031,-938.100036621094,2.11190279380973,-0.445271011953108,0.23827226341942,ST
7.43333333333333,-4.334144115448,-2.05402302742004,8.36682415008545,0.701223969459534,0.899396002292633,0.594515979290009,-696.300048828125,182.700012207031,-942.900024414062,2.11221558544689,-0.467523273373618,0.239176741291265,ST
7.46666666666667,-4.86170625686646,-2.00557327270508,8.84414196014404,0.754577994346619,0.891773998737335,1.27287399768829,-698.700012207031,178.5,-940.500061035156,2.10056029077974,-0.493631763783173,0.22104265279433,ST
7.5,-4.47590398788452,-2.11682796478271,8.43262004852295,1.13567793369293,1.19665396213531,1.2576299905777,-689.100036621094,180.900009155273,-928.500061035156,2.1089155457865,-0.47827051399344,0.242724809515883,ST
7.53333333333333,-4.42266893386841,-1.93439435958862,8.33093547821045,1.01372599601746,1.31860601902008,0.868907988071442,-696.300048828125,177.300003051758,-938.100036621094,2.10114383429003,-0.479813052297091,0.226078357105042,ST
7.56666666666667,-3.90706992149353,-1.97626435756683,8.668288230896,0.975615978240967,0.160062000155449,1.14329993724823,-691.5,168.900009155273,-930.900024414062,2.09597203123741,-0.415948812912214,0.221696526799463,ST
7.6,-3.79282450675964,-1.59943425655365,7.42953395843506,1.21951997280121,-0.0457319989800453,1.29574000835419,-701.100036621094,171.900009155273,-935.700012207031,2.08701666005953,-0.462436905884702,0.209048402262013,ST
7.63333333333333,-3.60201692581177,-1.7364090681076,8.72630786895752,0.967993974685669,0.754577994346619,1.31098401546478,-689.100036621094,179.100006103516,-933.300048828125,2.07710015642002,-0.387794093867437,0.194179071037359,ST
7.66666666666667,-4.51777362823486,-1.59046220779419,8.57198715209961,1.10518991947174,0.327746003866196,1.45580196380615,-684.300048828125,174.900009155273,-935.700012207031,2.06705370588748,-0.47745402812501,0.180558954826706,ST
7.7,-4.35567712783813,-1.59943425655365,8.52592945098877,0.823175966739655,0.6250039935112,1.36433792114258,-693.900024414062,177.900009155273,-930.900024414062,2.06394936698141,-0.467038484150045,0.182882052202875,ST
7.73333333333333,-3.841872215271,-1.75614774227142,8.62701606750488,-0.0,-0.518296003341675,0.731711983680725,-693.900024414062,177.300003051758,-938.100036621094,2.06689549296148,-0.411862169530056,0.199881947116794,ST
7.76666666666667,-4.20016002655029,-1.40085089206696,7.66041707992554,-0.137196004390717,-0.0457319989800453,1.29574000835419,-698.700012207031,180.300003051758,-945.300048828125,2.05137117150557,-0.493445892137051,0.180297946348218,ST
7.8,-3.95013618469238,-1.61259341239929,8.3757963180542,-0.0,1.03659200668335,1.28811800479889,-703.5,183.300003051758,-933.300048828125,2.04979470469235,-0.436949063169921,0.189164437634959,ST
7.83333333333333,-4.59672880172729,-1.35120499134064,7.71245527267456,0.693601965904236,0.182927995920181,0.0685980021953583,-696.300048828125,177.900009155273,-918.900024414062,2.04394752620597,-0.53026482704198,0.172362862447552,ST
7.86666666666667,-4.67628192901611,-1.32369041442871,8.11022090911865,0.297257989645004,-0.152439996600151,0.617381989955902,-691.5,173.100006103516,-935.700012207031,2.03562421089736,-0.517420480838942,0.160771176000024,ST
7.9,-5.12249660491943,-1.11613476276398,8.79868316650391,0.396344006061554,-0.807931959629059,1.03659200668335,-705.900024414062,180.300003051758,-933.300048828125,2.01331498858309,-0.522498008509548,0.125016519658572,ST
7.93333333333333,-5.31629467010498,-0.852951884269714,7.64187479019165,1.2576299905777,-0.0990860015153885,1.46342396736145,-701.100036621094,173.100006103516,-926.100036621094,2.00090113254332,-0.603522305455399,0.107540660205295,ST
7.96666666666667,-5.08660793304443,-1.14604198932648,9.2287483215332,0.259148001670837,-0.190549999475479,0.282013982534409,-701.100036621094,166.5,-918.900024414062,2.00806099536102,-0.502127371687208,0.122540127235862,ST
8.0,-4.97894191741943,-0.830222427845001,8.77535533905029,0.754577994346619,-1.93598794937134,0.274392008781433,-705.900024414062,170.100006103516,-921.300048828125,1.99353904606698,-0.51070247656188,0.0931139503200215,ST
8.03333333333333,-4.08172750473022,-0.525169551372528,8.08808898925781,0.708845973014832,-1.76068198680878,0.0609759986400604,-698.700012207031,171.300003051758,-916.500061035156,1.98080579324799,-0.464100655020734,0.0638391683622373,ST
8.06666666666667,-5.02380275726318,-0.732127010822296,7.29734420776367,0.25152599811554,0.609759986400604,0.365855991840363,-708.300048828125,172.5,-921.300048828125,1.9977298134134,-0.599196937788334,0.0984768146803635,ST
8.1,-5.12070178985596,-0.761435985565186,8.36861801147461,-0.213415995240211,0.487807989120483,0.167683988809586,-693.900024414062,167.100006103516,-918.900024414062,1.99235038228801,-0.548748026229791,0.0910599632135778,ST
8.13333333333333,-4.23664665222168,-1.27643704414368,8.12816524505615,0.0228659994900227,-0.769822001457214,-0.449698001146317,-715.5,174.300003051758,-928.500061035156,2.02542245519426,-0.475446945778698,0.154883779452258,ST
8.16666666666667,-4.49384832382202,-0.939682602882385,7.77526044845581,-0.617381989955902,-1.63110792636871,-0.853663980960846,-717.900024414062,177.300003051758,-921.300048828125,2.01151044867833,-0.517256571196013,0.122524690455845,ST
8.2,-4.06737232208252,-1.08622765541077,8.18498802185059,-0.510673999786377,-1.31860601902008,-0.228659987449646,-722.700012207031,171.300003051758,-923.700012207031,2.01521836473513,-0.456513696735722,0.132690227369123,ST
8.23333333333333,-3.51468801498413,-1.31890523433685,8.90754508972168,-0.0609759986400604,-2.72105383872986,-1.34909391403198,-698.700012207031,172.5,-918.900024414062,2.02605456094008,-0.368723314063071,0.147479563275664,ST
8.26666666666667,-4.27732038497925,-1.28421294689178,8.88421726226807,-0.396344006061554,-2.36281991004944,-1.10518991947174,-708.300048828125,174.300003051758,-926.100036621094,2.02807054063123,-0.439004532253605,0.144911216223021,ST
8.3,-3.8957052230835,-1.52765715122223,9.67376613616943,-0.548784017562866,-1.57013201713562,-0.411587983369827,-705.900024414062,174.300003051758,-926.100036621094,2.03272190860718,-0.376924692632094,0.15746548411074,ST
8.33333333333333,-3.83290004730225,-1.37632691860199,8.51695823669434,0.160062000155449,-0.548784017562866,-0.182927995920181,-693.900024414062,173.100006103516,-928.500061035156,2.03465934944467,-0.416684908421188,0.159979680657803,ST
8.36666666666667,-4.14871978759766,-1.1095552444458,8.22506427764893,0.586893975734711,0.0533539988100529,0.25152599811554,-698.700012207031,180.900009155273,-926.100036621094,2.02353612197597,-0.462841613027858,0.133359912944571,ST
8.4,-4.2683482170105,-1.28301668167114,9.20123291015625,0.655492007732391,-0.243903994560242,-0.0533539988100529,-708.300048828125,176.100006103516,-918.900024414062,2.02702511828971,-0.430756758138633,0.137356187437894,ST
8.43333333333333,-3.69233655929565,-1.37931764125824,8.95599460601807,0.358233988285065,-1.59299790859222,-0.259148001670837,-722.700012207031,180.300003051758,-914.100036621094,2.0337212448702,-0.384965495041082,0.151930169170288,ST
8.46666666666667,-3.64627957344055,-1.00129127502441,7.97025489807129,-0.0609759986400604,-2.17989206314087,-0.495429992675781,-720.300048828125,169.5,-918.900024414062,2.02436404309616,-0.421547266176778,0.12574617790466,ST
8.5,-3.91305136680603,-1.26148355007172,7.54138660430908,-0.564027965068817,0.884151995182037,0.617381989955902,-710.700012207031,173.100006103516,-928.500061035156,2.03758085960887,-0.474002337751199,0.165750965024537,ST
8.53333333333333,-3.73779535293579,-1.53064787387848,8.63299751281738,-0.92988395690918,-0.160062000155449,0.342989981174469,-715.5,176.700012207031,-921.300048828125,2.03808784034767,-0.404113548790291,0.176625410637768,ST
8.56666666666667,-3.69951438903809,-1.85962653160095,9.23293495178223,-0.937505960464478,-2.25611186027527,-1.33385002613068,-713.100036621094,180.300003051758,-916.500061035156,2.04989300456206,-0.370499983470801,0.200598634184052,ST
8.6,-3.9698748588562,-1.80519545078278,8.49303245544434,-1.02897000312805,-2.86587190628052,-1.90549993515015,-710.700012207031,179.100006103516,-928.500061035156,2.05908632986818,-0.422639576501592,0.212083933673012,ST
8.63333333333333,-3.55655813217163,-2.19757723808289,9.73477649688721,-1.61586391925812,-1.81403601169586,-1.02897000312805,-720.300048828125,176.100006103516,-921.300048828125,2.06383840692725,-0.340389279822681,0.224984042998295,ST
8.66666666666667,-3.46743488311768,-2.31122446060181,9.95190238952637,-1.10518991947174,-2.01982998847961,-1.2500079870224,-720.300048828125,180.900009155273,-933.300048828125,2.06771037896232,-0.323572004247888,0.230467820602628,ST
8.7,-3.1647744178772,-2.37821650505066,9.57567119598389,-0.907018005847931,-1.37958192825317,-1.09756803512573,-722.700012207031,183.300003051758,-926.100036621094,2.07478597416552,-0.307841210520491,0.245191672110594,ST
8.73333333333333,-1.65984678268433,-2.43264746665955,8.77116870880127,-0.6250039935112,-0.381099998950958,-0.3125019967556,-725.100036621094,176.700012207031,-928.500061035156,2.08152861706703,-0.181073258375134,0.271406267825129,ST
8.76666666666667,-3.11632490158081,-2.43803071975708,7.96427345275879,-0.0838419944047928,1.265251994133,0.0609759986400604,-729.900024414062,180.300003051758,-918.900024414062,2.08995742046736,-0.357747318288314,0.297040295603947,ST
8.8,-5.04593420028687,-2.39017939567566,8.48824691772461,0.144817993044853,3.10215401649475,0.83841997385025,-717.900024414062,183.900009155273,-926.100036621094,2.08104355464453,-0.522280356020675,0.274715717165344,ST
8.83333333333333,-4.90417432785034,-2.66951203346252,8.94223785400391,0.518296003341675,2.63721203804016,1.81403601169586,-715.5,175.5,-921.300048828125,2.08347861860603,-0.489487429060384,0.288154169554256,ST
8.86666666666667,-4.62663602828979,-2.46434903144836,8.76518726348877,0.945127964019775,1.82165801525116,1.38720393180847,-717.900024414062,180.300003051758,-926.100036621094,2.07405930555191,-0.474064479261925,0.27189208919791,ST
8.9,-4.18939352035522,-2.24961566925049,9.55114650726318,1.45580196380615,0.739333987236023,0.853663980960846,-713.100036621094,182.100006103516,-928.500061035156,2.0557556147841,-0.406046162769212,0.228847998410359,ST
8.93333333333333,-3.24133682250977,-2.08393001556396,8.65991401672363,2.23324584960938,-0.792688012123108,0.640248000621796,-693.900024414062,179.100006103516,-916.500061035156,2.05707544820481,-0.34870353497858,0.23170389786674,ST
8.96666666666667,-3.43393874168396,-1.60960268974304,7.17831373214722,2.56099200248718,0.800309956073761,0.335367977619171,-710.700012207031,175.5,-921.300048828125,2.0565580189178,-0.437010985265294,0.216198545450083,ST
9.0,-3.9357807636261,-1.50552582740784,8.16883850097656,2.58385801315308,2.15702605247498,0.746955990791321,-710.700012207031,182.100006103516,-928.500061035156,2.04497961708185,-0.446259242317616,0.178167147414057,ST
9.03333333333333,-4.24801158905029,-1.64489316940308,8.07373428344727,2.89635992050171,1.54726600646973,0.800309956073761,-701.100036621094,179.700012207031,-926.100036621094,2.05757823331235,-0.478351986611838,0.195170322088301,ST
9.06666666666667,-5.17752552032471,-1.47561872005463,9.17012977600098,1.70732796192169,0.640248000621796,1.09756803512573,-705.900024414062,173.100006103516,-933.300048828125,2.03895278801737,-0.509370565626796,0.156343681653326,ST
9.1,-4.02191352844238,-1.44451522827148,9.44647216796875,0.807931959629059,-1.15092194080353,1.37958192825317,-684.300048828125,174.300003051758,-918.900024414062,2.02899340198682,-0.397846616381107,0.149257778936842,ST
9.13333333333333,-3.64568138122559,-1.23815596103668,8.67008209228516,0.221037998795509,-1.11281192302704,0.99848198890686,-705.900024414062,178.5,-928.500061035156,2.01941405763288,-0.39282237594197,0.140718635873483,ST
9.16666666666667,-3.8879292011261,-0.993515491485596,8.87345123291016,0.213415995240211,-0.0152439996600151,1.40244793891907,-703.5,176.100006103516,-923.700012207031,2.00074944333143,-0.410595299048866,0.110633004494179,ST
9.2,-3.62833523750305,-0.863718450069427,8.29504680633545,0.594515979290009,-0.335367977619171,1.85976791381836,-713.100036621094,173.100006103516,-926.100036621094,1.98849726254192,-0.410116674681917,0.101453284450617,ST
9.23333333333333,-3.84725570678711,-0.771006286144257,8.08509826660156,0.403965979814529,-0.114329993724823,1.37195992469788,-705.900024414062,174.900009155273,-923.700012207031,1.97894055111542,-0.441821915498482,0.0933882645654216,ST
9.26666666666667,-4.85452842712402,-0.846970438957214,8.15268898010254,-0.335367977619171,-0.518296003341675,0.861285984516144,-705.900024414062,173.700012207031,-926.100036621094,1.97747535644784,-0.532901388435965,0.103052478024179,ST
9.3,-5.50231742858887,-0.703416109085083,9.02238845825195,-0.259148001670837,-0.198172003030777,1.37958192825317,-715.5,173.100006103516,-930.900024414062,1.95632403208908,-0.545925216823409,0.0772005782005805,ST
9.33333333333333,-4.74985313415527,-0.805698573589325,8.85371208190918,0.419209986925125,-1.08232402801514,0.564027965068817,-715.5,173.700012207031,-933.300048828125,1.96013805943371,-0.489935189808231,0.0891869738704051,ST
9.36666666666667,-4.74267578125,-1.1155366897583,8.26454162597656,0.602137982845306,-1.37958192825317,-0.167683988809586,-729.900024414062,178.5,-930.900024414062,1.9828728734865,-0.514383654715201,0.132582709199664,ST
9.4,-4.73250722885132,-0.937290012836456,8.38895511627197,0.967993974685669,-1.96647596359253,-0.640248000621796,-720.300048828125,171.900009155273,-947.700012207031,1.97678761940059,-0.507573253874317,0.110394842509089,ST
9.43333333333333,-4.19417858123779,-0.885849714279175,7.84584140777588,1.82927989959717,-3.23172783851624,-0.990859985351562,-720.300048828125,172.5,-947.700012207031,1.98467479249188,-0.482956125279975,0.109822991143809,ST
9.46666666666667,-4.2683482170105,-1.05273163318634,8.20293235778809,1.58537602424622,-3.39178991317749,-1.73019397258759,-732.300048828125,173.700012207031,-940.500061035156,2.00283159175454,-0.470439103680268,0.12572116535193,ST
9.5,-4.35388278961182,-0.877475738525391,8.21549415588379,1.21951997280121,-2.98020195960999,-0.807931959629059,-739.5,173.700012207031,-942.900024414062,1.99934677592187,-0.479539471000839,0.105000668590154,ST
9.53333333333333,-3.63491487503052,-1.17056584358215,8.34648704528809,0.525918006896973,-1.41769194602966,-0.0457319989800453,-727.5,174.900009155273,-942.900024414062,2.01380971334265,-0.406555387030902,0.137519602124483,ST
9.56666666666667,-3.97226738929749,-1.65565979480743,9.75212287902832,0.0762199983000755,-0.480185985565186,-0.0457319989800453,-722.700012207031,171.900009155273,-942.900024414062,2.02530582699302,-0.381494682915712,0.167462961815835,ST
9.6,-2.51638746261597,-1.5743123292923,9.18209266662598,0.777444005012512,-1.78354799747467,-0.891773998737335,-741.900024414062,170.700012207031,-947.700012207031,2.03020696158399,-0.262697540880334,0.168706845711196,ST
9.63333333333333,-2.19458651542664,-1.44511342048645,9.21140193939209,0.716467976570129,-1.95885396003723,-0.983237981796265,-725.100036621094,171.300003051758,-938.100036621094,2.03152294701489,-0.228158634440459,0.154892654046252,ST
9.66666666666667,-2.21492338180542,-1.14843451976776,8.79090690612793,0.800309956073761,-0.609759986400604,0.137196004390717,-737.100036621094,177.300003051758,-942.900024414062,2.02526434956118,-0.243618211056061,0.128719586829967,ST
9.7,-3.29516959190369,-1.11912548542023,8.96317195892334,0.594515979290009,0.762199997901917,1.2576299905777,-729.900024414062,171.900009155273,-947.700012207031,2.01822976691181,-0.349422611379821,0.122572929695863,ST
9.73333333333333,-2.94346165657043,-1.10716259479523,9.4375,-0.213415995240211,0.442075997591019,1.34909391403198,-749.100036621094,171.300003051758,-947.700012207031,2.00887400374218,-0.302306992236076,0.116554380655046,ST
9.76666666666667,-2.26157855987549,-1.00069320201874,9.40579795837402,-0.0914639979600906,0.297257989645004,0.609759986400604,-732.300048828125,170.100006103516,-962.100036621094,2.00265379142191,-0.236369857576257,0.106069384676043,ST
9.8,-2.44999361038208,-0.759641587734222,8.75442028045654,0.647870004177094,0.907018005847931,-0.381099998950958,-725.100036621094,174.900009155273,-945.300048828125,2.00114543132139,-0.272749013873677,0.0860217387497835,ST
9.83333333333333,-2.84955310821533,-0.943271458148956,8.38536643981934,0.342989981174469,1.21189796924591,-0.327746003866196,-725.100036621094,176.100006103516,-954.900024414062,2.01178981122978,-0.326849156343561,0.111278686642074,ST
9.86666666666667,-3.85204076766968,-1.20645439624786,7.64665985107422,-0.335367977619171,0.746955990791321,-0.419209986925125,-722.700012207031,170.700012207031,-940.500061035156,2.03143212375054,-0.461065662633742,0.156856168581164,ST
9.9,-4.34491062164307,-2.13058519363403,8.584547996521,-1.20427596569061,1.2500079870224,-0.503051996231079,-725.100036621094,170.100006103516,-947.700012207031,2.07152917798094,-0.458562490323033,0.245024275293849,ST
9.93333333333333,-4.21152448654175,-2.32797241210938,9.28018856048584,-1.6768399477005,-1.28049600124359,-1.48628997802734,-717.900024414062,173.100006103516,-947.700012207031,2.07552994458083,-0.412393297830696,0.249521145769718,ST
9.96666666666667,-3.25629043579102,-2.13237977027893,7.56351804733276,-1.10518991947174,-1.80641400814056,-0.480185985565186,-722.700012207031,171.900009155273,-947.700012207031,2.08329941167942,-0.38988198671957,0.276342363098038,ST
10.0,-4.54528856277466,-1.65984678268433,8.02109718322754,-1.06708002090454,0.213415995240211,0.426831990480423,-715.5,180.300003051758,-950.100036621094,2.04846936275143,-0.505014465896475,0.206944779369474,DLL
10.0333333333333,-4.31919050216675,-1.79323267936707,7.92898321151733,-1.07470202445984,-0.365855991840363,3.08691000938416,-715.5,176.700012207031,-940.500061035156,2.03662102639644,-0.489231920533229,0.221155278404845,DLL
10.0666666666667,-4.43582820892334,-1.9469553232193,9.21499061584473,-1.6844619512558,0.891773998737335,3.62807202339172,-703.5,174.900009155273,-954.900024414062,2.00864742899973,-0.443718479905719,0.208541702667928,DLL
10.1,-3.85263895988464,-2.31541132926941,10.8066492080688,-1.82165801525116,-1.45580196380615,2.5152599811554,-703.5,171.300003051758,-947.700012207031,1.98984909359832,-0.335128050901575,0.212488083855934,DLL
10.1333333333333,-3.48418283462524,-2.00198459625244,9.1922607421875,-1.41006994247437,-3.24697184562683,1.73781597614288,-717.900024414062,179.700012207031,-954.900024414062,1.97509966142153,-0.349533706896384,0.215334907855409,DLL
10.1666666666667,-2.88663792610168,-2.04026556015015,8.2980375289917,-1.27287399768829,-1.17378795146942,2.10367202758789,-717.900024414062,186.300003051758,-947.700012207031,1.96872923806969,-0.325109138948326,0.241457625133305,DLL
10.2,-3.64149451255798,-1.89312255382538,8.17302513122559,-1.46342396736145,1.62348592281342,2.52288198471069,-705.900024414062,182.700012207031,-950.100036621094,1.94988101928659,-0.411674811956007,0.228848967481245,DLL
10.2333333333333,-2.77897214889526,-1.88534665107727,7.61555624008179,-1.46342396736145,0.213415995240211,2.79727387428284,-715.5,183.900009155273,-947.700012207031,1.93734394284683,-0.343049786732274,0.243331200283345,DLL
10.2666666666667,-4.29646110534668,-1.54141438007355,7.47439479827881,-1.81403601169586,0.129574000835419,3.57471799850464,-698.700012207031,180.300003051758,-952.500061035156,1.8961753533135,-0.512275364690966,0.203701769499334,DLL
10.3,-4.56442880630493,-1.90628159046173,7.38586950302124,-3.55185198783875,0.121951997280121,5.32015609741211,-696.300048828125,180.900009155273,-952.500061035156,1.88480933087289,-0.541198428047065,0.252517297422026,DLL
10.3333333333333,-5.92580223083496,-1.83450448513031,8.82799243927002,-4.80185985565186,-0.0838419944047928,6.38723564147949,-696.300048828125,191.700012207031,-964.500061035156,1.81518903620656,-0.582847478176628,0.206968259099957,DLL
10.3666666666667,-5.78284645080566,-2.31062626838684,9.19405555725098,-6.50156593322754,-2.43141794204712,9.19213199615479,-679.5,189.300003051758,-964.500061035156,1.77012873452127,-0.548136309119628,0.246668811374674,DLL
10.4,-3.86041474342346,-2.51279854774475,8.61684799194336,-7.85828161239624,-4.38264989852905,10.5869579315186,-679.5,191.700012207031,-962.100036621094,1.7034193984249,-0.405688025165902,0.288295154491989,DLL
10.4333333333333,-2.63781046867371,-2.65396046638489,8.01990127563477,-7.26376581192017,-5.55643796920776,10.0534181594849,-679.5,194.700012207031,-952.500061035156,1.6411334520371,-0.300953322825266,0.325316028444688,DLL
10.4666666666667,-3.06966972351074,-2.63721227645874,8.45355415344238,-6.17382001876831,-3.97868394851685,9.11591148376465,-691.5,200.100006103516,-959.700012207031,1.57015412356557,-0.331341169816773,0.307608308564272,DLL
10.5,-2.94106888771057,-2.81187009811401,8.22326946258545,-5.57930374145508,-3.31556987762451,8.76529979705811,-689.100036621094,203.700012207031,-957.300048828125,1.51693214973549,-0.325918407599881,0.333211981380861,DLL
10.5333333333333,-3.77846908569336,-2.82443118095398,8.91472244262695,-5.09149599075317,-2.13416004180908,7.5610237121582,-701.100036621094,204.900009155273,-947.700012207031,1.4562711714989,-0.383442030098091,0.310672623557767,DLL
10.5666666666667,-4.358069896698,-2.67369914054871,9.53559494018555,-5.09149599075317,-2.35519790649414,6.71498203277588,-693.900024414062,206.700012207031,-966.900024414062,1.39412828660163,-0.413295872381825,0.277476203979102,DLL
10.6,-3.98064136505127,-2.55466866493225,8.74245738983154,-4.77137184143066,-3.01068997383118,6.53205394744873,-693.900024414062,207.300003051758,-959.700012207031,1.34936699613621,-0.410261714082838,0.287047489440042,DLL
10.6333333333333,-3.76889896392822,-2.71078395843506,8.45415306091309,-5.03814172744751,-1.79879200458527,5.83083009719849,-686.700012207031,196.500015258789,-962.100036621094,1.31627798343897,-0.401755638085201,0.314052567946313,DLL
10.6666666666667,-2.93448948860168,-3.01284623146057,8.07014465332031,-5.73936605453491,-2.69818782806396,5.24393606185913,-681.900024414062,212.100006103516,-947.700012207031,1.29073310985842,-0.328501773392651,0.362895831261071,DLL
10.7,-3.40762042999268,-2.57022023200989,7.47140407562256,-5.67839002609253,-3.06404399871826,4.81710386276245,-693.900024414062,215.100006103516,-952.500061035156,1.23702314341296,-0.403914934066397,0.337508592073368,DLL
10.7333333333333,-3.74736571311951,-2.32677626609802,7.36971950531006,-5.26680183410645,-0.655492007732391,4.95429992675781,-689.100036621094,210.900009155273,-938.100036621094,1.18763312023873,-0.452177186838259,0.311373783081324,DLL
10.7666666666667,-3.39326500892639,-3.1767373085022,7.45226335525513,-4.92381191253662,-0.899396002292633,6.05186796188354,-679.5,218.700012207031,-940.500061035156,1.18370348117168,-0.400311705510058,0.405423033950193,DLL
10.8,-4.56801795959473,-2.66053986549377,8.33512210845947,-4.80185985565186,-1.79117000102997,5.22106981277466,-669.900024414062,216.300003051758,-940.500061035156,1.10118480519259,-0.480002335846378,0.313694136650081,DLL
10.8333333333333,-4.28868532180786,-3.63551306724548,8.57916450500488,-4.39027214050293,-1.79879200458527,5.06100797653198,-681.900024414062,219.300003051758,-940.500061035156,1.09937073207636,-0.432562629382459,0.402941864967009,DLL
10.8666666666667,-3.95492124557495,-3.78564691543579,9.01700496673584,-4.71801805496216,-3.07166600227356,3.7881338596344,-662.700012207031,224.700012207031,-940.500061035156,1.06053071461913,-0.382542357494846,0.40241282535904,DLL
10.9,-3.31131958961487,-4.7247314453125,9.21140193939209,-3.94819593429565,-2.90398192405701,4.48935794830322,-665.100036621094,215.100006103516,-935.700012207031,1.04935852833732,-0.309982730573853,0.476456104216186,DLL
10.9333333333333,-1.97446990013123,-5.11113166809082,8.22685813903809,-2.9268479347229,-1.51677799224854,2.70580983161926,-672.300048828125,224.700012207031,-935.700012207031,1.04647774427754,-0.202434283695259,0.559082342871431,DLL
10.9666666666667,-2.59713673591614,-4.54708290100098,8.20293235778809,-1.12043392658234,0.137196004390717,2.01982998847961,-669.900024414062,228.900009155273,-928.500061035156,1.02277460332236,-0.271147270552206,0.508008418159934,DLL
11.0,-2.86869359016418,-4.09010171890259,7.68015575408936,1.50915598869324,1.6692179441452,1.39482593536377,-650.700012207031,224.100006103516,-933.300048828125,1.01679022036587,-0.321491194951092,0.486751378053316,DLL
11.0333333333333,-2.79093503952026,-4.02191352844238,7.58146238327026,2.14940404891968,1.47866797447205,0.396344006061554,-657.900024414062,219.300003051758,-935.700012207031,1.02172743089816,-0.317101907461305,0.484235643759291,DLL
11.0666666666667,-3.93637895584106,-3.74377679824829,8.1012487411499,2.62959003448486,1.77592599391937,0.0152439996600151,-653.100036621094,221.700012207031,-935.700012207031,1.01193030385609,-0.416396130362301,0.429894854338815,DLL
11.1,-3.57868933677673,-3.85204076766968,7.49353504180908,2.9420919418335,1.69970595836639,-0.754577994346619,-655.5,214.500015258789,-945.300048828125,1.04359844603338,-0.403857881015956,0.470301002445232,DLL
11.1333333333333,-4.57399940490723,-3.37771344184875,7.15558433532715,1.53202199935913,2.45428395271301,-1.79879200458527,-665.100036621094,218.100006103516,-940.500061035156,1.04954945713246,-0.524993127378933,0.441442934027657,DLL
11.1666666666667,-5.41259574890137,-2.81127190589905,7.36014938354492,0.67835795879364,2.60672402381897,-1.46342396736145,-653.100036621094,214.500015258789,-950.100036621094,1.02355368937348,-0.603810106551703,0.367858657524737,DLL
11.2,-5.08780431747437,-3.28918814659119,7.10055541992188,0.236281991004944,2.22562384605408,-0.952749967575073,-653.100036621094,221.700012207031,-952.500061035156,1.06980788945245,-0.579793920967193,0.434234593393249,DLL
11.2333333333333,-5.50171899795532,-3.43154621124268,7.10234975814819,-0.442075997591019,0.823175966739655,-0.907018005847931,-660.300048828125,218.100006103516,-950.100036621094,1.08387060725747,-0.609097946225286,0.451945245706643,DLL
11.2666666666667,-5.4436993598938,-3.72882318496704,7.28897047042847,-0.342989981174469,-0.335367977619171,0.342989981174469,-653.100036621094,224.100006103516,-933.300048828125,1.09218230556354,-0.586934695389338,0.472549636609268,DLL
11.3,-4.66850566864014,-4.52076435089111,6.99887084960938,-1.15854394435883,-1.20427596569061,0.37347799539566,-653.100036621094,223.500015258789,-930.900024414062,1.13641155548826,-0.510767543021323,0.572786339505681,DLL
11.3333333333333,-4.49624061584473,-4.65415048599243,7.44209480285645,-1.99696397781372,-3.00306797027588,0.800309956073761,-648.300048828125,224.700012207031,-940.500061035156,1.11314856948235,-0.470341741062627,0.560521007332249,DLL
11.3666666666667,-4.77078819274902,-4.54947566986084,7.66819286346436,-1.12043392658234,-2.54574799537659,1.30336201190948,-643.5,216.900009155273,-938.100036621094,1.08626683166493,-0.488323072948327,0.535655278034114,DLL
11.4,-3.83648896217346,-4.55426073074341,7.48157215118408,0.548784017562866,-1.63872992992401,1.69970595836639,-655.5,222.900009155273,-930.900024414062,1.07919067526406,-0.413325889793274,0.543929456216172,DLL
11.4333333333333,-4.08830738067627,-4.06797027587891,7.31409215927124,0.823175966739655,-2.24086785316467,1.40244793891907,-655.5,221.100006103516,-940.500061035156,1.05272414038666,-0.451467170656083,0.504925030702202,DLL
11.4666666666667,-4.42924880981445,-3.71686053276062,7.48815202713013,0.87652999162674,-2.16464805603027,2.17227005958557,-655.5,221.100006103516,-933.300048828125,1.01818939645213,-0.484990965503178,0.457308279421846,DLL
11.5,-3.72702884674072,-4.27911472320557,7.13405132293701,0.0609759986400604,-1.53202199935913,1.94360995292664,-660.300048828125,222.900009155273,-935.700012207031,1.04041618276976,-0.421826786583068,0.536804269986965,DLL
11.5333333333333,-4.78035879135132,-3.57510042190552,7.22377252578735,-2.01982998847961,-0.640248000621796,1.32622802257538,-650.700012207031,227.100006103516,-926.100036621094,0.99185518157839,-0.534080033983161,0.462517043110293,DLL
11.5666666666667,-3.00566840171814,-5.19188117980957,8.4110860824585,-2.39330792427063,0.480185985565186,0.899396002292633,-641.100036621094,222.900009155273,-933.300048828125,1.0219054988743,-0.301130475758796,0.555300521077206,DLL
11.6,-4.64816904067993,-4.44001531600952,7.89967441558838,-1.02134799957275,-0.457319974899292,-0.0457319989800453,-662.700012207031,224.700012207031,-938.100036621094,1.0027088762849,-0.470890435437515,0.514286429153306,DLL
11.6333333333333,-3.70968270301819,-4.50581121444702,7.36852312088013,1.2576299905777,1.12043392658234,0.777444005012512,-653.100036621094,226.500015258789,-947.700012207031,1.01902231843163,-0.408792262014526,0.546214727415428,DLL
11.6666666666667,-3.78803944587708,-4.26117038726807,7.52463865280151,4.38264989852905,1.55488801002502,-1.33385002613068,-653.100036621094,226.500015258789,-938.100036621094,1.02475308938941,-0.414009320311123,0.509772404082683,DLL
11.7,-4.29047966003418,-4.23066520690918,7.09995698928833,4.71039581298828,0.685979962348938,-1.96647596359253,-665.100036621094,217.500015258789,-938.100036621094,1.05703364284043,-0.477130684931706,0.530622464476991,DLL
11.7333333333333,-3.9459490776062,-4.12957906723022,7.71664237976074,3.23934984207153,-1.02897000312805,-3.43752193450928,-677.100036621094,216.900009155273,-935.700012207031,1.05982835227387,-0.42021284772687,0.488488613364957,DLL
11.7666666666667,-4.70559072494507,-3.77667474746704,7.02818012237549,3.11739802360535,-1.43293595314026,-2.81251788139343,-669.900024414062,221.100006103516,-942.900024414062,1.07799130785855,-0.526372018668646,0.489406601947588,DLL
11.8,-5.03337287902832,-3.45906090736389,8.01332092285156,1.60061991214752,-1.57775402069092,-1.41006994247437,-691.5,216.300003051758,-942.900024414062,1.0444591817037,-0.51974410794043,0.406897570206541,DLL
11.8333333333333,-4.58177518844604,-3.57809114456177,7.49832010269165,0.518296003341675,-2.39330792427063,0.967993974685669,-684.300048828125,215.100006103516,-954.900024414062,1.05351495275505,-0.501264676107775,0.441858952820755,DLL
11.8666666666667,-4.23604869842529,-3.21202778816223,7.13943433761597,-1.65397393703461,-1.41769194602966,3.19361782073975,-674.700012207031,216.300003051758,-935.700012207031,1.02211015961807,-0.496111073513805,0.422707546137623,DLL
11.9,-3.61039090156555,-3.3047399520874,7.88173007965088,-2.26373386383057,-0.708845973014832,4.03965997695923,-684.300048828125,219.900009155273,-935.700012207031,0.985206465362568,-0.403027682452499,0.398377219251256,DLL
11.9333333333333,-3.00028514862061,-3.64867210388184,7.88232803344727,-1.93598794937134,-1.08994603157043,3.94057393074036,-684.300048828125,216.300003051758,-930.900024414062,0.971538195983006,-0.33483013803633,0.433871406591896,DLL
11.9666666666667,-3.5954372882843,-3.46504211425781,8.07911682128906,-1.18140995502472,-0.449698001146317,2.83538389205933,-681.900024414062,219.900009155273,-928.500061035156,0.944201222620232,-0.388488597562096,0.405784708518457,DLL
12.0,-3.02301454544067,-3.86280727386475,8.3458890914917,-0.746955990791321,-0.731711983680725,1.79117000102997,-665.100036621094,219.900009155273,-940.500061035156,0.941755643625243,-0.319027398862797,0.433157460063263,DLL
12.0333333333333,-3.39685392379761,-4.05301666259766,8.27530765533447,-0.411587983369827,-1.08994603157043,0.304879993200302,-674.700012207031,223.500015258789,-928.500061035156,0.944177176688252,-0.351112561113534,0.455255940484164,DLL
12.0666666666667,-3.99140810966492,-3.82572245597839,8.08031368255615,0.121951997280121,-0.121951997280121,0.182927995920181,-667.5,215.700012207031,-938.100036621094,0.938340801208941,-0.418592936981503,0.44206421506434,DLL
12.1,-3.70071053504944,-4.08172750473022,7.92718887329102,0.602137982845306,0.480185985565186,0.3125019967556,-669.900024414062,221.100006103516,-926.100036621094,0.951915597849404,-0.394852849971914,0.473821492213068,DLL
12.1333333333333,-4.226478099823,-3.73779535293579,7.72681093215942,1.14329993724823,0.6250039935112,0.3125019967556,-669.900024414062,222.900009155273,-930.900024414062,0.944431520432381,-0.457605653164549,0.44902475254365,DLL
12.1666666666667,-4.52016639709473,-3.46205163002014,7.92359972000122,1.45580196380615,0.92988395690918,0.25152599811554,-674.700012207031,220.500015258789,-933.300048828125,0.931758057968114,-0.483050059206431,0.409979231178887,DLL
12.2,-4.0356707572937,-3.64986848831177,7.38407516479492,1.53964400291443,0.594515979290009,0.701223969459534,-669.900024414062,222.300003051758,-923.700012207031,0.954500821068232,-0.4574077478705,0.455455202690299,DLL
12.2333333333333,-3.73360848426819,-3.913649559021,7.8356728553772,0.510673999786377,0.182927995920181,-0.342989981174469,-677.100036621094,215.700012207031,-933.300048828125,0.960996676984632,-0.403597209131108,0.462540236093103,DLL
12.2666666666667,-5.05012130737305,-3.44649982452393,7.93556261062622,-0.0990860015153885,-0.503051996231079,-0.236281991004944,-674.700012207031,222.300003051758,-933.300048828125,0.937387659970123,-0.525966309998934,0.410569168296351,DLL
12.3,-3.49614572525024,-4.20135641098022,8.0653600692749,0.0228659994900227,-0.510673999786377,0.365855991840363,-662.700012207031,221.100006103516,-942.900024414062,0.964054021742407,-0.369050932345223,0.478796630302931,DLL
12.3333333333333,-4.18999147415161,-3.58407258987427,7.88472080230713,-0.365855991840363,-0.92988395690918,-0.388722002506256,-679.5,226.500015258789,-935.700012207031,0.9425621364819,-0.447910951996726,0.427869203892851,DLL
12.3666666666667,-3.67977547645569,-3.34421730041504,6.85352230072021,0.556405961513519,0.381099998950958,0.967993974685669,-677.100036621094,212.700012207031,-933.300048828125,0.950738549595459,-0.450862383413413,0.451952757186227,DLL
12.4,-3.87058305740356,-3.77308583259583,7.03535747528076,0.266770005226135,1.28049600124359,-0.0609759986400604,-669.900024414062,216.300003051758,-930.900024414062,0.972724351593053,-0.453344261336124,0.491961497897315,DLL
12.4333333333333,-3.43453693389893,-4.34132146835327,7.12149000167847,-1.32622802257538,-0.0533539988100529,-1.32622802257538,-669.900024414062,224.100006103516,-930.900024414062,0.999285898064041,-0.390365071111256,0.549668655307503,DLL
12.4666666666667,-4.13556051254272,-4.53811073303223,6.8780460357666,-1.11281192302704,0.0533539988100529,0.442075997591019,-667.5,223.500015258789,-940.500061035156,1.00901997149471,-0.464464904593002,0.584308100677489,DLL
12.5,-4.84914493560791,-4.50401639938354,8.17601585388184,-2.32470989227295,-0.0304879993200302,-0.182927995920181,-667.5,222.900009155273,-938.100036621094,0.969166457484491,-0.478718139810965,0.50891599607037,DLL
12.5333333333333,-5.05191564559937,-4.59792518615723,8.3159818649292,-1.42531394958496,-0.617381989955902,3.00306797027588,-677.100036621094,224.100006103516,-928.500061035156,0.947413112482111,-0.490078826991263,0.504890131991157,DLL
12.5666666666667,-4.05600738525391,-4.60211181640625,8.06655597686768,-1.02897000312805,-1.90549993515015,2.90398192405701,-669.900024414062,221.100006103516,-923.700012207031,0.93226037470615,-0.412816016676118,0.517350355895979,DLL
12.6,-3.44590163230896,-3.9878191947937,7.27341842651367,0.144817993044853,-1.95123195648193,2.82013988494873,-667.5,218.100006103516,-916.500061035156,0.905652076935928,-0.393328972988363,0.499000010688133,DLL
12.6333333333333,-2.83101058006287,-3.93039751052856,6.97793579101562,1.08232402801514,-1.11281192302704,3.33081388473511,-667.5,227.700012207031,-935.700012207031,0.891205719421473,-0.34152106540641,0.508815504496641,DLL
12.6666666666667,-6.66211652755737,-3.19946670532227,8.41228294372559,1.43293595314026,0.472563982009888,4.17685604095459,-657.900024414062,222.300003051758,-926.100036621094,0.806542682853782,-0.635165539946448,0.359539556346041,DLL
12.7,-4.42266893386841,-3.94654726982117,8.44039535522461,-1.83690190315247,-2.0655620098114,2.14940404891968,-662.700012207031,227.100006103516,-926.100036621094,0.82687039517875,-0.444534254031264,0.437054770147426,DLL
12.7333333333333,-4.51897001266479,-4.24681520462036,7.83268213272095,-1.87501192092896,-3.13264203071594,3.38416790962219,-665.100036621094,215.700012207031,-923.700012207031,0.824689714952569,-0.466944667528261,0.495089569132227,DLL
12.7666666666667,-3.85862040519714,-3.9537250995636,8.09945392608643,-1.44055795669556,-2.03507399559021,1.79117000102997,-667.5,220.500015258789,-921.300048828125,0.79029073440508,-0.403568505245161,0.45527632912802,DLL
12.8,-3.5792875289917,-3.83768534660339,7.52224588394165,0.815553963184357,-0.762199997901917,2.88111591339111,-662.700012207031,221.700012207031,-930.900024414062,0.781631862714333,-0.402008562448295,0.467936892966446,DLL
12.8333333333333,-3.16776514053345,-3.82452607154846,8.06954669952393,1.73019397258759,-0.663114011287689,1.31098401546478,-662.700012207031,225.900009155273,-926.100036621094,0.766768917910715,-0.341930612449621,0.439171181631357,DLL
12.8666666666667,-3.06966972351074,-3.7132716178894,7.41458034515381,2.78965187072754,-1.59299790859222,0.3125019967556,-669.900024414062,216.900009155273,-923.700012207031,0.773523094187507,-0.352101810275701,0.458427331798895,DLL
12.9,-4.58715867996216,-2.948246717453,7.69510936737061,3.04879999160767,-0.533540010452271,-0.0762199983000755,-662.700012207031,221.100006103516,-930.900024414062,0.740581559537614,-0.50421199201679,0.362344396778151,DLL
12.9333333333333,-4.25339460372925,-3.39984464645386,8.11739826202393,1.79117000102997,-0.243903994560242,-0.0609759986400604,-667.5,214.500015258789,-930.900024414062,0.759101461186033,-0.45077030599574,0.392931843144434,DLL
12.9666666666667,-3.92262148857117,-3.45367741584778,8.35127258300781,-0.335367977619171,-2.05031800270081,-0.282013982534409,-677.100036621094,219.300003051758,-935.700012207031,0.754995551764966,-0.406532280051505,0.392330129263989,DLL
13.0,-3.53981018066406,-4.24262809753418,7.99477910995483,-0.853663980960846,-0.922261953353882,0.891773998737335,-681.900024414062,219.300003051758,-918.900024414062,0.782249184940715,-0.372600572965763,0.487254495628909,DLL
13.0333333333333,-3.05531430244446,-4.74626445770264,8.65931606292725,-1.15092194080353,-0.609759986400604,0.358233988285065,-667.5,223.500015258789,-930.900024414062,0.781680053706197,-0.300418011278224,0.502857646308848,DLL
13.0666666666667,-3.67199969291687,-3.80897450447083,8.02887344360352,0.907018005847931,-0.411587983369827,1.89787793159485,-679.5,224.100006103516,-926.100036621094,0.752455678427582,-0.390948548033604,0.441220510017199,DLL
13.1,-3.72224378585815,-2.81844973564148,8.72630786895752,2.14940404891968,0.724089980125427,1.6615959405899,-669.900024414062,215.700012207031,-933.300048828125,0.69986129872726,-0.387770233731627,0.309471234496832,DLL
13.1333333333333,-3.08342695236206,-2.75803732872009,7.96726417541504,1.45580196380615,-0.853663980960846,1.07470202445984,-672.300048828125,222.900009155273,-935.700012207031,0.703107786265044,-0.350500379448221,0.329523643494268,DLL
13.1666666666667,-3.63012957572937,-2.4236752986908,7.81653213500977,1.11281192302704,-0.0304879993200302,1.01372599601746,-660.300048828125,221.100006103516,-930.900024414062,0.688820596174856,-0.416747828050708,0.298566171523822,DLL
13.2,-3.83529281616211,-2.2412416934967,8.54746341705322,1.62348592281342,0.800309956073761,1.28811800479889,-684.300048828125,216.900009155273,-933.300048828125,0.66894371921777,-0.411504813727511,0.253524646209524,DLL
13.2333333333333,-3.2808141708374,-2.26337289810181,8.22386741638184,2.75154185295105,1.41006994247437,1.06708002090454,-665.100036621094,216.300003051758,-933.300048828125,0.67496281434805,-0.370813959517909,0.263151492863872,DLL
13.2666666666667,-3.86519980430603,-2.73590588569641,8.14431476593018,2.67532205581665,1.19665396213531,-1.90549993515015,-667.5,211.500015258789,-940.500061035156,0.714564495832295,-0.422754779843546,0.320025191937302,DLL
13.3,-5.11412239074707,-1.95652568340302,7.94692754745483,2.31708788871765,1.41006994247437,-1.93598794937134,-662.700012207031,217.500015258789,-945.300048828125,0.696124401161373,-0.55823040394338,0.240899262939127,DLL
13.3333333333333,-3.59842801094055,-2.65695118904114,7.76449394226074,2.46952795982361,1.10518991947174,-1.18140995502472,-667.5,216.900009155273,-945.300048828125,0.751011617437841,-0.416099169721401,0.325638041016688,DLL
13.3666666666667,-3.51229548454285,-3.01523876190186,7.5431809425354,1.65397393703461,-0.640248000621796,-3.21648383140564,-677.100036621094,217.500015258789,-945.300048828125,0.790555012295891,-0.405207031170851,0.378470152389576,DLL
13.4,-3.98303413391113,-3.26705694198608,7.5970139503479,0.152439996600151,-1.47104597091675,-3.33843588829041,-669.900024414062,219.300003051758,-945.300048828125,0.81592276019491,-0.44348312800753,0.40737199879345,DLL
13.4333333333333,-3.37532067298889,-4.00875425338745,7.43013191223145,-1.21951997280121,-1.61586391925812,-2.24848985671997,-684.300048828125,219.300003051758,-940.500061035156,0.855359521576998,-0.377254200431774,0.496129042169247,DLL
13.4666666666667,-3.1887001991272,-4.60629892349243,7.91881465911865,-0.967993974685669,-0.274392008781433,-1.71494996547699,-679.5,218.700012207031,-950.100036621094,0.87214345688156,-0.333845681245724,0.528758096245123,DLL
13.5,-3.59065222740173,-4.37900447845459,8.04502296447754,-0.388722002506256,0.37347799539566,-1.14329993724823,-686.700012207031,224.100006103516,-950.100036621094,0.867922087092563,-0.372497484897105,0.500480114294565,DLL
13.5333333333333,-3.86340546607971,-4.0117449760437,8.00375080108643,0.533540010452271,1.14329993724823,-1.14329993724823,-684.300048828125,218.100006103516,-935.700012207031,0.863983950470931,-0.407620034935893,0.465511420875856,DLL
13.5666666666667,-4.23365592956543,-3.29516959190369,7.29794216156006,1.6615959405899,1.44055795669556,-0.640248000621796,-689.100036621094,216.900009155273,-938.100036621094,0.856566257083414,-0.487105464489009,0.422896312140339,DLL
13.6,-4.07036304473877,-3.09419369697571,7.57129383087158,2.04269599914551,0.853663980960846,0.266770005226135,-672.300048828125,219.900009155273,-945.300048828125,0.845053199528151,-0.463758991716295,0.385156791438292,DLL
13.6333333333333,-3.78923583030701,-3.65584993362427,7.70826864242554,-0.0838419944047928,-1.13567793369293,-2.02745199203491,-684.300048828125,218.700012207031,-945.300048828125,0.876665025230533,-0.415593750482198,0.442994445526178,DLL
13.6666666666667,-3.97944521903992,-4.00157642364502,7.04313325881958,-0.899396002292633,-0.411587983369827,-1.51677799224854,-691.5,212.700012207031,-957.300048828125,0.911888530137056,-0.454005440701286,0.517766576089434,DLL
13.7,-5.27143383026123,-3.65046644210815,8.17661476135254,-0.571649968624115,1.28049600124359,0.411587983369827,-681.900024414062,215.100006103516,-938.100036621094,0.865714621683093,-0.533497715550112,0.422213666346691,DLL
13.7333333333333,-4.13556051254272,-4.16187858581543,8.51157474517822,-0.0457319989800453,0.891773998737335,0.556405961513519,-681.900024414062,215.700012207031,-935.700012207031,0.879665817290358,-0.415581078398407,0.454215185034941,DLL
13.7666666666667,-4.19597291946411,-4.274329662323,8.2202787399292,0.739333987236023,-0.731711983680725,-0.0914639979600906,-665.100036621094,213.900009155273,-938.100036621094,0.889610143829781,-0.423885109689584,0.477570076603326,DLL
13.8,-3.25808477401733,-3.93458437919617,7.93556261062622,0.480185985565186,-2.85062789916992,-0.167683988809586,-691.5,222.900009155273,-942.900024414062,0.877106504960035,-0.348761674033678,0.458953243961934,DLL
13.8333333333333,-3.80000233650208,-3.53263235092163,8.39613246917725,1.02134799957275,-1.93598794937134,0.922261953353882,-691.5,214.500015258789,-940.500061035156,0.847459000094693,-0.392148680023718,0.396196641216758,DLL
13.8666666666667,-3.12110996246338,-4.02011871337891,8.69281196594238,1.50153398513794,-0.274392008781433,0.693601965904236,-674.700012207031,217.500015258789,-933.300048828125,0.857765378552717,-0.315862809315002,0.429799570084851,DLL
13.9,-3.88015341758728,-3.20245742797852,7.66759490966797,0.884151995182037,-0.503051996231079,0.358233988285065,-686.700012207031,219.900009155273,-945.300048828125,0.84388877362474,-0.434403360361815,0.39426687976125,DLL
13.9333333333333,-3.73480463027954,-3.40582609176636,7.72860527038574,1.14329993724823,1.17378795146942,0.952749967575073,-705.900024414062,213.300003051758,-942.900024414062,0.852063552275983,-0.419081530709229,0.41255777736068,DLL
13.9666666666667,-4.02610015869141,-2.72813010215759,7.56830310821533,1.82165801525116,0.701223969459534,1.09756803512573,-701.100036621094,219.300003051758,-940.500061035156,0.823001936422834,-0.464971924374954,0.343404149219256,DLL
14.0,-3.8358907699585,-3.16357827186584,8.05878067016602,1.61586391925812,1.20427596569061,1.08994603157043,-691.5,215.100006103516,-938.100036621094,0.83535210908655,-0.42055614875396,0.370322239792393,DLL
14.0333333333333,-4.55485868453979,-3.19049453735352,8.03126525878906,0.830797970294952,-0.426831990480423,-0.754577994346619,-689.100036621094,219.300003051758,-940.500061035156,0.843738297269956,-0.483161590305885,0.377101548429963,DLL
14.0666666666667,-4.47052049636841,-3.64627957344055,8.21728801727295,-0.67835795879364,-0.556405961513519,-0.487807989120483,-703.5,215.100006103516,-940.500061035156,0.861919930311469,-0.460504785171593,0.418525787945986,DLL
14.1,-3.94834184646606,-3.30354356765747,8.25796222686768,-0.815553963184357,-1.76068198680878,0.914639949798584,-691.5,219.900009155273,-938.100036621094,0.835619146726979,-0.416141391846695,0.381295385318646,DLL
14.1333333333333,-2.37761831283569,-3.70370125770569,7.49592781066895,-0.282013982534409,-1.62348592281342,1.14329993724823,-693.900024414062,215.700012207031,-942.900024414062,0.851034665983759,-0.277301734113273,0.457521422495052,DLL
14.1666666666667,-2.34113168716431,-3.6074001789093,7.69929647445679,-0.426831990480423,-1.53202199935913,-0.221037998795509,-698.700012207031,221.700012207031,-945.300048828125,0.842761042619582,-0.266280987575434,0.438985494325955,DLL
14.2,-3.84426498413086,-2.972172498703,8.06476211547852,0.0228659994900227,-0.152439996600151,0.434453994035721,-691.5,208.500015258789,-923.700012207031,0.811808254507388,-0.417800696313922,0.354376884463941,DLL
14.2333333333333,-3.31969356536865,-3.70489764213562,8.55822944641113,0.175305992364883,0.548784017562866,0.92988395690918,-686.700012207031,220.500015258789,-945.300048828125,0.828228504413524,-0.3448695006286,0.406889747397742,DLL
14.2666666666667,-3.82093739509583,-3.46982741355896,8.57916450500488,-0.152439996600151,0.152439996600151,1.34147191047668,-686.700012207031,214.500015258789,-945.300048828125,0.813392068052958,-0.3918200553832,0.384181198249416,DLL
14.3,-4.32098484039307,-3.17255020141602,9.01281833648682,-0.259148001670837,-0.144817993044853,0.990859985351562,-701.100036621094,217.500015258789,-940.500061035156,0.789447201420938,-0.42453128067421,0.338871260746437,DLL
14.3333333333333,-3.76770257949829,-3.09000658988953,8.40151596069336,0.3125019967556,-0.198172003030777,0.754577994346619,-679.5,218.100006103516,-938.100036621094,0.790848864260961,-0.398921068041663,0.351124840036037,DLL
14.3666666666667,-2.94346165657043,-3.40104103088379,7.9194130897522,-0.724089980125427,-1.05183601379395,-0.0609759986400604,-681.900024414062,218.100006103516,-935.700012207031,0.806987149238907,-0.328680479664404,0.405695868264941,DLL
14.4,-3.43154621124268,-2.83699202537537,7.70467948913574,-0.259148001670837,-0.556405961513519,0.342989981174469,-693.900024414062,221.100006103516,-942.900024414062,0.785303263998363,-0.393982158689596,0.353881532026117,DLL
14.4333333333333,-2.93389129638672,-3.06907153129578,8.26454162597656,0.449698001146317,0.891773998737335,0.0914639979600906,-691.5,212.700012207031,-938.100036621094,0.787823913558298,-0.323894169076766,0.354903458753322,DLL
14.4666666666667,-4.10505533218384,-2.87886214256287,8.67546558380127,0.152439996600151,0.37347799539566,-1.2500079870224,-689.100036621094,213.900009155273,-935.700012207031,0.783048635114193,-0.420238117273405,0.321784361336844,DLL
14.5,-4.07514810562134,-3.00088334083557,8.27889728546143,0.92988395690918,0.472563982009888,-0.350611984729767,-689.100036621094,221.100006103516,-926.100036621094,0.798229651284155,-0.43380897853674,0.346180554611897,DLL
14.5333333333333,-3.46145343780518,-3.28141236305237,8.49901390075684,1.04421401023865,-0.190549999475479,-1.62348592281342,-691.5,216.900009155273,-940.500061035156,0.816408710668526,-0.363087530961163,0.367231163562218,DLL
14.5666666666667,-3.67977547645569,-3.06069755554199,8.18558692932129,1.2423859834671,-0.419209986925125,-1.44817996025085,-691.5,214.500015258789,-940.500061035156,0.821657058578049,-0.396350086995815,0.356724072451593,DLL
14.6,-3.57868933677673,-3.45666813850403,8.49303245544434,0.769822001457214,0.0228659994900227,-1.88263392448425,-698.700012207031,215.100006103516,-942.900024414062,0.844675652600106,-0.371199315729114,0.386038580258859,DLL
14.6333333333333,-3.55057668685913,-3.50870656967163,8.03066730499268,0.3125019967556,-0.266770005226135,-1.08994603157043,-693.900024414062,215.700012207031,-930.900024414062,0.859907782268127,-0.383580553591259,0.411647649805733,DLL
14.6666666666667,-3.46623849868774,-3.47162175178528,8.17302513122559,-0.259148001670837,-0.198172003030777,-0.46494197845459,-708.300048828125,213.900009155273,-945.300048828125,0.857903573294988,-0.371714462800519,0.402508047092251,DLL
14.7,-3.21800923347473,-3.6253445148468,7.75312900543213,0.685979962348938,0.952749967575073,0.0685980021953583,-701.100036621094,217.500015258789,-954.900024414062,0.873024841128105,-0.3613905897915,0.435803235053693,DLL
14.7333333333333,-4.07215738296509,-3.27303838729858,8.06296730041504,0.137196004390717,0.967993974685669,-0.411587983369827,-696.300048828125,219.300003051758,-928.500061035156,0.858288567510392,-0.437571179090575,0.386914842893508,DLL
14.7666666666667,-3.76291751861572,-3.84306859970093,7.7878212928772,-0.0990860015153885,0.891773998737335,0.0990860015153885,-691.5,215.100006103516,-945.300048828125,0.888625800667733,-0.410866395007212,0.4575178647644,DLL
14.8,-4.03028726577759,-3.73659920692444,8.06775283813477,-1.16616594791412,-0.137196004390717,0.411587983369827,-701.100036621094,218.700012207031,-935.700012207031,0.874806906800954,-0.425413166841925,0.435838406915754,DLL
14.8333333333333,-3.66063499450684,-3.53502488136292,7.84464502334595,-1.39482593536377,-0.602137982845306,1.69970595836639,-703.5,219.300003051758,-935.700012207031,0.857622903087852,-0.40292747190948,0.424673252553444,DLL
14.8666666666667,-3.79222655296326,-3.33345079421997,8.49004173278809,-0.602137982845306,-0.190549999475479,2.38568592071533,-684.300048828125,221.700012207031,-938.100036621094,0.824632512189764,-0.39539870791117,0.374443973108077,DLL
14.9,-2.90398406982422,-3.49494934082031,8.11022090911865,-0.198172003030777,-0.78506600856781,0.853663980960846,-684.300048828125,225.300003051758,-933.300048828125,0.829371438060321,-0.318452558418311,0.406020264306441,DLL
14.9333333333333,-2.96140575408936,-3.66302752494812,7.82430839538574,-0.480185985565186,-0.800309956073761,0.579271972179413,-686.700012207031,215.700012207031,-935.700012207031,0.833843582902762,-0.329194546761868,0.43758747038898,DLL
14.9666666666667,-3.33345079421997,-3.70489764213562,7.9014687538147,-0.0762199983000755,0.228659987449646,0.891773998737335,-696.300048828125,222.300003051758,-933.300048828125,0.829669064474889,-0.365467862214117,0.438103466117658,DLL
15.0,-4.33773279190063,-3.74916005134583,7.91642236709595,-0.602137982845306,0.571649968624115,0.716467976570129,-684.300048828125,216.300003051758,-938.100036621094,0.827956696364775,-0.459740476660427,0.442927082500188,DLL
15.0333333333333,-4.09428882598877,-4.04344654083252,8.73468208312988,-0.846041977405548,0.693601965904236,1.52439999580383,-691.5,223.500015258789,-928.500061035156,0.816658976832279,-0.405412258877265,0.434349229032758,DLL
15.0666666666667,-4.02310943603516,-3.75633788108826,8.24599933624268,-0.358233988285065,-0.914639949798584,1.00610399246216,-689.100036621094,222.900009155273,-940.500061035156,0.805901067038743,-0.416936579064044,0.427187557630437,DLL
15.1,-3.84725570678711,-3.72104740142822,8.10184669494629,0.449698001146317,-0.411587983369827,1.29574000835419,-679.5,225.900009155273,-942.900024414062,0.800418952895693,-0.407839890572775,0.428715936104695,DLL
15.1333333333333,-3.01105165481567,-3.6833643913269,7.90685176849365,1.02897000312805,-0.365855991840363,1.18903195858002,-684.300048828125,224.100006103516,-933.300048828125,0.797501890377903,-0.334051497332149,0.433320326675692,DLL
15.1666666666667,-3.88075160980225,-2.92671346664429,7.71783876419067,1.6692179441452,0.0762199983000755,1.6615959405899,-681.900024414062,221.700012207031,-923.700012207031,0.765511774587714,-0.438718303471836,0.359732673070743,DLL
15.2,-3.71865487098694,-3.25987911224365,7.99118995666504,1.47866797447205,0.663114011287689,1.2423859834671,-677.100036621094,213.900009155273,-940.500061035156,0.774000209436055,-0.409270038313342,0.383627361354581,DLL
15.2333333333333,-4.40412664413452,-3.43453693389893,7.98939561843872,0.37347799539566,-0.0381099991500378,0.419209986925125,-677.100036621094,219.300003051758,-933.300048828125,0.781737190757657,-0.468419075120354,0.40477985266506,DLL
15.2666666666667,-4.6170654296875,-3.48777174949646,8.38476848602295,-0.0,-0.533540010452271,0.564027965068817,-684.300048828125,221.100006103516,-940.500061035156,0.773020180335217,-0.469851666350961,0.393754930148171,DLL
15.3,-3.90228486061096,-3.71985125541687,7.97204971313477,0.137196004390717,-0.381099998950958,0.83841997385025,-681.900024414062,217.500015258789,-940.500061035156,0.786211458689154,-0.418475896369611,0.434877787759916,DLL
15.3333333333333,-3.43633127212524,-3.44530344009399,7.66879081726074,0.762199997901917,-0.617381989955902,0.495429992675781,-681.900024414062,217.500015258789,-942.900024414062,0.778585186544526,-0.387953682302875,0.420666600369868,DLL
15.3666666666667,-3.69652366638184,-3.32567501068115,7.78124189376831,1.37958192825317,-0.396344006061554,0.6250039935112,-672.300048828125,222.300003051758,-930.900024414062,0.770226538005288,-0.411321527809592,0.401202838438942,DLL
15.4,-3.49076247215271,-3.49255681037903,7.60957479476929,1.21189796924591,-1.07470202445984,-0.175305992364883,-679.5,210.900009155273,-940.500061035156,0.781747130595588,-0.393506665738983,0.427478830484358,DLL
15.4333333333333,-3.19587779045105,-3.7192530632019,7.86318731307983,0.533540010452271,-1.11281192302704,-0.754577994346619,-696.300048828125,223.500015258789,-947.700012207031,0.788816451971562,-0.350578917807433,0.440771412576779,DLL
15.4666666666667,-3.86699438095093,-3.31789898872375,8.55165004730225,0.457319974899292,-1.38720393180847,-0.358233988285065,-684.300048828125,223.500015258789,-945.300048828125,0.762915996850282,-0.395965136805158,0.370023035743765,DLL
15.5,-3.59783005714417,-3.53502488136292,8.29086017608643,0.266770005226135,-0.967993974685669,-0.617381989955902,-674.700012207031,218.100006103516,-933.300048828125,0.776664945592899,-0.378159257639441,0.402109108037292,DLL
15.5333333333333,-3.06608080863953,-3.66063499450684,8.15149211883545,0.495429992675781,-0.335367977619171,-0.480185985565186,-684.300048828125,218.700012207031,-938.100036621094,0.785850736500982,-0.330548153909888,0.421056907144384,DLL
15.5666666666667,-2.5235652923584,-3.81794667243958,8.62103462219238,1.56251001358032,0.0457319989800453,-2.4847719669342,-703.5,213.900009155273,-930.900024414062,0.80027289581712,-0.260794281306054,0.415336461290935,DLL
15.6,-2.8483567237854,-3.89091992378235,8.44996547698975,2.30946588516235,0.868907988071442,-3.94819593429565,-701.100036621094,219.900009155273,-933.300048828125,0.82970010102228,-0.295001023578561,0.429306737547834,DLL
15.6333333333333,-3.39685392379761,-3.32746934890747,8.85730075836182,3.7881338596344,1.61586391925812,-5.27442407608032,-698.700012207031,218.700012207031,-933.300048828125,0.8441774607621,-0.343173524649083,0.357506447023744,DLL
15.6666666666667,-3.45726633071899,-3.17853164672852,8.0653600692749,5.47259569168091,1.21951997280121,-6.34912586212158,-710.700012207031,203.100006103516,-940.500061035156,0.894067698200353,-0.376836927379518,0.369977558947084,DLL
15.7,-3.98243594169617,-2.95542430877686,7.74236249923706,4.65704202651978,1.70732796192169,-5.68601179122925,-717.900024414062,209.700012207031,-947.700012207031,0.932831413442972,-0.445946461250488,0.361562795465796,DLL
15.7333333333333,-4.38618230819702,-2.5337336063385,7.74056816101074,2.37806391716003,0.975615978240967,-3.33843588829041,-715.5,214.500015258789,-935.700012207031,0.936411860211851,-0.492917426527735,0.316287478458604,DLL
15.7666666666667,-3.76112294197083,-2.90338587760925,8.33093547821045,0.0228659994900227,0.777444005012512,-0.899396002292633,-715.5,218.700012207031,-947.700012207031,0.950734783147005,-0.405378231189682,0.335792790760993,DLL
15.8,-3.68157005310059,-3.16656899452209,8.656325340271,0.129574000835419,0.685979962348938,0.0076219998300075,-715.5,212.100006103516,-935.700012207031,0.957975978903233,-0.38141433038237,0.350454263664729,DLL
15.8333333333333,-3.47521066665649,-2.64439010620117,8.56122016906738,2.53050398826599,0.853663980960846,-0.495429992675781,-717.900024414062,209.700012207031,-950.100036621094,0.947920732041573,-0.371296516766377,0.296394975374072,DLL
15.8666666666667,-2.88723611831665,-3.15580224990845,9.16175556182861,2.83538389205933,1.00610399246216,-1.46342396736145,-732.300048828125,213.300003051758,-940.500061035156,0.972772732477725,-0.291708549528783,0.327215949954599,DLL
15.9,-3.16058754920959,-2.62225890159607,8.63419342041016,4.13874578475952,0.609759986400604,-3.81862187385559,-720.300048828125,210.900009155273,-945.300048828125,0.992473543755628,-0.335494628811619,0.290380301933655,DLL
15.9333333333333,-2.8082811832428,-2.89561009407043,8.59471607208252,4.96192169189453,1.92836594581604,-4.6341757774353,-722.700012207031,213.300003051758,-952.500061035156,1.03742957212017,-0.301600659903494,0.318528350620323,DLL
15.9666666666667,-2.83519768714905,-2.88005828857422,8.78073883056641,5.32015609741211,1.71494996547699,-6.66925001144409,-734.700012207031,206.700012207031,-947.700012207031,1.08497063686302,-0.297030479981326,0.311427462615474,DLL
16.0,-2.54749083518982,-3.42257404327393,9.1749153137207,5.31253385543823,1.44817996025085,-7.21803379058838,-720.300048828125,204.300003051758,-959.700012207031,1.14402838185672,-0.253410299045013,0.350386634403515,DLL
16.0333333333333,-3.81196522712708,-2.59833312034607,8.57019233703613,6.38723564147949,2.08842802047729,-8.52139568328857,-729.900024414062,202.500015258789,-954.900024414062,1.190299632799,-0.399896356695243,0.290301662062219,DLL
16.0666666666667,-3.07864189147949,-3.13187670707703,8.22386741638184,6.28052806854248,1.63110792636871,-8.02596569061279,-729.900024414062,199.500015258789,-952.500061035156,1.27043139851533,-0.335598807246562,0.356695793119473,DLL
16.1,-3.84426498413086,-2.93867635726929,8.584547996521,5.70125579833984,1.02897000312805,-8.44517612457275,-725.100036621094,200.100006103516,-954.900024414062,1.3162007262294,-0.396552697997886,0.326456088748378,DLL
16.1333333333333,-3.13606357574463,-3.44949054718018,8.76578521728516,5.36588764190674,0.632625997066498,-7.28663206100464,-715.5,194.100006103516,-957.300048828125,1.37958146051566,-0.31930327451911,0.368897312102456,DLL
16.1666666666667,-3.68695330619812,-2.8962082862854,8.27949523925781,5.35826587677002,0.762199997901917,-7.03510570526123,-729.900024414062,193.500015258789,-969.300048828125,1.41508779677798,-0.393741917015428,0.332763577518261,DLL
16.2,-3.95252871513367,-2.55706119537354,8.0952672958374,5.4878396987915,1.6768399477005,-6.22717380523682,-729.900024414062,191.100006103516,-962.100036621094,1.44953506362876,-0.434508174786716,0.302134333316733,DLL
16.2333333333333,-4.0356707572937,-2.30943012237549,8.28308391571045,5.92991590499878,2.33995389938354,-5.19820404052734,-734.700012207031,183.900009155273,-952.500061035156,1.47847040700163,-0.440221209359769,0.266845922765383,DLL
16.2666666666667,-3.6714015007019,-2.41231060028076,8.60787582397461,5.25918006896973,1.18140995502472,-5.15247201919556,-725.100036621094,186.900009155273,-957.300048828125,1.518727930563,-0.390233456041368,0.267873639288632,DLL
16.3,-3.75932860374451,-2.11024832725525,8.88122653961182,4.09301376342773,-0.457319974899292,-4.80185985565186,-715.5,191.100006103516,-954.900024414062,1.53758762018609,-0.387992531913468,0.230099840046384,DLL
16.3333333333333,-3.02720165252686,-2.16408133506775,8.67247486114502,3.7805118560791,-1.08994603157043,-4.2149658203125,-746.700012207031,176.700012207031,-945.300048828125,1.56917541783282,-0.324148662668994,0.240044447666618,DLL
16.3666666666667,-3.48836970329285,-1.87039303779602,9.12526893615723,3.62807202339172,-0.975615978240967,-3.96343994140625,-737.100036621094,188.700012207031,-966.900024414062,1.58404883149323,-0.35485575081942,0.198777369107577,DLL
16.4,-3.09778237342834,-1.58149003982544,9.353759765625,3.63569402694702,-1.12043392658234,-3.17075204849243,-734.700012207031,187.5,-947.700012207031,1.59645856967366,-0.313360174749621,0.163302758885834,DLL
16.4333333333333,-2.83759021759033,-1.39965450763702,9.02717399597168,3.803377866745,-0.830797970294952,-1.76068198680878,-734.700012207031,187.5,-950.100036621094,1.60826566150009,-0.299480243577762,0.148263702196917,DLL
16.4666666666667,-2.03129363059998,-1.54679775238037,8.39134788513184,4.12350177764893,-0.46494197845459,-1.51677799224854,-737.100036621094,180.900009155273,-952.500061035156,1.62961763790681,-0.233515945845991,0.175268524258173,DLL
16.5,-2.74547624588013,-1.54919028282166,8.83038425445557,3.81099987030029,-0.243903994560242,-1.63110792636871,-732.300048828125,176.100006103516,-942.900024414062,1.64240117211095,-0.295127168637826,0.167966640245857,DLL
16.5333333333333,-3.76650619506836,-1.01504862308502,8.91831207275391,4.17685604095459,-1.20427596569061,-1.70732796192169,-749.100036621094,179.100006103516,-947.700012207031,1.63913254413558,-0.393068545264894,0.10828194113929,DLL
16.5666666666667,-3.85562968254089,-0.982150733470917,9.24729061126709,3.45276594161987,-2.14940404891968,-0.92988395690918,-753.900024414062,174.300003051758,-940.500061035156,1.64846648690455,-0.389195578776523,0.10037909101571,DLL
16.6,-2.62883830070496,-1.0634982585907,8.63718414306641,2.52288198471069,-2.70580983161926,-0.503051996231079,-751.5,166.5,-957.300048828125,1.65993395814883,-0.290413974275601,0.11789541714506,DLL
16.6333333333333,-3.38369488716125,-0.903794050216675,8.76638317108154,0.830797970294952,-1.60824191570282,0.175305992364883,-751.5,173.100006103516,-954.900024414062,1.65436907769213,-0.362493497819091,0.10137416679287,DLL
16.6666666666667,-2.42606782913208,-1.3458217382431,9.30531024932861,-0.0,-1.53202199935913,0.586893975734711,-744.300048828125,168.900009155273,-957.300048828125,1.66229515258047,-0.251541033723103,0.142719740183164,DLL
16.7,-0.807493031024933,-1.24294114112854,9.11031532287598,-0.282013982534409,-2.82013988494873,0.571649968624115,-758.700012207031,173.100006103516,-947.700012207031,1.65551468005691,-0.0859397759509627,0.136045455834218,DLL
16.7333333333333,-2.30464482307434,-1.05093717575073,8.47448921203613,-0.152439996600151,-0.937505960464478,0.990859985351562,-768.300048828125,167.700012207031,-952.500061035156,1.64632911474618,-0.260152554127708,0.12330953190948,DLL
16.7666666666667,-1.75076448917389,-1.3278774023056,11.0536823272705,-0.457319974899292,-0.434453994035721,0.762199997901917,-761.100036621094,177.300003051758,-942.900024414062,1.64015745692299,-0.15659463124182,0.120159486110838,DLL
16.8,-2.92850804328918,-0.418101936578751,7.77406406402588,1.08232402801514,-0.564027965068817,1.29574000835419,-773.100036621094,174.900009155273,-959.700012207031,1.61716197313955,-0.355742825112492,0.0521571679405664,DLL
16.8333333333333,-3.21202778816223,-0.56464695930481,10.2671241760254,-0.602137982845306,2.38568592071533,2.24848985671997,-770.700012207031,185.100006103516,-950.100036621094,1.6045848514293,-0.307794553881981,0.0547723689208833,DLL
16.8666666666667,-2.52894854545593,-0.469542235136032,8.46432113647461,0.304879993200302,0.0533539988100529,1.2500079870224,-751.5,175.5,-945.300048828125,1.59788432506418,-0.290401997245438,0.0542411023498894,DLL
16.9,-2.2310733795166,-0.696238398551941,9.41477012634277,-0.640248000621796,1.17378795146942,0.899396002292633,-763.5,179.700012207031,-933.300048828125,1.59760647535565,-0.235254141271611,0.0742235193498617,DLL
16.9333333333333,-3.56553030014038,-0.536534249782562,9.02059459686279,-0.518296003341675,0.25152599811554,0.716467976570129,-753.900024414062,176.100006103516,-938.100036621094,1.58859958351713,-0.373747984346347,0.0601205157828634,DLL
16.9666666666667,-2.40154409408569,-0.823044717311859,9.13842868804932,-0.564027965068817,0.922261953353882,1.62348592281342,-746.700012207031,171.900009155273,-942.900024414062,1.58834476609311,-0.259960056616804,0.0895419469071224,DLL
17.0,-2.85374021530151,-0.943869590759277,9.5385856628418,-0.602137982845306,0.342989981174469,1.44817996025085,-749.100036621094,185.700012207031,-947.700012207031,1.58131620858223,-0.289863377344985,0.0988445066607747,DLL
17.0333333333333,-2.03906941413879,-1.21602463722229,8.88003063201904,-0.655492007732391,0.739333987236023,1.48628997802734,-749.100036621094,179.700012207031,-947.700012207031,1.58169179162191,-0.226190345037391,0.136175394680851,ST
17.0666666666667,-3.70370125770569,-0.861325860023499,9.01102352142334,-0.442075997591019,2.59910202026367,1.43293595314026,-739.5,185.100006103516,-935.700012207031,1.56163700034495,-0.3912014414268,0.0957380038782259,ST
17.1,-3.31849718093872,-1.19329524040222,8.93087291717529,-0.175305992364883,2.83538389205933,0.937505960464478,-737.100036621094,180.900009155273,-954.900024414062,1.57130093414277,-0.358456108231955,0.132277534182756,ST
17.1333333333333,-3.15221357345581,-1.20465993881226,8.79569244384766,-0.198172003030777,2.65245604515076,0.564027965068817,-737.100036621094,180.900009155273,-942.900024414062,1.57119364814336,-0.34613051348114,0.136260028372985,ST
17.1666666666667,-2.4655454158783,-1.23456704616547,9.16055965423584,0.236281991004944,0.830797970294952,0.350611984729767,-725.100036621094,180.300003051758,-950.100036621094,1.56935649458428,-0.263154049936689,0.133468657059939,ST
17.2,-2.515789270401,-0.960019469261169,8.90216159820557,-0.0457319989800453,0.0304879993200302,-0.160062000155449,-732.300048828125,182.700012207031,-947.700012207031,1.56344713646233,-0.273740461852087,0.108058400633704,ST
17.2333333333333,-1.62276184558868,-1.28122222423553,9.77305793762207,-0.754577994346619,-1.04421401023865,0.449698001146317,-722.700012207031,182.100006103516,-947.700012207031,1.5643538561738,-0.163515545979232,0.131075153158079,ST
17.2666666666667,-2.48408770561218,-1.11194777488708,7.87515020370483,-0.731711983680725,-0.701223969459534,0.510673999786377,-741.900024414062,177.900009155273,-940.500061035156,1.56194787789268,-0.299781944224973,0.141088197826602,ST
17.3,-3.41898512840271,-1.86441159248352,10.1600561141968,-1.45580196380615,1.27287399768829,0.586893975734711,-722.700012207031,175.5,-962.100036621094,1.5699857850392,-0.321709595974323,0.183245057437946,ST
17.3333333333333,-3.46623849868774,-1.32129776477814,9.58344650268555,-0.190549999475479,0.495429992675781,0.952749967575073,-715.5,179.700012207031,-942.900024414062,1.54998294558519,-0.344719810428149,0.137647977777165,ST
17.3666666666667,-3.95671582221985,-1.14484560489655,9.06007194519043,0.685979962348938,2.21800184249878,1.95123195648193,-727.5,177.900009155273,-940.500061035156,1.5374759115668,-0.411875691275173,0.123512710226199,ST
17.4,-2.79871106147766,-1.39845824241638,9.56430625915527,0.975615978240967,1.63110792636871,0.807931959629059,-710.700012207031,179.100006103516,-940.500061035156,1.54269162523709,-0.286566496976478,0.142936299120931,ST
17.4333333333333,-2.62405323982239,-1.43673944473267,9.76647853851318,0.907018005847931,0.213415995240211,0.0076219998300075,-727.5,173.700012207031,-930.900024414062,1.544615995254,-0.26066240527366,0.144462318239864,ST
17.4666666666667,-3.75274896621704,-1.10716259479523,7.28119421005249,0.884151995182037,1.47104597091675,0.121951997280121,-717.900024414062,176.700012207031,-952.500061035156,1.54924107993851,-0.471342168429512,0.149365385478738,ST
17.5,-3.05351996421814,-1.2698575258255,9.23293495178223,-0.190549999475479,2.4847719669342,-0.548784017562866,-717.900024414062,174.900009155273,-942.900024414062,1.54917715634307,-0.323528078679761,0.13773600381603,ST
17.5333333333333,-3.00507020950317,-1.05811488628387,7.92599248886108,0.594515979290009,0.480185985565186,-0.167683988809586,-710.700012207031,176.700012207031,-935.700012207031,1.54972130172401,-0.359693610484571,0.131919730022662,ST
17.5666666666667,-4.06318521499634,-1.52586269378662,8.45056343078613,0.282013982534409,2.9344699382782,-0.259148001670837,-717.900024414062,185.100006103516,-935.700012207031,1.57287619826068,-0.445910264412206,0.178220487019162,ST
17.6,-4.08830738067627,-1.86560797691345,8.98649978637695,-0.403965979814529,0.87652999162674,-0.632625997066498,-703.5,182.700012207031,-938.100036621094,1.58789532909151,-0.420626853549315,0.205705441835253,ST
17.6333333333333,-4.01294136047363,-1.8566358089447,9.31667518615723,-0.533540010452271,0.121951997280121,0.602137982845306,-689.100036621094,181.5,-933.300048828125,1.58035949178209,-0.400473481288278,0.197367707565649,ST
