seconds,sensor_accX_m_s_,sensor_accY_m_s_,sensor_accZ_m_s_,sensor_gyroX___s_,sensor_gyroY___s_,sensor_gyroZ___s_,sensor_magX__T_,sensor_magY__T_,sensor_magZ__T_,sensor_yaw___,sensor_pitch___,sensor_roll___,label5
0.0,-2.73231720924377,-1.61498606204987,9.25925350189209,0.746955990791321,0.78506600856781,0.274392008781433,-775.500061035156,192.300003051758,-990.900024414062,1.47699660184447,-0.284334842705517,0.171312119568916,ST
0.0333333333333333,-2.70659685134888,-1.6024249792099,9.1390266418457,0.807931959629059,0.617381989955902,0.327746003866196,-768.300048828125,192.900009155273,-993.300048828125,1.47739681037995,-0.284991558851042,0.172053070219797,ST
0.0666666666666667,-2.8663010597229,-1.52406823635101,9.02597713470459,0.746955990791321,0.411587983369827,0.182927995920181,-768.300048828125,191.100006103516,-995.700012207031,1.47680156962179,-0.304204858192484,0.1659152693867,ST
0.1,-3.02480912208557,-1.45229113101959,9.04810905456543,0.724089980125427,0.236281991004944,0.358233988285065,-761.100036621094,185.700012207031,-995.700012207031,1.4734602578903,-0.319317277574187,0.157707510512463,ST
0.133333333333333,-2.88245105743408,-1.45887064933777,8.77535533905029,0.762199997901917,0.0,0.282013982534409,-763.5,186.900009155273,-988.500061035156,1.47486579458955,-0.313431741317611,0.163249639633211,ST
0.166666666666667,-2.93508744239807,-1.40384149551392,9.01461315155029,0.564027965068817,0.304879993200302,0.137196004390717,-758.700012207031,187.5,-995.700012207031,1.47277810499021,-0.31182120943625,0.153461597860993,ST
0.2,-2.99250936508179,-1.4361412525177,9.14740085601807,0.579271972179413,0.0990860015153885,0.25152599811554,-756.300048828125,185.100006103516,-988.500061035156,1.47266920525867,-0.312826697078709,0.154585259684636,ST
0.233333333333333,-2.98951864242554,-1.38828980922699,9.01760387420654,0.487807989120483,-0.365855991840363,0.259148001670837,-763.5,189.900009155273,-993.300048828125,1.47023765309874,-0.316071372154099,0.151726252243635,ST
0.266666666666667,-2.93329310417175,-1.38111209869385,8.97932243347168,0.411587983369827,-0.510673999786377,0.266770005226135,-758.700012207031,180.300003051758,-995.700012207031,1.46817860561056,-0.311501597013898,0.151704134374264,ST
0.3,-2.98772406578064,-1.34283101558685,9.04990291595459,0.274392008781433,-0.571649968624115,0.243903994560242,-761.100036621094,182.100006103516,-993.300048828125,1.46429248912499,-0.314718197617096,0.146646016880982,ST
0.333333333333333,-2.86988997459412,-1.42358028888702,9.0672492980957,0.25152599811554,-0.884151995182037,0.320124000310898,-763.5,191.700012207031,-988.500061035156,1.46270229226534,-0.301614975109993,0.155043933579821,ST
0.366666666666667,-2.81366443634033,-1.44930040836334,8.85610485076904,0.282013982534409,-1.04421401023865,0.0381099991500378,-756.300048828125,191.100006103516,-988.500061035156,1.4634973345225,-0.302042184448524,0.161602760231129,ST
0.4,-2.86091780662537,-1.40144896507263,9.186279296875,0.335367977619171,-0.46494197845459,0.25152599811554,-770.700012207031,188.700012207031,-995.700012207031,1.45785803773699,-0.297927453883341,0.150638132980205,ST
0.433333333333333,-2.7382984161377,-1.42956173419952,9.24729061126709,0.457319974899292,-0.586893975734711,0.289635986089706,-770.700012207031,190.5,-993.300048828125,1.45589337616111,-0.283765822279732,0.152387817191122,ST
0.466666666666667,-2.73411154747009,-1.38171029090881,9.03494930267334,0.411587983369827,-0.663114011287689,0.0609759986400604,-763.5,185.700012207031,-986.100036621094,1.45508761621337,-0.289534500012978,0.150952546007254,ST
0.5,-2.71018576622009,-1.41759884357452,9.07801628112793,0.37347799539566,-0.304879993200302,0.121951997280121,-780.300048828125,190.5,-1002.90002441406,1.4554334872567,-0.28634420746039,0.15416597196166,ST
0.533333333333333,-2.71855974197388,-1.45109486579895,8.98649978637695,0.304879993200302,-0.266770005226135,0.152439996600151,-761.100036621094,180.300003051758,-1002.90002441406,1.45592373636325,-0.289795587661967,0.159456601870331,ST
0.566666666666667,-2.7963182926178,-1.47083353996277,9.01879978179932,0.221037998795509,-0.0457319989800453,0.0228659994900227,-770.700012207031,184.5,-990.900024414062,1.45681621702573,-0.296885263448185,0.161258973476648,ST
0.6,-2.80289793014526,-1.53902184963226,9.25745868682861,0.25152599811554,0.198172003030777,-0.0228659994900227,-777.900024414062,186.300003051758,-998.100036621094,1.45899923510569,-0.290577969610141,0.164327500659975,ST
0.633333333333333,-2.80110359191895,-1.57191967964172,9.1509895324707,0.342989981174469,0.0685980021953583,0.0381099991500378,-768.300048828125,192.300003051758,-983.700012207031,1.46125472056161,-0.293124734227994,0.169499554104097,ST
0.666666666666667,-2.80768299102783,-1.57849931716919,9.10672664642334,0.381099998950958,0.442075997591019,0.106707997620106,-756.300048828125,189.900009155273,-1002.90002441406,1.46252608785625,-0.295710331325096,0.170946091927787,ST
0.7,-2.85074949264526,-1.52287197113037,9.15637302398682,0.533540010452271,0.945127964019775,0.221037998795509,-753.900024414062,188.700012207031,-976.500061035156,1.46154219387806,-0.299666816554551,0.163846799661656,ST
0.733333333333333,-2.92970418930054,-1.53304040431976,9.09775447845459,0.632625997066498,1.29574000835419,0.175305992364883,-763.5,183.900009155273,-988.500061035156,1.46475385266223,-0.309755155409493,0.165858174758359,ST
0.766666666666667,-3.01523876190186,-1.46784281730652,9.05648231506348,0.609759986400604,1.40244793891907,0.304879993200302,-763.5,183.900009155273,-983.700012207031,1.46414163264898,-0.320026297559599,0.159572767605253,ST
0.8,-3.01105165481567,-1.43913197517395,8.95061111450195,0.602137982845306,1.37195992469788,0.411587983369827,-753.900024414062,185.100006103516,-983.700012207031,1.46384243531161,-0.3231537705243,0.15826102782298,ST
0.833333333333333,-3.18391513824463,-1.41939330101013,8.98709774017334,0.472563982009888,1.34909391403198,0.525918006896973,-746.700012207031,183.900009155273,-990.900024414062,1.46157239437952,-0.339076991257195,0.155629868940234,ST
0.866666666666667,-3.29816031455994,-1.41042113304138,8.91472244262695,0.442075997591019,1.21951997280121,0.609759986400604,-756.300048828125,185.100006103516,-971.700012207031,1.45898494727884,-0.352611368165375,0.155875907200069,ST
0.9,-3.32029151916504,-1.43315052986145,8.88182544708252,0.411587983369827,0.967993974685669,0.647870004177094,-744.300048828125,186.300003051758,-990.900024414062,1.45679667821098,-0.355394843004766,0.15894369031256,ST
0.933333333333333,-3.44590163230896,-1.39068245887756,8.80885124206543,0.396344006061554,0.449698001146317,0.602137982845306,-746.700012207031,186.900009155273,-978.900024414062,1.45154878671106,-0.369662939304346,0.155535270383656,ST
0.966666666666667,-3.41360187530518,-1.40563595294952,8.90275955200195,0.442075997591019,0.25152599811554,0.617381989955902,-739.5,194.700012207031,-988.500061035156,1.44761536857136,-0.362651664364178,0.155445585893973,ST
1.0,-3.50751042366028,-1.46066510677338,8.94881725311279,0.381099998950958,-0.160062000155449,0.472563982009888,-732.300048828125,186.900009155273,-976.500061035156,1.44619076132568,-0.368956215350691,0.160796316870955,ST
1.03333333333333,-3.48896789550781,-1.38589727878571,9.17371845245361,0.46494197845459,-0.358233988285065,0.525918006896973,-746.700012207031,193.500015258789,-986.100036621094,1.43804115909971,-0.359220457177306,0.14876023382635,ST
1.06666666666667,-3.08641767501831,-1.41879510879517,9.03853797912598,0.556405961513519,-0.396344006061554,0.830797970294952,-727.5,180.900009155273,-990.900024414062,1.43227201240437,-0.324902152359757,0.154210064830491,ST
1.1,-3.16656899452209,-1.3458217382431,8.77356147766113,0.403965979814529,0.259148001670837,0.762199997901917,-734.700012207031,184.5,-998.100036621094,1.4256552563121,-0.343308487430192,0.151060586940286,ST
1.13333333333333,-3.45666813850403,-1.29258692264557,8.86986255645752,0.388722002506256,0.891773998737335,0.868907988071442,-737.100036621094,188.100006103516,-995.700012207031,1.4167077137535,-0.369813768993733,0.143538048364153,ST
1.16666666666667,-3.57510042190552,-1.30096101760864,8.87225437164307,0.525918006896973,0.853663980960846,0.952749967575073,-732.300048828125,189.900009155273,-983.700012207031,1.41085464968669,-0.381083440177267,0.144104182831688,ST
1.2,-3.71626234054565,-1.21064138412476,8.83158111572266,0.724089980125427,0.442075997591019,0.655492007732391,-737.100036621094,184.5,-986.100036621094,1.40429932074588,-0.395896761472474,0.134542276309634,ST
1.23333333333333,-3.98662281036377,-0.91276615858078,9.40579795837402,0.6250039935112,0.37347799539566,0.6250039935112,-737.100036621094,182.100006103516,-986.100036621094,1.38600922061545,-0.399963138794588,0.0952459263040415,ST
1.26666666666667,-3.72104740142822,-1.01205790042877,9.32325458526611,0.891773998737335,-0.0228659994900227,0.335367977619171,-737.100036621094,183.900009155273,-990.900024414062,1.39044581428466,-0.377759083797025,0.106336866793856,ST
1.3,-3.61637234687805,-0.962412059307098,9.14560604095459,0.724089980125427,0.708845973014832,-0.0685980021953583,-729.900024414062,188.700012207031,-983.700012207031,1.39359518132521,-0.375894017708885,0.103682592219256,ST
1.33333333333333,-3.88673305511475,-0.82962429523468,8.18020343780518,-0.0609759986400604,2.0655620098114,0.0609759986400604,-725.100036621094,182.100006103516,-978.900024414062,1.39392798122141,-0.445161951030938,0.101302955311682,ST
1.36666666666667,-4.02909088134766,-1.06708705425262,7.99477910995483,-0.92988395690918,2.74391984939575,0.3125019967556,-734.700012207031,185.700012207031,-976.500061035156,1.40457102698582,-0.468078359602801,0.134334017428483,ST
1.4,-4.51597929000854,-1.12690138816833,8.42005825042725,-1.19665396213531,2.24086785316467,0.586893975734711,-722.700012207031,187.5,-990.900024414062,1.39642829074511,-0.492599566792017,0.134866688395382,ST
1.43333333333333,-4.75703096389771,-1.08802211284637,8.20532512664795,-0.884151995182037,1.73781597614288,0.716467976570129,-710.700012207031,189.300003051758,-983.700012207031,1.3866035428795,-0.524771254674457,0.13288858912271,ST
1.46666666666667,-4.95382022857666,-1.13348090648651,8.40091800689697,-0.487807989120483,1.58537602424622,1.05183601379395,-729.900024414062,186.300003051758,-978.900024414062,1.37723119711646,-0.531838036049731,0.134111381424967,ST
1.5,-4.92391300201416,-1.10297560691833,8.49063968658447,-0.228659987449646,1.21951997280121,0.861285984516144,-713.100036621094,189.300003051758,-988.500061035156,1.36716173129465,-0.524211890452755,0.128881036482755,ST
1.53333333333333,-5.09438371658325,-1.09340536594391,8.10603332519531,-0.442075997591019,1.40244793891907,0.304879993200302,-720.300048828125,188.100006103516,-983.700012207031,1.36675323959546,-0.559506547892196,0.134720496850165,ST
1.56666666666667,-5.4102029800415,-0.712388277053833,8.22805500030518,-0.457319974899292,1.38720393180847,0.129574000835419,-715.5,188.100006103516,-976.500061035156,1.33814818762324,-0.582364820201819,0.0871641822059001,ST
1.6,-5.19606781005859,-0.702219843864441,7.75073671340942,-0.434453994035721,1.15854394435883,-0.0609759986400604,-708.300048828125,188.700012207031,-974.100036621094,1.33936241324952,-0.590689325506845,0.0913023276331548,ST
1.63333333333333,-5.98621463775635,-0.395970642566681,7.42175817489624,-0.952749967575073,1.30336201190948,-0.274392008781433,-727.5,186.900009155273,-964.500061035156,1.31490468984447,-0.680223295145596,0.0554787271981635,ST
1.66666666666667,-5.51487827301025,-0.644199967384338,7.25188541412354,-1.21189796924591,1.20427596569061,-0.37347799539566,-717.900024414062,185.700012207031,-971.700012207031,1.3332825473786,-0.650336628080982,0.0913239992463409,ST
1.7,-5.51487827301025,-0.687266290187836,7.53361082077026,-1.08232402801514,0.922261953353882,-1.07470202445984,-708.300048828125,185.100006103516,-971.700012207031,1.33808722588089,-0.631373703730699,0.0943345289159377,ST
1.73333333333333,-5.55196285247803,-1.02641332149506,7.84823369979858,-0.571649968624115,-0.221037998795509,-1.65397393703461,-717.900024414062,186.300003051758,-969.300048828125,1.37082239935386,-0.610945784968369,0.132983918929507,ST
1.76666666666667,-5.41558647155762,-1.08981645107269,7.69152069091797,-0.327746003866196,-0.92988395690918,-1.90549993515015,-717.900024414062,187.5,-969.300048828125,1.39059232232643,-0.606722385601253,0.143448763327654,ST
1.8,-5.45326948165894,-0.892429292201996,7.55693817138672,-0.259148001670837,-0.899396002292633,-1.73781597614288,-703.5,190.5,-966.900024414062,1.38919419626583,-0.619879346272812,0.120037816921927,ST
1.83333333333333,-5.33423900604248,-1.03717994689941,7.56052732467651,-0.228659987449646,-0.266770005226135,-1.39482593536377,-701.100036621094,191.700012207031,-966.900024414062,1.41013126041742,-0.609258836034272,0.138360384635788,ST
1.86666666666667,-5.28160238265991,-1.26866126060486,7.69152069091797,-0.442075997591019,0.480185985565186,-1.70732796192169,-720.300048828125,189.300003051758,-969.300048828125,1.43848317141862,-0.595826947466654,0.166308220625843,ST
1.9,-5.13206672668457,-1.74777376651764,7.91462802886963,-0.457319974899292,0.579271972179413,-2.12653803825378,-715.5,192.300003051758,-971.700012207031,1.48638242315634,-0.564642621910014,0.220555286704923,ST
1.93333333333333,-5.151207447052,-2.48887300491333,7.66400575637817,-0.693601965904236,0.114329993724823,-2.67532205581665,-717.900024414062,195.300003051758,-957.300048828125,1.5574154526446,-0.567525967498067,0.318012518178873,ST
1.96666666666667,-5.72123765945435,-2.80768299102783,7.42355251312256,-0.914639949798584,0.129574000835419,-1.96647596359253,-720.300048828125,185.100006103516,-978.900024414062,1.59526001411014,-0.623548749421242,0.365525720415076,ST
2.0,-5.89888620376587,-3.00447225570679,7.28897047042847,-0.297257989645004,1.18140995502472,-1.84452390670776,-713.100036621094,185.700012207031,-964.500061035156,1.62983250968022,-0.643023482969565,0.394302365214736,ST
2.03333333333333,-5.75832223892212,-3.39147067070007,7.20343589782715,0.259148001670837,1.00610399246216,-0.853663980960846,-703.5,191.700012207031,-974.100036621094,1.66917148738867,-0.627115827560979,0.441059092935784,ST
2.06666666666667,-5.55734634399414,-3.6953272819519,8.57796859741211,0.25152599811554,-1.36433792114258,-0.556405961513519,-720.300048828125,186.900009155273,-969.300048828125,1.65124050085258,-0.534203927130444,0.406312247521696,ST
2.1,-4.50760555267334,-3.93338823318481,8.07074356079102,0.67835795879364,-2.86587190628052,-0.556405961513519,-713.100036621094,184.5,-959.700012207031,1.66931948385522,-0.460425721538724,0.451617315030301,ST
2.13333333333333,-4.78215312957764,-3.94654726982117,7.72441816329956,0.472563982009888,-2.28659987449646,-0.693601965904236,-725.100036621094,186.900009155273,-964.500061035156,1.67688370979208,-0.499711929641061,0.471101834137625,ST
2.16666666666667,-5.17094612121582,-3.83828353881836,7.8177285194397,0.274392008781433,-0.129574000835419,0.815553963184357,-737.100036621094,191.700012207031,-964.500061035156,1.66334115994356,-0.536197742202823,0.455113769950219,ST
2.2,-4.82282686233521,-2.92970418930054,7.31349420547485,0.78506600856781,1.30336201190948,2.14940404891968,-737.100036621094,183.900009155273,-962.100036621094,1.6136348128133,-0.552803298391215,0.378042292811197,ST
2.23333333333333,-5.36354780197144,-2.64618444442749,7.95530128479004,1.05945801734924,1.84452390670776,2.66770005226135,-727.5,186.300003051758,-964.500061035156,1.57013875978003,-0.573633608721673,0.317117523917571,ST
2.26666666666667,-4.84854698181152,-2.69283962249756,7.97204971313477,0.891773998737335,0.632625997066498,2.11891603469849,-729.900024414062,178.5,-959.700012207031,1.56001513751484,-0.52497524802113,0.322369250816977,ST
2.3,-5.63031959533691,-2.49904131889343,7.51147937774658,-0.144817993044853,0.228659987449646,1.11281192302704,-734.700012207031,181.5,-942.900024414062,1.54960782578905,-0.619145460915517,0.320208862877166,ST
2.33333333333333,-5.6345067024231,-2.55825757980347,7.67417430877686,-0.274392008781433,0.739333987236023,1.21189796924591,-737.100036621094,180.900009155273,-950.100036621094,1.54072679122719,-0.610294380189162,0.32113418197439,ST
2.36666666666667,-5.9951868057251,-2.52416324615479,8.11979103088379,-0.0533539988100529,1.44055795669556,0.830797970294952,-737.100036621094,182.700012207031,-942.900024414062,1.52536616660681,-0.61694373401991,0.301040452853174,ST
2.4,-5.69133043289185,-2.48588228225708,7.61256551742554,0.556405961513519,1.78354799747467,1.82927989959717,-734.700012207031,185.100006103516,-950.100036621094,1.52568479123285,-0.621807759507181,0.313170451395326,ST
2.43333333333333,-5.91144704818726,-1.79921400547028,7.03176879882812,0.952749967575073,1.80641400814056,1.79879200458527,-729.900024414062,180.300003051758,-947.700012207031,1.48122159039878,-0.687263978471862,0.247029044219622,ST
2.46666666666667,-6.29246425628662,-1.97626435756683,6.96298217773438,0.289635986089706,1.82165801525116,2.33233189582825,-717.900024414062,177.300003051758,-938.100036621094,1.48499946224908,-0.719783868375996,0.273367535769573,ST
2.5,-5.3180890083313,-1.61678040027618,6.6453685760498,-0.381099998950958,1.04421401023865,1.04421401023865,-722.700012207031,174.300003051758,-940.500061035156,1.45321695958085,-0.663144145195878,0.238286474074417,ST
2.53333333333333,-5.76370573043823,-1.75435328483582,6.39115762710571,-1.19665396213531,0.92988395690918,0.846041977405548,-727.5,177.300003051758,-933.300048828125,1.46027322402698,-0.717712246321708,0.26909579163889,ST
2.56666666666667,-5.91862487792969,-2.38359975814819,6.8959903717041,-2.46190595626831,0.175305992364883,0.853663980960846,-734.700012207031,179.100006103516,-940.500061035156,1.48111940074194,-0.682329087682591,0.335979497538848,ST
2.6,-5.04772853851318,-2.76162600517273,6.5173659324646,-2.82776188850403,-1.09756803512573,1.61586391925812,-744.300048828125,184.5,-950.100036621094,1.48861413962743,-0.618872163697228,0.403301655445123,ST
2.63333333333333,-5.97066307067871,-3.09838056564331,6.14950799942017,-2.97257995605469,0.160062000155449,3.38416790962219,-744.300048828125,179.700012207031,-938.100036621094,1.48502936035797,-0.717160497799878,0.467368033503099,ST
2.66666666666667,-6.09986209869385,-3.31969356536865,7.02997446060181,-2.53050398826599,0.564027965068817,3.7805118560791,-749.100036621094,173.700012207031,-942.900024414062,1.42627952813075,-0.669029327293491,0.441225770569249,ST
2.7,-6.34689521789551,-2.94705033302307,6.8517279624939,-1.2576299905777,0.724089980125427,3.76526784896851,-739.5,177.300003051758,-938.100036621094,1.36890123024609,-0.708758715318515,0.403675268166465,ST
2.73333333333333,-6.76320266723633,-2.99430370330811,7.15498638153076,-0.411587983369827,0.769822001457214,3.50611996650696,-737.100036621094,172.5,-942.900024414062,1.3358535718597,-0.720685928902123,0.392570263370137,ST
2.76666666666667,-6.89240169525146,-2.89561009407043,7.40441179275513,-0.0914639979600906,-0.800309956073761,3.13264203071594,-744.300048828125,174.900009155273,-947.700012207031,1.29323459772222,-0.714907029844525,0.368092156040798,ST
2.8,-5.76011657714844,-3.17255020141602,7.90625381469727,-0.556405961513519,-3.26983785629272,1.76068198680878,-749.100036621094,174.900009155273,-954.900024414062,1.27263680949285,-0.590465499478319,0.379225982608909,ST
2.83333333333333,-4.12599039077759,-3.17972803115845,7.45824480056763,0.457319974899292,-4.74850606918335,1.21951997280121,-749.100036621094,176.100006103516,-952.500061035156,1.25801682673771,-0.464024666341791,0.399581120603286,ST
2.86666666666667,-4.19597291946411,-3.22698140144348,8.56720161437988,1.90549993515015,-3.97868394851685,1.60061991214752,-737.100036621094,177.300003051758,-942.900024414062,1.21958773346455,-0.424258381969602,0.354650832452737,ST
2.9,-4.28868532180786,-2.20236253738403,8.82559967041016,3.68142580986023,-4.16923379898071,2.65245604515076,-734.700012207031,179.700012207031,-947.700012207031,1.15176151413414,-0.434586931422544,0.23530816186386,ST
2.93333333333333,-4.16187858581543,-0.97557121515274,7.87455224990845,5.3506441116333,-4.37502813339233,4.19210004806519,-746.700012207031,173.100006103516,-945.300048828125,1.07781728541521,-0.476286771341952,0.109786472753114,ST
2.96666666666667,-3.5691192150116,-0.585581958293915,7.61794900894165,5.27442407608032,-3.49087595939636,3.45276594161987,-763.5,177.900009155273,-952.500061035156,1.04654286129309,-0.431383351737768,0.0645634309195147,ST
3.0,-4.97834396362305,-0.244042336940765,6.9378604888916,4.37502813339233,-2.0655620098114,2.05031800270081,-756.300048828125,172.5,-947.700012207031,1.03356340184514,-0.618491903965108,0.0249199481266363,ST
3.03333333333333,-5.40601634979248,-0.359483927488327,8.27351379394531,2.25611186027527,-0.175305992364883,0.807931959629059,-763.5,174.900009155273,-938.100036621094,1.0471279818798,-0.578122577583285,0.0385476054198365,ST
3.06666666666667,-5.50889682769775,-0.547300815582275,8.524733543396,1.17378795146942,-1.21951997280121,-0.434453994035721,-741.900024414062,164.100006103516,-940.500061035156,1.06985535026003,-0.570614571117783,0.0624455284478232,ST
3.1,-5.05131721496582,-0.526963949203491,8.21968078613281,0.274392008781433,-2.43141794204712,-0.754577994346619,-761.100036621094,170.100006103516,-942.900024414062,1.07816029230423,-0.545815925535489,0.0641764069676648,ST
3.13333333333333,-4.26775026321411,-0.454588651657104,8.77954292297363,0.769822001457214,-2.59910202026367,-0.92988395690918,-753.900024414062,177.300003051758,-935.700012207031,1.0828323248436,-0.447400603446672,0.0510636173936958,ST
3.16666666666667,-4.56084012985229,-0.696238398551941,8.65453052520752,0.846041977405548,-3.33843588829041,-1.04421401023865,-756.300048828125,171.300003051758,-942.900024414062,1.10783705643825,-0.477712983938796,0.0794874106031188,ST
3.2,-4.60330820083618,-0.811680018901825,9.25267314910889,0.708845973014832,-3.3460578918457,-0.716467976570129,-753.900024414062,171.300003051758,-952.500061035156,1.11892802852809,-0.454209212114058,0.0866195145086125,ST
3.23333333333333,-4.03866147994995,-1.30036282539368,9.08758640289307,0.426831990480423,-3.65855979919434,0.449698001146317,-765.900024414062,171.300003051758,-952.500061035156,1.13385313219305,-0.408254623469939,0.140637802471143,ST
3.26666666666667,-3.77607655525208,-1.58089184761047,8.87285327911377,-0.182927995920181,-3.04879999160767,0.518296003341675,-763.5,177.900009155273,-942.900024414062,1.13701444620281,-0.391690254969426,0.175861393458979,ST
3.3,-4.28210544586182,-1.01445043087006,8.94881725311279,0.282013982534409,-1.46342396736145,1.05945801734924,-770.700012207031,171.900009155273,-954.900024414062,1.10056845855,-0.441460000975181,0.111432347122118,ST
3.33333333333333,-4.25758171081543,-0.842783451080322,8.92070388793945,1.08232402801514,-0.975615978240967,1.44055795669556,-773.100036621094,173.700012207031,-952.500061035156,1.08235361861248,-0.442108424909231,0.0910608234330449,ST
3.36666666666667,-4.56442880630493,-0.599339246749878,8.17003440856934,1.50915598869324,-0.609759986400604,0.304879993200302,-780.300048828125,166.5,-947.700012207031,1.07766286159882,-0.507302141162741,0.0702599697910282,ST
3.4,-5.26306009292603,-0.497654944658279,8.49961185455322,1.41006994247437,-0.762199997901917,0.495429992675781,-785.100036621094,168.300003051758,-940.500061035156,1.07298404500236,-0.552348871795002,0.0554536156421302,ST
3.43333333333333,-5.11591672897339,-0.515599250793457,8.56600570678711,1.28049600124359,-0.861285984516144,-0.37347799539566,-787.500061035156,165.300003051758,-957.300048828125,1.0841009436576,-0.536062362085844,0.058214988124688,ST
3.46666666666667,-4.62484169006348,-0.709397554397583,8.64316558837891,0.525918006896973,-1.57775402069092,-0.129574000835419,-794.700012207031,170.100006103516,-954.900024414062,1.09822485330516,-0.487175342218155,0.080969368838901,ST
3.5,-4.42984676361084,-0.754856407642365,8.33332824707031,0.282013982534409,-1.41006994247437,-0.0685980021953583,-782.700012207031,173.700012207031,-947.700012207031,1.10318911500618,-0.484441522521486,0.0897834678108351,ST
3.53333333333333,-4.31141471862793,-0.843381583690643,7.95111465454102,0.0990860015153885,0.152439996600151,0.358233988285065,-804.300048828125,173.100006103516,-957.300048828125,1.10780074073632,-0.494848181711364,0.105170968037691,ST
3.56666666666667,-4.41668748855591,-1.15262150764465,8.24360656738281,-0.129574000835419,1.02897000312805,0.403965979814529,-782.700012207031,168.300003051758,-945.300048828125,1.12068830920087,-0.489714610354213,0.138881034448898,ST
3.6,-4.46095037460327,-0.968393445014954,8.00494766235352,-0.0152439996600151,1.01372599601746,0.0076219998300075,-801.900024414062,167.700012207031,-947.700012207031,1.11291056592267,-0.507072998588221,0.12054036131068,ST
3.63333333333333,-4.76959228515625,-1.22140789031982,8.47389125823975,-0.0228659994900227,1.50153398513794,-0.0685980021953583,-797.100036621094,165.900009155273,-954.900024414062,1.12646189569911,-0.510851954322272,0.143450697035057,ST
3.66666666666667,-4.706787109375,-1.27882969379425,8.01272296905518,0.289635986089706,1.56251001358032,-0.152439996600151,-782.700012207031,171.300003051758,-964.500061035156,1.13879110120916,-0.528276581095449,0.158152668554839,ST
3.7,-4.86290216445923,-0.631639003753662,7.96487188339233,0.518296003341675,1.6844619512558,-0.396344006061554,-804.300048828125,167.700012207031,-938.100036621094,1.1057255515833,-0.549604182643594,0.0788570184106745,ST
3.73333333333333,-5.0351676940918,-0.938486337661743,7.41218757629395,0.792688012123108,1.74543797969818,0.403965979814529,-787.500061035156,168.900009155273,-950.100036621094,1.13322313873768,-0.596090253859243,0.124310250468645,ST
3.76666666666667,-4.69422626495361,-0.934897482395172,7.86139297485352,0.632625997066498,1.43293595314026,-0.182927995920181,-780.300048828125,168.300003051758,-952.500061035156,1.13617397305647,-0.537705918507921,0.117632824952117,ST
3.8,-4.4621467590332,-0.75246387720108,8.03006935119629,0.259148001670837,0.884151995182037,-1.32622802257538,-777.900024414062,168.900009155273,-950.100036621094,1.13986397020037,-0.506667907346324,0.0943473093951281,ST
3.83333333333333,-4.40412664413452,-0.70760315656662,8.12816524505615,-0.0228659994900227,0.518296003341675,-0.945127964019775,-770.700012207031,165.300003051758,-950.100036621094,1.1458751001608,-0.495736266016149,0.0878115795989842,ST
3.86666666666667,-4.23724460601807,-0.647788822650909,8.57677173614502,0.175305992364883,0.525918006896973,-0.754577994346619,-763.5,176.700012207031,-945.300048828125,1.14900660295774,-0.45856904985613,0.0757668802533219,ST
3.9,-4.26057243347168,-0.483897656202316,8.66768932342529,0.411587983369827,1.47866797447205,-0.716467976570129,-761.100036621094,176.100006103516,-945.300048828125,1.15005563110009,-0.458753199239433,0.055747842236874,ST
3.93333333333333,-4.50042772293091,-0.37324121594429,8.86328220367432,0.282013982534409,1.30336201190948,-0.541162014007568,-746.700012207031,177.300003051758,-945.300048828125,1.15080429397162,-0.471702810845496,0.0421341704244,ST
3.96666666666667,-4.62364530563354,-0.482103228569031,8.03425598144531,-0.0838419944047928,1.49391198158264,0.0914639979600906,-737.100036621094,172.5,-945.300048828125,1.15889207897345,-0.524000411405792,0.0600648365943766,ST
4.0,-4.56323289871216,-1.02103006839752,8.36921691894531,-0.602137982845306,1.42531394958496,-0.510673999786377,-737.100036621094,170.700012207031,-942.900024414062,1.19276601391377,-0.498462745415133,0.123048856969856,ST
4.03333333333333,-4.57280302047729,-1.07725548744202,8.22566223144531,-1.21189796924591,0.78506600856781,-0.579271972179413,-732.300048828125,173.700012207031,-942.900024414062,1.19762368886024,-0.504994280005686,0.132981961324065,ST
4.06666666666667,-4.13376617431641,-1.1478363275528,9.29633808135986,-1.10518991947174,-0.609759986400604,0.403965979814529,-722.700012207031,174.900009155273,-933.300048828125,1.18428956490891,-0.414690718640923,0.124417457095213,ST
4.1,-3.69472908973694,-1.22798752784729,9.53200626373291,-0.0914639979600906,-1.57775402069092,0.106707997620106,-746.700012207031,177.900009155273,-942.900024414062,1.18237955230861,-0.36434735013249,0.128074301328069,ST
4.13333333333333,-3.2168128490448,-1.20824885368347,8.6981954574585,1.00610399246216,-1.50915598869324,-0.411587983369827,-739.5,168.900009155273,-947.700012207031,1.19119701820089,-0.348428825412976,0.136392105960438,ST
4.16666666666667,-4.20016002655029,-1.58208811283112,8.78253364562988,0.327746003866196,1.65397393703461,-1.99696397781372,-744.300048828125,176.700012207031,-945.300048828125,1.23046998809593,-0.442054416659566,0.179487058314143,ST
4.2,-4.86170625686646,-1.6383136510849,9.51944541931152,-0.0685980021953583,1.28049600124359,-2.17989206314087,-727.5,175.5,-945.300048828125,1.24910475403809,-0.467824660227744,0.17264264014813,ST
4.23333333333333,-4.61168241500854,-1.86321532726288,8.67367076873779,0.0762199983000755,1.40244793891907,-1.70732796192169,-734.700012207031,170.700012207031,-950.100036621094,1.28602084618432,-0.481137812539541,0.213223032302733,ST
4.26666666666667,-4.79770469665527,-2.35309433937073,8.393141746521,-0.960371971130371,2.94971394538879,-1.34147191047668,-729.900024414062,177.900009155273,-947.700012207031,1.33027867534894,-0.507446579037872,0.276995700088884,ST
4.3,-5.11053371429443,-2.59952926635742,8.79748725891113,-1.34147191047668,1.74543797969818,-1.38720393180847,-727.5,176.100006103516,-935.700012207031,1.34704979065811,-0.510499118512939,0.291424202280989,ST
4.33333333333333,-4.98851251602173,-2.77358889579773,7.16635084152222,-0.693601965904236,1.31098401546478,-1.2347639799118,-727.5,179.700012207031,-952.500061035156,1.39986566016749,-0.577118503250243,0.372294949542545,ST
4.36666666666667,-5.75592994689941,-2.51818180084229,8.19336223602295,-1.35671591758728,1.83690190315247,-0.647870004177094,-722.700012207031,180.300003051758,-923.700012207031,1.36330764940162,-0.594065369081512,0.30196763337943,ST
4.4,-5.46224164962769,-2.30045795440674,7.09816265106201,-0.518296003341675,1.63872992992401,0.708845973014832,-715.5,173.100006103516,-926.100036621094,1.365710102458,-0.634981650357935,0.314088544109722,ST
4.43333333333333,-5.96767234802246,-2.28670048713684,7.19566011428833,-0.0533539988100529,2.55336999893188,0.449698001146317,-720.300048828125,177.900009155273,-928.500061035156,1.36467577973437,-0.673311248595589,0.30827329682536,ST
4.46666666666667,-6.64835929870605,-1.80878436565399,8.512770652771,0.746955990791321,1.19665396213531,0.724089980125427,-722.700012207031,175.5,-928.500061035156,1.30370758076636,-0.654670072673053,0.207477917139324,ST
4.5,-4.97296047210693,-1.51868498325348,8.10005187988281,1.18903195858002,-1.73019397258759,0.175305992364883,-727.5,173.700012207031,-926.100036621094,1.29223795455818,-0.540060520408164,0.182757281598547,ST
4.53333333333333,-4.78275108337402,-0.990524768829346,6.9378604888916,0.830797970294952,-2.4847719669342,0.205793991684914,-727.5,182.100006103516,-921.300048828125,1.26896497741608,-0.594566143750454,0.139740600026481,ST
4.56666666666667,-4.00337076187134,-1.42776727676392,7.16096782684326,0.221037998795509,-0.541162014007568,0.304879993200302,-727.5,173.700012207031,-921.300048828125,1.2958326257604,-0.500755895263888,0.195989021436572,ST
4.6,-5.02021408081055,-1.74358677864075,7.05509614944458,0.0304879993200302,1.75305998325348,0.198172003030777,-725.100036621094,172.5,-923.700012207031,1.32240277631194,-0.607491826318899,0.242469823993942,ST
4.63333333333333,-5.76370573043823,-1.84108412265778,7.72561454772949,-0.602137982845306,2.56099200248718,0.701223969459534,-727.5,171.300003051758,-935.700012207031,1.31363873485096,-0.632399191388155,0.234889220157416,ST
4.66666666666667,-5.76609802246094,-1.68975389003754,8.57557582855225,-0.182927995920181,1.52439999580383,1.33385002613068,-732.300048828125,173.100006103516,-926.100036621094,1.28009061513516,-0.586250467064225,0.19371629650346,ST
4.7,-5.87256765365601,-2.1030707359314,7.80995273590088,0.46494197845459,1.2423859834671,1.37958192825317,-717.900024414062,177.900009155273,-930.900024414062,1.31233020608768,-0.630707584162125,0.260914111327638,ST
4.73333333333333,-5.71645259857178,-1.62575256824493,8.19695091247559,0.617381989955902,0.358233988285065,0.922261953353882,-717.900024414062,170.700012207031,-926.100036621094,1.26976072549916,-0.6008841706342,0.193740090866638,ST
4.76666666666667,-4.72592782974243,-1.66343557834625,7.25786685943604,0.92988395690918,0.571649968624115,0.754577994346619,-713.100036621094,171.300003051758,-935.700012207031,1.28576402370871,-0.566827434536916,0.222980287887701,ST
4.8,-4.26655387878418,-1.78605496883392,7.01203012466431,0.693601965904236,0.533540010452271,0.144817993044853,-715.5,172.5,-930.900024414062,1.30274856629743,-0.533742848414407,0.24817945589433,ST
4.83333333333333,-4.71097421646118,-1.57311606407166,5.8163423538208,0.556405961513519,0.830797970294952,0.647870004177094,-698.700012207031,169.5,-921.300048828125,1.31102023549426,-0.665179578922924,0.262602316240644,ST
4.86666666666667,-6.02329969406128,-2.1030707359314,7.59462118148804,0.37347799539566,1.42531394958496,0.701223969459534,-705.900024414062,171.900009155273,-916.500061035156,1.31491391832427,-0.655344516059324,0.269093519765045,ST
4.9,-6.13575077056885,-2.62106251716614,9.01461315155029,0.792688012123108,-0.221037998795509,0.647870004177094,-693.900024414062,172.5,-923.700012207031,1.32040715747428,-0.578887218121677,0.280783762378399,ST
4.93333333333333,-5.62194585800171,-1.87697267532349,7.81952285766602,1.50915598869324,-2.65245604515076,1.36433792114258,-703.5,172.5,-926.100036621094,1.2845343555311,-0.606148410835228,0.230629537512812,ST
4.96666666666667,-5.92281150817871,-2.09888362884521,8.51456546783447,1.51677799224854,-2.97257995605469,1.13567793369293,-703.5,171.300003051758,-918.900024414062,1.28137873019907,-0.589458419408305,0.236917119309139,ST
5.0,-5.45147514343262,-1.51389980316162,8.72630786895752,1.70732796192169,-3.89484190940857,1.60824191570282,-705.900024414062,174.900009155273,-914.100036621094,1.23240551899631,-0.545548569164366,0.166451299344714,ST
5.03333333333333,-5.03935432434082,-0.753660142421722,8.32076644897461,1.85214591026306,-2.87349390983582,2.82776188850403,-715.5,172.5,-928.500061035156,1.17215050825157,-0.538177485146668,0.0839529182649145,ST
5.06666666666667,-4.49743700027466,-0.61548912525177,8.60907173156738,2.25611186027527,-1.96647596359253,2.43903994560242,-720.300048828125,172.5,-930.900024414062,1.15043690423415,-0.477271715895326,0.0651243147192055,ST
5.1,-5.27502298355103,-0.449205368757248,7.3404107093811,2.01982998847961,-1.2347639799118,2.35519790649414,-713.100036621094,164.100006103516,-921.300048828125,1.13598482770727,-0.620209064003054,0.0545792101527794,ST
5.13333333333333,-5.3838849067688,-0.765622973442078,8.52293872833252,0.419209986925125,-0.266770005226135,1.12043392658234,-725.100036621094,165.900009155273,-930.900024414062,1.14589038481962,-0.561307707689094,0.0876000034810918,ST
5.16666666666667,-4.88622999191284,-0.554478526115417,8.31957054138184,0.106707997620106,-2.18751406669617,0.426831990480423,-720.300048828125,164.700012207031,-930.900024414062,1.13001203109905,-0.52634022560059,0.0657990457300578,ST
5.2,-4.88144493103027,-0.650779545307159,7.87933731079102,-0.640248000621796,-1.22714197635651,0.358233988285065,-725.100036621094,171.300003051758,-921.300048828125,1.13136526856348,-0.551030914949412,0.0830195707649588,ST
5.23333333333333,-5.81155729293823,-0.696836590766907,7.73458671569824,-0.0076219998300075,-0.426831990480423,1.265251994133,-722.700012207031,166.5,-928.500061035156,1.12302562660549,-0.641840427581099,0.0881680653965138,ST
5.26666666666667,-4.93288516998291,-1.01564681529999,8.20532512664795,0.472563982009888,-0.510673999786377,0.708845973014832,-727.5,167.700012207031,-926.100036621094,1.13723681699125,-0.53724685754133,0.121517508186933,ST
5.3,-4.08770895004272,-1.15022897720337,8.21669006347656,0.442075997591019,-1.38720393180847,-0.190549999475479,-739.5,167.100006103516,-928.500061035156,1.14733812803361,-0.455394997642705,0.138296635815681,ST
5.33333333333333,-4.02310943603516,-0.88285905122757,7.49054431915283,0.442075997591019,-2.59910202026367,-0.693601965904236,-722.700012207031,169.5,-930.900024414062,1.14339504140326,-0.485345414210312,0.116916493555317,ST
5.36666666666667,-4.73011445999146,-0.925925314426422,7.80636405944824,0.327746003866196,-1.27287399768829,0.342989981174469,-744.300048828125,168.300003051758,-933.300048828125,1.14077801395826,-0.539501376330202,0.116975383200752,ST
5.4,-3.95013618469238,-1.01684308052063,7.96546983718872,0.350611984729767,-1.09756803512573,-0.0609759986400604,-741.900024414062,172.5,-921.300048828125,1.14618649981174,-0.455307737089034,0.12628402625721,ST
5.43333333333333,-5.67398405075073,-0.757248997688293,8.43800258636475,0.426831990480423,-0.945127964019775,-0.198172003030777,-741.900024414062,168.900009155273,-926.100036621094,1.13119235474959,-0.588410472319848,0.0889023080418854,ST
5.46666666666667,-4.43582820892334,-1.32369041442871,8.8997688293457,0.335367977619171,-0.282013982534409,-0.807931959629059,-741.900024414062,161.700012207031,-935.700012207031,1.1692731060937,-0.457433471556207,0.147676705501308,ST
5.5,-4.75523662567139,-1.31651270389557,9.47996807098389,-0.0228659994900227,-1.57013201713562,-1.18140995502472,-732.300048828125,174.900009155273,-921.300048828125,1.17410570260133,-0.458117221964448,0.138858245638133,ST
5.53333333333333,-4.09787750244141,-1.0856294631958,8.82679557800293,0.25152599811554,-2.04269599914551,-0.3125019967556,-729.900024414062,168.300003051758,-928.500061035156,1.16849798246007,-0.428201258155097,0.121999643565308,ST
5.56666666666667,-3.74198246002197,-0.808689296245575,8.26334476470947,0.846041977405548,-0.87652999162674,0.289635986089706,-739.5,171.900009155273,-947.700012207031,1.15774091915963,-0.421956798550047,0.0958039558346803,ST
5.6,-4.65175771713257,-1.08981645107269,8.58933353424072,0.754577994346619,0.510673999786377,1.09756803512573,-737.100036621094,174.900009155273,-940.500061035156,1.16436140365725,-0.494083140887914,0.123904216804246,ST
5.63333333333333,-4.0177264213562,-0.82663357257843,8.90993785858154,1.21189796924591,0.144817993044853,1.05183601379395,-737.100036621094,159.900009155273,-938.100036621094,1.14447505583126,-0.422468925235299,0.0895993074143119,ST
5.66666666666667,-3.32986187934875,-0.644199967384338,8.30760765075684,1.50915598869324,0.182927995920181,0.708845973014832,-732.300048828125,167.700012207031,-933.300048828125,1.13767506087924,-0.380605186800991,0.0742757462797473,ST
5.7,-4.02849292755127,-0.430662930011749,7.89847803115845,1.57013201713562,1.265251994133,0.0914639979600906,-729.900024414062,170.100006103516,-947.700012207031,1.13577746384593,-0.473217229420729,0.0517200603377021,ST
5.73333333333333,-4.23604869842529,-1.01385235786438,8.66888618469238,0.320124000310898,1.62348592281342,-0.365855991840363,-734.700012207031,170.100006103516,-930.900024414062,1.17172018445531,-0.454599134971219,0.116315484958392,ST
5.76666666666667,-4.66551494598389,-1.45827257633209,8.50320053100586,-0.396344006061554,0.800309956073761,-1.11281192302704,-725.100036621094,166.5,-950.100036621094,1.20722332834303,-0.496770788971118,0.171683529283917,ST
5.8,-4.96638107299805,-2.1269965171814,8.83576774597168,-1.51677799224854,0.365855991840363,-1.73019397258759,-737.100036621094,170.700012207031,-942.900024414062,1.24920326645928,-0.500030161087453,0.240534295580101,ST
5.83333333333333,-4.94604444503784,-2.2370548248291,8.77655220031738,-1.50153398513794,-0.0152439996600151,-1.44055795669556,-722.700012207031,169.5,-938.100036621094,1.26062999641621,-0.499185286561455,0.253511540391727,ST
5.86666666666667,-4.70917940139771,-2.25260639190674,8.82440280914307,-0.762199997901917,-0.472563982009888,-0.937505960464478,-710.700012207031,171.300003051758,-942.900024414062,1.26352797499949,-0.476023887823689,0.251976285396127,ST
5.9,-3.84964823722839,-2.1712589263916,8.10902404785156,0.426831990480423,-0.990859985351562,0.0914639979600906,-722.700012207031,174.300003051758,-950.100036621094,1.26595279385399,-0.428373329789505,0.260595382396785,ST
5.93333333333333,-4.24801158905029,-1.74597930908203,7.72441816329956,0.975615978240967,-0.0457319989800453,0.899396002292633,-725.100036621094,174.300003051758,-950.100036621094,1.24424408642648,-0.492581965515668,0.219788141989096,ST
5.96666666666667,-4.33294773101807,-1.58507883548737,7.74774599075317,1.27287399768829,0.960371971130371,1.54726600646973,-722.700012207031,171.300003051758,-954.900024414062,1.22813088481395,-0.503404408051387,0.198319669238727,ST
6.0,-5.33663177490234,-1.54739582538605,7.86797285079956,1.13567793369293,0.922261953353882,1.86738991737366,-720.300048828125,177.900009155273,-962.100036621094,1.21595842118007,-0.589347821754113,0.190285859127775,ST
6.03333333333333,-5.80497741699219,-1.94635725021362,8.50559329986572,0.807931959629059,1.15092194080353,1.73781597614288,-717.900024414062,168.900009155273,-950.100036621094,1.22566855778474,-0.589679752120835,0.221847432207005,ST
6.06666666666667,-5.19307708740234,-1.93020737171173,8.88541412353516,-0.632625997066498,-0.564027965068817,0.990859985351562,-715.5,173.700012207031,-952.500061035156,1.20846940060893,-0.518378148266648,0.21393538137122,ST
6.1,-4.52136278152466,-1.82074725627899,8.65333461761475,-0.358233988285065,-2.14940404891968,0.564027965068817,-705.900024414062,172.5,-952.500061035156,1.19437177684848,-0.469217206105144,0.207134385394388,ST
6.13333333333333,-4.40053796768188,-1.61020088195801,7.39185094833374,0.0990860015153885,-0.411587983369827,1.01372599601746,-725.100036621094,170.700012207031,-942.900024414062,1.18752808007313,-0.52648934329001,0.21321497538293,ST
6.16666666666667,-4.18042135238647,-1.84766364097595,8.14192199707031,0.602137982845306,1.81403601169586,1.35671591758728,-717.900024414062,173.100006103516,-952.500061035156,1.18519119875378,-0.467846129925838,0.221286347165799,ST
6.2,-3.79282450675964,-1.49715185165405,8.1604642868042,0.884151995182037,0.297257989645004,1.16616594791412,-705.900024414062,176.100006103516,-947.700012207031,1.1604857327632,-0.429687136067531,0.179059023745075,ST
6.23333333333333,-4.02550220489502,-1.50911474227905,8.01391983032227,1.16616594791412,-1.18903195858002,0.823175966739655,-717.900024414062,180.900009155273,-947.700012207031,1.15760777464621,-0.456758773666731,0.183212714522128,ST
6.26666666666667,-4.69781494140625,-1.19150078296661,7.4749927520752,1.41006994247437,-0.442075997591019,1.05183601379395,-720.300048828125,173.700012207031,-954.900024414062,1.14110636768446,-0.554945876038415,0.15441816364176,ST
6.3,-5.03098058700562,-1.50672209262848,8.94283580780029,0.297257989645004,0.114329993724823,1.6920839548111,-725.100036621094,172.5,-945.300048828125,1.13258242194854,-0.507193536661287,0.164791346244142,ST
6.33333333333333,-5.35098695755005,-1.32129776477814,8.88661003112793,0.342989981174469,-0.609759986400604,0.685979962348938,-717.900024414062,168.900009155273,-952.500061035156,1.11825526172819,-0.536273323629632,0.146221350447757,ST
6.36666666666667,-4.81146192550659,-0.982748925685883,8.22805500030518,0.960371971130371,0.403965979814529,0.480185985565186,-708.300048828125,168.900009155273,-957.300048828125,1.10458907929457,-0.526862586862921,0.116776596191875,ST
6.4,-4.39156579971313,-0.843979716300964,8.3159818649292,0.602137982845306,0.114329993724823,-0.137196004390717,-729.900024414062,167.100006103516,-957.300048828125,1.10088514190566,-0.483958108138931,0.100239562903093,ST
6.43333333333333,-3.98303413391113,-0.690855145454407,8.62940883636475,0.548784017562866,-1.37195992469788,0.160062000155449,-717.900024414062,167.700012207031,-954.900024414062,1.09126543264996,-0.428891433995471,0.0787307332741439,ST
6.46666666666667,-3.8957052230835,-0.415709376335144,8.01571369171143,0.6250039935112,-1.82927989959717,0.800309956073761,-703.5,167.700012207031,-952.500061035156,1.07343126492684,-0.448731409374807,0.0499948502538246,ST
6.5,-4.07096099853516,-0.576011657714844,8.381178855896,0.129574000835419,-1.2500079870224,0.922261953353882,-708.300048828125,177.900009155273,-947.700012207031,1.07148053845712,-0.449170432688015,0.067540913460274,ST
6.53333333333333,-4.22528171539307,-0.645396292209625,8.33512210845947,-0.800309956073761,-0.693601965904236,1.04421401023865,-734.700012207031,167.100006103516,-947.700012207031,1.0621195634741,-0.466889271592407,0.0777032572357247,ST
6.56666666666667,-4.58297157287598,-1.05572235584259,8.85431003570557,-0.815553963184357,-0.975615978240967,0.495429992675781,-720.300048828125,176.700012207031,-942.900024414062,1.07165737473338,-0.473159012808143,0.119521981022831,ST
6.6,-5.08481359481812,-1.07366669178009,9.02777194976807,-0.701223969459534,-0.78506600856781,0.327746003866196,-727.5,171.300003051758,-947.700012207031,1.06419757941865,-0.508636430304743,0.119190748114498,ST
6.63333333333333,-3.82512426376343,-1.48937594890594,8.42484378814697,-0.602137982845306,-1.07470202445984,-0.342989981174469,-715.5,171.300003051758,-942.900024414062,1.08848105486211,-0.418514759802905,0.176126055102742,ST
6.66666666666667,-4.12120485305786,-1.53244233131409,8.78313159942627,-0.350611984729767,-0.228659987449646,-0.381099998950958,-725.100036621094,175.5,-945.300048828125,1.0892441363092,-0.43246969707481,0.173620373787935,ST
6.7,-4.44180965423584,-1.19030451774597,7.76150321960449,0.0990860015153885,0.243903994560242,0.121951997280121,-727.5,175.5,-947.700012207031,1.07909970307606,-0.515188787232582,0.151935670805442,ST
6.73333333333333,-4.57519578933716,-1.17594909667969,8.48226547241211,-0.106707997620106,-0.0304879993200302,0.365855991840363,-734.700012207031,170.100006103516,-933.300048828125,1.06785388296337,-0.490730091536706,0.137605909582057,ST
6.76666666666667,-3.68814945220947,-1.22679126262665,8.33930969238281,-0.548784017562866,-0.350611984729767,0.106707997620106,-729.900024414062,174.900009155273,-945.300048828125,1.06787425525347,-0.411909479001522,0.146896139259182,ST
6.8,-4.71097421646118,-0.939084470272064,7.89070224761963,-0.754577994346619,0.320124000310898,0.175305992364883,-734.700012207031,171.900009155273,-942.900024414062,1.05007911103563,-0.535679975113639,0.119643088505023,ST
6.83333333333333,-5.535813331604,-1.25011885166168,9.33820819854736,-0.899396002292633,0.769822001457214,0.701223969459534,-727.5,169.5,-942.900024414062,1.04735915097107,-0.532728140300476,0.134029192747513,ST
6.86666666666667,-4.16068267822266,-1.11314404010773,8.73647594451904,-0.0228659994900227,-1.75305998325348,-0.0685980021953583,-729.900024414062,174.300003051758,-947.700012207031,1.04238549595115,-0.438363420642376,0.126649747613919,ST
6.9,-4.67508554458618,-1.08323693275452,8.22865295410156,-0.434453994035721,-1.16616594791412,0.0990860015153885,-727.5,164.700012207031,-945.300048828125,1.03973796167709,-0.51096858436132,0.13140117716674,ST
6.93333333333333,-3.80299305915833,-0.985141456127167,8.58993148803711,-0.304879993200302,-0.708845973014832,0.106707997620106,-739.5,177.300003051758,-938.100036621094,1.02915921209933,-0.413240449488399,0.114587281809883,ST
6.96666666666667,-3.79043197631836,-1.02402079105377,7.81713056564331,-0.282013982534409,-0.602137982845306,0.221037998795509,-729.900024414062,173.100006103516,-942.900024414062,1.03177031296093,-0.447137019784113,0.130486780107543,ST
7.0,-3.98243594169617,-1.42896354198456,8.608473777771,-0.701223969459534,0.579271972179413,-0.0304879993200302,-732.300048828125,173.700012207031,-935.700012207031,1.04474884184771,-0.429137818029102,0.165803670238786,ST
7.03333333333333,-3.56074500083923,-1.62993955612183,9.45065879821777,0.304879993200302,-1.27287399768829,-0.396344006061554,-722.700012207031,174.900009155273,-940.500061035156,1.04959025690908,-0.353232513618645,0.170366835823554,ST
7.06666666666667,-3.63312029838562,-1.54799401760101,8.10005187988281,1.05183601379395,-1.41006994247437,-0.586893975734711,-737.100036621094,177.900009155273,-947.700012207031,1.06342832513328,-0.412332188904874,0.187224279210302,ST
7.1,-3.80478739738464,-1.53124594688416,7.73458671569824,0.503051996231079,0.480185985565186,-0.617381989955902,-717.900024414062,171.900009155273,-950.100036621094,1.07552279774878,-0.450178031863605,0.195151782467129,ST
7.13333333333333,-4.31081628799438,-1.65745413303375,8.78612232208252,-0.221037998795509,0.78506600856781,-0.0304879993200302,-722.700012207031,177.900009155273,-954.900024414062,1.07262484979232,-0.450590244883671,0.186993409374722,ST
7.16666666666667,-3.94355654716492,-1.87517821788788,8.88062858581543,0.221037998795509,-0.289635986089706,-0.640248000621796,-717.900024414062,174.900009155273,-954.900024414062,1.08813213423603,-0.409167278567434,0.208131270891403,ST
7.2,-3.83050751686096,-1.76511991024017,7.81593418121338,0.655492007732391,-1.42531394958496,-0.769822001457214,-729.900024414062,174.300003051758,-952.500061035156,1.10104069373433,-0.443197831594731,0.221322123960544,ST
7.23333333333333,-4.09369039535522,-1.71009075641632,8.55523872375488,0.6250039935112,0.487807989120483,-0.693601965904236,-727.5,174.300003051758,-957.300048828125,1.10063672591111,-0.439321902350451,0.196851621416027,ST
7.26666666666667,-5.03217697143555,-1.96071267127991,9.49432373046875,0.426831990480423,-0.327746003866196,-0.160062000155449,-725.100036621094,168.300003051758,-959.700012207031,1.10620843312372,-0.478138894735893,0.202983385500361,ST
7.3,-4.68585205078125,-1.76093292236328,7.62572479248047,0.396344006061554,-0.83841997385025,0.99848198890686,-727.5,179.100006103516,-945.300048828125,1.10766688285854,-0.538428902936035,0.225034019141398,ST
7.33333333333333,-4.12419557571411,-2.06299519538879,10.3478736877441,-0.144817993044853,0.266770005226135,0.693601965904236,-722.700012207031,172.5,-940.500061035156,1.08863014865739,-0.373420235278623,0.196625408556755,ST
7.36666666666667,-3.70429944992065,-1.69334280490875,7.33981227874756,0.442075997591019,-1.17378795146942,0.472563982009888,-715.5,174.300003051758,-950.100036621094,1.09544440422508,-0.45516757442122,0.225327067820453,ST
7.4,-4.3161997795105,-1.60721015930176,6.91034555435181,-0.213415995240211,2.56099200248718,1.12805593013763,-734.700012207031,177.900009155273,-952.500061035156,1.0911555704633,-0.551273428120979,0.228331671168991,ST
7.43333333333333,-5.45087671279907,-1.83211195468903,9.22037410736084,-0.670735955238342,2.75916385650635,1.53202199935913,-725.100036621094,176.700012207031,-942.900024414062,1.06267761206147,-0.530725445288371,0.19635313389387,ST
7.46666666666667,-5.00346612930298,-1.85603761672974,8.41048812866211,0.114329993724823,-0.0990860015153885,1.82165801525116,-729.900024414062,168.900009155273,-947.700012207031,1.05473946562326,-0.526791241493554,0.21516862842839,ST
7.5,-3.93518257141113,-1.36974740028381,8.70597076416016,0.602137982845306,-0.510673999786377,1.2347639799118,-725.100036621094,171.900009155273,-950.100036621094,1.01698329325018,-0.419465345766388,0.154024637303778,ST
7.53333333333333,-5.487961769104,-1.1938933134079,7.21360445022583,0.990859985351562,1.08994603157043,1.55488801002502,-722.700012207031,168.900009155273,-952.500061035156,1.01416069878852,-0.646123272834505,0.160502904782587,ST
7.56666666666667,-3.83708715438843,-1.87936520576477,10.1690282821655,0.152439996600151,-0.868907988071442,1.05183601379395,-715.5,170.100006103516,-954.900024414062,1.01333918970137,-0.354266322597181,0.181704514510215,ST
7.6,-3.75573968887329,-1.43075799942017,7.72082948684692,1.35671591758728,-2.87349390983582,0.213415995240211,-715.5,174.300003051758,-942.900024414062,1.01174191547581,-0.441222074992494,0.180261152538961,ST
7.63333333333333,-3.40343356132507,-1.15022897720337,8.0833044052124,1.97409796714783,-0.541162014007568,-0.129574000835419,-717.900024414062,173.700012207031,-947.700012207031,1.00307186042013,-0.394013997010065,0.137971271842941,ST
7.66666666666667,-3.50870656967163,-0.99889874458313,8.12756633758545,2.12653803825378,-0.731711983680725,0.3125019967556,-725.100036621094,179.100006103516,-947.700012207031,1.00039634636296,-0.403608592952137,0.118291196878256,ST
7.7,-4.86290216445923,-0.855942606925964,7.5850510597229,1.41006994247437,0.655492007732391,0.25152599811554,-732.300048828125,173.700012207031,-959.700012207031,1.00298539083867,-0.568366716302838,0.109715194001957,ST
7.73333333333333,-4.82521915435791,-0.973776757717133,9.23772048950195,0.358233988285065,0.350611984729767,0.868907988071442,-710.700012207031,169.5,-947.700012207031,0.993827323713294,-0.479898386352544,0.103650514713964,ST
7.76666666666667,-4.62125253677368,-1.08862018585205,8.99786472320557,0.167683988809586,-1.04421401023865,0.243903994560242,-722.700012207031,167.700012207031,-938.100036621094,0.998623250709526,-0.46976632626858,0.119771071014524,ST
7.8,-3.84247040748596,-0.849363029003143,8.22087669372559,0.289635986089706,-1.30336201190948,-0.0304879993200302,-727.5,174.300003051758,-966.900024414062,0.9913131058182,-0.432958383021749,0.102376052525131,ST
7.83333333333333,-4.51119422912598,-0.891233026981354,8.21011066436768,0.213415995240211,0.175305992364883,0.0685980021953583,-722.700012207031,171.300003051758,-945.300048828125,0.994310159261804,-0.500233666694405,0.10770598456096,ST
7.86666666666667,-4.28449821472168,-0.919943869113922,8.89857292175293,0.304879993200302,-0.121951997280121,-0.0304879993200302,-734.700012207031,170.700012207031,-940.500061035156,0.993593121085278,-0.446455069886703,0.102500036261426,ST
7.9,-3.91903281211853,-1.15920102596283,8.89019870758057,0.259148001670837,-2.00458598136902,-0.388722002506256,-720.300048828125,172.5,-942.900024414062,1.00707620006554,-0.408567716108642,0.12928307633269,ST
7.93333333333333,-3.13307285308838,-1.20406174659729,8.17422199249268,-0.213415995240211,-1.89787793159485,-0.152439996600151,-729.900024414062,172.5,-945.300048828125,1.01157555480391,-0.359164468852397,0.146525632148882,ST
7.96666666666667,-3.74078607559204,-0.857737004756927,8.21788597106934,-0.541162014007568,-0.160062000155449,1.10518991947174,-734.700012207031,174.300003051758,-962.100036621094,0.981716208326487,-0.42502574709652,0.104080169669756,ST
8.0,-4.59194374084473,-1.08204066753387,8.71554088592529,-0.381099998950958,0.525918006896973,0.815553963184357,-729.900024414062,169.5,-957.300048828125,0.981287405407281,-0.482816964619545,0.123491696320545,ST
8.03333333333333,-5.08959865570068,-1.314120054245,8.8878059387207,-0.144817993044853,-0.167683988809586,-0.0914639979600906,-734.700012207031,174.300003051758,-952.500061035156,0.992454755969131,-0.515079229175164,0.147093035804491,ST
8.06666666666667,-4.27074098587036,-1.03717994689941,7.47259998321533,-0.320124000310898,0.0685980021953583,-0.266770005226135,-725.100036621094,174.300003051758,-971.700012207031,0.989179903217085,-0.515169134785668,0.138751916556509,ST
8.1,-4.63859891891479,-1.18731379508972,8.45056343078613,-1.36433792114258,0.792688012123108,0.46494197845459,-720.300048828125,179.100006103516,-957.300048828125,0.980602804844367,-0.499390642360197,0.14163304401784,ST
8.13333333333333,-4.21810436248779,-1.21901535987854,8.45355415344238,-1.22714197635651,0.198172003030777,0.792688012123108,-717.900024414062,168.300003051758,-969.300048828125,0.969301733595498,-0.459299913338378,0.144700560148201,ST
8.16666666666667,-5.06686925888062,-1.42298209667206,9.58105373382568,-1.05945801734924,-0.289635986089706,0.914639949798584,-729.900024414062,179.100006103516,-950.100036621094,0.955964680425685,-0.481688990476155,0.148426443649825,ST
8.2,-4.05241870880127,-1.55756425857544,8.10962200164795,-0.388722002506256,-1.86738991737366,0.746955990791321,-720.300048828125,177.300003051758,-962.100036621094,0.961627683760668,-0.453262560561892,0.189495189125778,ST
8.23333333333333,-3.61457800865173,-1.75076448917389,8.66649341583252,-0.365855991840363,-0.541162014007568,0.518296003341675,-722.700012207031,176.700012207031,-966.900024414062,0.958388188142256,-0.387385810637169,0.199525409070975,ST
8.26666666666667,-3.62654089927673,-1.08981645107269,7.6269211769104,0.46494197845459,-0.846041977405548,0.716467976570129,-729.900024414062,179.100006103516,-959.700012207031,0.928811226817176,-0.438619281557853,0.14048483402343,ST
8.3,-3.65884065628052,-1.70829629898071,8.50977993011475,0.548784017562866,0.922261953353882,0.777444005012512,-708.300048828125,174.300003051758,-974.100036621094,0.948336354934875,-0.400814898201286,0.196683486831725,ST
8.33333333333333,-4.00097846984863,-1.64668762683868,9.05947303771973,0.586893975734711,-0.274392008781433,0.114329993724823,-722.700012207031,177.300003051758,-962.100036621094,0.942107152488248,-0.409460563073406,0.178667905171969,ST
8.36666666666667,-4.02430582046509,-1.61319160461426,9.27241230010986,0.221037998795509,-0.67835795879364,0.396344006061554,-713.100036621094,171.300003051758,-962.100036621094,0.935340732146415,-0.403015015139618,0.171495835276664,ST
8.4,-3.82572245597839,-1.70470750331879,8.27710247039795,0.182927995920181,0.853663980960846,1.13567793369293,-720.300048828125,174.300003051758,-969.300048828125,0.938993593756693,-0.426947531134126,0.20203565831655,ST
8.43333333333333,-5.13625383377075,-1.5503865480423,8.77296257019043,0.0762199983000755,1.50153398513794,1.265251994133,-729.900024414062,177.900009155273,-964.500061035156,0.917589028028793,-0.525873744678598,0.17380957990603,ST
8.46666666666667,-3.67558860778809,-1.73102581501007,8.58813667297363,0.221037998795509,1.34147191047668,1.54726600646973,-720.300048828125,180.900009155273,-959.700012207031,0.917279762224908,-0.400161671743319,0.197567486161483,ST
8.5,-3.75215077400208,-1.17535090446472,8.56779956817627,0.556405961513519,-0.282013982534409,0.6250039935112,-720.300048828125,180.300003051758,-966.900024414062,0.888610032152689,-0.409015508451839,0.13490938354951,ST
8.53333333333333,-3.63611102104187,-1.05811488628387,7.21719312667847,1.05183601379395,-0.228659987449646,0.731711983680725,-722.700012207031,178.5,-969.300048828125,0.889785798540168,-0.462182513422882,0.143072889588078,ST
8.56666666666667,-4.3245735168457,-1.51449799537659,8.07193946838379,0.243903994560242,0.602137982845306,0.0838419944047928,-703.5,174.300003051758,-969.300048828125,0.910425596623875,-0.485723651709848,0.185051111432668,ST
8.6,-4.97774600982666,-1.746577501297,8.51456546783447,0.106707997620106,0.46494197845459,0.0228659994900227,-717.900024414062,175.5,-966.900024414062,0.919909414550188,-0.520880242422478,0.202196551826663,ST
8.63333333333333,-5.20204925537109,-2.0432562828064,9.14022254943848,0.198172003030777,-0.708845973014832,-0.411587983369827,-715.5,180.300003051758,-971.700012207031,0.931816441397323,-0.505649278869981,0.219809614093607,ST
8.66666666666667,-4.44719314575195,-1.77827906608582,9.14979267120361,0.731711983680725,-2.36281991004944,-0.525918006896973,-720.300048828125,177.300003051758,-971.700012207031,0.922887907133808,-0.440965995878719,0.190742560874099,ST
8.7,-4.37601375579834,-1.54919028282166,7.8954873085022,1.43293595314026,-1.6768399477005,0.0228659994900227,-715.5,174.900009155273,-978.900024414062,0.92679669708398,-0.495221664327374,0.19092382736941,ST
8.73333333333333,-3.83828353881836,-1.51389980316162,8.06595802307129,1.73781597614288,-0.266770005226135,0.25152599811554,-715.5,171.300003051758,-966.900024414062,0.927931375981528,-0.437138339943371,0.182263193878841,ST
8.76666666666667,-4.00157642364502,-1.58388257026672,8.0234899520874,1.53202199935913,0.403965979814529,0.594515979290009,-727.5,177.900009155273,-976.500061035156,0.934262323800302,-0.455921037656176,0.191786472036179,ST
8.8,-4.41309881210327,-1.56354570388794,8.56421089172363,1.19665396213531,0.205793991684914,0.327746003866196,-722.700012207031,171.900009155273,-976.500061035156,0.931431998572445,-0.469617202629199,0.178241659652781,ST
8.83333333333333,-3.98841738700867,-1.65207087993622,8.76758003234863,0.899396002292633,-0.388722002506256,-0.0609759986400604,-717.900024414062,175.5,-969.300048828125,0.938081012910806,-0.41973033448348,0.184663207210929,ST
8.86666666666667,-4.07933521270752,-1.64070618152618,8.728102684021,0.3125019967556,-1.11281192302704,-0.282013982534409,-717.900024414062,180.900009155273,-969.300048828125,0.940499274281177,-0.428585683720895,0.185322687069427,ST
8.9,-4.202552318573,-1.6024249792099,8.71135425567627,-0.236281991004944,-0.25152599811554,0.0,-717.900024414062,177.900009155273,-978.900024414062,0.937747461386353,-0.442567333159975,0.182290176034659,ST
8.93333333333333,-4.45496892929077,-1.70470750331879,9.09775447845459,0.213415995240211,0.503051996231079,0.167683988809586,-703.5,177.900009155273,-978.900024414062,0.939108204378487,-0.449488944649036,0.184793754688777,ST
8.96666666666667,-4.16726207733154,-1.42358028888702,7.97982549667358,0.739333987236023,0.411587983369827,0.769822001457214,-715.5,174.300003051758,-986.100036621094,0.931725496817441,-0.475792270929983,0.174640956833689,ST
9.0,-4.36225652694702,-1.77887713909149,7.10234975814819,0.480185985565186,2.69818782806396,0.990859985351562,-708.300048828125,173.700012207031,-969.300048828125,0.965113542077321,-0.542261644133758,0.24420108072308,ST
9.03333333333333,-4.15111207962036,-2.09409856796265,11.3090887069702,-0.426831990480423,0.564027965068817,-0.457319974899292,-693.900024414062,174.300003051758,-978.900024414062,0.943015594495315,-0.347339950355637,0.184230242349751,ST
9.06666666666667,-3.96927666664124,-1.48937594890594,7.17831373214722,1.31098401546478,-3.30032587051392,1.18903195858002,-715.5,182.100006103516,-983.700012207031,0.939054517062288,-0.490899008031543,0.200568020401026,ST
9.1,-4.68106698989868,-1.72923135757446,9.42075157165527,0.175305992364883,0.990859985351562,0.907018005847931,-715.5,176.100006103516,-981.300048828125,0.923998557877337,-0.456591360553726,0.180628234388104,ST
9.13333333333333,-4.83778047561646,-1.44690787792206,9.341796875,0.92988395690918,0.25152599811554,1.49391198158264,-701.100036621094,171.300003051758,-974.100036621094,0.90116027035589,-0.473832956440492,0.150767599945096,ST
9.16666666666667,-4.64936542510986,-1.28301668167114,8.24360656738281,1.15854394435883,0.952749967575073,1.79117000102997,-710.700012207031,173.100006103516,-971.700012207031,0.891937604532206,-0.510516457427411,0.150790474071509,ST
9.2,-4.81385469436646,-1.03119850158691,8.12696838378906,1.11281192302704,1.08994603157043,1.2423859834671,-705.900024414062,177.900009155273,-966.900024414062,0.874207092294843,-0.533405996528543,0.12316126309503,ST
9.23333333333333,-4.29107761383057,-0.913962483406067,8.42783451080322,1.04421401023865,0.342989981174469,1.2576299905777,-710.700012207031,181.5,-978.900024414062,0.85939178398527,-0.469460147176599,0.105139295788151,ST
9.26666666666667,-3.6313259601593,-0.805698573589325,7.62512636184692,0.586893975734711,-1.78354799747467,1.04421401023865,-703.5,172.5,-969.300048828125,0.84946004312957,-0.439410697940097,0.103243873563954,ST
9.3,-5.4078106880188,-0.82663357257843,7.96546983718872,-0.342989981174469,0.266770005226135,1.6615959405899,-710.700012207031,174.900009155273,-971.700012207031,0.831888922994315,-0.594633893978903,0.102089245518907,ST
9.33333333333333,-4.64577627182007,-1.03299295902252,9.09536170959473,-0.381099998950958,-0.853663980960846,1.77592599391937,-710.700012207031,178.5,-983.700012207031,0.817575177157233,-0.468584414617668,0.112103101238255,ST
9.36666666666667,-4.29167604446411,-1.17415463924408,8.09287452697754,-0.37347799539566,-1.44055795669556,1.53202199935913,-708.300048828125,174.300003051758,-983.700012207031,0.814197499141027,-0.481180128144535,0.143138582470296,ST
9.4,-4.26176881790161,-0.91874760389328,8.27231693267822,-0.182927995920181,-0.0152439996600151,0.282013982534409,-705.900024414062,178.5,-990.900024414062,0.795827802123046,-0.473264118846727,0.110700736262722,ST
9.43333333333333,-3.69472908973694,-0.95463615655899,8.09227657318115,0.198172003030777,-0.129574000835419,0.0685980021953583,-710.700012207031,174.300003051758,-993.300048828125,0.798661354659487,-0.425512960935445,0.117011656299178,ST
9.46666666666667,-4.03148365020752,-0.908579170703888,7.61196756362915,0.0076219998300075,-0.0304879993200302,-0.647870004177094,-698.700012207031,173.700012207031,-995.700012207031,0.806179883119897,-0.48393905161838,0.119372459221083,ST
9.5,-4.89639854431152,-1.11493849754333,7.89309453964233,-0.411587983369827,0.609759986400604,0.190549999475479,-708.300048828125,174.900009155273,-986.100036621094,0.813732909522806,-0.551875652791945,0.140917250838723,ST
9.53333333333333,-5.28459310531616,-1.33864402770996,9.30471229553223,-0.0685980021953583,0.0762199983000755,0.228659987449646,-691.5,177.900009155273,-988.500061035156,0.81239744847,-0.512348909493767,0.14279362987742,ST
9.56666666666667,-5.12010383605957,-1.28720366954803,8.67965221405029,-0.106707997620106,-0.274392008781433,0.419209986925125,-708.300048828125,174.300003051758,-1000.50006103516,0.809829689426111,-0.5278322969932,0.146948506489599,ST
9.6,-3.9758563041687,-1.251913189888,8.16106224060059,0.152439996600151,-1.2347639799118,-0.449698001146317,-715.5,168.900009155273,-1000.50006103516,0.815395349727934,-0.446582632135052,0.152159614749029,ST
9.63333333333333,-3.71446776390076,-1.03837621212006,8.36323547363281,0.533540010452271,-0.907018005847931,-0.381099998950958,-715.5,176.700012207031,-993.300048828125,0.807899449756596,-0.413513842988228,0.122821829769756,ST
9.66666666666667,-4.31739616394043,-1.10297560691833,8.57437992095947,0.731711983680725,-0.243903994560242,0.106707997620106,-701.100036621094,178.5,-983.700012207031,0.811539139838259,-0.462738855207039,0.126534333635785,ST
9.7,-4.62783193588257,-1.13826608657837,7.8835244178772,0.449698001146317,-0.0228659994900227,0.25152599811554,-720.300048828125,180.900009155273,-988.500061035156,0.819084051193374,-0.526319402423406,0.142344470447059,ST
9.73333333333333,-5.18589973449707,-1.39068245887756,8.84115123748779,-0.205793991684914,0.701223969459534,0.342989981174469,-720.300048828125,177.300003051758,-990.900024414062,0.822677126823086,-0.526466174956583,0.156138271621727,ST
9.76666666666667,-4.39694881439209,-1.35898077487946,8.67726039886475,-0.403965979814529,-1.75305998325348,-0.106707997620106,-693.900024414062,176.700012207031,-993.300048828125,0.819138071284193,-0.461139113033775,0.155913220495473,ST
9.8,-4.17743062973022,-1.22798752784729,7.88472080230713,-0.388722002506256,-1.31098401546478,-0.160062000155449,-720.300048828125,170.700012207031,-1002.90002441406,0.816322297590724,-0.47996248123292,0.155140593616121,ST
9.83333333333333,-4.18281364440918,-1.48578715324402,7.67297792434692,-0.87652999162674,1.12043392658234,0.411587983369827,-722.700012207031,180.300003051758,-1000.50006103516,0.82721175743101,-0.493457798598394,0.192609971144556,ST
9.86666666666667,-4.52196073532104,-1.46664655208588,7.64725780487061,-0.426831990480423,1.63872992992401,0.83841997385025,-713.100036621094,175.5,-995.700012207031,0.818974069181064,-0.529191135055958,0.18970833512226,ST
9.9,-5.26664876937866,-1.65565979480743,8.57318305969238,-0.259148001670837,1.2500079870224,0.609759986400604,-710.700012207031,165.300003051758,-1002.90002441406,0.81495499788135,-0.545080552997111,0.190841027585498,ST
9.93333333333333,-5.82471609115601,-2.1951847076416,10.4878387451172,-0.449698001146317,-0.0304879993200302,-0.297257989645004,-696.300048828125,180.900009155273,-998.100036621094,0.823524860009642,-0.497791375672038,0.207371952706555,ST
9.96666666666667,-3.78205800056458,-1.97327363491058,9.74315071105957,0.205793991684914,-3.23172783851624,-0.525918006896973,-708.300048828125,171.300003051758,-1000.50006103516,0.819814332816899,-0.357934580118706,0.199390209805374,ST
10.0,-3.36933946609497,-1.55995690822601,7.41757106781006,0.342989981174469,-2.17227005958557,-0.297257989645004,-720.300048828125,180.900009155273,-993.300048828125,0.822477112710961,-0.41442328496751,0.206560854935183,ST
10.0333333333333,-3.88852739334106,-1.62874329090118,7.76927900314331,-0.495429992675781,0.144817993044853,0.335367977619171,-720.300048828125,181.5,-995.700012207031,0.817758533685923,-0.455833467437381,0.207255256766219,ST
10.0666666666667,-4.01593208312988,-1.90448725223541,7.98102188110352,-0.358233988285065,1.99696397781372,1.2500079870224,-710.700012207031,180.900009155273,-995.700012207031,0.820667217807755,-0.459061007343267,0.234207323483552,ST
10.1,-3.63371849060059,-1.44571161270142,8.22446632385254,0.0381099991500378,-1.21951997280121,1.29574000835419,-708.300048828125,180.900009155273,-1005.30004882812,0.780831856254504,-0.40876400228472,0.172856803404733,ST
10.1333333333333,-3.67558860778809,-1.47502052783966,7.85840225219727,0.0228659994900227,-0.144817993044853,1.36433792114258,-715.5,180.900009155273,-1002.90002441406,0.772728438704104,-0.431062361401982,0.184394910514551,ST
10.1666666666667,-4.17384147644043,-1.53244233131409,8.57378101348877,-0.121951997280121,1.05183601379395,1.33385002613068,-713.100036621094,174.300003051758,-1010.10003662109,0.758123535693927,-0.449088010738541,0.176138676918779,ST
10.2,-5.77686500549316,-1.53124594688416,8.73109340667725,-0.243903994560242,1.03659200668335,1.39482593536377,-696.300048828125,176.700012207031,-1010.10003662109,0.744626439784791,-0.579670179247133,0.172677371499962,ST
10.2333333333333,-6.53830099105835,-1.72624063491821,9.81133937835693,-0.114329993724823,1.79879200458527,1.89025592803955,-715.5,177.900009155273,-1010.10003662109,0.730476367201764,-0.58446257566335,0.172570999934344,ST
10.2666666666667,-4.51777362823486,-1.39307498931885,8.34529113769531,0.937505960464478,-0.914639949798584,1.265251994133,-698.700012207031,176.700012207031,-1000.50006103516,0.716365469387312,-0.489257764402114,0.162470482888459,ST
10.3,-4.16726207733154,-1.03299295902252,6.78473567962646,1.2347639799118,0.304879993200302,0.350611984729767,-701.100036621094,186.300003051758,-1002.90002441406,0.713388271547424,-0.546282765928385,0.148628275981202,ST
10.3333333333333,-4.94125890731812,-0.984543323516846,7.43132829666138,1.17378795146942,1.19665396213531,0.106707997620106,-693.900024414062,179.100006103516,-995.700012207031,0.71038284308356,-0.584857006264384,0.129743224854557,ST
10.3666666666667,-4.84615421295166,-0.999496877193451,7.81832695007324,1.17378795146942,0.442075997591019,0.480185985565186,-689.100036621094,182.100006103516,-1010.10003662109,0.710381809997408,-0.552156362200508,0.124653828778457,ST
10.4,-5.13386106491089,-0.986337780952454,8.03365802764893,0.731711983680725,-0.960371971130371,0.37347799539566,-691.5,176.100006103516,-1022.10003662109,0.707874944018229,-0.563652170524708,0.120352385406131,ST
10.4333333333333,-4.45795965194702,-1.23695969581604,8.56600570678711,0.533540010452271,-1.82927989959717,-0.0457319989800453,-677.100036621094,180.300003051758,-1005.30004882812,0.719462987015229,-0.472536106123303,0.142272501205214,ST
10.4666666666667,-4.63082265853882,-1.3159145116806,8.54028511047363,-0.0076219998300075,-3.02593398094177,-0.762199997901917,-698.700012207031,179.100006103516,-1002.90002441406,0.727175808025318,-0.486527293891062,0.15315606118155,ST
10.5,-4.85153770446777,-1.3900842666626,8.95838737487793,-0.945127964019775,-2.82776188850403,-0.0076219998300075,-698.700012207031,177.900009155273,-1012.50006103516,0.719621008673656,-0.486499984116534,0.155198321503956,ST
10.5333333333333,-4.20793581008911,-1.65685606002808,9.28078651428223,-0.990859985351562,-3.40703392028809,0.884151995182037,-708.300048828125,173.100006103516,-1012.50006103516,0.711212046446918,-0.414282931991959,0.177249205192078,ST
10.5666666666667,-2.69463419914246,-1.23097825050354,7.71783876419067,-1.20427596569061,-4.67990779876709,1.09756803512573,-708.300048828125,183.900009155273,-1010.10003662109,0.679909839760936,-0.324282905410685,0.159202724623266,ST
10.6,-3.50033259391785,-0.970187902450562,7.1884822845459,-1.48628997802734,-1.98934197425842,1.12805593013763,-708.300048828125,185.700012207031,-1000.50006103516,0.649740994550108,-0.446386058247804,0.135600855119374,ST
10.6333333333333,-4.32756423950195,-1.1035737991333,9.13962459564209,-1.12043392658234,-2.30184388160706,1.44055795669556,-727.5,182.100006103516,-1002.90002441406,0.622388781774726,-0.435749420659444,0.120744299641273,ST
10.6666666666667,-3.5571563243866,-1.1376678943634,8.00016212463379,-0.731711983680725,-3.46038794517517,0.92988395690918,-725.100036621094,186.300003051758,-1014.90002441406,0.614567433146328,-0.408949273712906,0.14145525015761,ST
10.7,-4.52255916595459,-1.22619307041168,8.77655220031738,-1.56251001358032,-3.02593398094177,0.556405961513519,-727.5,186.900009155273,-1010.10003662109,0.59802645162595,-0.466752926459869,0.140689638667665,DLL
10.7333333333333,-4.88981866836548,-1.04914271831512,8.93625640869141,-2.81251788139343,-3.26221585273743,2.22562384605408,-717.900024414062,183.300003051758,-1005.30004882812,0.547194697664135,-0.492607686365173,0.119357577590288,DLL
10.7666666666667,-5.02739191055298,-0.52636581659317,8.58933353424072,-3.42227792739868,-3.28508186340332,4.33691787719727,-727.5,188.100006103516,-1002.90002441406,0.459133185441729,-0.523465256341204,0.0626495392246181,DLL
10.8,-6.44499063491821,-0.744687974452972,7.19266939163208,-7.65248775482178,-3.17837381362915,10.9909238815308,-729.900024414062,189.900009155273,-1005.30004882812,0.327668840019467,-0.724293801793571,0.099143681903196,DLL
10.8333333333333,-2.61448287963867,-3.00207948684692,8.45235824584961,-12.0961141586304,-3.64331603050232,12.667763710022,-739.5,199.500015258789,-1002.90002441406,0.268607174672908,-0.285513386294779,0.355552813907739,DLL
10.8666666666667,-2.79930901527405,-2.73530769348145,7.50370359420776,-11.4406213760376,-3.12502002716064,11.6006841659546,-734.700012207031,199.500015258789,-1007.70001220703,0.105440676346181,-0.339190653296451,0.362156971749596,DLL
10.9,-3.65166282653809,-2.48468589782715,8.54327583312988,-8.21651554107666,-0.388722002506256,9.68756198883057,-734.700012207031,205.500015258789,-1002.90002441406,-0.0421629579671835,-0.393633965155199,0.290605775923469,DLL
10.9333333333333,-3.97286558151245,-2.7562427520752,8.47628402709961,-6.44058990478516,-0.762199997901917,9.18451023101807,-729.900024414062,207.900009155273,-993.300048828125,-0.146506272058148,-0.423041016783562,0.318563989570609,DLL
10.9666666666667,-3.43214440345764,-3.33644151687622,8.4415922164917,-6.12046575546265,-2.85062789916992,7.44669389724731,-732.300048828125,204.300003051758,-1000.50006103516,-0.225390936953056,-0.361759689978329,0.381770691173397,DLL
11.0,-2.94645237922668,-3.73480463027954,8.44398403167725,-6.26528406143188,-3.67380380630493,5.86131763458252,-739.5,210.900009155273,-995.700012207031,-0.299313650137854,-0.307309020979959,0.423542296294659,DLL
11.0333333333333,-2.90757298469543,-4.35747146606445,8.44039535522461,-6.7226037979126,-3.65093803405762,6.77595806121826,-734.700012207031,216.300003051758,-995.700012207031,-0.389673569414498,-0.29691819678169,0.484180242557193,DLL
11.0666666666667,-3.49913644790649,-4.13974761962891,8.27949523925781,-6.69973802566528,-1.92074394226074,7.87352561950684,-741.900024414062,215.700012207031,-983.700012207031,-0.500982036571388,-0.364622811080786,0.4700839107271,DLL
11.1,-3.59304475784302,-3.5954372882843,7.16754722595215,-5.09149599075317,-0.228659987449646,9.07017993927002,-732.300048828125,218.700012207031,-981.300048828125,-0.61002036116289,-0.428012856149509,0.467296910033156,DLL
11.1333333333333,-4.75822734832764,-3.17434477806091,8.06416320800781,-5.47259569168091,-0.0533539988100529,8.89487361907959,-717.900024414062,218.700012207031,-974.100036621094,-0.752916351812497,-0.507679757674862,0.376575984646088,DLL
11.1666666666667,-4.89699649810791,-3.12948393821716,7.96128273010254,-5.35826587677002,-1.20427596569061,10.5412254333496,-715.5,216.300003051758,-966.900024414062,-0.874094666758606,-0.524670554192541,0.373524025594467,DLL
11.2,-4.38737869262695,-3.84247040748596,7.89847803115845,-6.02137994766235,-0.868907988071442,10.228723526001,-696.300048828125,226.500015258789,-959.700012207031,-0.95251120414553,-0.469764813035076,0.454722881478919,DLL
11.2333333333333,-4.82342481613159,-3.55356740951538,8.30700969696045,-5.40399789810181,-0.175305992364883,9.00158214569092,-698.700012207031,222.900009155273,-957.300048828125,-1.08370770991928,-0.496273048690102,0.405781179307258,DLL
11.2666666666667,-3.66960716247559,-4.2683482170105,8.26095294952393,-4.49697971343994,-1.37958192825317,6.34912586212158,-693.900024414062,224.100006103516,-950.100036621094,-1.13483874361236,-0.378918687274145,0.48035828540422,DLL
11.3,-4.05421304702759,-3.71267342567444,7.94812393188477,-3.19361782073975,-1.74543797969818,5.05338573455811,-701.100036621094,230.100006103516,-959.700012207031,-1.21519857269357,-0.433859503288709,0.438300054886719,DLL
11.3333333333333,-4.14812135696411,-3.91484570503235,7.65981912612915,-1.59299790859222,-0.830797970294952,4.11588001251221,-691.5,226.500015258789,-947.700012207031,-1.24582277599747,-0.451276846663592,0.471813215750069,DLL
11.3666666666667,-4.95800685882568,-3.3226842880249,7.09636831283569,-2.0731840133667,-0.914639949798584,3.71191382408142,-691.5,232.500015258789,-950.100036621094,-1.30684102177781,-0.565362484204297,0.437401938839588,DLL
11.4,-5.81155729293823,-3.18929839134216,7.31588649749756,-2.89635992050171,-0.541162014007568,4.31405210494995,-693.900024414062,226.500015258789,-940.500061035156,-1.37432340395022,-0.631487849066219,0.410853420041771,DLL
11.4333333333333,-5.97664451599121,-3.26107549667358,7.00246000289917,-4.17685604095459,-0.975615978240967,5.32015609741211,-689.100036621094,229.500015258789,-959.700012207031,-1.42859220859367,-0.660862900510234,0.435999342938708,DLL
11.4666666666667,-6.24820137023926,-2.67250275611877,7.46542263031006,-4.5655779838562,-0.495429992675781,6.30339384078979,-689.100036621094,227.100006103516,-933.300048828125,-1.56684428684043,-0.670257245520152,0.343341308128155,DLL
11.5,-5.87555837631226,-2.61029601097107,7.77526044845581,-3.96343994140625,-0.800309956073761,6.00613594055176,-665.100036621094,228.900009155273,-930.900024414062,-1.6595860975871,-0.623655015664936,0.323340022018029,DLL
11.5333333333333,-4.29526472091675,-3.19767236709595,8.2621488571167,-2.73629784584045,-2.4923939704895,4.02441596984863,-662.700012207031,230.100006103516,-928.500061035156,-1.69479124003649,-0.44999501515967,0.370098898495961,DLL
11.5666666666667,-3.34840440750122,-3.55296921730042,7.7997841835022,-1.83690190315247,-3.73477983474731,1.04421401023865,-667.5,240.900009155273,-928.500061035156,-1.70319729331868,-0.367315274519071,0.428929321858799,DLL
11.6,-3.5733060836792,-3.68755149841309,7.78243827819824,0.358233988285065,-2.23324584960938,-0.823175966739655,-674.700012207031,230.700012207031,-926.100036621094,-1.69909285305462,-0.389161445811225,0.441710396589518,DLL
11.6333333333333,-3.43872404098511,-4.33115339279175,7.74475526809692,1.77592599391937,-0.442075997591019,-2.37806391716003,-681.900024414062,222.900009155273,-926.100036621094,-1.64749145238835,-0.367021276099729,0.508033837781947,DLL
11.6666666666667,-4.83478975296021,-3.16357827186584,8.29504680633545,3.55185198783875,0.175305992364883,-4.10063600540161,-689.100036621094,224.100006103516,-930.900024414062,-1.65628883453606,-0.496334696351648,0.361941428749809,DLL
11.7,-4.27791833877563,-3.61996126174927,7.69929647445679,5.12960577011108,1.08994603157043,-4.2149658203125,-701.100036621094,227.100006103516,-923.700012207031,-1.55899405248961,-0.46456572482555,0.434232935958244,DLL
11.7333333333333,-3.52485656738281,-4.22288942337036,7.85840225219727,5.03051996231079,1.10518991947174,-5.63265800476074,-691.5,224.700012207031,-940.500061035156,-1.46428999182462,-0.373454544393957,0.488031550402892,DLL
11.7666666666667,-4.84077119827271,-3.63192415237427,8.15807151794434,6.16619777679443,0.807931959629059,-7.28663206100464,-703.5,225.300003051758,-938.100036621094,-1.39594141426536,-0.492858642486935,0.414652057009034,DLL
11.8,-4.89998722076416,-3.64747595787048,7.50011491775513,7.33998584747314,1.92074394226074,-7.5762677192688,-725.100036621094,226.500015258789,-940.500061035156,-1.26632256260519,-0.528490116403582,0.447604941445877,DLL
11.8333333333333,-4.9454460144043,-3.41120934486389,6.5377025604248,4.81710386276245,1.32622802257538,-5.69363403320312,-717.900024414062,223.500015258789,-947.700012207031,-1.16610131514125,-0.588209905285282,0.479078031361751,DLL
11.8666666666667,-4.67568349838257,-3.75813221931458,6.72791194915771,2.0731840133667,0.426831990480423,-3.70429182052612,-732.300048828125,223.500015258789,-947.700012207031,-1.10553732980408,-0.542870153845087,0.509405909924078,DLL
11.9,-4.63261747360229,-3.48478102684021,7.42175817489624,1.45580196380615,0.274392008781433,-1.11281192302704,-732.300048828125,218.700012207031,-959.700012207031,-1.12419385929698,-0.513927496037723,0.437599485074694,DLL
11.9333333333333,-5.0531120300293,-3.02002382278442,7.70049238204956,0.533540010452271,-0.823175966739655,-0.472563982009888,-722.700012207031,221.700012207031,-947.700012207031,-1.15261664287343,-0.546746808108109,0.372997011464891,DLL
11.9666666666667,-4.62962675094604,-3.2927770614624,7.77944755554199,-0.350611984729767,-1.02897000312805,0.617381989955902,-725.100036621094,224.700012207031,-947.700012207031,-1.15022727984783,-0.500122413126127,0.400076658395638,DLL
12.0,-4.30722761154175,-3.07146406173706,8.29086017608643,-0.472563982009888,-1.265251994133,0.807931959629059,-737.100036621094,222.900009155273,-957.300048828125,-1.18443189054656,-0.451778104811397,0.354630895156364,DLL
12.0333333333333,-3.2987585067749,-3.46743488311768,8.19216632843018,-0.121951997280121,-1.05945801734924,-0.693601965904236,-725.100036621094,221.700012207031,-954.900024414062,-1.16449957996989,-0.353002460208817,0.400723621763858,DLL
12.0666666666667,-3.82033920288086,-3.76710438728333,7.75193309783936,0.0990860015153885,0.411587983369827,-1.60061991214752,-729.900024414062,221.700012207031,-966.900024414062,-1.12888147644244,-0.41660839551009,0.453386782455154,DLL
12.1,-4.17623424530029,-3.73061776161194,8.37699222564697,0.548784017562866,0.92988395690918,-1.76068198680878,-729.900024414062,217.500015258789,-954.900024414062,-1.12159815267202,-0.427571003543152,0.419619483697028,DLL
12.1333333333333,-3.92501425743103,-3.64448523521423,8.10364055633545,2.56861400604248,1.50153398513794,-2.02745199203491,-732.300048828125,225.300003051758,-957.300048828125,-1.08517196988001,-0.416915218706757,0.420054293885734,DLL
12.1666666666667,-5.23733997344971,-2.97635936737061,7.43970251083374,2.29422187805176,1.76068198680878,-1.96647596359253,-734.700012207031,217.500015258789,-959.700012207031,-1.0670799332567,-0.580436248342818,0.379406862292821,DLL
12.2,-5.34380912780762,-2.70240998268127,7.22377252578735,0.350611984729767,1.73781597614288,0.518296003341675,-720.300048828125,219.900009155273,-954.900024414062,-1.07616177946364,-0.609052905459874,0.35753583113717,DLL
12.2333333333333,-4.62783193588257,-3.5332305431366,7.5551438331604,-0.297257989645004,1.28811800479889,2.27897787094116,-715.5,214.500015258789,-959.700012207031,-1.05092278522961,-0.510320131545924,0.436451874396624,DLL
12.2666666666667,-4.50162410736084,-3.61756873130798,7.47259998321533,-1.48628997802734,-0.282013982534409,2.03507399559021,-722.700012207031,222.300003051758,-942.900024414062,-1.0703106915346,-0.49796339439312,0.451588055477841,DLL
12.3,-4.26655387878418,-3.8478536605835,7.37151384353638,-1.29574000835419,-0.327746003866196,1.72257196903229,-710.700012207031,227.700012207031,-950.100036621094,-1.07913274884266,-0.474963354555461,0.481825439598329,DLL
12.3333333333333,-4.70858144760132,-3.44590163230896,7.69810009002686,-0.907018005847931,-0.632625997066498,1.54726600646973,-705.900024414062,215.700012207031,-950.100036621094,-1.12761466333457,-0.509246093281867,0.420882746583288,DLL
12.3666666666667,-4.47171688079834,-3.34242296218872,6.84395170211792,0.266770005226135,-0.190549999475479,2.05031800270081,-710.700012207031,224.700012207031,-950.100036621094,-1.12811654661485,-0.532132885425939,0.451837386542688,DLL
12.4,-3.77368402481079,-4.09488677978516,7.14421987533569,-0.228659987449646,-0.175305992364883,-0.0381099991500378,-720.300048828125,219.900009155273,-952.500061035156,-1.09761243955683,-0.429491265262775,0.520769185215321,DLL
12.4333333333333,-4.83478975296021,-3.69114017486572,6.97195434570312,-1.12805593013763,-0.571649968624115,0.137196004390717,-720.300048828125,221.100006103516,-940.500061035156,-1.12301745569197,-0.549021965954218,0.488476908668669,DLL
12.4666666666667,-4.76361083984375,-4.38020086288452,7.36971950531006,-1.6768399477005,-0.457319974899292,0.0381099991500378,-713.100036621094,222.900009155273,-954.900024414062,-1.10853256622072,-0.506547322294217,0.538887222661261,DLL
12.5,-5.11890745162964,-4.27552604675293,7.8356728553772,-0.868907988071442,-0.327746003866196,1.15854394435883,-722.700012207031,221.100006103516,-954.900024414062,-1.14409955761283,-0.521144117427688,0.499849384678138,DLL
12.5333333333333,-5.2941632270813,-4.07335376739502,7.8775429725647,-0.442075997591019,-0.78506600856781,1.47104597091675,-693.900024414062,222.300003051758,-930.900024414062,-1.17477283544024,-0.538144139444959,0.476263591361655,DLL
12.5666666666667,-4.73968505859375,-3.35558199882507,7.47559070587158,0.663114011287689,-1.10518991947174,2.5076379776001,-701.100036621094,223.500015258789,-945.300048828125,-1.22602908581161,-0.52442810537434,0.418023339187234,DLL
12.6,-3.26765513420105,-3.901686668396,6.81524085998535,0.769822001457214,-1.16616594791412,2.14178204536438,-715.5,227.700012207031,-933.300048828125,-1.20189220693,-0.394483098412494,0.516763205753449,DLL
12.6333333333333,-3.85204076766968,-3.20604634284973,6.6034984588623,-0.0,-1.47104597091675,0.830797970294952,-715.5,225.300003051758,-950.100036621094,-1.24281224518524,-0.481513124578453,0.450771217661034,DLL
12.6666666666667,-3.88553667068481,-4.04823160171509,7.55574178695679,-0.922261953353882,-0.37347799539566,-0.0381099991500378,-713.100036621094,221.100006103516,-950.100036621094,-1.22996667695381,-0.424997919102474,0.493345212537836,DLL
12.7,-5.02798986434937,-4.14034557342529,7.97324562072754,-1.6692179441452,-0.472563982009888,-0.106707997620106,-708.300048828125,227.700012207031,-945.300048828125,-1.24540160420496,-0.509379241882194,0.481750016914489,DLL
12.7333333333333,-4.70140361785889,-4.61048603057861,8.31657981872559,-1.43293595314026,0.0533539988100529,0.289635986089706,-713.100036621094,225.300003051758,-945.300048828125,-1.24174384987825,-0.459533738486041,0.508479075108094,DLL
12.7666666666667,-5.3420147895813,-4.33294773101807,8.2621488571167,-0.381099998950958,-0.0762199983000755,0.685979962348938,-708.300048828125,216.900009155273,-945.300048828125,-1.26166795498503,-0.520433137064682,0.483040193356345,DLL
12.8,-4.79112529754639,-4.02490425109863,7.46781492233276,1.12043392658234,-0.243903994560242,1.65397393703461,-717.900024414062,223.500015258789,-940.500061035156,-1.26679572832251,-0.515098229780908,0.490821196755137,DLL
12.8333333333333,-3.85921835899353,-4.07275533676147,6.88342952728271,1.47866797447205,-0.198172003030777,1.20427596569061,-713.100036621094,220.500015258789,-940.500061035156,-1.25213121058073,-0.450370271133871,0.530713572916579,DLL
12.8666666666667,-4.83957481384277,-3.61218547821045,6.9019718170166,1.19665396213531,0.0152439996600151,1.07470202445984,-720.300048828125,225.900009155273,-945.300048828125,-1.27903580171244,-0.556709568577811,0.479083287739161,DLL
12.9,-5.1452260017395,-3.68097186088562,7.07064819335938,0.815553963184357,0.0838419944047928,1.37195992469788,-717.900024414062,227.700012207031,-935.700012207031,-1.28573956058687,-0.574394607578497,0.477237790917912,DLL
12.9333333333333,-5.55495357513428,-3.43812584877014,7.47678709030151,-0.0533539988100529,-0.426831990480423,2.40855193138123,-710.700012207031,224.700012207031,-945.300048828125,-1.33523704221973,-0.594822514563702,0.428321040430885,DLL
12.9666666666667,-5.60101079940796,-3.50272512435913,7.9995641708374,-0.762199997901917,-0.602137982845306,2.24086785316467,-705.900024414062,225.900009155273,-945.300048828125,-1.37096661358073,-0.570897333553328,0.411479337024748,DLL
13.0,-4.71934795379639,-3.91664028167725,7.76868104934692,-0.365855991840363,-0.685979962348938,2.19513607025146,-713.100036621094,229.500015258789,-945.300048828125,-1.36789048295568,-0.497697958095314,0.465437147740783,DLL
13.0333333333333,-4.3401255607605,-3.98662281036377,6.83438158035278,-0.0152439996600151,-1.45580196380615,1.69970595836639,-701.100036621094,225.300003051758,-945.300048828125,-1.36018003801946,-0.501012899461823,0.525959247993138,DLL
13.0666666666667,-4.70977783203125,-3.48179030418396,7.2686333656311,-0.350611984729767,-2.11129403114319,0.525918006896973,-701.100036621094,226.500015258789,-950.100036621094,-1.41479420248262,-0.525912801227332,0.445962106808186,DLL
13.1,-4.63859891891479,-3.24971079826355,6.93965482711792,0.937505960464478,-1.62348592281342,2.28659987449646,-710.700012207031,220.500015258789,-945.300048828125,-1.44187327699019,-0.543434839363872,0.433411829158654,DLL
13.1333333333333,-3.55895066261292,-3.85503149032593,7.33682155609131,0.899396002292633,-2.01982998847961,0.716467976570129,-717.900024414062,220.500015258789,-950.100036621094,-1.43089441306802,-0.403160445566745,0.481014119720394,DLL
13.1666666666667,-4.68704843521118,-3.26406621932983,7.52942371368408,0.0990860015153885,-2.34757590293884,0.503051996231079,-717.900024414062,225.300003051758,-942.900024414062,-1.4758776185272,-0.515433065968787,0.407562263715364,DLL
13.2,-3.95551943778992,-3.64448523521423,8.23642826080322,-0.487807989120483,-1.97409796714783,0.297257989645004,-708.300048828125,228.300003051758,-940.500061035156,-1.48399634636657,-0.410951176701381,0.416615662855362,DLL
13.2333333333333,-3.67857933044434,-3.77607655525208,7.99178838729858,-0.243903994560242,-1.28049600124359,0.37347799539566,-725.100036621094,220.500015258789,-942.900024414062,-1.48435613258427,-0.39263929122057,0.441177689719086,DLL
13.2666666666667,-3.14742827415466,-4.04284811019897,7.63409852981567,-0.0838419944047928,-0.769822001457214,0.0152439996600151,-715.5,226.500015258789,-945.300048828125,-1.47166484624455,-0.348257370006513,0.486904925521244,DLL
13.3,-4.3042368888855,-3.49195861816406,8.0713415145874,-0.426831990480423,-0.78506600856781,-0.403965979814529,-720.300048828125,221.100006103516,-940.500061035156,-1.50342915192258,-0.453543429753955,0.409177707654855,DLL
13.3333333333333,-4.01054859161377,-3.29098272323608,7.5348072052002,0.381099998950958,-0.129574000835419,0.548784017562866,-720.300048828125,230.700012207031,-947.700012207031,-1.50632144386016,-0.453993447280668,0.410659616241627,DLL
13.3666666666667,-3.80658197402954,-3.68695330619812,7.74535322189331,0.823175966739655,0.266770005226135,0.457319974899292,-717.900024414062,224.100006103516,-942.900024414062,-1.4921066161999,-0.418426821326494,0.442599705084748,DLL
13.4,-3.83349823951721,-3.43334054946899,7.66819286346436,0.0914639979600906,-0.236281991004944,-0.228659987449646,-722.700012207031,219.300003051758,-942.900024414062,-1.49956599379379,-0.427513847086439,0.420916827558652,DLL
13.4333333333333,-4.22468376159668,-3.61876487731934,7.79798984527588,0.503051996231079,-0.121951997280121,-0.106707997620106,-720.300048828125,221.100006103516,-942.900024414062,-1.49108968696478,-0.456488208270304,0.433645428886956,DLL
13.4666666666667,-4.32576990127563,-3.54220271110535,7.94453477859497,-0.0076219998300075,-0.693601965904236,-1.71494996547699,-717.900024414062,224.100006103516,-947.700012207031,-1.48502245130041,-0.459159755653846,0.42054194995403,DLL
13.5,-3.99260425567627,-4.10206460952759,7.78303623199463,0.510673999786377,0.213415995240211,-0.564027965068817,-727.5,222.900009155273,-940.500061035156,-1.44970245339956,-0.425918349267377,0.484590458691165,DLL
13.5333333333333,-4.74985313415527,-3.84486293792725,8.11560344696045,1.05945801734924,0.198172003030777,0.0457319989800453,-710.700012207031,216.900009155273,-957.300048828125,-1.46310557335936,-0.486841681268636,0.440643311090552,DLL
13.5666666666667,-4.10505533218384,-3.82093739509583,7.75791454315186,0.945127964019775,0.198172003030777,-0.236281991004944,-727.5,221.700012207031,-950.100036621094,-1.44904056147926,-0.443358858984238,0.456234458976467,DLL
13.6,-4.16845846176147,-2.98951864242554,6.64177942276001,1.53202199935913,1.34909391403198,0.182927995920181,-734.700012207031,219.300003051758,-933.300048828125,-1.45391003620601,-0.522046065165379,0.42067874234745,DLL
13.6333333333333,-4.52076435089111,-3.35498404502869,7.53600311279297,2.52288198471069,2.94971394538879,0.708845973014832,-713.100036621094,227.100006103516,-945.300048828125,-1.43903832687944,-0.506556233521685,0.414985615285257,DLL
13.6666666666667,-4.47171688079834,-4.05780172348022,7.24650192260742,0.403965979814529,1.11281192302704,-2.080806016922,-713.100036621094,222.300003051758,-942.900024414062,-1.36898926012169,-0.493835887558705,0.511903361780784,DLL
13.7,-6.89359760284424,-2.72573757171631,7.51985359191895,-1.2347639799118,-0.655492007732391,-1.48628997802734,-713.100036621094,222.900009155273,-945.300048828125,-1.45883543231689,-0.709212127071309,0.351800452000343,DLL
13.7333333333333,-4.38737869262695,-4.13017702102661,7.89967441558838,-1.76068198680878,-0.777444005012512,1.2423859834671,-725.100036621094,215.700012207031,-942.900024414062,-1.40735107816376,-0.457365611063114,0.483475104659152,DLL
13.7666666666667,-3.89510703086853,-4.03148365020752,7.46123552322388,-0.190549999475479,-0.800309956073761,1.2576299905777,-727.5,219.300003051758,-945.300048828125,-1.41741572756805,-0.430383901794039,0.494516521758297,DLL
13.8,-4.37481784820557,-3.71805667877197,7.43850612640381,0.0914639979600906,-0.426831990480423,0.449698001146317,-727.5,218.700012207031,-947.700012207031,-1.43642760237266,-0.483933364215653,0.462839740862648,DLL
13.8333333333333,-3.55835247039795,-4.06677389144897,7.21121168136597,-0.426831990480423,-0.525918006896973,0.25152599811554,-725.100036621094,226.500015258789,-950.100036621094,-1.4207234355663,-0.405412161954943,0.513842128786686,DLL
13.8666666666667,-3.65884065628052,-4.03327798843384,7.02877807617188,-0.198172003030777,-0.716467976570129,0.655492007732391,-732.300048828125,219.900009155273,-933.300048828125,-1.42847536164421,-0.423577842117578,0.520565304865842,DLL
13.9,-4.53093290328979,-3.95910835266113,7.86976718902588,-0.472563982009888,-0.0838419944047928,0.46494197845459,-729.900024414062,222.300003051758,-947.700012207031,-1.45830547644317,-0.475236135017353,0.466566626409774,DLL
13.9333333333333,-4.57100868225098,-4.0356707572937,7.9337682723999,-0.403965979814529,0.0076219998300075,0.990859985351562,-717.900024414062,225.900009155273,-938.100036621094,-1.46654664484081,-0.475206654975494,0.470471647957113,DLL
13.9666666666667,-4.40053796768188,-4.13735485076904,7.71544599533081,-1.19665396213531,-0.0685980021953583,0.243903994560242,-734.700012207031,225.300003051758,-940.500061035156,-1.46396156917392,-0.465863941703119,0.494078071317498,DLL
14.0,-3.92441606521606,-4.30004978179932,7.51746082305908,-1.04421401023865,0.3125019967556,-0.0838419944047928,-722.700012207031,218.100006103516,-954.900024414062,-1.45462820862385,-0.425883771154206,0.521574384693521,DLL
14.0333333333333,-4.59014892578125,-3.6313259601593,7.51028299331665,0.518296003341675,0.350611984729767,1.08232402801514,-722.700012207031,225.300003051758,-942.900024414062,-1.49218093110015,-0.504340226716074,0.448732732849581,DLL
14.0666666666667,-4.6708984375,-3.54579162597656,7.65204286575317,1.6844619512558,0.670735955238342,0.907018005847931,-717.900024414062,224.100006103516,-950.100036621094,-1.49745725847706,-0.507511934583308,0.430472094002317,DLL
14.1,-4.44779109954834,-3.68814945220947,7.93077754974365,1.60824191570282,-0.0914639979600906,-0.731711983680725,-715.5,219.300003051758,-933.300048828125,-1.48283686812706,-0.469794536967358,0.433038063308241,DLL
14.1333333333333,-5.163170337677,-3.4913604259491,7.99836778640747,1.6615959405899,-0.670735955238342,-0.716467976570129,-713.100036621094,224.100006103516,-940.500061035156,-1.48227407996557,-0.53261827822543,0.409095467717403,DLL
14.1666666666667,-4.47351121902466,-3.9597065448761,8.07074356079102,1.17378795146942,-0.693601965904236,-1.02897000312805,-715.5,228.300003051758,-940.500061035156,-1.44786159024173,-0.459885484135405,0.454594766695793,DLL
14.2,-4.18101930618286,-3.865797996521,7.2267632484436,1.78354799747467,-0.762199997901917,-0.78506600856781,-727.5,219.900009155273,-928.500061035156,-1.4212195444637,-0.469906960899998,0.488354677622518,DLL
14.2333333333333,-3.81196522712708,-3.92860293388367,7.13106060028076,1.78354799747467,0.274392008781433,-1.04421401023865,-720.300048828125,222.900009155273,-959.700012207031,-1.39779825412123,-0.437460935642427,0.501277504775492,DLL
14.2666666666667,-3.83947968482971,-4.00396919250488,7.25906324386597,2.21800184249878,0.175305992364883,-0.830797970294952,-739.5,220.500015258789,-942.900024414062,-1.38066212000411,-0.43330473487265,0.50084173687885,DLL
14.3,-4.85991144180298,-3.34361910820007,6.93068265914917,2.25611186027527,0.259148001670837,-0.533540010452271,-734.700012207031,222.300003051758,-954.900024414062,-1.38943492869429,-0.56321519711246,0.446256660882005,DLL
14.3333333333333,-5.0136342048645,-3.10615634918213,7.67537069320679,1.39482593536377,0.3125019967556,0.0076219998300075,-737.100036621094,213.900009155273,-945.300048828125,-1.4135810229159,-0.544975190966259,0.382241672044399,DLL
14.3666666666667,-4.01114654541016,-3.85503149032593,7.87634658813477,1.47104597091675,0.190549999475479,-0.868907988071442,-734.700012207031,218.700012207031,-962.100036621094,-1.36548179687698,-0.428726441376086,0.453242007834097,DLL
14.4,-5.45984888076782,-3.67678475379944,8.00734043121338,1.57775402069092,0.221037998795509,-1.14329993724823,-729.900024414062,218.100006103516,-945.300048828125,-1.35855181334639,-0.554172494626389,0.42894452391844,DLL
14.4333333333333,-4.43343591690063,-3.77787089347839,7.68912792205811,2.31708788871765,0.0152439996600151,-1.77592599391937,-739.5,221.700012207031,-940.500061035156,-1.31934561163058,-0.476256458644305,0.454069275149224,DLL
14.4666666666667,-3.00387406349182,-4.25578737258911,8.02169513702393,2.86587190628052,0.533540010452271,-3.23172783851624,-741.900024414062,221.100006103516,-950.100036621094,-1.26693373871642,-0.317782436283018,0.484540905243271,DLL
14.5,-4.45975399017334,-2.9141526222229,6.64835929870605,4.89332389831543,0.99848198890686,-3.83386588096619,-737.100036621094,218.100006103516,-959.700012207031,-1.23877184257649,-0.549690505868415,0.408794244344581,DLL
14.5333333333333,-4.42266893386841,-3.18032622337341,7.62213611602783,3.18599581718445,1.05183601379395,-2.61434602737427,-737.100036621094,218.700012207031,-962.100036621094,-1.20291745538798,-0.491616972892543,0.392366365170158,DLL
14.5666666666667,-4.96877384185791,-2.90876936912537,7.72382020950317,1.41769194602966,-1.03659200668335,-0.6250039935112,-741.900024414062,215.100006103516,-962.100036621094,-1.2102243190253,-0.539806953594682,0.35794514743097,DLL
14.6,-4.41010808944702,-3.26406621932983,7.57129383087158,0.129574000835419,-1.40244793891907,0.182927995920181,-744.300048828125,222.300003051758,-966.900024414062,-1.19234726332394,-0.48908250389324,0.406102363535997,DLL
14.6333333333333,-3.93338823318481,-3.45248126983643,8.48705101013184,-0.525918006896973,-1.41006994247437,1.08232402801514,-732.300048828125,212.100006103516,-957.300048828125,-1.21775784861273,-0.40399896730562,0.386135799374512,DLL
14.6666666666667,-3.95492124557495,-3.28619742393494,8.09407043457031,-0.541162014007568,-1.84452390670776,0.381099998950958,-744.300048828125,219.900009155273,-947.700012207031,-1.23083237039041,-0.422380811269351,0.385791987044241,DLL
14.7,-4.40053796768188,-3.05531430244446,7.90445947647095,-0.541162014007568,-0.46494197845459,0.846041977405548,-749.100036621094,219.900009155273,-950.100036621094,-1.2495505838024,-0.478681909971263,0.368932491687814,DLL
14.7333333333333,-3.39147067070007,-3.56373572349548,7.80456972122192,-0.6250039935112,-0.0076219998300075,1.76830399036407,-734.700012207031,209.100006103516,-947.700012207031,-1.24280796692437,-0.377783091315679,0.428277771755214,DLL
14.7666666666667,-3.9997820854187,-3.17195224761963,7.4749927520752,-1.34909391403198,-0.503051996231079,1.89025592803955,-737.100036621094,213.900009155273,-957.300048828125,-1.27902747813964,-0.458138680244184,0.402013427759892,DLL
14.8,-4.31201267242432,-3.11811923980713,7.64845418930054,-1.84452390670776,0.137196004390717,2.00458598136902,-741.900024414062,216.300003051758,-962.100036621094,-1.31043205189956,-0.482668521885696,0.388688239025676,DLL
14.8333333333333,-4.41848230361938,-3.24612188339233,7.71484804153442,-1.73781597614288,0.236281991004944,2.59910202026367,-732.300048828125,221.700012207031,-947.700012207031,-1.33508470457901,-0.487855085258621,0.399167003189212,DLL
14.8666666666667,-4.14991617202759,-3.58287644386292,7.96307754516602,-1.89787793159485,-0.182927995920181,2.23324584960938,-729.900024414062,220.500015258789,-952.500061035156,-1.35206199290424,-0.445001616127859,0.424335454802102,DLL
14.9,-4.53990507125854,-3.55835247039795,8.49123764038086,-1.99696397781372,-0.800309956073761,2.12653803825378,-725.100036621094,221.100006103516,-957.300048828125,-1.39545445259239,-0.458267840735938,0.398371128628361,DLL
14.9333333333333,-4.13615846633911,-3.66302752494812,8.13414669036865,-0.800309956073761,-0.411587983369827,1.71494996547699,-734.700012207031,224.100006103516,-962.100036621094,-1.40457008521238,-0.43473751443358,0.423099540024807,DLL
14.9666666666667,-4.02191352844238,-3.48238849639893,8.04861164093018,0.152439996600151,0.0381099991500378,1.08232402801514,-725.100036621094,209.100006103516,-947.700012207031,-1.41973542493084,-0.430808572707389,0.407309634476486,DLL
15.0,-4.31081628799438,-3.43094801902771,8.29325199127197,0.807931959629059,0.304879993200302,0.960371971130371,-727.5,228.900009155273,-957.300048828125,-1.43060369400176,-0.448895080871952,0.390218340073065,DLL
15.0333333333333,-4.02550220489502,-3.45965886116028,7.35596227645874,1.12043392658234,-0.457319974899292,0.853663980960846,-727.5,222.300003051758,-950.100036621094,-1.41424299910218,-0.459710123198039,0.436811910783687,DLL
15.0666666666667,-4.16187858581543,-3.16357827186584,7.53241443634033,0.571649968624115,-0.358233988285065,0.640248000621796,-734.700012207031,216.300003051758,-950.100036621094,-1.43661643798577,-0.471004186731309,0.396008757945404,DLL
15.1,-3.75095462799072,-3.53143620491028,7.67895936965942,0.487807989120483,-0.0304879993200302,0.556405961513519,-729.900024414062,216.900009155273,-962.100036621094,-1.42488809199646,-0.4180746457352,0.42976599838767,DLL
15.1333333333333,-4.36106061935425,-3.55057668685913,7.77226972579956,0.221037998795509,-0.236281991004944,0.213415995240211,-725.100036621094,222.300003051758,-942.900024414062,-1.4273901724933,-0.471650275832676,0.427871743962807,DLL
15.1666666666667,-4.63800048828125,-3.39326500892639,7.67118358612061,0.106707997620106,0.365855991840363,0.564027965068817,-732.300048828125,221.100006103516,-942.900024414062,-1.43580158415631,-0.506040231588895,0.415932107747777,DLL
15.2,-3.75155282020569,-3.87895727157593,7.96068477630615,0.205793991684914,0.525918006896973,-0.190549999475479,-708.300048828125,224.700012207031,-964.500061035156,-1.41411108966816,-0.401426585456955,0.453337276834607,DLL
15.2333333333333,-3.9638934135437,-3.62474632263184,7.51447010040283,0.205793991684914,-0.891773998737335,-0.861285984516144,-720.300048828125,218.100006103516,-964.500061035156,-1.41117467784307,-0.44145727475291,0.449407390446849,DLL
15.2666666666667,-4.02071714401245,-3.76351547241211,7.4809741973877,0.243903994560242,-0.358233988285065,-0.548784017562866,-749.100036621094,222.300003051758,-954.900024414062,-1.39988518733764,-0.446629207264656,0.465944373628757,DLL
15.3,-4.21631002426147,-3.30234742164612,7.18489360809326,0.586893975734711,0.167683988809586,0.0609759986400604,-713.100036621094,219.300003051758,-966.900024414062,-1.41320750083644,-0.490136223816774,0.429844744045893,DLL
15.3333333333333,-3.9638934135437,-3.50571584701538,7.47259998321533,0.571649968624115,0.449698001146317,-0.236281991004944,-725.100036621094,218.700012207031,-959.700012207031,-1.40314436575755,-0.448277564258943,0.437995035577217,DLL
15.3666666666667,-4.35747146606445,-3.78385233879089,7.44209480285645,0.152439996600151,0.0914639979600906,-0.0990860015153885,-737.100036621094,224.100006103516,-966.900024414062,-1.38679881903095,-0.481075855883952,0.470203961407095,DLL
15.4,-4.89101505279541,-4.03866147994995,7.75671815872192,-0.87652999162674,-0.327746003866196,-0.777444005012512,-727.5,218.100006103516,-947.700012207031,-1.38061872936214,-0.508798906970641,0.482093494816543,DLL
15.4333333333333,-4.623046875,-4.39276218414307,7.95231103897095,-0.975615978240967,-0.457319974899292,-0.0914639979600906,-727.5,224.100006103516,-954.900024414062,-1.37518781255472,-0.469972876617864,0.506234854198207,DLL
15.4666666666667,-4.59014892578125,-3.96628594398499,8.03126525878906,-0.769822001457214,-0.350611984729767,0.884151995182037,-725.100036621094,221.700012207031,-950.100036621094,-1.40892107385555,-0.473691271739973,0.459250302452264,DLL
15.5,-4.89520215988159,-3.74856209754944,7.78961610794067,-0.0152439996600151,0.25152599811554,2.0731840133667,-734.700012207031,221.700012207031,-945.300048828125,-1.43129895398874,-0.517184224679703,0.446803271265229,DLL
15.5333333333333,-4.17862701416016,-3.89151811599731,7.61854696273804,0.480185985565186,0.388722002506256,1.65397393703461,-739.5,220.500015258789,-942.900024414062,-1.43012064270126,-0.456322687749899,0.470280684417791,DLL
15.5666666666667,-4.48726844787598,-3.32148790359497,7.10892915725708,0.823175966739655,-0.213415995240211,1.43293595314026,-725.100036621094,219.300003051758,-942.900024414062,-1.45638643525129,-0.520182498595498,0.434272099628533,DLL
15.6,-4.55426073074341,-3.22339248657227,7.52344226837158,0.617381989955902,-0.0914639979600906,2.22562384605408,-720.300048828125,222.300003051758,-957.300048828125,-1.48905391995535,-0.509139939035699,0.401693928299749,DLL
15.6333333333333,-4.61766386032104,-3.31730103492737,7.62931346893311,0.83841997385025,0.0609759986400604,2.27135586738586,-725.100036621094,218.700012207031,-942.900024414062,-1.50194438297842,-0.50838366212171,0.406682372925003,DLL
15.6666666666667,-5.3061261177063,-2.85852527618408,7.92838525772095,0.167683988809586,-0.46494197845459,1.2576299905777,-717.900024414062,222.900009155273,-945.300048828125,-1.54464777983178,-0.561829759589159,0.344319091610862,DLL
15.7,-5.01602697372437,-3.04514575004578,8.08569622039795,0.350611984729767,-0.37347799539566,1.55488801002502,-722.700012207031,216.300003051758,-954.900024414062,-1.55142682877856,-0.526346479114329,0.357955918579317,DLL
15.7333333333333,-3.92800498008728,-3.90407919883728,8.09646320343018,0.144817993044853,-0.99848198890686,-0.137196004390717,-710.700012207031,224.700012207031,-959.700012207031,-1.51260144051324,-0.410354503455482,0.448787119902016,DLL
15.7666666666667,-3.79222655296326,-3.38847994804382,7.46781492233276,-0.205793991684914,-2.53050398826599,-0.0990860015153885,-729.900024414062,223.500015258789,-952.500061035156,-1.53293462547458,-0.429044260335362,0.425567474821187,DLL
15.8,-3.60979294776917,-3.28021597862244,7.44089841842651,0.579271972179413,-0.983237981796265,1.65397393703461,-722.700012207031,224.700012207031,-952.500061035156,-1.55384675923515,-0.417372696150376,0.412726867170963,DLL
15.8333333333333,-3.61577415466309,-3.39386320114136,7.52045154571533,0.541162014007568,-0.861285984516144,0.724089980125427,-727.5,219.300003051758,-952.500061035156,-1.56476810636065,-0.41217336882999,0.422202999099375,DLL
15.8666666666667,-4.38737869262695,-3.32806754112244,8.07313537597656,-0.259148001670837,-0.46494197845459,0.449698001146317,-720.300048828125,221.700012207031,-945.300048828125,-1.5853531094694,-0.465126302137899,0.390956737090531,DLL
15.9,-4.22767448425293,-3.43393874168396,8.20293235778809,-1.43293595314026,-1.74543797969818,0.472563982009888,-722.700012207031,222.300003051758,-945.300048828125,-1.60005446859501,-0.441304757456718,0.398039479762237,DLL
15.9333333333333,-3.70370125770569,-3.50571584701538,8.2681303024292,-1.87501192092896,-1.98934197425842,0.861285984516144,-734.700012207031,222.900009155273,-940.500061035156,-1.62324779859736,-0.388567739415597,0.403175148238455,DLL
15.9666666666667,-3.02181839942932,-3.85802221298218,8.12816524505615,-0.403965979814529,0.0304879993200302,1.2576299905777,-737.100036621094,221.100006103516,-945.300048828125,-1.62240532079027,-0.325037853907752,0.44318878904793,DLL
16.0,-3.6672146320343,-3.54459524154663,7.90206670761108,0.0076219998300075,0.297257989645004,0.533540010452271,-720.300048828125,221.100006103516,-947.700012207031,-1.63391429170201,-0.401373193914,0.421384204559794,DLL
16.0333333333333,-4.19298219680786,-3.08223080635071,7.9696569442749,0.617381989955902,0.823175966739655,0.67835795879364,-715.5,221.700012207031,-945.300048828125,-1.65659147562036,-0.457927678538272,0.367679992815725,DLL
16.0666666666667,-4.47889471054077,-3.1408486366272,8.21369934082031,0.87652999162674,0.655492007732391,-0.0381099991500378,-729.900024414062,220.500015258789,-940.500061035156,-1.65166176745596,-0.472117272228079,0.363948260086906,DLL
16.1,-3.99439883232117,-3.40881681442261,7.77406406402588,0.594515979290009,0.114329993724823,-0.739333987236023,-722.700012207031,219.300003051758,-942.900024414062,-1.62042770726399,-0.439504555769839,0.412766375519688,DLL
16.1333333333333,-4.0296893119812,-3.78684306144714,7.91462802886963,0.518296003341675,0.0838419944047928,-0.579271972179413,-734.700012207031,219.300003051758,-940.500061035156,-1.59899026098704,-0.43024838727338,0.445787251664238,DLL
16.1666666666667,-4.99449396133423,-3.28858995437622,8.26394367218018,0.541162014007568,0.121951997280121,-0.3125019967556,-727.5,219.300003051758,-933.300048828125,-1.62376652497164,-0.511612354585032,0.378157148026057,DLL
16.2,-4.56981229782104,-3.20126128196716,8.11201477050781,0.853663980960846,0.503051996231079,0.533540010452271,-727.5,220.500015258789,-950.100036621094,-1.62441274691243,-0.48385030136657,0.374097603992734,DLL
16.2333333333333,-3.83170390129089,-3.70011234283447,7.97982549667358,0.78506600856781,0.396344006061554,0.647870004177094,-720.300048828125,216.300003051758,-945.300048828125,-1.59978391691535,-0.411989453537888,0.432441767919938,DLL
16.2666666666667,-3.83828353881836,-3.37591886520386,7.93197393417358,0.335367977619171,0.335367977619171,0.114329993724823,-722.700012207031,219.900009155273,-945.300048828125,-1.6104658248875,-0.419508659805604,0.401844045278935,DLL
16.3,-4.36464929580688,-3.02062201499939,7.29734420776367,1.54726600646973,1.17378795146942,1.49391198158264,-713.100036621094,217.500015258789,-952.500061035156,-1.6172120613958,-0.507689632390296,0.388866322450929,DLL
16.3333333333333,-3.88673305511475,-3.34541368484497,7.40201950073242,1.13567793369293,0.617381989955902,0.868907988071442,-717.900024414062,219.300003051758,-954.900024414062,-1.60179192365639,-0.447923227689909,0.422035767365798,DLL
16.3666666666667,-4.27612400054932,-2.99191117286682,7.4271411895752,1.64635193347931,0.46494197845459,1.48628997802734,-722.700012207031,216.300003051758,-947.700012207031,-1.62444602382386,-0.492199710565536,0.378971804392992,DLL
16.4,-4.70917940139771,-3.02002382278442,7.92599248886108,0.777444005012512,0.282013982534409,-0.0304879993200302,-722.700012207031,215.700012207031,-945.300048828125,-1.62680610389407,-0.507266592619407,0.362819908750081,DLL
16.4333333333333,-4.66431903839111,-3.38847994804382,8.09706115722656,0.0762199983000755,-0.213415995240211,-0.426831990480423,-727.5,217.500015258789,-950.100036621094,-1.60750066086072,-0.487831214177505,0.396468256366101,DLL
16.4666666666667,-4.37421941757202,-3.3047399520874,8.17960548400879,-0.381099998950958,-1.52439999580383,-0.518296003341675,-725.100036621094,224.700012207031,-942.900024414062,-1.61556524917344,-0.45752471025665,0.38456474613182,DLL
16.5,-4.09189605712891,-3.11871743202209,8.16883850097656,-0.0914639979600906,-1.13567793369293,-0.175305992364883,-720.300048828125,223.500015258789,-942.900024414062,-1.62685909181941,-0.435752075413345,0.364681522222352,DLL
16.5333333333333,-2.92850804328918,-3.71985125541687,7.79440116882324,0.525918006896973,-0.564027965068817,-0.198172003030777,-727.5,218.100006103516,-947.700012207031,-1.59584694751146,-0.32596131618417,0.444268249628515,DLL
16.5666666666667,-3.39984464645386,-3.92142534255981,7.72800731658936,0.0076219998300075,-0.533540010452271,-1.79879200458527,-741.900024414062,219.300003051758,-950.100036621094,-1.57322224459268,-0.37158931904831,0.470472064665997,DLL
16.6,-3.45128488540649,-3.58706331253052,7.2925591468811,0.236281991004944,0.160062000155449,-1.2423859834671,-727.5,212.700012207031,-954.900024414062,-1.56505156993456,-0.400869454849895,0.457600192303298,DLL
16.6333333333333,-4.22588014602661,-3.9459490776062,7.70168876647949,0.647870004177094,1.76068198680878,-0.967993974685669,-729.900024414062,213.300003051758,-954.900024414062,-1.5399045438032,-0.456192833781385,0.473758743665089,DLL
16.6666666666667,-4.63680410385132,-3.71985125541687,7.65264129638672,0.685979962348938,0.92988395690918,-0.815553963184357,-732.300048828125,224.100006103516,-945.300048828125,-1.53470310485632,-0.499773551353264,0.45235131936219,DLL
16.7,-4.91135215759277,-3.81256318092346,8.1132116317749,0.434453994035721,0.640248000621796,0.0152439996600151,-729.900024414062,218.700012207031,-940.500061035156,-1.53668850283563,-0.502231424672077,0.438795175239292,DLL
16.7333333333333,-4.9514274597168,-3.75573968887329,8.44219017028809,0.556405961513519,0.121951997280121,0.121951997280121,-727.5,216.900009155273,-938.100036621094,-1.54463995714107,-0.492221254782635,0.417572466835957,DLL
16.7666666666667,-4.48786687850952,-3.42975187301636,7.84045791625977,1.03659200668335,-0.579271972179413,0.0076219998300075,-729.900024414062,217.500015258789,-959.700012207031,-1.54521825148862,-0.482077323633257,0.410340194619766,DLL
16.8,-3.96269726753235,-3.37173199653625,8.00375080108643,1.13567793369293,-0.388722002506256,0.25152599811554,-746.700012207031,211.500015258789,-942.900024414062,-1.54995260515404,-0.427641508959779,0.396429885456468,DLL
16.8333333333333,-5.01662492752075,-2.70719504356384,7.64785623550415,2.03507399559021,0.0762199983000755,0.853663980960846,-729.900024414062,210.900009155273,-945.300048828125,-1.5743871567865,-0.554385666841218,0.335844126002279,DLL
16.8666666666667,-4.24860954284668,-3.18331694602966,7.65144491195679,1.87501192092896,-0.442075997591019,-0.396344006061554,-722.700012207031,213.900009155273,-957.300048828125,-1.53555089423584,-0.472792351209799,0.391138796850199,DLL
16.9,-4.88144493103027,-3.22219610214233,7.56650876998901,1.265251994133,-1.19665396213531,-0.541162014007568,-725.100036621094,222.300003051758,-957.300048828125,-1.52381015887394,-0.53335351112836,0.400407451342611,DLL
16.9333333333333,-4.2204966545105,-3.09239912033081,7.82670068740845,1.48628997802734,-0.807931959629059,-0.320124000310898,-720.300048828125,213.900009155273,-950.100036621094,-1.52913920016762,-0.463374342499497,0.373700893940575,DLL
16.9666666666667,-3.37831139564514,-3.55476379394531,8.11022090911865,2.76678586006165,-0.457319974899292,-1.06708002090454,-737.100036621094,216.300003051758,-969.300048828125,-1.49663109629034,-0.363072798930121,0.40876179001453,DLL
17.0,-3.90946245193481,-3.59005403518677,8.32614994049072,4.48935794830322,0.0838419944047928,-2.83538389205933,-751.5,214.500015258789,-962.100036621094,-1.45614659831048,-0.405259925816482,0.401233037276214,DLL
17.0333333333333,-2.60431456565857,-4.67209482192993,8.82799243927002,5.64027976989746,-0.342989981174469,-5.4878396987915,-737.100036621094,217.500015258789,-957.300048828125,-1.36557471127357,-0.25021627676935,0.478973436272214,DLL
17.0666666666667,-2.31242084503174,-4.77497529983521,8.46731185913086,8.76529979705811,0.480185985565186,-9.0625581741333,-753.900024414062,209.100006103516,-966.900024414062,-1.2566505860393,-0.22671168839836,0.501428779933512,DLL
17.1,-4.51597929000854,-2.95542430877686,7.75073671340942,10.8232393264771,1.72257196903229,-11.349157333374,-756.300048828125,204.300003051758,-969.300048828125,-1.14095044652384,-0.494382573486815,0.355964003030814,DLL
17.1333333333333,-3.63850378990173,-3.86041474342346,8.04621887207031,10.609824180603,1.84452390670776,-11.3796453475952,-765.900024414062,206.100006103516,-976.500061035156,-0.943511599813657,-0.381715691288879,0.43653929210133,DLL
17.1666666666667,-4.56682157516479,-2.69463419914246,8.10244464874268,9.27597332000732,1.80641400814056,-14.5732641220093,-789.900024414062,200.100006103516,-981.300048828125,-0.816993709543526,-0.486076569147685,0.318205513508918,DLL
17.2,-4.20554304122925,-2.72753190994263,7.5371994972229,8.75767803192139,1.34909391403198,-9.26072978973389,-773.100036621094,192.900009155273,-983.700012207031,-0.680153640024959,-0.480035725167902,0.340237118162371,DLL
17.2333333333333,-3.76650619506836,-2.7682056427002,8.50379848480225,6.04424571990967,1.10518991947174,-7.157057762146,-777.900024414062,192.300003051758,-981.300048828125,-0.597352616429791,-0.396704495014911,0.309402895892106,DLL
17.2666666666667,-4.93049240112305,-1.3398402929306,7.66520214080811,6.16619777679443,2.79727387428284,-5.03814172744751,-782.700012207031,194.100006103516,-988.500061035156,-0.581367910048062,-0.567987557464427,0.168447833704698,DLL
17.3,-4.14273834228516,-1.94635725021362,9.15398025512695,4.51984596252441,2.73629784584045,-2.47714996337891,-777.900024414062,191.700012207031,-986.100036621094,-0.516401412282333,-0.420654746031501,0.203933594287063,DLL
17.3333333333333,-3.76650619506836,-1.82852303981781,8.64974594116211,3.76526784896851,0.114329993724823,-2.56861400604248,-753.900024414062,184.5,-983.700012207031,-0.476928571495745,-0.402050766192143,0.20364042358741,DLL
17.3666666666667,-3.92022895812988,-1.37871956825256,8.77296257019043,3.44514393806458,1.44055795669556,-3.24697184562683,-758.700012207031,185.700012207031,-993.300048828125,-0.448853225434474,-0.417325150163703,0.152550697103948,DLL
17.4,-4.06916666030884,-0.877475738525391,8.40630149841309,3.3613018989563,1.21189796924591,-2.32470989227295,-758.700012207031,189.900009155273,-995.700012207031,-0.432988617739486,-0.45037010483286,0.100235042309584,DLL
17.4333333333333,-4.59732675552368,-0.899008870124817,7.48157215118408,3.83386588096619,2.38568592071533,-1.65397393703461,-763.5,189.900009155273,-988.500061035156,-0.388638410316833,-0.551546498310204,0.114951598150874,DLL
17.4666666666667,-4.43642663955688,-1.03897428512573,8.74126148223877,1.73781597614288,2.41617393493652,-0.99848198890686,-739.5,179.700012207031,-988.500061035156,-0.367851033508384,-0.470872528940127,0.116405270101189,DLL
17.5,-4.42685604095459,-0.774595141410828,7.88412237167358,1.73781597614288,1.2347639799118,-1.30336201190948,-744.300048828125,182.100006103516,-976.500061035156,-0.353776155361848,-0.511487628426588,0.0962953034195464,DLL
17.5333333333333,-3.32208609580994,-1.51988124847412,9.00384616851807,1.63872992992401,1.15854394435883,-1.07470202445984,-749.100036621094,186.900009155273,-978.900024414062,-0.306046536148126,-0.350708214961278,0.165132761812277,DLL
