seconds,sensor_accX_m_s_,sensor_accY_m_s_,sensor_accZ_m_s_,sensor_gyroX___s_,sensor_gyroY___s_,sensor_gyroZ___s_,sensor_magX__T_,sensor_magY__T_,sensor_magZ__T_,sensor_yaw___,sensor_pitch___,sensor_roll___,label2
0.0,-4.004567146,-0.849363029,8.628810883,0.29725799,-0.754577994,0.182927996,-1049.100098,12.90000057,-930.9000244,1.594049928,-0.430639607,0.09821281,ST
0.033333333,-3.961500883,-0.871494293,8.597706795,0.358233988,-0.678357959,0.160062,-1053.900024,15.30000019,-923.7000122,1.594611387,-0.428856004,0.100030996,ST
0.066666667,-3.915443897,-0.852951884,8.622829437,0.350611985,-0.670735955,0.121951997,-1049.100098,11.70000076,-938.1000366,1.593696593,-0.423772271,0.098035595,ST
0.1,-3.953126907,-0.862522185,8.650343895,0.312501997,-0.731711984,0.099086002,-1063.5,7.500000477,-933.3000488,1.593853807,-0.425372374,0.098640106,ST
0.133333333,-3.916640282,-0.846970439,8.647353172,0.342989981,-0.769822001,0.182927996,-1061.100098,16.5,-923.7000122,1.592809797,-0.422408482,0.096957792,ST
0.166666667,-3.814357758,-0.861923993,8.710158348,0.320124,-0.846041977,0.205793992,-1058.700073,12.90000057,-923.7000122,1.592679834,-0.410705247,0.097776004,ST
0.2,-3.768898964,-0.910971761,8.752626419,0.289635986,-0.967993975,0.106707998,-1070.700073,12.90000057,-928.500061,1.594329283,-0.403689547,0.102571719,ST
0.233333333,-3.744973183,-0.90140146,8.748438835,0.342989981,-1.051836014,-0.030487999,-1061.100098,12.30000019,-942.9000244,1.594350701,-0.400999981,0.102067604,ST
0.266666667,-3.714467764,-0.873886883,8.737672806,0.419209987,-1.112811923,-0.167683989,-1063.5,3.900000095,-926.1000366,1.594014622,-0.398443416,0.099245923,ST
0.3,-3.716262341,-0.860727727,8.689821243,0.518296003,-1.051836014,-0.259148002,-1073.100098,4.5,-914.1000366,1.59483724,-0.400345417,0.098027157,ST
0.333333333,-3.718056679,-0.836203873,8.711354256,0.442075998,-0.967993975,-0.190549999,-1075.5,5.100000381,-930.9000244,1.594722452,-0.400054145,0.095205304,ST
0.366666667,-3.670803308,-0.886447906,8.728700638,0.335367978,-1.006103992,-0.045731999,-1070.700073,15.90000057,-926.1000366,1.596895389,-0.395007911,0.100097228,ST
0.4,-3.529641628,-0.912766159,8.752027512,0.175305992,-1.082324028,-0.106707998,-1056.300049,17.10000038,-933.3000488,1.59833579,-0.380848091,0.10331792,ST
0.433333333,-3.489566088,-0.911569893,8.902759552,0.182927996,-1.021348,-0.175305992,-1075.5,12.30000019,-940.500061,1.598273582,-0.370969586,0.101904996,ST
0.466666667,-3.472818136,-0.841587186,8.840553284,0.358233988,-0.685979962,-0.114329994,-1070.700073,12.90000057,-926.1000366,1.596370093,-0.371511793,0.095004491,ST
0.5,-3.467434883,-0.839194596,8.841749191,0.449698001,-0.228659987,-0.015244,-1061.100098,14.70000076,-933.3000488,1.596529333,-0.371786223,0.093945345,ST
0.533333333,-3.418985128,-0.850559294,8.862086296,0.541162014,0.434453994,0.152439997,-1080.300049,4.5,-930.9000244,1.597107365,-0.367775026,0.094611574,ST
0.566666667,-3.515286207,-0.822446585,8.961378098,0.503051996,0.716467977,0.198172003,-1080.300049,15.30000019,-921.3000488,1.5959688,-0.373233582,0.090858852,ST
0.6,-3.533828735,-0.809885561,8.766383171,0.594515979,0.91463995,0.304879993,-1077.900024,10.5,-933.3000488,1.59604661,-0.382516207,0.0909255,ST
0.633333333,-3.544595242,-0.820053995,8.767580032,0.472563982,1.059458017,0.289635986,-1070.700073,9.900000572,-921.3000488,1.596520686,-0.38441632,0.092198471,ST
0.666666667,-3.572707891,-0.806894839,8.722719193,0.304879993,1.051836014,0.259148002,-1063.5,9.300000191,-916.500061,1.596194421,-0.388695125,0.091649737,ST
0.7,-3.673196077,-0.821848452,8.763392448,0.114329994,0.975615978,0.099086002,-1058.700073,10.5,-923.7000122,1.596911165,-0.396429188,0.093178016,ST
0.733333333,-3.801796675,-0.809287429,8.725111961,0.106707998,0.861285985,-0.015244,-1073.100098,6.900000095,-930.9000244,1.597071498,-0.409547189,0.092446865,ST
0.766666667,-3.850246191,-0.830222428,8.708961487,0.160062,0.762199998,-0.015244,-1058.700073,14.10000038,-916.500061,1.59850237,-0.415480103,0.094665816,ST
0.8,-3.925612211,-0.851157427,8.716737747,0.198172003,0.594515979,0.007622,-1053.900024,6.300000191,-914.1000366,1.599852307,-0.421885635,0.096851803,ST
0.833333333,-3.947145462,-0.808091164,8.649147034,0.198172003,0.449698001,0.060975999,-1061.100098,11.10000038,-923.7000122,1.598559795,-0.426796406,0.093166126,ST
0.866666667,-4.045240879,-0.814670742,8.64436245,0.228659987,0.373477995,0.175305992,-1053.900024,11.70000076,-918.9000244,1.598556863,-0.435928672,0.093431005,ST
0.9,-4.005763531,-0.771604419,8.650343895,0.213415995,0.282013983,0.259148002,-1065.900024,9.300000191,-928.500061,1.596212882,-0.432988648,0.088857274,ST
0.933333333,-3.945949078,-0.812876284,8.557631493,0.274392009,0.167683989,0.358233988,-1053.900024,10.5,-928.500061,1.597469321,-0.430866645,0.09356809,ST
0.966666667,-3.94654727,-0.786558032,8.706568718,0.076219998,0.045731999,0.282013983,-1061.100098,9.900000572,-926.1000366,1.595264944,-0.424784301,0.090088962,ST
1.0,-3.980043411,-0.759641588,8.689821243,0.144817993,-0.198172003,0.358233988,-1056.300049,12.30000019,-918.9000244,1.592999725,-0.427497887,0.086957532,ST
1.033333333,-3.907668114,-0.749473155,8.571389198,0.160062,-0.167683989,0.358233988,-1049.100098,5.700000286,-923.7000122,1.59185359,-0.426171653,0.086664887,ST
1.066666667,-3.961500883,-0.758445263,8.708961487,0.068598002,-0.121951997,0.327746004,-1051.5,8.100000381,-918.9000244,1.590822052,-0.425394345,0.086498898,ST
1.1,-3.89032197,-0.803305984,8.618641853,0.045731999,-0.198172003,0.121951997,-1058.700073,11.70000076,-918.9000244,1.592807685,-0.422290028,0.092318773,ST
1.133333333,-4.070960999,-0.776389599,8.664699554,0.129574001,-0.007622,0.045731999,-1056.300049,9.300000191,-935.7000122,1.591614474,-0.436519977,0.089345157,ST
1.166666667,-4.082325935,-0.730332553,8.563014984,0.045731999,0.167683989,-0.015244,-1061.100098,10.5,-916.500061,1.590103485,-0.443095914,0.085419476,ST
1.2,-4.218104362,-0.754258275,8.634792328,0.091463998,0.457319975,0.106707998,-1056.300049,6.900000095,-918.9000244,1.590620784,-0.452759056,0.086777677,ST
1.233333333,-4.185206413,-0.796128273,8.441592216,-0.060975999,0.685979962,0.083841994,-1041.900024,9.300000191,-911.7000122,1.593401954,-0.459086715,0.0934553,ST
1.266666667,-4.527344227,-0.621470571,8.534303665,-0.045731999,0.952749968,0.053353999,-1051.5,11.70000076,-921.3000488,1.584864599,-0.485673752,0.074682396,ST
1.3,-4.419678211,-0.778782129,8.298037529,0.396344006,1.333850026,0.396344006,-1058.700073,3.300000191,-918.9000244,1.592352353,-0.489615421,0.091146236,ST
1.333333333,-4.466333389,-0.960019469,8.174221992,-0.335367978,1.615863919,-0.251525998,-1044.300049,11.10000038,-933.3000488,1.60462144,-0.499023234,0.115474025,ST
1.366666667,-5.01542902,-0.561656237,8.40809536,-0.304879993,1.730193973,-0.342989981,-1051.5,8.700000763,-923.7000122,1.584125823,-0.536181833,0.072122194,ST
1.4,-4.787536144,-0.820652127,7.958890438,0.442075998,2.187514067,0.243903995,-1049.100098,7.500000477,-918.9000244,1.59883146,-0.542505264,0.099477714,ST
1.433333333,-4.93288517,-0.903195858,7.78064394,-0.358233988,2.682943821,-0.282013983,-1032.300049,14.10000038,-940.500061,1.608353026,-0.56479971,0.115509149,ST
1.466666667,-5.471811771,-0.761435986,7.890103817,-0.182927996,2.477149963,-0.335367978,-1029.900024,8.100000381,-935.7000122,1.600554919,-0.604483005,0.098911085,ST
1.5,-5.321678162,-0.927719772,7.480375767,0.060975999,2.378063917,-0.342989981,-1027.5,5.100000381,-923.7000122,1.615505434,-0.617515479,0.121765016,ST
1.533333333,-5.627927303,-0.779380262,7.58505106,-0.304879993,2.286599874,-0.701223969,-1020.300049,8.700000763,-916.500061,1.608141453,-0.637674966,0.105746492,ST
1.566666667,-5.483176708,-0.843381584,7.444487572,-0.022865999,2.17227006,-0.510674,-1017.900024,9.300000191,-930.9000244,1.614631627,-0.635642372,0.113150701,ST
1.6,-5.558542728,-0.867307305,7.598210335,-0.099086002,1.524399996,-0.663114011,-1020.300049,9.300000191,-918.9000244,1.617828114,-0.631372469,0.114758669,ST
1.633333333,-5.494541168,-0.93190676,7.460637093,0.060975999,0.815553963,-0.777444005,-1022.700012,11.10000038,-928.500061,1.626025613,-0.63225476,0.124322666,ST
1.666666667,-5.486765385,-0.86132586,7.31887722,-0.053353999,0.320124,-0.876529992,-1010.700012,11.70000076,-926.1000366,1.62525314,-0.63963379,0.118954551,ST
1.7,-5.36115551,-1.018637538,7.6299119,-0.076219998,0.053353999,-0.777444005,-1025.100098,12.30000019,-918.9000244,1.635210156,-0.611109352,0.132491952,ST
1.733333333,-5.459848881,-0.909177303,7.561125278,-0.137196004,-0.388722003,-1.143299937,-1020.300049,15.30000019,-921.3000488,1.632102062,-0.620181141,0.122286269,ST
1.766666667,-5.446091652,-0.964206457,7.333830833,0.190549999,-0.396344006,-0.762199998,-1010.700012,18.90000153,-926.1000366,1.63925865,-0.632562856,0.130465745,ST
1.8,-5.818734646,-0.924130917,7.669987202,-0.259148002,-0.891773999,-0.952749968,-1010.700012,9.900000572,-926.1000366,1.63618962,-0.642946055,0.122142035,ST
1.833333333,-5.993990898,-0.766819298,7.446879864,0.198172003,-1.12805593,-0.480185986,-1010.700012,5.700000286,-921.3000488,1.62677838,-0.670612649,0.104398413,ST
1.866666667,-5.437119484,-1.04495573,6.836175919,0.015244,-1.227141976,-0.541162014,-996.3000488,12.90000057,-928.500061,1.654719912,-0.664669962,0.147831267,ST
1.9,-5.771481514,-0.924130917,7.208818913,-0.754577994,-0.93750596,-0.815553963,-1001.100037,13.50000095,-933.3000488,1.644789862,-0.668921776,0.131407343,ST
1.933333333,-5.175731182,-1.28720367,7.069451809,-0.182927996,-0.945127964,-0.40396598,-1025.100098,6.300000191,-918.9000244,1.672687002,-0.626011595,0.17711149,ST
1.966666667,-5.107542992,-1.236361504,7.345793724,-0.929883957,-0.868907988,-1.471045971,-1017.900024,12.30000019,-928.500061,1.670838391,-0.600956627,0.170415101,ST
2.0,-5.253489494,-1.080844402,7.134051323,-0.266770005,-0.602137983,-1.097568035,-1025.100098,11.10000038,-914.1000366,1.663509336,-0.625555813,0.153766539,ST
2.033333333,-5.173936844,-1.573116064,7.22496891,-0.564027965,0.221037999,-1.577754021,-1017.900024,10.5,-938.1000366,1.700404305,-0.61181559,0.21161705,ST
2.066666667,-5.740377903,-1.61438787,7.555143833,-0.929883957,0.083841994,-1.783547997,-1020.300049,22.5,-909.3000488,1.705141047,-0.636491128,0.214191621,ST
2.1,-5.431138039,-1.73222208,8.229848862,-0.160062,-1.295740008,-1.547266006,-1020.300049,15.90000057,-916.500061,1.705997913,-0.57515508,0.209480637,ST
2.133333333,-5.446091652,-1.594051003,7.989395618,0.243903995,-1.974097967,-2.035073996,-1010.700012,10.5,-923.7000122,1.705636661,-0.58435297,0.19928784,ST
2.166666667,-5.378501415,-1.275240779,8.255569458,0.922261953,-1.981719971,-1.669217944,-1025.100098,14.10000038,-928.500061,1.688206629,-0.569539274,0.15693274,ST
2.2,-5.214610577,-1.296773911,8.00614357,0.72408998,-1.920743942,-1.859767914,-1027.5,10.5,-933.3000488,1.696397874,-0.567722424,0.160709001,ST
2.233333333,-5.382688522,-1.370943666,8.223269463,0.0,-0.967993975,-1.592997909,-1017.900024,9.300000191,-930.9000244,1.703929731,-0.570953195,0.166359551,ST
2.266666667,-5.289976597,-2.038471222,9.64385891,-0.929883957,-1.318606019,-2.019829988,-1027.5,18.30000114,-921.3000488,1.728506092,-0.496994472,0.207639392,ST
2.3,-5.962289333,-2.228680611,9.648046494,-0.960371971,-2.080806017,-2.25611186,-1027.5,9.900000572,-926.1000366,1.742324076,-0.533890993,0.228350252,ST
2.333333333,-5.364146233,-2.892021179,10.54167175,-0.800309956,-2.416173935,-2.202757835,-1039.5,16.5,-923.7000122,1.764472466,-0.457404012,0.26739429,ST
2.366666667,-6.212911129,-2.640202999,10.11579418,-0.586893976,-2.317087889,-1.63872993,-1051.5,10.5,-926.1000366,1.76223171,-0.525955993,0.258120614,ST
2.4,-5.654843807,-2.694036007,9.463219643,-0.396344006,-1.455801964,-0.701223969,-1039.5,14.10000038,-935.7000122,1.771585921,-0.519500204,0.27649392,ST
2.433333333,-4.758227348,-3.552371025,8.361440659,0.472563982,-0.167683989,1.082324028,-1044.300049,13.50000095,-933.3000488,1.824612818,-0.485442466,0.392326248,ST
2.466666667,-5.15419817,-3.008659124,7.9570961,-0.053353999,0.853663981,-0.160062,-1039.5,15.30000019,-923.7000122,1.812424449,-0.540565784,0.364887914,ST
2.5,-4.465137482,-3.000285149,6.247004986,0.990859985,1.280496001,1.204275966,-1049.100098,12.90000057,-923.7000122,1.852112085,-0.573006328,0.439728318,ST
2.533333333,-4.825817585,-3.078641891,6.23623848,-0.381099999,2.17227006,0.716467977,-1039.5,12.90000057,-928.500061,1.862289011,-0.60717285,0.457777175,ST
2.566666667,-5.051317215,-3.711477041,7.843448639,-0.967993975,3.033555984,0.350611985,-1029.900024,14.70000076,-928.500061,1.856943357,-0.53901071,0.445816683,ST
2.6,-4.858117104,-3.590054035,6.99887085,-0.640248001,0.53354001,-1.310984015,-1032.300049,17.10000038,-930.9000244,1.874684123,-0.551917032,0.474013055,ST
2.633333333,-4.430445194,-3.753945351,7.232744694,0.114329994,0.998481989,-0.685979962,-1022.700012,15.90000057,-933.3000488,1.880633875,-0.503773985,0.479104766,ST
2.666666667,-4.078736782,-3.881947994,8.207119942,-0.434453994,-0.40396598,-1.051836014,-1032.300049,12.90000057,-921.3000488,1.8675511,-0.427685903,0.446052672,ST
2.7,-4.736694336,-3.218009233,7.524040222,0.365855992,-1.981719971,0.060975999,-1022.700012,12.90000057,-926.1000366,1.847621075,-0.513125531,0.406828066,ST
2.733333333,-4.05002594,-3.024809122,6.535310268,1.219519973,-1.63872993,1.394825935,-1032.300049,14.10000038,-926.1000366,1.853915482,-0.51094604,0.427396205,ST
2.766666667,-3.491958618,-3.346011877,7.736979485,-0.594515979,-1.684461951,0.708845973,-1039.5,14.70000076,-933.3000488,1.841148606,-0.401449439,0.409829541,ST
2.8,-4.166065693,-2.396160841,7.659819126,1.120433927,-2.57623601,0.419209987,-1049.100098,19.5,-933.3000488,1.795513422,-0.469907124,0.307986485,ST
2.833333333,-3.186307669,-3.249112606,6.970757961,1.440557957,-1.859767914,2.400929928,-1056.300049,12.90000057,-942.9000244,1.835834191,-0.398896809,0.420586981,ST
2.866666667,-4.575195789,-2.255597115,6.982122898,0.556405962,0.190549999,1.890255928,-1039.5,9.900000572,-911.7000122,1.785785193,-0.544715652,0.320639441,ST
2.9,-5.192479134,-1.80280292,7.08619976,0.876529992,1.105189919,1.692083955,-1051.5,11.10000038,-933.3000488,1.746571684,-0.613416356,0.253003448,ST
2.933333333,-5.053709984,-2.118024349,7.576078892,-0.91463995,0.891773999,2.134160042,-1041.900024,21.90000153,-928.500061,1.748927738,-0.576267394,0.270839244,ST
2.966666667,-4.909557343,-1.802204728,6.956402779,-0.80793196,-0.442075998,1.897877932,-1029.900024,15.90000057,-930.9000244,1.732603925,-0.597371741,0.254283551,ST
3.0,-4.565625191,-2.111444712,6.556245327,-0.846041977,0.015244,2.347575903,-1034.700073,15.90000057,-940.500061,1.753062062,-0.587629176,0.305386831,ST
3.033333333,-4.620654583,-2.37223506,6.839765072,-1.867389917,-0.182927996,3.155508041,-1032.300049,12.30000019,-918.9000244,1.754803664,-0.571191751,0.331143586,ST
3.066666667,-4.335340023,-2.459563971,8.36682415,-2.317087889,-0.304879993,2.446661949,-1044.300049,14.70000076,-921.3000488,1.723765925,-0.471992177,0.291342789,ST
3.1,-4.055409431,-2.760429859,7.687931538,-0.846041977,-1.310984015,2.660078049,-1032.300049,23.10000038,-918.9000244,1.734792386,-0.46128768,0.338924894,ST
3.133333333,-3.928602934,-2.953031778,7.611369133,-1.135677934,-0.746955991,1.509155989,-1039.5,16.5,-930.9000244,1.74057034,-0.449411538,0.367805453,ST
3.166666667,-4.840172768,-2.345916748,10.30121803,-1.981719971,0.320124,0.099086002,-1032.300049,17.70000076,-933.3000488,1.681452354,-0.431834528,0.236868846,ST
3.2,-3.625942707,-3.149222851,8.606678963,1.592997909,-1.394825935,1.920743942,-1041.900024,17.10000038,-921.3000488,1.716078258,-0.380398306,0.337496962,ST
3.233333333,-4.366443634,-2.595342398,7.652042866,-1.272873998,0.221037999,0.754577994,-1051.5,17.70000076,-930.9000244,1.70882698,-0.485736878,0.329520919,ST
3.266666667,-3.989015579,-2.700615406,9.155774117,-2.073184013,1.394825935,1.509155989,-1049.100098,15.90000057,-928.500061,1.685995646,-0.404919647,0.292230452,ST
3.3,-3.768300772,-2.703008175,8.725709915,-0.93750596,1.006103992,0.579271972,-1049.100098,18.30000114,-926.1000366,1.687211053,-0.394034604,0.301191025,ST
3.333333333,-3.609194756,-2.503228426,8.965564728,-0.251525998,1.135677934,0.731711984,-1037.100098,17.70000076,-926.1000366,1.67559994,-0.373805561,0.274580406,ST
3.366666667,-3.361563444,-2.518181801,8.446974754,-0.205793992,0.670735955,0.891773999,-1034.700073,15.90000057,-938.1000366,1.678143947,-0.36662739,0.288282365,ST
3.4,-3.13008213,-2.768205643,8.161062241,0.907018006,1.410069942,1.082324028,-1041.900024,12.30000019,-928.500061,1.68907067,-0.35273686,0.321754513,ST
3.433333333,-3.859816551,-2.567827702,8.391347885,0.190549999,1.783547997,0.335367978,-1029.900024,16.5,-923.7000122,1.681567002,-0.411671026,0.299095085,ST
3.466666667,-4.606897354,-2.684465647,8.960181236,0.312501997,1.966475964,1.181409955,-1027.5,14.10000038,-918.9000244,1.676819993,-0.457019182,0.290896435,ST
3.5,-4.946044445,-2.416497707,9.795787811,0.205793992,1.692083955,1.173787951,-1032.300049,24.30000114,-923.7000122,1.654005997,-0.459060323,0.243990878,ST
3.533333333,-3.919032812,-3.090604782,9.003846169,1.608241916,1.097568035,0.769822001,-1020.300049,23.10000038,-933.3000488,1.686656552,-0.398938036,0.320209816,ST
3.566666667,-4.053016663,-3.192289114,8.486452103,1.928365946,1.600619912,-0.655492008,-1017.900024,14.70000076,-928.500061,1.707323898,-0.420994188,0.354743801,ST
3.6,-4.580578804,-2.732317209,8.898572922,2.454283953,1.920743942,-0.571649969,-1010.700012,23.70000076,-933.3000488,1.691310331,-0.456687498,0.300090499,ST
3.633333333,-4.815649033,-2.496050596,8.5588274,3.323191881,1.775925994,0.304879993,-1017.900024,12.30000019,-921.3000488,1.688124706,-0.494604767,0.280150181,ST
3.666666667,-5.046532154,-2.302252293,7.232744694,3.483253956,2.629590034,0.548784018,-1015.500061,18.90000153,-914.1000366,1.705374241,-0.582665083,0.300154919,ST
3.7,-5.179319859,-2.034882307,7.108929157,3.208861828,4.641798019,0.327746004,-998.7000122,17.10000038,-916.500061,1.701278335,-0.615678973,0.276723097,ST
3.733333333,-5.420371532,-1.812373161,6.958795547,3.483253956,4.801859856,-0.320124,-991.500061,18.90000153,-914.1000366,1.698773119,-0.650422085,0.253085777,ST
3.766666667,-5.644077301,-1.954133034,7.397832394,3.10977602,3.963439941,-0.899396002,-989.1000366,9.300000191,-921.3000488,1.711599656,-0.642619101,0.255096289,ST
3.8,-6.584956169,-1.302157283,7.178912163,3.68142581,2.896359921,-0.503051996,-979.500061,15.90000057,-916.500061,1.676480235,-0.730362786,0.182303307,ST
3.833333333,-6.764399052,-1.095199823,7.8482337,3.78813386,1.859767914,0.861285985,-979.500061,6.900000095,-914.1000366,1.652875233,-0.711891489,0.135710594,ST
3.866666667,-5.022606373,-1.18611753,5.211021423,5.061007977,-0.121951997,1.532021999,-989.1000366,10.5,-909.3000488,1.707105665,-0.751063541,0.205167746,ST
3.9,-6.398933411,-0.482701391,3.874770164,2.08842802,2.25611186,1.455801964,-969.9000244,6.900000095,-916.500061,1.650175954,-1.003999719,0.12667434,ST
3.933333333,-8.567201614,-0.660349846,6.423457146,-0.121951997,4.580821991,3.00306797,-969.9000244,9.300000191,-902.1000366,1.621847391,-0.939234746,0.098852977,ST
3.966666667,-8.829786301,0.200377896,8.161062241,-0.40396598,3.147886038,2.896359921,-969.9000244,11.70000076,-909.3000488,1.522438659,-0.840194828,-0.019579121,ST
4.0,-6.452168465,0.480906963,5.103953838,2.355197906,-0.693601966,4.496979713,-965.1000366,5.100000381,-916.500061,1.4580988,-0.892392801,-0.099192429,ST
4.033333333,-5.909054279,0.018542431,4.524353504,-0.282013983,-0.335367978,3.437521935,-967.500061,2.700000048,-904.500061,1.512578361,-0.914614013,-0.019592189,ST
4.066666667,-6.896588326,0.275743902,6.080721378,-1.859767914,0.457319975,2.515259981,-974.7000122,6.300000191,-906.9000244,1.482451382,-0.854281296,-0.044943161,ST
4.1,-7.150799274,0.113049023,5.63211441,-1.181409955,0.640248001,2.896359921,-955.500061,7.500000477,-906.9000244,1.486708358,-0.901083457,-0.025897074,ST
4.133333333,-7.409795284,-0.098693587,6.46233654,-1.905499935,0.785066009,1.699705958,-957.9000244,4.5,-916.500061,1.506667212,-0.858112758,0.012463798,ST
4.166666667,-7.375102997,-0.172265172,7.300932884,-1.8292799,-0.503051996,1.028970003,-962.7000122,6.300000191,-897.3000488,1.507972175,-0.795665091,0.02379486,ST
4.2,-6.68364954,-0.086132586,6.723725319,-0.144817993,-2.393307924,0.800309956,-960.3000488,6.300000191,-918.9000244,1.49770458,-0.779791037,0.012704996,ST
4.233333333,-6.218294144,-0.654368401,5.970065117,0.129574001,-2.355197906,0.266770005,-981.9000244,5.100000381,-899.7000122,1.55835791,-0.797223596,0.099199724,ST
4.266666667,-7.040740967,-0.659153581,6.181807518,-0.251525998,-0.701223969,-0.205793992,-977.1000366,8.700000763,-914.1000366,1.563188639,-0.84215083,0.106241079,ST
4.3,-6.325960159,-0.605918825,6.730304718,0.731711984,-0.503051996,-0.045731999,-989.1000366,2.700000048,-916.500061,1.553350303,-0.759727022,0.089965688,ST
4.333333333,-6.229061127,-0.893027484,6.419270515,0.503051996,-0.731711984,-0.503051996,-977.1000366,2.100000143,-918.9000244,1.586054844,-0.763874314,0.134018782,ST
4.366666667,-6.62742424,-0.923532724,7.765690327,-0.060975999,-0.670735955,-0.952749968,-960.3000488,8.100000381,-921.3000488,1.579404896,-0.70727536,0.120981983,ST
4.4,-6.72133255,-0.307445496,8.039041519,0.815553963,-1.493911982,-0.464941978,-972.3000488,14.70000076,-918.9000244,1.533015829,-0.6947567,0.044856587,ST
4.433333333,-7.192669392,-0.28232348,8.63419342,0.72408998,-1.219519973,0.480185986,-972.3000488,8.700000763,-892.500061,1.524791061,-0.692383054,0.031643084,ST
4.466666667,-6.851129532,0.175255895,8.98709774,0.411587983,-1.692083955,1.8292799,-974.7000122,11.10000038,-911.7000122,1.488772955,-0.651325869,-0.019033514,ST
4.5,-5.760116577,0.03828115,8.481667519,-0.693601966,-1.387203932,1.265251994,-979.500061,6.300000191,-921.3000488,1.491287917,-0.598440955,-0.00586625,ST
4.533333333,-5.998177528,0.773997009,8.406899452,-1.211897969,-0.586893976,0.190549999,-989.1000366,14.70000076,-911.7000122,1.444885701,-0.615195069,-0.082173322,ST
4.566666667,-4.81983614,0.307445496,7.831485748,-1.295740008,0.579271972,-0.030487999,-984.3000488,4.5,-902.1000366,1.465276293,-0.558068629,-0.040933332,ST
4.6,-5.078233719,0.302062213,7.769279003,-1.455801964,1.34147191,-0.434453994,-986.7000122,8.100000381,-926.1000366,1.466147467,-0.57887494,-0.036341126,ST
4.633333333,-5.526841164,-0.06459944,7.45345974,-1.173787951,1.951231956,-0.716467977,-979.500061,8.100000381,-916.500061,1.491212388,-0.637148707,0.00820102,ST
4.666666667,-6.055599213,-0.25421077,6.772772789,-1.272873998,2.690565825,-1.196653962,-965.1000366,9.300000191,-923.7000122,1.511287648,-0.726505188,0.038983494,ST
4.7,-6.324763775,-0.445616513,6.380391121,-0.846041977,4.458869934,-1.272873998,-960.3000488,5.100000381,-909.3000488,1.534766575,-0.781913125,0.070582543,ST
4.733333333,-6.872662544,-0.721360445,6.720136166,-0.716467977,5.198204041,-1.387203932,-965.1000366,4.5,-902.1000366,1.564355056,-0.800847276,0.108192224,ST
4.766666667,-6.852325916,-0.373839349,6.547273159,-0.198172003,4.504601955,-1.806414008,-962.7000122,17.70000076,-906.9000244,1.538193931,-0.813755846,0.065495786,ST
4.8,-6.801483631,-1.095797896,5.516074657,0.198172003,2.782029867,-1.707327962,-945.9000244,10.5,-899.7000122,1.63454865,-0.87814693,0.187111127,ST
4.833333333,-6.410896301,-1.257894635,5.273826599,-0.609759986,2.23324585,-3.140264034,-945.9000244,10.5,-897.3000488,1.679558482,-0.87199852,0.237633648,ST
4.866666667,-7.137042046,-1.818354607,5.641086578,-0.899396002,2.118916035,-3.696669817,-938.7000122,11.10000038,-892.500061,1.746682989,-0.878884931,0.315720474,ST
4.9,-6.552656174,-2.515191078,5.926400661,-0.640248001,0.594515979,-4.527467728,-929.1000366,15.90000057,-918.9000244,1.822135266,-0.798239675,0.404437853,ST
4.933333333,-6.336726665,-2.818449736,5.705087662,-0.312501997,-1.173787951,-4.458869934,-929.1000366,8.100000381,-897.3000488,1.869405534,-0.779954354,0.459988881,ST
4.966666667,-6.379793167,-3.24073863,5.433530807,-0.259148002,-1.699705958,-4.199721813,-943.500061,17.70000076,-897.3000488,1.928918967,-0.783170494,0.535435607,ST
5.0,-6.694416046,-3.76052475,6.31878233,-0.777444005,-1.349093914,-3.78813386,-943.500061,18.30000114,-897.3000488,1.937797943,-0.737654509,0.541675355,ST
5.033333333,-6.877448082,-3.467434883,6.611274242,-0.83079797,-2.050318003,-3.193617821,-943.500061,20.10000038,-906.9000244,1.90702439,-0.73863037,0.491941509,ST
5.066666667,-7.379289627,-3.182718754,6.562824726,1.036592007,-1.532021999,-0.274392009,-936.3000488,12.30000019,-914.1000366,1.881526042,-0.784126526,0.45304842,ST
5.1,-7.299736977,-3.304739952,6.717145443,1.432935953,-0.449698001,0.243903995,-950.7000122,16.5,-906.9000244,1.884668845,-0.773259654,0.453931573,ST
5.133333333,-6.596320629,-2.999088764,6.565815449,1.516777992,-2.080806017,0.099086002,-950.7000122,13.50000095,-890.1000366,1.867262777,-0.740447205,0.426906593,ST
5.166666667,-6.905560493,-2.58637023,6.715351105,1.135677934,-2.164648056,0.884151995,-950.7000122,17.70000076,-909.3000488,1.826192761,-0.759987452,0.368868575,ST
5.2,-6.145918846,-2.399749517,6.560431957,1.516777992,-2.271355867,1.570132017,-960.3000488,12.30000019,-902.1000366,1.808770552,-0.722168802,0.346496369,ST
5.233333333,-6.251192093,-2.073761702,6.204536915,1.753059983,-2.027451992,1.394825935,-957.9000244,18.30000114,-921.3000488,1.789342013,-0.756675141,0.319071695,ST
5.266666667,-5.944942951,-2.156305313,6.371418953,1.394825935,-1.371959925,1.547266006,-953.1000366,12.30000019,-904.500061,1.788892932,-0.725490461,0.320790591,ST
5.3,-6.853522301,-2.078546762,6.540693283,0.282013983,0.007622,1.356715918,-950.7000122,15.90000057,-906.9000244,1.776061895,-0.781316467,0.30611751,ST
5.333333333,-6.565217018,-2.065387726,6.612470627,-0.213415995,0.121951997,1.615863919,-965.1000366,9.900000572,-909.3000488,1.768310853,-0.761557957,0.301091941,ST
5.366666667,-6.945037842,-1.915253758,7.487553596,-0.625003994,0.373477995,1.974097967,-955.500061,14.10000038,-916.500061,1.729690003,-0.736148556,0.253232113,ST
5.4,-5.778060913,-2.071967363,6.626825809,0.091463998,-0.823175967,1.875011921,-948.3000488,14.10000038,-914.1000366,1.752634474,-0.697197953,0.296157438,ST
5.433333333,-5.959896564,-2.095294714,6.710566044,-0.106707998,0.060975999,1.417691946,-957.9000244,13.50000095,-909.3000488,1.751437022,-0.703517841,0.300501267,ST
5.466666667,-6.095674992,-2.147333384,7.028180122,-0.228659987,0.442075998,1.158543944,-957.9000244,15.90000057,-899.7000122,1.745409539,-0.694661952,0.295945774,ST
5.5,-6.781744957,-2.001386404,6.873260975,0.266770005,1.265251994,1.387203932,-969.9000244,20.70000076,-918.9000244,1.734732983,-0.755143181,0.282677335,ST
5.533333333,-6.637592316,-1.949946046,7.082611084,0.106707998,1.928365946,1.661595941,-945.9000244,14.70000076,-911.7000122,1.722214043,-0.740144016,0.268028725,ST
5.566666667,-6.753034115,-2.057611704,6.864288807,0.221037999,2.080806017,1.95885396,-955.500061,4.5,-909.3000488,1.73226397,-0.7585373,0.286988638,ST
5.6,-6.549067497,-1.935590625,7.400224686,0.327746004,1.791170001,1.509155989,-955.500061,11.70000076,-906.9000244,1.710091935,-0.716015275,0.256601884,ST
5.633333333,-6.415083408,-1.53423667,6.808661461,0.960371971,0.846041977,1.455801964,-955.500061,6.300000191,-902.1000366,1.685812241,-0.742678513,0.221553896,ST
5.666666667,-6.296650887,-1.438533902,6.757819176,1.394825935,-0.259148002,2.08842802,-943.500061,17.70000076,-914.1000366,1.672466696,-0.739585071,0.205170137,ST
5.7,-6.201546192,-1.384102821,6.258369923,1.196653962,-0.434453994,1.859767914,-933.9000244,12.30000019,-899.7000122,1.674896082,-0.766839036,0.211842108,ST
5.733333333,-7.176519394,-1.245931864,6.513776779,-0.015244,1.501533985,1.897877932,-948.3000488,6.300000191,-911.7000122,1.654451575,-0.822494877,0.18852452,ST
5.766666667,-6.402522564,-1.22619307,6.883429527,-0.144817993,0.525918007,1.509155989,-941.1000366,15.30000019,-892.500061,1.641450616,-0.74999869,0.175423427,ST
5.8,-7.537199497,-1.245333672,7.482170582,-0.72408998,-0.586893976,1.55488801,-936.3000488,7.500000477,-911.7000122,1.628107252,-0.778806389,0.164518854,ST
5.833333333,-6.641779423,-0.693247676,6.659723759,0.167683989,-1.821658015,1.509155989,-938.7000122,14.10000038,-904.500061,1.58286724,-0.778592294,0.105794148,ST
5.866666667,-6.416877747,-0.869101763,6.444392204,0.083841994,-1.608241916,2.23324585,-943.500061,14.70000076,-902.1000366,1.592379855,-0.776653711,0.127765701,ST
5.9,-5.964681625,-0.178246602,6.611274242,0.243903995,-2.804895878,1.875011921,-943.500061,14.70000076,-923.7000122,1.522330802,-0.733610434,0.032436857,ST
5.933333333,-5.696713448,-0.408531636,6.395344734,0.083841994,-2.423795938,2.332331896,-945.9000244,3.900000095,-911.7000122,1.532641488,-0.723448356,0.057952604,ST
5.966666667,-5.734994888,-0.376231939,6.214705467,-0.030487999,-1.875011921,1.653973937,-953.1000366,8.700000763,-904.500061,1.527908067,-0.739653291,0.057735002,ST
6.0,-6.540693283,-0.121423021,6.191378117,0.083841994,-0.327746004,1.12805593,-965.1000366,17.70000076,-894.9000244,1.499568503,-0.806221289,0.020961697,ST
6.033333333,-7.324858665,-0.54610455,6.050216198,0.022865999,1.539644003,1.356715918,-962.7000122,8.700000763,-906.9000244,1.541418466,-0.874571474,0.080869035,ST
6.066666667,-7.59641552,-0.715977132,7.062273979,-1.067080021,2.782029867,0.190549999,-957.9000244,5.100000381,-909.3000488,1.554081277,-0.828697081,0.101133805,ST
6.1,-7.439702511,-1.036581755,6.523347378,-0.342989981,2.309465885,-0.335367978,-955.500061,14.70000076,-894.9000244,1.5940644,-0.846907369,0.154142672,ST
6.133333333,-7.247698307,-1.178341627,6.380391121,-0.114329994,2.393307924,-1.074702024,-945.9000244,6.300000191,-894.9000244,1.618928496,-0.844625671,0.18314601,ST
6.166666667,-7.25128746,-0.925327182,6.444392204,0.304879993,1.432935953,-1.158543944,-929.1000366,8.100000381,-899.7000122,1.596761504,-0.841677262,0.148179357,ST
6.2,-7.166949272,-0.686668158,6.035860538,0.701223969,0.525918007,-0.922261953,-945.9000244,17.70000076,-904.500061,1.577479259,-0.866012023,0.117221319,ST
6.233333333,-7.040142536,-0.967795312,5.554355621,0.83079797,0.579271972,-0.769822001,-938.7000122,13.50000095,-897.3000488,1.620437079,-0.893647038,0.167668191,ST
6.266666667,-6.930682659,-0.675901532,6.785932064,0.525918007,-0.449698001,-1.753059983,-933.9000244,10.5,-897.3000488,1.58005564,-0.801601215,0.106777195,ST
6.3,-7.041937351,-1.177145362,6.565815449,0.251525998,-1.806414008,-1.12805593,-941.1000366,11.70000076,-899.7000122,1.629632773,-0.808486175,0.171859412,ST
6.333333333,-6.861298084,-1.461263299,7.526432991,-0.320124,-1.814036012,-1.814036012,-941.1000366,6.300000191,-894.9000244,1.647416072,-0.73249118,0.192979262,ST
6.366666667,-6.331343174,-0.890036762,7.437907696,0.487807989,-3.079288006,-2.301843882,-936.3000488,3.300000191,-897.3000488,1.609858056,-0.698701728,0.12631554,ST
6.4,-6.269136429,-1.089218378,7.016217232,0.800309956,-2.87349391,-0.754577994,-943.500061,7.500000477,-892.500061,1.628352846,-0.716415409,0.150607147,ST
6.433333333,-5.685946941,-0.96480459,6.612470627,0.114329994,-1.394825935,-0.632625997,-962.7000122,5.700000286,-894.9000244,1.626604563,-0.7034863,0.145708876,ST
6.466666667,-5.843258858,-1.230380058,6.869671822,-0.510674,0.091463998,-0.952749968,-945.9000244,8.700000763,-911.7000122,1.647813565,-0.697540346,0.176465753,ST
6.5,-6.389961243,-1.704707503,6.493440151,-1.120433927,1.791170001,-1.402447939,-950.7000122,10.5,-904.500061,1.702988652,-0.759123777,0.255993476,ST
6.533333333,-6.151900291,-1.07785368,6.669892311,-1.806414008,2.339953899,-1.8292799,-945.9000244,10.5,-899.7000122,1.648572814,-0.743670142,0.174089838,ST
6.566666667,-6.499421597,-1.868000507,5.83847332,-1.55488801,2.660078049,-0.243903995,-931.500061,14.70000076,-906.9000244,1.735898007,-0.812531949,0.300584288,ST
6.6,-6.486262321,-1.993610501,5.922811508,-1.204275966,2.835383892,-0.663114011,-945.9000244,18.30000114,-897.3000488,1.755607383,-0.808716138,0.326974545,ST
6.633333333,-7.329045773,-2.442217827,6.528730392,-1.570132017,2.660078049,-0.967993975,-924.3000488,18.90000153,-892.500061,1.78108212,-0.813856891,0.361526342,ST
6.666666667,-7.720231533,-3.003874063,5.839071751,-1.227141976,2.637212038,-1.303362012,-926.7000122,15.30000019,-885.3000488,1.864327835,-0.864367793,0.470487114,ST
6.7,-7.072442532,-3.032584906,7.285381317,-1.120433927,1.699705958,-1.981719971,-936.3000488,13.50000095,-892.500061,1.821199547,-0.744169915,0.40590928,ST
6.733333333,-6.804474354,-2.972172499,6.568806171,0.144817993,-1.516777992,-1.585376024,-926.7000122,23.10000038,-885.3000488,1.836068848,-0.752142627,0.424154309,ST
6.766666667,-6.732099056,-3.128885984,5.922811508,0.861285985,-2.926847935,-0.685979962,-924.3000488,16.5,-906.9000244,1.873605956,-0.780125053,0.477672731,ST
6.8,-6.021505356,-3.262869835,6.179415226,0.990859985,-2.843005896,-0.411587983,-941.1000366,15.90000057,-880.500061,1.876589313,-0.713182118,0.482221312,ST
6.833333333,-6.261958599,-2.928508043,6.213509083,1.112811923,-2.667700052,0.160062,-933.9000244,14.70000076,-904.500061,1.848213482,-0.733173155,0.440683506,ST
6.866666667,-6.288277149,-2.653362274,5.938961506,1.524399996,-2.179892063,1.379581928,-936.3000488,14.10000038,-911.7000122,1.82925383,-0.763739108,0.415802138,ST
6.9,-6.608881474,-2.521172523,6.684845924,0.990859985,-0.777444005,1.623485923,-938.7000122,16.5,-909.3000488,1.78897565,-0.747597497,0.36044302,ST
6.933333333,-6.590339184,-2.225091934,6.594526291,0.929883957,-0.853663981,1.791170001,-950.7000122,18.30000114,-902.1000366,1.761413685,-0.756848199,0.324184234,ST
6.966666667,-6.927093983,-2.185016155,6.677070141,0.72408998,-0.449698001,2.187514067,-941.1000366,7.500000477,-887.7000122,1.749452516,-0.776799384,0.312386494,ST
7.0,-7.28897047,-2.190399647,6.616657734,0.457319975,1.04421401,1.844523907,-948.3000488,18.30000114,-909.3000488,1.749595804,-0.807726501,0.315955716,ST
7.033333333,-7.452263355,-1.823737979,6.669892311,0.243903995,1.699705958,1.242385983,-943.500061,8.700000763,-897.3000488,1.714525103,-0.82475889,0.269341713,ST
7.066666667,-6.547273159,-1.935590625,7.009637356,0.472563982,0.891773999,1.570132017,-936.3000488,15.90000057,-887.7000122,1.710737674,-0.743322202,0.266755083,ST
7.1,-5.830697536,-2.025312185,6.518562317,0.480185986,-1.23476398,0.72408998,-938.7000122,14.10000038,-899.7000122,1.728557898,-0.708703118,0.296009541,ST
7.133333333,-5.855221748,-1.512703538,6.079524994,0.861285985,-1.730193973,0.678357959,-943.500061,14.10000038,-892.500061,1.693961513,-0.745705119,0.245356596,ST
7.166666667,-6.345100403,-1.618574858,6.684247494,0.121951997,0.121951997,1.966475964,-941.1000366,12.90000057,-904.500061,1.682088858,-0.746141666,0.235082446,ST
7.2,-6.244014263,-1.454085588,6.591535568,0.472563982,-0.083841994,2.035073996,-960.3000488,11.70000076,-904.500061,1.664269552,-0.7470282,0.214875652,ST
7.233333333,-6.685443878,-1.40743041,7.386467457,0.29725799,-0.457319975,1.478667974,-950.7000122,8.700000763,-911.7000122,1.642440032,-0.728026111,0.187548967,ST
7.266666667,-6.753632069,-1.522273898,7.141229153,0.373477995,-0.320124,1.394825935,-950.7000122,13.50000095,-904.500061,1.651558526,-0.744724362,0.205273712,ST
7.3,-6.87924242,-1.560554981,7.151995659,0.121951997,-0.022865999,1.036592007,-950.7000122,15.30000019,-909.3000488,1.654023364,-0.753790848,0.212251058,ST
7.333333333,-6.608881474,-1.203463674,6.604096413,0.175305992,0.076219998,1.105189919,-953.1000366,10.5,-906.9000244,1.630316718,-0.775904896,0.181263939,ST
7.366666667,-6.453364372,-1.062900066,7.096368313,0.274392009,0.388722003,1.631107926,-950.7000122,6.900000095,-906.9000244,1.603745261,-0.736217593,0.147853026,ST
7.4,-6.230257034,-1.193893313,6.966571331,0.487807989,0.266770005,1.204275966,-938.7000122,8.100000381,-909.3000488,1.613652381,-0.724359238,0.165535985,ST
7.433333333,-6.169844627,-0.330773056,7.127471447,1.105189919,-1.371959925,0.548784018,-941.1000366,9.900000572,-902.1000366,1.541158811,-0.712189912,0.054394647,ST
7.466666667,-5.937167168,-0.635825992,5.661423206,1.478667974,-1.867389917,1.44817996,-943.500061,12.30000019,-909.3000488,1.573602579,-0.796838433,0.102342103,ST
7.5,-6.529328823,-0.977365613,6.265547752,-0.152439997,-0.586893976,0.53354001,-943.500061,5.700000286,-897.3000488,1.605321283,-0.798979669,0.149219927,ST
7.533333333,-6.73568821,-0.702817976,6.975543499,0.0,-1.105189919,-0.320124,-945.9000244,11.70000076,-911.7000122,1.574573206,-0.766671586,0.104987835,ST
7.566666667,-7.082611084,-1.069479585,7.134649277,-0.182927996,-1.486289978,0.060975999,-948.3000488,18.90000153,-904.500061,1.601322357,-0.773093745,0.144996225,ST
7.6,-6.558039665,-0.854746282,6.753632069,0.525918007,-1.42531395,-0.312501997,-962.7000122,10.5,-906.9000244,1.590192277,-0.764814969,0.126542921,ST
7.633333333,-6.660322189,-0.921140194,6.928888321,0.442075998,0.129574001,-0.282013983,-945.9000244,12.30000019,-897.3000488,1.595350902,-0.76172993,0.131407701,ST
7.666666667,-6.982122898,-1.147238255,6.862494469,0.693601966,-0.007622,-0.640248001,-955.500061,15.90000057,-902.1000366,1.62020499,-0.78470174,0.162351546,ST
7.7,-6.951617718,-1.056918621,6.849335194,0.800309956,-0.045731999,-0.609759986,-948.3000488,14.70000076,-902.1000366,1.617437237,-0.78650538,0.153616933,ST
7.733333333,-6.634003639,-0.632237136,7.145415783,0.838419974,-0.068598002,-0.990859985,-962.7000122,11.70000076,-902.1000366,1.580118033,-0.749188593,0.093115465,ST
7.766666667,-6.439607143,-0.829026163,7.166949272,0.304879993,-0.785066009,-0.464941978,-962.7000122,14.70000076,-902.1000366,1.595828538,-0.728756042,0.113721397,ST
7.8,-6.444392204,-0.990524769,7.140630722,0.0,-0.731711984,-0.137196004,-955.500061,17.10000038,-906.9000244,1.610574695,-0.72822474,0.135705052,ST
7.833333333,-5.753537178,-0.765622973,6.675275326,0.236281991,-0.571649969,-0.632625997,-953.1000366,9.900000572,-902.1000366,1.599921772,-0.708947677,0.116500693,ST
7.866666667,-6.593329906,-1.322494149,7.133452892,-0.594515979,0.541162014,-0.716467977,-955.500061,9.300000191,-909.3000488,1.642059177,-0.735801643,0.179186324,ST
7.9,-6.449177742,-1.152621508,7.110723495,-0.144817993,0.731711984,-0.72408998,-953.1000366,7.500000477,-894.9000244,1.633461654,-0.731544269,0.16330859,ST
7.933333333,-6.22487402,-1.238155961,6.522748947,0.167683989,1.158543944,-0.952749968,-953.1000366,9.300000191,-916.500061,1.652624871,-0.752782986,0.186779463,ST
7.966666667,-6.379194736,-1.301559091,7.311101437,-0.815553963,2.080806017,-1.394825935,-950.7000122,5.700000286,-897.3000488,1.651407377,-0.715594927,0.18066968,ST
8.0,-6.380989075,-1.790241957,6.412092686,-0.373477995,1.257629991,-1.219519973,-938.7000122,12.30000019,-892.500061,1.712059168,-0.761425201,0.266414554,ST
8.033333333,-6.451570034,-1.584480762,7.36373806,0.022865999,-0.579271972,-1.486289978,-948.3000488,12.30000019,-916.500061,1.683105734,-0.711287909,0.21803532,ST
8.066666667,-6.675275326,-1.8075881,6.301436424,0.746955991,-0.861285985,-0.640248001,-948.3000488,4.5,-904.500061,1.723199143,-0.785398359,0.27271823,ST
8.1,-6.730304718,-1.943964601,6.690228939,-0.083841994,0.922261953,-0.716467977,-943.500061,15.30000019,-899.7000122,1.732871184,-0.770779053,0.283478028,ST
8.133333333,-5.589645863,-2.256793499,6.501813889,-0.274392009,-0.160062,-1.166165948,-931.500061,12.30000019,-909.3000488,1.767138326,-0.689372356,0.33165548,ST
8.166666667,-6.188387394,-2.512798548,6.473103046,-0.091463998,-0.80793196,-1.532021999,-933.9000244,9.300000191,-911.7000122,1.793822034,-0.722417844,0.368394002,ST
8.2,-6.595722675,-2.528948545,6.378596783,-0.045731999,-0.640248001,-1.676839948,-943.500061,12.90000057,-902.1000366,1.804029043,-0.759802111,0.378660049,ST
8.233333333,-6.389961243,-2.688054562,6.918719769,0.083841994,-1.036592007,-1.333850026,-950.7000122,3.900000095,-909.3000488,1.80228325,-0.712135006,0.372235354,ST
8.266666667,-6.433027744,-2.711980343,7.60419178,0.007622,-1.501533985,-0.640248001,-933.9000244,12.90000057,-904.500061,1.78529763,-0.673788626,0.345281263,ST
8.3,-6.431233406,-3.111539841,6.713556767,0.282013983,-2.721053839,0.182927996,-945.9000244,8.100000381,-909.3000488,1.833607358,-0.708851796,0.425402163,ST
8.333333333,-5.859408379,-2.753850222,6.626825809,0.243903995,-2.118916035,-0.091463998,-945.9000244,12.90000057,-906.9000244,1.812637248,-0.683549844,0.395047542,ST
8.366666667,-5.966475964,-2.856132746,6.459944248,0.038109999,-0.960371971,0.891773999,-962.7000122,11.70000076,-911.7000122,1.820778806,-0.698987483,0.412678704,ST
8.4,-6.419868469,-2.601922035,6.82241869,-0.175305992,-0.213415995,1.562510014,-948.3000488,12.90000057,-909.3000488,1.786569844,-0.719853348,0.366948167,ST
8.433333333,-6.17283535,-2.507415295,6.662714481,0.266770005,-0.342989981,2.17227006,-960.3000488,14.70000076,-894.9000244,1.775138463,-0.715541256,0.357173208,ST
8.466666667,-6.342708111,-2.420684576,7.135845661,-0.060975999,-0.419209987,2.736297846,-957.9000244,11.10000038,-909.3000488,1.747667141,-0.701910743,0.326157109,ST
8.5,-6.430037022,-2.222101212,6.837372303,0.320124,-0.388722003,2.926847935,-957.9000244,15.90000057,-911.7000122,1.730717187,-0.728036892,0.310733933,ST
8.533333333,-6.641181469,-2.188006878,7.342803001,0.030487999,0.129574001,2.705809832,-969.9000244,15.30000019,-909.3000488,1.70906832,-0.716851617,0.287896013,ST
8.566666667,-6.345698833,-2.044452667,6.799689293,0.457319975,-0.342989981,2.36281991,-955.500061,10.5,-906.9000244,1.703815316,-0.72874757,0.287622906,ST
8.6,-5.752939224,-1.731623888,7.719633102,-0.266770005,-1.272873998,2.248489857,-955.500061,8.700000763,-921.3000488,1.656176088,-0.636701158,0.223659693,ST
8.633333333,-5.414390087,-1.814765811,6.855914593,0.792688012,-2.347575903,2.949713945,-977.1000366,9.900000572,-909.3000488,1.664239998,-0.648230256,0.250159882,ST
8.666666667,-5.577682972,-1.458272576,6.842157364,0.93750596,-1.981719971,2.911603928,-969.9000244,3.900000095,-902.1000366,1.631522468,-0.668780302,0.20811346,ST
8.7,-5.953915119,-1.263278008,7.600004673,0.929883957,-0.838419974,2.560992002,-967.500061,8.700000763,-904.500061,1.598944612,-0.658331433,0.163842151,ST
8.733333333,-6.087301254,-1.279427767,7.746549606,0.693601966,-0.411587983,2.317087889,-957.9000244,8.100000381,-909.3000488,1.591446703,-0.659339791,0.159701846,ST
8.766666667,-5.684751034,-0.698032856,7.104144096,0.853663981,-1.135677934,1.897877932,-969.9000244,11.70000076,-904.500061,1.550300254,-0.670022367,0.099180615,ST
8.8,-5.701498985,-0.89661634,7.179510117,0.358233988,-0.464941978,1.8292799,-969.9000244,10.5,-909.3000488,1.558325143,-0.667249129,0.119067834,ST
8.833333333,-6.190779686,-0.854746282,7.950516224,-0.464941978,0.106707998,1.455801964,-960.3000488,8.100000381,-897.3000488,1.545457836,-0.659821911,0.106854512,ST
8.866666667,-6.068160534,-0.283519775,7.056292534,0.114329994,-0.548784018,2.134160042,-972.3000488,6.900000095,-918.9000244,1.499839778,-0.704724724,0.043354632,ST
8.9,-5.510093212,-0.240453482,7.454655647,-0.129574001,-0.053353999,1.867389917,-972.3000488,9.900000572,-921.3000488,1.486883303,-0.6424635,0.031127765,ST
8.933333333,-5.509494781,-0.454588652,6.875653267,-0.114329994,-0.53354001,1.23476398,-960.3000488,10.5,-923.7000122,1.501674367,-0.670868054,0.061376774,ST
8.966666667,-6.660920143,-0.549095273,8.224466324,-0.907018006,0.0,0.381099999,-972.3000488,9.300000191,-914.1000366,1.502103631,-0.679093001,0.067276268,ST
9.0,-6.489851475,0.003588858,7.291362762,0.259148002,-0.754577994,0.40396598,-960.3000488,8.100000381,-916.500061,1.461327916,-0.72184497,0.004894704,ST
9.033333333,-6.159676552,-0.29189378,8.29145813,-0.396344006,-0.015244,-0.091463998,-981.9000244,11.70000076,-918.9000244,1.478731728,-0.646141805,0.03332726,ST
9.066666667,-5.795407295,0.002392572,6.212312698,0.655492008,-0.365855992,0.251525998,-969.9000244,9.300000191,-914.1000366,1.459201413,-0.740624902,0.00148737,ST
9.1,-6.875055313,-0.325987905,6.465327263,-0.236281991,1.897877932,0.205793992,-969.9000244,11.10000038,-921.3000488,1.489321212,-0.811746239,0.045761597,ST
9.133333333,-6.378596783,-0.693247676,7.547966003,-1.204275966,2.789651871,-1.440557957,-943.500061,13.50000095,-923.7000122,1.523252379,-0.712319911,0.092728047,ST
9.166666667,-6.616059303,-0.46834594,7.526432991,-0.990859985,0.998481989,-1.928365946,-953.1000366,12.30000019,-892.500061,1.510805878,-0.720837714,0.069274742,ST
9.2,-6.264949322,-0.525169551,6.709369659,-0.579271972,-0.228659987,-0.891773999,-955.500061,8.700000763,-921.3000488,1.518538713,-0.746555463,0.079486724,DLL
9.233333333,-6.463532925,-0.952243626,5.743368626,-1.394825935,0.289635986,0.510674,-953.1000366,8.100000381,-906.9000244,1.570637834,-0.83256811,0.159909248,DLL
9.266666667,-6.703986645,-1.302755356,7.134051323,-3.216483831,1.913121939,0.007622,-960.3000488,11.70000076,-911.7000122,1.58109875,-0.756947366,0.184418476,DLL
9.3,-7.862589359,-1.396663785,6.255977154,-4.641798019,1.082324028,2.538125992,-957.9000244,10.5,-909.3000488,1.589571975,-0.877561652,0.219264725,DLL
9.333333333,-5.817538738,-1.69214642,6.757221222,-6.875043869,0.335367978,3.239349842,-948.3000488,12.90000057,-897.3000488,1.585570493,-0.710066995,0.250287598,DLL
9.366666667,-6.995880127,-1.516890526,6.064571381,-7.53815794,-1.463423967,4.245453835,-950.7000122,21.30000114,-899.7000122,1.552557292,-0.832695852,0.250101112,DLL
9.4,-6.102852821,-2.593547821,6.508393764,-8.62810421,-1.204275966,6.402479649,-955.500061,16.5,-916.500061,1.602337134,-0.729118277,0.372845998,DLL
9.433333333,-7.056292534,-2.12041688,6.552656174,-7.888769627,-1.227141976,5.457351685,-955.500061,24.90000153,-914.1000366,1.534770003,-0.792436254,0.322521875,DLL
9.466666667,-7.500712872,-2.179632902,5.57529068,-9.077801704,-1.562510014,8.147917747,-965.1000366,17.10000038,-914.1000366,1.525401432,-0.8899956,0.366520289,DLL
9.5,-6.652545929,-2.54150939,5.94733572,-10.05341816,-2.583858013,10.67080021,-953.1000366,30.90000153,-899.7000122,1.494244139,-0.808453977,0.398984566,DLL
9.533333333,-5.935372829,-3.395059586,6.619648457,-8.971094131,-1.951231956,11.7836113,-955.500061,27.90000153,-892.500061,1.490090796,-0.691144485,0.466466463,DLL
9.566666667,-5.68116188,-3.145035744,7.435515404,-6.608273983,-1.326228023,7.111325741,-950.7000122,29.10000038,-904.500061,1.421210341,-0.622968192,0.407980651,DLL
9.6,-6.642377853,-2.783159256,7.850626469,-2.111294031,-1.074702024,3.292703867,-960.3000488,23.10000038,-921.3000488,1.36992743,-0.668987393,0.346060058,DLL
9.633333333,-6.330147266,-2.259186029,6.148311615,-0.129574001,-2.111294031,1.714949965,-965.1000366,26.70000076,-894.9000244,1.365080031,-0.757076925,0.348277577,DLL
9.666666667,-6.679462433,-2.371636868,6.682453156,0.190549999,-0.754577994,1.265251994,-955.500061,33.90000153,-902.1000366,1.355392676,-0.755184875,0.339079544,DLL
9.7,-6.640583038,-2.277130365,6.471907139,0.335367978,-0.762199998,0.312501997,-953.1000366,25.50000191,-911.7000122,1.353404822,-0.766851937,0.337020219,DLL
9.733333333,-6.778156281,-1.990619779,6.391755581,0.434453994,-1.806414008,-0.61738199,-953.1000366,18.90000153,-914.1000366,1.331289571,-0.786820237,0.303751682,DLL
9.766666667,-5.857016087,-2.236456633,6.027486801,-0.091463998,-1.76830399,0.785066009,-955.500061,32.10000229,-918.9000244,1.359078426,-0.741047778,0.348995883,DLL
9.8,-6.599909782,-1.871589303,6.117806435,0.83079797,-0.42683199,0.320124,-950.7000122,30.90000153,-909.3000488,1.325823384,-0.79509271,0.299833742,DLL
9.833333333,-8.661708832,-1.646089435,7.467216969,0.708845973,1.34147191,1.295740008,-967.500061,32.70000076,-904.500061,1.267465967,-0.846313378,0.220653925,DLL
9.866666667,-7.139434338,-1.821345329,6.346895218,1.859767914,1.143299937,1.356715918,-957.9000244,24.30000114,-899.7000122,1.307246391,-0.828365361,0.270721667,DLL
9.9,-7.269231319,-1.857832074,6.669294357,0.922261953,1.067080021,2.19513607,-960.3000488,29.70000076,-887.7000122,1.302567453,-0.814012665,0.267050021,DLL
9.933333333,-6.214107513,-1.627547026,6.526936054,0.289635986,-1.935987949,1.913121939,-962.7000122,31.50000191,-902.1000366,1.280119746,-0.749718123,0.24233575,DLL
9.966666667,-6.65314436,-1.41221559,6.31878233,0.411587983,-3.193617821,2.751541853,-960.3000488,22.5,-906.9000244,1.254340956,-0.790547658,0.215951713,DLL
10.0,-5.81993103,-1.394869447,6.099862099,0.29725799,-3.094532013,2.675322056,-981.9000244,16.5,-911.7000122,1.24877711,-0.749061596,0.218655872,DLL
10.03333333,-5.574094296,-1.526460886,6.932476997,0.373477995,-2.019829988,2.903981924,-967.500061,22.5,-904.500061,1.236480493,-0.670370638,0.212041692,DLL
10.06666667,-5.327659607,-1.389486074,7.579667568,-0.106707998,-2.76678586,1.653973937,-974.7000122,28.50000191,-904.500061,1.21218508,-0.606998104,0.181715152,DLL
10.1,-7.023993015,-0.783567309,7.279998302,0.106707998,-2.690565825,1.356715918,-979.500061,26.70000076,-909.3000488,1.164325863,-0.746384901,0.112295219,DLL
10.13333333,-5.659030437,-1.729829431,8.011527061,-0.457319975,-1.112811923,1.585376024,-977.1000366,27.30000114,-918.9000244,1.216000001,-0.616072099,0.203070246,DLL
10.16666667,-5.138646126,-0.479112506,6.840960979,-0.259148002,-1.661595941,-0.632625997,-969.9000244,27.30000114,-911.7000122,1.146119907,-0.638283418,0.083154154,DLL
10.2,-6.772174835,-0.598741114,7.209417343,0.076219998,0.228659987,1.74543798,-989.1000366,25.50000191,-916.500061,1.13997493,-0.742611757,0.080266358,DLL
10.23333333,-5.623740196,-1.763325453,7.904459476,-0.929883957,0.464941978,0.823175967,-979.500061,26.70000076,-914.1000366,1.217125191,-0.620583442,0.208642192,DLL
10.26666667,-5.266648769,-0.488084674,7.85541153,-1.844523907,-1.760681987,-1.196653962,-996.3000488,22.5,-909.3000488,1.141140697,-0.589450184,0.076950537,DLL
10.3,-5.848043919,-0.931308627,7.66759491,0.396344006,-0.388722003,1.676839948,-991.500061,29.10000038,-918.9000244,1.158752184,-0.643329406,0.114707464,DLL
10.33333333,-5.988607407,-0.955832481,7.06287241,1.135677934,0.922261953,0.182927996,-981.9000244,21.30000114,-918.9000244,1.170983087,-0.695266689,0.13073572,DLL
10.36666667,-6.31220293,-0.046655152,7.655632019,-0.068598002,1.158543944,-1.455801964,-969.9000244,32.10000229,-923.7000122,1.1018541,-0.691938397,0.015934146,DLL
10.4,-8.00614357,0.092114016,5.886324883,1.996963978,2.004585981,0.72408998,-989.1000366,24.90000153,-906.9000244,1.081739361,-0.917262956,-0.017054424,DLL
10.43333333,-4.945446014,-1.655061603,7.015618801,1.524399996,4.718018055,0.731711984,-965.1000366,29.10000038,-906.9000244,1.24853365,-0.638905069,0.212146084,DLL
10.46666667,-8.57318306,-0.004187001,7.82969141,-0.160062,1.646351933,-1.471045971,-969.9000244,22.5,-906.9000244,1.127857331,-0.816652499,0.025950036,DLL
10.5,-7.467814922,-0.411522359,6.686042309,2.461905956,1.082324028,0.099086002,-962.7000122,24.90000153,-899.7000122,1.154803331,-0.839317163,0.054183169,DLL
10.53333333,-5.827706814,-0.971384168,6.377400398,0.61738199,1.707327962,-1.196653962,-972.3000488,11.70000076,-916.500061,1.224051125,-0.746764433,0.144328925,DLL
10.56666667,-5.94733572,-1.021628141,6.567609787,-0.335367978,-0.792688012,-2.187514067,-965.1000366,22.5,-916.500061,1.236938024,-0.729677255,0.156865237,DLL
10.6,-6.995880127,-0.704014301,6.813446522,-0.571649969,-1.257629991,-1.707327962,-953.1000366,21.30000114,-914.1000366,1.208190188,-0.787713538,0.111515359,DLL
10.63333333,-5.319883823,-1.268661261,4.936473846,-0.182927996,-1.006103992,-0.83079797,-967.500061,26.70000076,-911.7000122,1.300891048,-0.803651343,0.239800239,DLL
10.66666667,-7.504899979,-0.79553014,7.284783363,-1.692083955,-0.358233988,-1.272873998,-960.3000488,26.70000076,-911.7000122,1.215115687,-0.797227932,0.122455011,DLL
10.7,-6.678864479,-1.871589303,6.247004986,0.419209987,1.737815976,0.571649969,-969.9000244,28.50000191,-902.1000366,1.32498708,-0.800861577,0.274942978,DLL
10.73333333,-6.856513023,-2.058808088,7.387065887,-0.175305992,1.966475964,-1.42531395,-965.1000366,32.10000229,-897.3000488,1.329478125,-0.738383007,0.275116018,DLL
10.76666667,-5.532224178,-2.620464325,7.120294094,-0.663114011,-0.274392009,-1.516777992,-974.7000122,25.50000191,-911.7000122,1.378563441,-0.63874994,0.34880121,DLL
10.8,-7.253081799,-1.894916892,6.943243504,-1.074702024,-2.843005896,-1.783547997,-967.500061,24.90000153,-909.3000488,1.332362643,-0.770615205,0.27803346,DLL
10.83333333,-4.734899998,-2.783757448,6.039449692,0.29725799,-2.012207985,-0.731711984,-960.3000488,26.10000038,-904.500061,1.42383247,-0.62966376,0.418780218,DLL
10.86666667,-6.1991539,-1.977460623,5.273826599,0.068598002,-1.379581928,-1.219519973,-981.9000244,29.70000076,-921.3000488,1.389801013,-0.81638699,0.364642065,DLL
10.9,-6.446784973,-2.715569019,6.998272896,0.731711984,-0.53354001,0.42683199,-953.1000366,30.30000114,-911.7000122,1.392314489,-0.716353682,0.367755524,DLL
10.93333333,-6.185994625,-2.601323843,6.846344471,-0.335367978,-0.411587983,0.312501997,-972.3000488,28.50000191,-902.1000366,1.387377815,-0.701954622,0.363364661,DLL
10.96666667,-6.964178562,-2.11563158,6.284687996,1.051836014,0.167683989,0.907018006,-965.1000366,35.70000076,-911.7000122,1.361245428,-0.803863703,0.32428365,DLL
11.0,-7.65323925,-1.808784366,6.300837994,1.867389917,1.966475964,1.280496001,-977.1000366,27.30000114,-897.3000488,1.331502351,-0.860802241,0.27960628,DLL
11.03333333,-7.779447556,-1.65685606,6.329548836,1.714949965,2.728675842,1.615863919,-962.7000122,24.90000153,-926.1000366,1.314276344,-0.875647291,0.253371698,DLL
11.06666667,-6.530524731,-2.393768072,7.19446373,1.303362012,1.318606019,2.08842802,-962.7000122,27.90000153,-906.9000244,1.356107323,-0.726567505,0.312384614,DLL
11.1,-5.651853085,-1.476814985,5.915035725,-1.23476398,-2.949713945,-0.472563982,-960.3000488,26.70000076,-899.7000122,1.311278473,-0.741278845,0.251454107,DLL
11.13333333,-6.952215672,-1.488179684,6.21769619,-0.632625997,-3.475631952,1.371959925,-960.3000488,26.10000038,-904.500061,1.292207793,-0.814604739,0.233980912,DLL
11.16666667,-6.730304718,-1.778877139,6.758417606,0.525918007,-1.006103992,2.057940006,-969.9000244,21.90000153,-916.500061,1.300194035,-0.770186025,0.251028844,DLL
11.2,-5.4293437,-2.004975319,6.751239777,-0.083841994,-1.150921941,1.120433927,-969.9000244,23.10000038,-923.7000122,1.318072447,-0.665768024,0.28388753,DLL
11.23333333,-5.771481514,-1.251315117,6.695612431,-0.525918007,-2.782029867,0.663114011,-972.3000488,22.5,-906.9000244,1.256356244,-0.695683477,0.193232792,DLL
11.26666667,-5.97305584,-1.707698226,7.026385307,-0.076219998,-1.943609953,2.164648056,-965.1000366,26.10000038,-914.1000366,1.273632058,-0.688709652,0.231119419,DLL
11.3,-8.592324257,-0.995908022,8.181997299,0.144817993,0.060975999,1.806414008,-984.3000488,26.10000038,-906.9000244,1.198092814,-0.79877526,0.12635472,DLL
11.33333333,-5.087205887,-1.796223402,7.198052406,1.173787951,2.035073996,1.890255928,-957.9000244,23.70000076,-902.1000366,1.267244942,-0.618815398,0.233993178,DLL
11.36666667,-6.398335457,-0.394774348,7.429533958,-0.442075998,-0.175305992,-0.038109999,-974.7000122,29.10000038,-918.9000244,1.166202383,-0.702415607,0.071333478,DLL
11.4,-6.783539295,-0.789548695,6.703388214,0.129574001,-1.089946032,1.532021999,-969.9000244,29.70000076,-899.7000122,1.188509085,-0.778711754,0.109966465,DLL
11.43333333,-5.569907188,-0.544310093,6.224275589,-0.93750596,-0.594515979,0.099086002,-967.500061,21.30000114,-906.9000244,1.172524914,-0.731736587,0.090438219,DLL
11.46666667,-5.710471153,-0.852353752,6.705780983,-0.701223969,-0.190549999,1.074702024,-967.500061,24.90000153,-906.9000244,1.189443227,-0.704117522,0.122881592,DLL
11.5,-5.859408379,-0.875681281,7.214202404,-1.013725996,-0.701223969,0.053353999,-979.500061,24.30000114,-918.9000244,1.186541301,-0.679776875,0.12240105,DLL
11.53333333,-6.532319546,-0.907382905,7.397233963,-0.632625997,-0.396344006,0.038109999,-969.9000244,24.90000153,-911.7000122,1.185092342,-0.716546317,0.122991207,DLL
11.56666667,-7.160967827,-0.942075193,7.838065624,-0.358233988,-0.060975999,-0.007622,-972.3000488,25.50000191,-918.9000244,1.182617741,-0.734792889,0.120498282,DLL
11.6,-5.729611397,-1.494759321,7.927786827,-1.158543944,-1.814036012,-1.219519973,-972.3000488,27.90000153,-909.3000488,1.223057191,-0.623209242,0.184662166,DLL
11.63333333,-5.242722988,-0.437840641,6.900177479,-1.76830399,-4.420759678,-2.324709892,-977.1000366,24.30000114,-902.1000366,1.160949016,-0.639800724,0.077130602,DLL
11.66666667,-6.396541119,-0.314025074,5.688937664,0.952749968,-1.867389917,0.472563982,-974.7000122,30.90000153,-916.500061,1.147020928,-0.82152875,0.054874415,DLL
11.7,-6.375007629,-0.313426912,6.116012096,2.103672028,3.468009949,0.792688012,-981.9000244,20.10000038,-909.3000488,1.145447024,-0.812272735,0.0469822,DLL
11.73333333,-7.075433254,-0.576011658,6.305623055,2.347575903,6.059489727,0.525918007,-977.1000366,29.70000076,-909.3000488,1.177934878,-0.847922035,0.083217602,DLL
11.76666667,-7.466020584,-1.430757999,6.712958336,1.684461951,6.981751919,-0.205793992,-967.500061,15.30000019,-899.7000122,1.271581187,-0.840459831,0.198850867,DLL
11.8,-7.305119991,-1.662837505,8.330337524,-1.631107926,2.721053839,-2.606724024,-957.9000244,29.10000038,-897.3000488,1.279781227,-0.721877185,0.204245499,DLL
11.83333333,-7.981021881,-1.128097653,7.581462383,-0.907018006,-0.754577994,-1.890255928,-953.1000366,28.50000191,-902.1000366,1.249731823,-0.796410367,0.157488424,DLL
11.86666667,-6.264949322,-1.876374483,5.76370573,1.882633924,-0.510674,0.007622,-953.1000366,27.90000153,-906.9000244,1.356907213,-0.801205789,0.300457399,DLL
11.9,-5.072252274,-2.09469676,6.458747864,0.449698001,-0.708845973,-1.74543798,-943.500061,20.70000076,-911.7000122,1.371256899,-0.650589732,0.313891081,DLL
11.93333333,-5.143431187,-1.677192926,5.982028008,-0.91463995,-3.239349842,-2.324709892,-960.3000488,25.50000191,-904.500061,1.35188603,-0.682151849,0.280024002,DLL
11.96666667,-5.117113113,-2.134772301,5.926400661,-0.72408998,-3.955817938,-0.129574001,-955.500061,29.10000038,-899.7000122,1.384821608,-0.676250643,0.33991733,DLL
12.0,-7.366130829,-1.896711349,6.932476997,-1.12805593,-1.867389917,0.602137983,-974.7000122,27.30000114,-909.3000488,1.335603848,-0.784215251,0.274512722,DLL
12.03333333,-7.357158661,-2.563042641,6.572993279,0.929883957,1.951231956,1.669217944,-972.3000488,27.30000114,-906.9000244,1.396598756,-0.80839608,0.359842687,DLL
12.06666667,-7.147210598,-2.993705511,7.245903969,0.274392009,3.307947874,0.53354001,-953.1000366,22.5,-902.1000366,1.420114645,-0.750673553,0.389783386,DLL
12.1,-6.905560493,-2.56065011,6.814044952,-1.432935953,0.274392009,-1.158543944,-960.3000488,32.70000076,-897.3000488,1.403581859,-0.758071962,0.366273647,DLL
12.13333333,-6.895391941,-2.786149979,6.155489445,-1.051836014,-1.280496001,0.815553963,-967.500061,25.50000191,-897.3000488,1.434979958,-0.790891132,0.419169073,DLL
12.16666667,-6.927093983,-2.717363596,6.110030651,-1.074702024,-1.493911982,1.76830399,-965.1000366,29.70000076,-914.1000366,1.425124639,-0.800900433,0.416609548,DLL
12.2,-6.671686649,-2.079743147,6.188985348,0.121951997,-1.653973937,3.887219906,-962.7000122,24.30000114,-921.3000488,1.349844338,-0.796365701,0.325418578,DLL
12.23333333,-6.726117611,-2.173651457,6.619050026,1.34147191,-0.091463998,4.138745785,-955.500061,24.90000153,-911.7000122,1.332321603,-0.772287767,0.309735662,DLL
12.26666667,-6.857708931,-1.882954121,6.079524994,1.028970003,-0.137196004,3.094532013,-969.9000244,23.70000076,-911.7000122,1.316812476,-0.819356709,0.294539196,DLL
12.3,-7.444487572,-1.751960754,7.285979748,-0.106707998,-0.076219998,2.652456045,-950.7000122,27.30000114,-906.9000244,1.267442011,-0.785625836,0.235759214,DLL
12.33333333,-6.113619328,-1.606611967,5.810958862,0.228659987,-1.189031959,2.218001842,-950.7000122,28.50000191,-909.3000488,1.280905859,-0.790870951,0.262348629,DLL
12.36666667,-5.997579575,-1.263876081,6.185396671,-0.396344006,-1.8292799,1.105189919,-974.7000122,25.50000191,-909.3000488,1.234972825,-0.75942548,0.203973257,DLL
12.4,-7.618546963,-1.181930542,6.888812542,0.030487999,-0.975615978,2.012207985,-967.500061,29.10000038,-904.500061,1.205364454,-0.821228529,0.169522569,DLL
12.43333333,-5.441306591,-1.758540392,6.619648457,0.167683989,-0.472563982,1.524399996,-960.3000488,24.30000114,-911.7000122,1.25701023,-0.684905046,0.250028634,DLL
12.46666667,-6.894196033,-1.25191319,6.945037842,0.167683989,-0.556405962,1.669217944,-974.7000122,27.30000114,-914.1000366,1.208037536,-0.765420358,0.182439236,DLL
12.5,-6.440205574,-1.25669837,7.118499279,-0.396344006,-0.655492008,1.699705958,-969.9000244,26.70000076,-899.7000122,1.196470144,-0.730627609,0.173470881,DLL
12.53333333,-6.48865509,-1.001291275,7.150200844,-0.358233988,-0.945127964,1.859767914,-969.9000244,29.10000038,-909.3000488,1.168187293,-0.73093394,0.139994299,DLL
12.56666667,-4.859313488,-1.355990171,7.113116264,-0.838419974,-1.303362012,1.089946032,-977.1000366,23.70000076,-918.9000244,1.190367429,-0.601976192,0.184197827,DLL
12.6,-6.535310268,-0.989926636,7.506694317,-1.150921941,-1.943609953,1.013725996,-967.500061,33.90000153,-921.3000488,1.155481532,-0.699302379,0.136507867,DLL
12.63333333,-5.16556263,-1.049142718,6.48865509,-0.708845973,-2.019829988,0.945127964,-969.9000244,29.70000076,-906.9000244,1.164031024,-0.666149469,0.157747809,DLL
12.66666667,-6.241621971,-0.884055316,7.391252518,0.266770005,-0.182927996,2.19513607,-972.3000488,31.50000191,-921.3000488,1.134518851,-0.695083893,0.11930521,DLL
12.7,-5.814548016,-1.14364934,7.568303108,-0.205793992,-0.144817993,0.922261953,-984.3000488,32.10000229,-909.3000488,1.148525293,-0.653754168,0.146468115,DLL
12.73333333,-5.771481514,-0.632835269,6.87206459,-0.022865999,-0.769822001,0.038109999,-974.7000122,25.50000191,-921.3000488,1.116628177,-0.692088311,0.095973915,DLL
12.76666667,-5.44788599,-1.2590909,7.204632282,0.304879993,0.091463998,0.442075998,-981.9000244,24.90000153,-904.500061,1.159755579,-0.644490367,0.166408153,DLL
12.8,-6.617853642,-0.567039549,7.873954296,-0.396344006,-0.503051996,-0.792688012,-965.1000366,26.70000076,-914.1000366,1.10876367,-0.692132155,0.082392893,DLL
12.83333333,-6.692621708,-0.547300816,7.6795578,0.152439997,-0.480185986,0.0,-979.500061,24.90000153,-909.3000488,1.102227249,-0.7127002,0.071892501,DLL
12.86666667,-5.783444405,-0.831418753,6.753632069,1.059458017,0.068598002,0.228659987,-981.9000244,24.30000114,-902.1000366,1.133296697,-0.70528063,0.116685636,DLL
12.9,-6.418672085,-0.332567483,7.354765892,0.861285985,1.349093914,-0.289635986,-972.3000488,29.10000038,-909.3000488,1.092953591,-0.718285474,0.050265534,DLL
12.93333333,-7.933768272,-0.276342064,6.946832657,1.669217944,2.370441914,0.525918007,-972.3000488,26.10000038,-902.1000366,1.087035315,-0.843947211,0.037184412,DLL
12.96666667,-5.115318775,-1.092807174,7.14242506,-0.40396598,1.326228023,-2.644834042,-960.3000488,26.70000076,-909.3000488,1.170274174,-0.633411691,0.14931002,DLL
13.0,-6.661518097,-0.531749129,6.569404125,-0.121951997,-0.922261953,-2.25611186,-969.9000244,29.70000076,-906.9000244,1.138026527,-0.774645923,0.091282486,DLL
13.03333333,-5.960494518,-1.317708969,6.70219183,0.518296003,-0.625003994,-0.716467977,-969.9000244,30.30000114,-906.9000244,1.204780025,-0.721712064,0.185268607,DLL
13.06666667,-6.421064854,-0.796726465,6.433027744,-0.007622,0.29725799,-1.951231956,-974.7000122,26.70000076,-904.500061,1.173601699,-0.775443819,0.13218448,DLL
13.1,-6.543684006,-1.265670538,6.65314436,1.074702024,2.713431835,-0.777444005,-967.500061,23.70000076,-909.3000488,1.214837859,-0.772969009,0.18320772,DLL
13.13333333,-5.438913822,-2.079144955,7.009637356,0.716467977,2.484771967,-1.684461951,-967.500061,23.70000076,-902.1000366,1.286858219,-0.654986448,0.281495574,DLL
13.16666667,-6.974945068,-1.813569546,7.864383698,-1.516777992,-0.274392009,-3.368923903,-965.1000366,35.70000076,-921.3000488,1.26505494,-0.705837385,0.238560364,DLL
13.2,-5.818136692,-1.994806767,5.349192619,0.967993975,-1.623485923,-1.577754021,-950.7000122,24.90000153,-911.7000122,1.342297392,-0.783830794,0.345119616,DLL
13.23333333,-6.283492088,-2.387786627,6.303230762,0.602137983,1.23476398,-0.678357959,-969.9000244,25.50000191,-918.9000244,1.357633203,-0.754828093,0.361277366,DLL
13.26666667,-6.706977367,-1.90867424,5.703891277,0.198172003,-0.129574001,-1.585376024,-969.9000244,32.10000229,-897.3000488,1.33853067,-0.831067128,0.328860922,DLL
13.3,-6.085506439,-2.704204321,6.696210384,-0.327746004,0.091463998,0.083841994,-969.9000244,30.90000153,-897.3000488,1.373728966,-0.710335161,0.380554888,DLL
13.33333333,-6.520954609,-2.328570604,6.388166904,-1.189031959,-1.120433927,-0.464941978,-969.9000244,29.70000076,-914.1000366,1.353561241,-0.757701492,0.354456832,DLL
13.36666667,-7.110723495,-2.484087706,6.651947975,-0.434453994,-1.471045971,0.228659987,-965.1000366,21.90000153,-904.500061,1.352262498,-0.781474674,0.356675181,DLL
13.4,-7.964871883,-2.52057457,7.515666485,0.53354001,0.327746004,0.990859985,-981.9000244,34.5,-911.7000122,1.32874315,-0.788228849,0.324417863,DLL
13.43333333,-5.239732265,-2.543303967,5.869576931,1.85214591,0.022865999,0.137196004,-969.9000244,24.90000153,-887.7000122,1.383023765,-0.695811793,0.398782596,DLL
13.46666667,-7.11191988,-1.988227248,6.815839291,0.769822001,-0.251525998,0.121951997,-967.500061,26.10000038,-916.500061,1.313430099,-0.778024915,0.293530302,DLL
13.5,-7.031768799,-2.01933074,6.162068844,0.083841994,-1.006103992,1.051836014,-960.3000488,31.50000191,-899.7000122,1.323889436,-0.820895938,0.312283163,DLL
13.53333333,-6.220686913,-2.310626268,6.371418953,-0.152439997,-0.708845973,1.181409955,-984.3000488,24.90000153,-890.1000366,1.342035568,-0.749256576,0.343108592,DLL
13.56666667,-7.562321663,-1.767512441,7.056890965,-0.40396598,-0.91463995,1.562510014,-972.3000488,30.90000153,-909.3000488,1.271181861,-0.800342478,0.250242145,DLL
13.6,-6.129769325,-2.411114216,6.637592316,0.541162014,-0.373477995,1.989341974,-972.3000488,26.70000076,-916.500061,1.326973212,-0.723262259,0.336467747,DLL
13.63333333,-6.811652184,-1.547994018,6.295454979,0.983237982,0.518296003,1.242385983,-969.9000244,24.30000114,-904.500061,1.263174116,-0.805608026,0.244786345,DLL
13.66666667,-6.27451992,-2.241241693,7.533610821,0.388722003,0.396344006,2.263733864,-974.7000122,23.10000038,-906.9000244,1.284268733,-0.68725021,0.282165573,DLL
13.7,-5.929989338,-1.808186173,6.360652447,0.205793992,-1.478667974,1.158543944,-972.3000488,24.30000114,-899.7000122,1.276107304,-0.725302897,0.275003793,DLL
13.73333333,-5.997579575,-1.80041039,7.174126625,0.083841994,-1.42531395,1.265251994,-974.7000122,27.30000114,-914.1000366,1.253466849,-0.683616034,0.246218962,DLL
13.76666667,-6.699799538,-1.229183793,7.498918533,-0.053353999,-1.707327962,1.333850026,-974.7000122,24.30000114,-897.3000488,1.196982852,-0.717682174,0.166226681,DLL
13.8,-6.145918846,-1.155014038,7.360149384,1.143299937,-1.684461951,2.858249903,-974.7000122,25.50000191,-906.9000244,1.181340478,-0.690333076,0.150709161,DLL
13.83333333,-5.03397131,-0.927719772,6.719538212,1.166165948,-1.585376024,1.592997909,-957.9000244,33.30000305,-894.9000244,1.168231959,-0.639456417,0.133891441,DLL
13.86666667,-5.773275852,-1.296773911,7.873954296,-0.388722003,-0.716467977,0.846041977,-981.9000244,20.10000038,-921.3000488,1.180322878,-0.626594644,0.160116986,DLL
13.9,-5.655441761,-0.836203873,6.957599163,-0.381099999,-1.928365946,-0.076219998,-974.7000122,30.30000114,-911.7000122,1.157061749,-0.671251953,0.123822028,DLL
13.93333333,-5.785837173,-0.805698574,7.391850948,0.091463998,-1.189031959,0.541162014,-979.500061,26.70000076,-916.500061,1.146245691,-0.660385325,0.108965793,DLL
13.96666667,-6.814044952,-0.791941285,7.403813839,0.564027965,0.099086002,0.769822001,-986.7000122,26.10000038,-930.9000244,1.142880433,-0.73405727,0.104799372,DLL
14.0,-5.957503796,-1.398458242,7.836271286,1.34147191,1.074702024,0.731711984,-981.9000244,30.90000153,-909.3000488,1.185860127,-0.650224884,0.169551939,DLL
14.03333333,-6.937262058,-0.613096535,7.411589622,1.105189919,0.731711984,-0.152439997,-981.9000244,27.30000114,-914.1000366,1.137642092,-0.742804953,0.089595174,DLL
14.06666667,-5.953915119,-1.03777802,6.868475914,0.83079797,0.670735955,0.038109999,-984.3000488,18.90000153,-918.9000244,1.175465443,-0.712851635,0.143411891,DLL
14.1,-5.994588852,-0.17764847,6.238032818,1.105189919,0.716467977,-0.457319975,-979.500061,30.30000114,-933.3000488,1.108614383,-0.761914228,0.038298695,DLL
14.13333333,-6.744660378,-0.973178625,6.776361942,1.806414008,3.368923903,0.884151995,-974.7000122,26.70000076,-904.500061,1.177022252,-0.782666895,0.131696059,DLL
14.16666667,-5.580075741,-2.228082657,8.367422104,1.547266006,3.696669817,-1.722571969,-972.3000488,31.50000191,-916.500061,1.263210007,-0.596940198,0.250662399,DLL
14.2,-6.730304718,-0.709995687,7.050311089,3.650938034,0.304879993,-5.731743813,-960.3000488,14.10000038,-916.500061,1.203784641,-0.744488068,0.118047251,DLL
14.23333333,-5.912643433,-1.90149653,7.399626732,5.083873749,1.288118005,-4.481735706,-960.3000488,21.30000114,-916.500061,1.305306774,-0.667277313,0.238136029,DLL
14.26666667,-6.347493172,-1.923627853,7.875748634,6.021379948,1.493911982,-7.035105705,-965.1000366,24.90000153,-899.7000122,1.33808159,-0.664183289,0.238819106,DLL
14.3,-5.498728275,-1.651472688,5.965280056,7.050349712,0.053353999,-7.743951797,-957.9000244,15.90000057,-926.1000366,1.390943036,-0.717620627,0.266052852,DLL
14.33333333,-4.532129288,-2.135370493,6.249397755,7.088459969,0.190549999,-8.772921562,-965.1000366,20.70000076,-916.500061,1.463626488,-0.608086958,0.322398,DLL
14.36666667,-6.291267872,-1.781269789,6.554450512,6.676871777,0.114329994,-9.527500153,-981.9000244,24.30000114,-906.9000244,1.472120638,-0.730467204,0.273062367,DLL
14.4,-7.380486012,-2.351898193,6.749445438,7.012239933,2.042695999,-8.285114288,-967.500061,24.30000114,-918.9000244,1.550497844,-0.793968224,0.331533815,DLL
14.43333333,-6.685443878,-2.425469637,7.314092159,6.92077589,4.611310005,-9.832379341,-960.3000488,15.30000019,-897.3000488,1.5899824,-0.72373878,0.325655219,DLL
14.46666667,-6.257771969,-2.417693853,7.242315292,6.737847805,1.913121939,-8.437553406,-960.3000488,11.10000038,-897.3000488,1.626083374,-0.688556604,0.323203964,DLL
14.5,-6.958197117,-2.432049274,6.111824989,6.760714054,-0.29725799,-8.353712082,-950.7000122,13.50000095,-899.7000122,1.699137275,-0.798736191,0.37528614,DLL
14.53333333,-6.087301254,-2.568425894,7.407402515,5.548815727,1.318606019,-7.743951797,-953.1000366,14.70000076,-911.7000122,1.707195567,-0.670623572,0.338491832,DLL
14.56666667,-5.501718998,-2.307635546,6.342110157,5.922293663,-0.518296003,-7.568645954,-948.3000488,11.70000076,-899.7000122,1.744294587,-0.67788312,0.347450912,DLL
14.6,-5.985616684,-2.352496386,6.308015823,5.922293663,-0.663114011,-5.541193962,-955.500061,8.100000381,-906.9000244,1.774476433,-0.7182859,0.353420553,DLL
14.63333333,-6.978534222,-2.402142286,6.319978714,4.946677685,0.045731999,-4.291185856,-950.7000122,16.5,-892.500061,1.802103678,-0.791984865,0.360753429,DLL
14.66666667,-7.603593349,-2.272943258,6.187788963,2.644834042,2.515259981,-2.919225931,-938.7000122,9.900000572,-902.1000366,1.814455593,-0.85426257,0.354985805,DLL
14.7,-7.256670475,-2.12041688,6.790119171,0.769822001,3.048799992,-1.623485923,-948.3000488,10.5,-906.9000244,1.789176563,-0.804551416,0.310023196,DLL
14.73333333,-6.772174835,-2.375225782,6.19197607,-0.007622,0.342989981,1.402447939,-936.3000488,11.70000076,-894.9000244,1.822367837,-0.797787337,0.360808293,ST
14.76666667,-6.998272896,-1.990619779,7.472599983,-1.227141976,0.693601966,1.63872993,-941.1000366,14.70000076,-911.7000122,1.751918416,-0.743179476,0.268739621,ST
14.8,-5.734396458,-1.716072202,6.36842823,-0.182927996,-1.516777992,4.153989792,-929.1000366,10.5,-897.3000488,1.732868341,-0.717519295,0.257848234,ST
14.83333333,-6.66510725,-2.068976641,7.409795284,-1.135677934,-0.746955991,4.176856041,-948.3000488,6.900000095,-906.9000244,1.725251033,-0.714845595,0.266964137,ST
14.86666667,-7.038946629,-1.521077633,7.742362499,-0.137196004,-0.190549999,4.100636005,-950.7000122,5.700000286,-906.9000244,1.665502822,-0.728542974,0.193931402,ST
14.9,-5.749350071,-1.174154639,7.81114912,0.853663981,-1.737815976,4.199721813,-955.500061,14.10000038,-914.1000366,1.623785856,-0.634253677,0.145234555,ST
14.93333333,-5.831295967,-0.689658821,7.750736713,0.746955991,-2.820139885,4.260697842,-945.9000244,7.500000477,-909.3000488,1.578269385,-0.638568493,0.087379745,ST
14.96666667,-5.501718998,-0.629844546,6.660920143,1.509155989,-3.711913824,4.878079891,-948.3000488,9.300000191,-894.9000244,1.565336094,-0.678849438,0.084590018,ST
15.0,-5.334239006,0.125011876,7.085003376,0.655492008,-1.600619912,3.742401838,-962.7000122,1.5,-911.7000122,1.495541687,-0.645974205,-0.014211134,ST
15.03333333,-4.902977943,-0.030505292,6.2553792,0.548784018,-0.907018006,4.054903984,-962.7000122,2.100000143,-914.1000366,1.492340379,-0.661764253,-0.002646183,ST
15.06666667,-5.718844891,0.525767684,8.342300415,-0.213415995,-0.42683199,1.943609953,-953.1000366,2.700000048,-902.1000366,1.451951449,-0.603874789,-0.06044116,ST
15.1,-6.526936054,0.096899159,7.56650877,-0.40396598,-0.106707998,2.301843882,-967.500061,2.700000048,-906.9000244,1.469561475,-0.702551674,-0.019543048,ST
15.13333333,-6.167452335,0.317015767,7.407402515,0.083841994,0.335367978,0.922261953,-955.500061,4.5,-914.1000366,1.452788546,-0.695131367,-0.042060293,ST
15.16666667,-6.477290154,0.403746516,7.511479378,0.091463998,1.250007987,-0.106707998,-957.9000244,6.300000191,-909.3000488,1.446169227,-0.711595421,-0.052816216,ST
15.2,-6.578974724,-0.001196286,7.058685303,-0.464941978,1.478667974,-0.42683199,-953.1000366,5.700000286,-904.500061,1.479869439,-0.750030657,-0.002225907,ST
15.23333333,-6.316389561,0.197387174,6.717743874,-0.40396598,1.905499935,-1.150921941,-960.3000488,8.700000763,-906.9000244,1.466412667,-0.757088122,-0.024620848,ST
15.26666667,-6.513776779,0.227294326,6.753034115,-0.457319975,1.974097967,-1.204275966,-953.1000366,12.30000019,-899.7000122,1.464225967,-0.769370808,-0.030347966,ST
15.3,-7.196258068,-0.467149675,6.433625698,-0.274392009,1.966475964,-1.189031959,-955.500061,7.500000477,-906.9000244,1.535245711,-0.836820245,0.065128412,ST
15.33333333,-6.193770409,-0.472532958,6.519758224,-0.419209987,1.364337921,-2.17227006,-941.1000366,6.900000095,-906.9000244,1.547865354,-0.766293283,0.076054099,ST
15.36666667,-6.609479904,-0.811081886,7.910440922,-0.685979962,0.998481989,-2.934469938,-950.7000122,6.900000095,-892.500061,1.573563614,-0.701171824,0.105120521,ST
15.4,-5.791220188,-1.031198502,5.773874283,0.556405962,-0.289635986,-2.393307924,-945.9000244,6.300000191,-902.1000366,1.625992813,-0.771017517,0.172348303,ST
15.43333333,-6.4766922,-1.421187758,7.493535042,-0.876529992,1.105189919,-2.865871906,-938.7000122,11.10000038,-916.500061,1.64477559,-0.710946644,0.191692024,ST
15.46666667,-6.089693546,-1.519881248,6.335530281,-0.312501997,0.205793992,-2.507637978,-945.9000244,6.300000191,-921.3000488,1.679634722,-0.747409745,0.235459414,ST
15.5,-6.1991539,-1.806989908,6.741669655,0.022865999,0.282013983,-2.141782045,-941.1000366,10.5,-894.9000244,1.703381294,-0.727738788,0.262534363,ST
15.53333333,-6.44379425,-2.12998724,7.790812016,-0.655492008,-0.243903995,-2.057940006,-945.9000244,9.300000191,-892.500061,1.711849534,-0.677086424,0.27000738,ST
15.56666667,-5.797799587,-1.97207737,6.687836647,0.411587983,-2.149404049,-1.63872993,-943.500061,9.300000191,-902.1000366,1.725354511,-0.688168958,0.285817489,ST
15.6,-6.23623848,-2.508611679,5.877352715,-0.221037999,0.137196004,-1.676839948,-943.500061,6.300000191,-892.500061,1.801466603,-0.764992876,0.394614626,ST
15.63333333,-6.671686649,-2.775981426,7.936161041,-1.676839948,1.463423967,-1.714949965,-941.1000366,9.900000572,-892.500061,1.771563251,-0.680630484,0.346713517,ST
15.66666667,-5.559739113,-2.454778671,5.946737289,0.785066009,-2.050318003,-0.640248001,-938.7000122,5.700000286,-894.9000244,1.797937034,-0.706422661,0.385823289,ST
15.7,-7.319475651,-2.678484201,7.824906349,-0.708845973,-0.342989981,0.480185986,-957.9000244,11.10000038,-902.1000366,1.760601944,-0.723022101,0.334047019,ST
15.73333333,-6.760809898,-2.038471222,7.70946455,0.525918007,-0.952749968,1.463423967,-948.3000488,9.300000191,-911.7000122,1.710297053,-0.704300085,0.262106963,ST
15.76666667,-6.295454979,-2.262176752,6.046627522,2.218001842,-1.85214591,2.355197906,-948.3000488,15.90000057,-902.1000366,1.762801281,-0.767116711,0.343457762,ST
15.8,-6.138741493,-1.414608121,6.800885677,1.394825935,0.076219998,1.181409955,-953.1000366,8.100000381,-921.3000488,1.673862632,-0.728246523,0.21214782,ST
15.83333333,-6.245210648,-1.637715459,7.817728519,-0.114329994,0.388722003,2.019829988,-943.500061,18.90000153,-902.1000366,1.663620747,-0.670199996,0.204673972,ST
15.86666667,-6.165059566,-1.460665107,5.623740196,0.731711984,-0.678357959,1.821658015,-953.1000366,12.30000019,-899.7000122,1.688031019,-0.804674156,0.24573507,ST
15.9,-6.382185459,-1.373934388,8.03246212,-0.236281991,0.777444005,1.478667974,-948.3000488,8.100000381,-911.7000122,1.634889394,-0.676722436,0.173033935,ST
15.93333333,-6.568806171,-1.156808496,6.890008926,0.594515979,-0.373477995,1.432935953,-943.500061,10.5,-897.3000488,1.626447274,-0.747326456,0.163881445,ST
15.96666667,-6.536506176,-1.339242101,6.73568821,0.038109999,0.282013983,1.730193973,-950.7000122,8.700000763,-921.3000488,1.640783562,-0.760474545,0.190762672,ST
16.0,-6.043038368,-1.157406688,7.257268906,-0.053353999,-0.320124,1.463423967,-941.1000366,7.500000477,-914.1000366,1.61566117,-0.694612351,0.158975343,ST
16.03333333,-5.793014526,-0.89183116,6.640583038,0.182927996,-1.410069942,1.814036012,-948.3000488,13.50000095,-885.3000488,1.593074618,-0.709792521,0.132210606,ST
16.06666667,-6.776361942,-1.04017067,6.828400135,-0.106707998,-0.213415995,1.646351933,-938.7000122,6.900000095,-916.500061,1.598598041,-0.769903196,0.146977233,ST
16.1,-6.165059566,-0.315221339,7.343999386,0.266770005,-0.289635986,1.410069942,-943.500061,8.100000381,-897.3000488,1.529223516,-0.703716897,0.048527165,ST
16.13333333,-5.89529705,-0.872092426,7.251885414,0.129574001,-0.518296003,1.74543798,-950.7000122,6.900000095,-892.500061,1.564723989,-0.680674325,0.111362981,ST
16.16666667,-6.599311352,-0.530552804,7.327849388,0.350611985,-0.556405962,0.91463995,-938.7000122,10.5,-890.1000366,1.538852895,-0.726467038,0.074062829,ST
16.2,-6.220686913,-0.079553016,7.469011307,0.472563982,-0.335367978,0.434453994,-950.7000122,3.300000191,-902.1000366,1.500074121,-0.696896316,0.014882461,ST
16.23333333,-6.234444141,-0.818259597,6.896588326,1.028970003,-0.205793992,0.998481989,-960.3000488,2.700000048,-899.7000122,1.559476911,-0.728733475,0.106169611,ST
16.26666667,-6.456953526,-0.495262384,8.177810669,0.327746004,-0.076219998,-0.518296003,-941.1000366,12.90000057,-914.1000366,1.534572502,-0.672376868,0.06419919,ST
16.3,-6.018514633,-0.256005198,7.165752888,0.838419974,-1.486289978,-0.510674,-948.3000488,8.100000381,-904.500061,1.520734627,-0.693745997,0.03736793,ST
16.33333333,-6.386372566,-0.303856641,7.538395882,0.015244,-0.304879993,-0.099086002,-945.9000244,3.900000095,-918.9000244,1.522807287,-0.701299108,0.040157528,ST
16.36666667,-6.418672085,-0.739304721,6.5329175,0.40396598,-0.060975999,0.503051996,-953.1000366,12.30000019,-909.3000488,1.565437475,-0.766956516,0.104227299,ST
16.4,-6.593928337,-0.309838057,7.185491562,-0.045731999,0.785066009,-0.929883957,-948.3000488,9.900000572,-909.3000488,1.530573014,-0.745530484,0.049983079,ST
16.43333333,-6.337324619,-0.668125689,6.598114967,0.121951997,1.34147191,-0.457319975,-945.9000244,6.900000095,-906.9000244,1.564407759,-0.763250699,0.096913286,ST
16.46666667,-6.175228119,-0.587974548,7.143023491,-0.015244,0.769822001,-1.158543944,-960.3000488,5.700000286,-914.1000366,1.559570138,-0.716957857,0.085123919,ST
16.5,-7.219585896,-1.309933066,7.607182503,-1.059458017,1.379581928,-1.166165948,-943.500061,6.900000095,-899.7000122,1.614871443,-0.750825538,0.166231549,ST
16.53333333,-6.629218578,-0.886447906,6.411494732,0.342989981,0.823175967,-1.204275966,-941.1000366,15.30000019,-899.7000122,1.601761858,-0.794550966,0.141435961,ST
16.56666667,-7.227361679,-1.758540392,8.339907646,-0.884151995,1.669217944,-1.04421401,-936.3000488,5.100000381,-918.9000244,1.646984939,-0.713922801,0.205528159,ST
16.6,-5.472410202,-1.22140789,6.369026184,1.150921941,-1.76830399,-1.219519973,-938.7000122,12.90000057,-902.1000366,1.641879322,-0.698965637,0.190239095,ST
16.63333333,-5.89529705,-1.630537748,7.189080238,0.114329994,-1.34147191,-1.006103992,-948.3000488,2.700000048,-897.3000488,1.663403367,-0.674380755,0.220818839,ST
16.66666667,-5.484971046,-1.568928957,5.355772018,0.655492008,-1.42531395,-0.823175967,-933.9000244,10.5,-894.9000244,1.703929314,-0.764998877,0.278103029,ST
16.7,-6.130965233,-1.833906293,8.791505814,-0.495429993,0.29725799,-0.495429993,-945.9000244,1.5,-890.1000366,1.662811359,-0.614422445,0.212745239,ST
16.73333333,-5.992794514,-1.786054969,6.849335194,0.861285985,-1.631107926,0.114329994,-948.3000488,13.50000095,-899.7000122,1.685345841,-0.692114701,0.248904947,ST
16.76666667,-5.507700443,-1.690950155,5.998177528,0.304879993,-0.632625997,0.312501997,-941.1000366,12.30000019,-899.7000122,1.699307469,-0.720094211,0.271232392,ST
16.8,-6.892999649,-2.292681932,7.244707584,-0.640248001,0.701223969,0.365855992,-948.3000488,9.900000572,-902.1000366,1.719308022,-0.736485956,0.304067963,ST
16.83333333,-6.458747864,-1.917048216,7.375102997,-0.373477995,0.853663981,-0.129574001,-943.500061,6.900000095,-899.7000122,1.690093798,-0.707419673,0.259731078,ST
16.86666667,-6.794305801,-2.02172327,7.993582726,-0.015244,-0.137196004,0.289635986,-943.500061,6.900000095,-892.500061,1.681937836,-0.690769746,0.248401682,ST
16.9,-5.007054806,-1.451692939,7.122686386,1.112811923,-2.240867853,0.876529992,-941.1000366,12.90000057,-911.7000122,1.652371703,-0.607936543,0.201812341,ST
16.93333333,-6.516767502,-1.760932922,6.660920143,0.564027965,-0.792688012,2.301843882,-938.7000122,6.900000095,-897.3000488,1.676382411,-0.743692229,0.248224362,ST
16.96666667,-6.203938961,-1.494759321,4.742675781,1.333850026,0.823175967,1.814036012,-941.1000366,5.100000381,-897.3000488,1.709860496,-0.883480613,0.294145006,ST
17.0,-5.978438854,-1.201071143,8.965564728,0.358233988,0.579271972,0.373477995,-943.500061,7.500000477,-902.1000366,1.605463622,-0.60609992,0.140509187,ST
17.03333333,-6.461738586,-1.393074989,5.940755844,1.021348,-1.791170001,1.63872993,-945.9000244,7.500000477,-902.1000366,1.651598598,-0.792940904,0.215606386,ST
17.06666667,-6.249995708,-1.174154639,7.426543236,-0.419209987,-0.099086002,1.539644003,-953.1000366,7.500000477,-911.7000122,1.609039165,-0.702806233,0.160175692,ST
17.1,-6.52573967,-1.492366672,7.50310564,-0.754577994,-0.205793992,1.996963978,-950.7000122,9.300000191,-892.500061,1.62240016,-0.706236326,0.191548306,ST
17.13333333,-6.467121601,-1.067685246,7.527629375,0.045731999,-0.693601966,1.699705958,-945.9000244,11.10000038,-906.9000244,1.586293294,-0.704339832,0.142983269,ST
17.16666667,-5.574692726,-0.890036762,5.928195,0.678357959,-0.457319975,1.814036012,-948.3000488,6.300000191,-904.500061,1.584178861,-0.744761219,0.144662838,ST
17.2,-6.392354012,-1.268063068,7.104144096,-0.228659987,-0.327746004,1.653973937,-950.7000122,11.70000076,-899.7000122,1.597515348,-0.726662531,0.17176514,ST
17.23333333,-7.677165031,-1.078451753,7.573686123,-0.868907988,0.884151995,0.80793196,-943.500061,2.700000048,-902.1000366,1.57522741,-0.783284356,0.144673121,ST
17.26666667,-5.512485504,-0.46595338,8.223867416,-0.396344006,-0.655492008,1.394825935,-938.7000122,3.900000095,-894.9000244,1.517666411,-0.606533744,0.062258841,ST
17.3,-5.781650066,-0.668125689,5.579477787,0.975615978,-2.583858013,2.560992002,-950.7000122,8.700000763,-921.3000488,1.541485822,-0.778383741,0.107043713,ST
17.33333333,-7.058086872,-0.908579171,7.064068317,-0.80793196,-0.632625997,1.821658015,-950.7000122,6.900000095,-899.7000122,1.547052282,-0.780012931,0.124345874,ST
17.36666667,-5.755929947,0.019738719,7.254278183,-0.952749968,0.548784018,0.541162014,-936.3000488,7.500000477,-904.500061,1.464145815,-0.679409098,0.005932383,ST
17.4,-5.459848881,0.03229972,8.278298378,-0.205793992,-1.196653962,1.333850026,-945.9000244,11.10000038,-897.3000488,1.454001954,-0.589835445,-0.004233347,ST
17.43333333,-5.804379463,-0.144152462,6.348091125,1.417691946,-2.713431835,1.371959925,-950.7000122,7.500000477,-897.3000488,1.465518836,-0.722550387,0.015627921,ST
17.46666667,-6.257173538,0.029309006,6.70219183,0.060975999,-0.586893976,0.038109999,-948.3000488,16.5,-902.1000366,1.453286119,-0.747561653,-0.002671772,ST
17.5,-7.377495289,-0.393578082,7.108929157,-0.884151995,2.080806017,-0.564027965,-945.9000244,0.300000012,-904.500061,1.491106609,-0.801452765,0.05223982,ST
17.53333333,-6.884625435,-0.100488022,8.686232567,-1.303362012,1.318606019,-1.074702024,-955.500061,5.100000381,-914.1000366,1.467885697,-0.683110233,0.018007299,ST
17.56666667,-5.830099583,-0.144152462,5.810958862,0.83079797,-0.602137983,-0.518296003,-953.1000366,7.500000477,-904.500061,1.475262758,-0.778710366,0.023668078,ST
17.6,-7.043731689,-0.651377678,6.715949059,0.167683989,1.333850026,-1.333850026,-945.9000244,11.70000076,-918.9000244,1.528828913,-0.806809965,0.093154433,ST
17.63333333,-6.798492908,-0.474925518,8.461330414,0.236281991,0.716467977,-2.515259981,-953.1000366,10.5,-897.3000488,1.514859142,-0.688802874,0.062052266,ST
17.66666667,-5.300743103,-0.507225215,7.055096149,0.91463995,-1.760681987,-1.798792005,-953.1000366,8.700000763,-906.9000244,1.527693363,-0.643524939,0.071630424,ST
17.7,-5.679367542,-0.86132586,5.829501629,1.257629991,-1.631107926,-2.042695999,-953.1000366,7.500000477,-906.9000244,1.579927207,-0.753785188,0.140286497,ST
17.73333333,-7.119695663,-1.769306898,6.718341827,-0.685979962,1.349093914,-2.210379839,-948.3000488,11.70000076,-906.9000244,1.66204543,-0.795219765,0.25144667,ST
17.76666667,-5.24092865,-0.92951417,5.516074657,0.655492008,1.303362012,-3.62045002,-955.500061,9.900000572,-897.3000488,1.622263061,-0.757796898,0.178973383,ST
17.8,-6.146517277,-1.986432791,8.735877991,-2.309465885,2.126538038,-3.673803806,-938.7000122,4.5,-909.3000488,1.659602564,-0.617554818,0.228273135,ST
17.83333333,-7.661015034,-2.567827702,8.1754179,-0.289635986,-0.777444005,-2.903981924,-936.3000488,12.30000019,-904.500061,1.711545876,-0.71777716,0.30133871,ST
17.86666667,-5.891708374,-2.363861084,5.563925743,1.021348,-1.028970003,-2.210379839,-938.7000122,10.5,-897.3000488,1.782471383,-0.766049538,0.39531287,ST
17.9,-6.229061127,-2.749663353,7.785429001,-0.929883957,0.655492008,-2.240867853,-938.7000122,8.700000763,-892.500061,1.755983582,-0.656976862,0.348440268,ST
17.93333333,-5.821725368,-2.368047953,8.234634399,-0.411587983,-1.028970003,-1.524399996,-948.3000488,8.100000381,-892.500061,1.722355285,-0.599117357,0.286911631,ST
17.96666667,-5.444297314,-2.594146013,6.581367016,0.922261953,-3.193617821,1.166165948,-953.1000366,6.900000095,-887.7000122,1.762672667,-0.646848955,0.362966564,ST
18.0,-5.076439381,-1.863813519,6.567011833,0.42683199,-2.08842802,0.868907988,-938.7000122,12.30000019,-911.7000122,1.710917019,-0.637482246,0.281936521,ST
18.03333333,-5.571103573,-2.408123493,5.399436474,0.571649969,-0.602137983,1.684461951,-953.1000366,6.900000095,-906.9000244,1.784476508,-0.745527721,0.402174182,ST
18.06666667,-6.77755785,-2.277728319,6.556843281,-0.586893976,2.317087889,0.960371971,-955.500061,11.70000076,-899.7000122,1.740955553,-0.775037742,0.341356472,ST
18.1,-7.472002029,-2.329168797,9.422546387,-2.408551931,3.422277927,1.051836014,-950.7000122,6.300000191,-902.1000366,1.675842768,-0.670232588,0.252052126,ST
18.13333333,-5.901278496,-1.884150386,7.693315029,1.173787951,-2.942091942,2.118916035,-936.3000488,6.900000095,-897.3000488,1.66099421,-0.639285789,0.236085248,ST
18.16666667,-5.813949585,-1.783064246,5.366538525,2.370441914,-3.285081863,2.378063917,-941.1000366,9.900000572,-899.7000122,1.70352371,-0.785331662,0.305351599,ST
18.2,-6.646564484,-1.665230036,6.885821819,-0.304879993,2.408551931,1.966475964,-945.9000244,11.70000076,-902.1000366,1.65381034,-0.760369461,0.240220952,ST
18.23333333,-6.007748127,-1.397860169,7.364336491,0.213415995,1.288118005,1.74543798,-941.1000366,13.50000095,-914.1000366,1.617137872,-0.685894787,0.18970923,ST
18.26666667,-4.373621464,-1.077255487,6.16147089,1.753059983,-2.774407864,1.471045971,-945.9000244,9.900000572,-904.500061,1.6032333,-0.613109085,0.169534262,ST
18.3,-7.26265192,-1.597639918,6.191378117,-0.487807989,-0.541162014,2.035073996,-948.3000488,11.70000076,-921.3000488,1.644034483,-0.827323121,0.240276506,ST
18.33333333,-7.276409149,-1.326082945,7.022796631,0.228659987,0.983237982,1.379581928,-943.500061,13.50000095,-914.1000366,1.604641022,-0.799369577,0.189028204,ST
18.36666667,-6.05260849,-1.063498259,7.449272633,-0.29725799,1.272873998,1.082324028,-926.7000122,7.500000477,-906.9000244,1.571844843,-0.690704756,0.144861212,ST
18.4,-5.24092865,-0.814072609,6.929486275,0.61738199,-1.067080021,1.501533985,-945.9000244,9.300000191,-909.3000488,1.551117526,-0.647056261,0.116431649,ST
18.43333333,-6.554450512,-1.095797896,8.161661148,0.40396598,-2.149404049,1.615863919,-936.3000488,6.300000191,-897.3000488,1.554486292,-0.666928126,0.128904509,ST
18.46666667,-6.826605797,-0.734519541,6.235042095,0.907018006,-2.263733864,1.23476398,-955.500061,13.50000095,-899.7000122,1.543261642,-0.809260102,0.114495692,ST
18.5,-5.806771755,-0.399559498,7.271026134,0.167683989,0.823175967,1.509155989,-948.3000488,7.500000477,-904.500061,1.500414587,-0.684934413,0.056557679,ST
18.53333333,-5.486765385,-0.238060907,8.371608734,0.61738199,-0.983237982,1.227141976,-938.7000122,3.900000095,-899.7000122,1.481235417,-0.587132842,0.028192568,ST
18.56666667,-7.093975544,-0.46116823,7.144817829,1.211897969,-1.219519973,0.975615978,-950.7000122,8.700000763,-894.9000244,1.499369446,-0.761236915,0.056926668,ST
18.6,-6.087301254,0.034094151,8.514565468,0.388722003,-0.899396002,-0.099086002,-955.500061,8.100000381,-918.9000244,1.463725118,-0.629853215,-0.000483265,ST
18.63333333,-5.156590462,0.231481329,5.578879356,1.935987949,-3.711913824,0.899396002,-962.7000122,8.700000763,-914.1000366,1.439530012,-0.73157325,-0.042673795,ST
18.66666667,-6.136348724,-0.696836591,7.966666222,-0.213415995,-0.442075998,0.327746004,-962.7000122,3.900000095,-916.500061,1.51542494,-0.659930141,0.077871798,ST
18.7,-6.697406769,-0.32957679,6.008346081,-0.060975999,0.922261953,-0.320124,-967.500061,-2.100000143,-909.3000488,1.502864718,-0.823903924,0.057850649,LD
18.73333333,-6.579572678,-0.837400138,8.887207985,-0.91463995,1.814036012,-1.028970003,-960.3000488,9.900000572,-904.500061,1.528429981,-0.65498474,0.093955483,LD
18.76666667,-6.33792305,-0.858335137,7.084405422,-0.571649969,0.564027965,-1.798792005,-955.500061,13.50000095,-894.9000244,1.549573858,-0.720321847,0.121452806,LD
18.8,-7.002460003,-1.378719568,7.229753971,-1.143299937,1.349093914,-1.303362012,-969.9000244,9.300000191,-899.7000122,1.594828872,-0.759015872,0.186811415,LD
18.83333333,-5.974252224,-1.361373425,7.11909771,-0.495429993,0.373477995,-1.707327962,-957.9000244,7.500000477,-906.9000244,1.601626964,-0.695720201,0.191878916,LD
18.86666667,-4.89520216,-1.399056435,7.114910603,-0.411587983,-0.861285985,-1.326228023,-945.9000244,12.30000019,-916.500061,1.606374763,-0.601276681,0.195856063,LD
18.9,-5.719443321,-1.780073524,6.977935791,-0.038109999,-2.08842802,-1.135677934,-960.3000488,9.300000191,-906.9000244,1.637990765,-0.662255301,0.246260872,LD
18.93333333,-5.601010799,-1.793830752,6.779352665,-0.213415995,-2.560992002,-0.632625997,-957.9000244,16.5,-909.3000488,1.644599516,-0.668705458,0.257828681,LD
18.96666667,-7.063470364,-2.43803072,7.96905899,-1.089946032,-2.248489857,-0.40396598,-957.9000244,8.100000381,-930.9000244,1.664943962,-0.696636767,0.294967136,LD
19.0,-5.653647423,-1.940973997,8.928480148,-0.586893976,-5.282045841,-0.769822001,-969.9000244,14.10000038,-899.7000122,1.617831962,-0.555338203,0.219543603,LD
19.03333333,-7.226165295,-2.716765404,10.03743744,-0.464941978,-11.0214119,0.792688012,-977.1000366,4.5,-918.9000244,1.627375248,-0.586012623,0.257114194,LD
19.06666667,-4.373621464,-2.01693821,7.154387951,2.370441914,-17.36291504,-1.021348,-993.9000244,9.300000191,-930.9000244,1.625877648,-0.50971817,0.266125783,LD
19.1,-4.316797733,-2.15809989,7.29554987,1.120433927,-18.12511635,-0.663114011,-1027.5,11.10000038,-930.9000244,1.621122381,-0.487390572,0.280210681,LD
19.13333333,-4.088307381,-1.942170262,7.153191566,1.798792005,-18.00316429,-0.815553963,-1061.100098,4.5,-947.7000122,1.602596357,-0.474610961,0.260397423,LD
19.16666667,-2.844169855,-2.199371815,10.07870865,0.967993975,-16.85224152,-0.030487999,-1075.5,5.100000381,-933.3000488,1.57500258,-0.261564707,0.215328535,LD
19.2,-1.341036558,-1.623360038,8.632997513,4.367405891,-21.98184776,-1.196653962,-1125.900024,7.500000477,-942.9000244,1.559829036,-0.123579546,0.180064309,LD
19.23333333,-1.136471629,-1.75315702,8.283083916,4.496979713,-18.81109619,-0.632625997,-1152.300049,12.30000019,-914.1000366,1.553492467,-0.103056443,0.198306348,LD
19.26666667,-0.740500987,-1.359578967,9.372900009,3.300325871,-12.75160599,0.076219998,-1178.700073,8.100000381,-930.9000244,1.542399801,-0.060313703,0.143487746,LD
19.3,2.848356724,-0.432457358,8.454751015,4.329296112,-10.35067558,1.028970003,-1202.700073,6.300000191,-916.500061,1.537107179,0.342062551,0.04462264,LD
19.33333333,1.436141253,-0.78835243,8.845337868,2.431417942,-4.93905592,1.227141976,-1219.5,2.100000143,-904.500061,1.520107692,0.184501436,0.081820934,LD
19.36666667,1.385299087,-0.860129595,11.47836399,1.310984015,1.661595941,0.716467977,-1231.5,-0.300000012,-909.3000488,1.518501035,0.121437964,0.073276949,LD
19.4,1.346419811,-0.019140575,9.930967331,2.660078049,0.655492008,-0.525918007,-1219.5,-0.300000012,-911.7000122,1.527968642,0.132547635,0.004066062,LD
19.43333333,1.811775088,-0.166283742,10.1307478,1.730193973,0.335367978,0.929883957,-1233.900024,1.5,-911.7000122,1.522550041,0.172381512,0.012783021,LD
19.46666667,0.778183997,0.191405743,7.841056347,2.210379839,0.221037999,1.516777992,-1214.700073,3.900000095,-890.1000366,1.521470311,0.105233244,-0.024285605,LD
19.5,1.091012836,0.06998273,10.13672924,0.487807989,3.27745986,1.806414008,-1214.700073,3.300000191,-904.500061,1.513329631,0.101868289,-0.008949821,LD
19.53333333,2.086920738,0.214135185,10.38136959,1.074702024,0.670735955,2.439039946,-1212.300049,0.300000012,-906.9000244,1.505567116,0.190048521,-0.020763315,LD
19.56666667,1.598836184,0.576011658,8.944629669,1.211897969,-0.655492008,2.263733864,-1202.700073,1.5,-911.7000122,1.504722356,0.178991002,-0.061658021,LD
19.6,0.937290013,0.643601835,9.0014534,1.036592007,0.419209987,1.989341974,-1219.5,-2.100000143,-892.500061,1.498791994,0.109874174,-0.071752777,LD
19.63333333,0.842783451,0.445616513,9.259253502,0.274392009,2.042695999,2.263733864,-1229.100098,-4.5,-897.3000488,1.488376977,0.089361772,-0.050307598,LD
19.66666667,0.693845868,0.43305552,10.52013874,-0.373477995,1.859767914,1.623485923,-1202.700073,-5.100000381,-918.9000244,1.48189201,0.065093688,-0.041186714,LD
19.7,2.052228451,0.90379405,9.222766876,0.259148002,-0.815553963,1.181409955,-1217.100098,0.300000012,-921.3000488,1.48477806,0.208886351,-0.093763195,LD
19.73333333,0.896018147,0.541917503,8.932666779,0.266770005,-1.196653962,1.189031959,-1195.5,5.700000286,-906.9000244,1.476101995,0.111700438,-0.063734922,LD
19.76666667,-0.110058308,0.375035644,9.79040432,-0.602137983,0.548784018,0.381099999,-1219.5,-3.300000191,-902.1000366,1.473450344,-0.000932931,-0.039612954,LD
19.8,0.614890993,0.432457358,10.51655006,-0.853663981,0.53354001,0.182927996,-1214.700073,-3.900000095,-921.3000488,1.47280187,0.053031369,-0.039593824,LD
19.83333333,1.137667894,0.481505096,9.933958054,-0.289635986,-0.480185986,-0.099086002,-1200.300049,3.900000095,-902.1000366,1.473917451,0.109138457,-0.047186245,LD
19.86666667,0.669920146,0.281725347,9.491930962,-1.074702024,-0.769822001,-0.274392009,-1195.5,-3.900000095,-892.500061,1.473668836,0.075140381,-0.029584416,LD
19.9,0.686069965,0.126806304,9.365124702,-1.524399996,1.097568035,-0.464941978,-1205.100098,-1.5,-909.3000488,1.474338422,0.071550138,-0.01262259,LD
19.93333333,0.76023972,0.052038439,9.739562035,-2.019829988,0.167683989,-1.112811923,-1200.300049,2.100000143,-904.500061,1.478477238,0.077218749,-0.002632812,LD
19.96666667,0.532347262,-0.302062213,9.956687927,-2.286599874,0.495429993,-1.432935953,-1209.900024,-2.700000048,-911.7000122,1.48219307,0.054287,0.031643829,LD
20.0,0.143554315,-0.768015563,9.092370987,-1.509155989,1.699705958,-1.349093914,-1217.100098,6.900000095,-897.3000488,1.485740077,0.01636831,0.082279064,LD
20.03333333,-0.312230617,-0.556871116,10.28686237,-2.23324585,2.004585981,-2.568614006,-1205.100098,1.5,-921.3000488,1.495120847,-0.029376568,0.060083169,LD
20.06666667,0.679490387,-0.625657558,11.01958752,-1.806414008,1.082324028,-1.821658015,-1193.100098,0.900000036,-923.7000122,1.501746676,0.05170439,0.059786328,LD
20.1,1.414608121,-0.465355217,8.994874001,-0.129574001,-1.966475964,-1.310984015,-1190.700073,4.5,-906.9000244,1.50720577,0.152582274,0.052151451,LD
20.13333333,0.365465343,-0.758445263,8.663502693,-0.518296003,-0.670735955,-1.04421401,-1188.300049,3.900000095,-914.1000366,1.507425298,0.053214748,0.084882429,LD
20.16666667,0.998300612,-1.074264765,9.714440346,-1.699705958,1.753059983,-1.394825935,-1195.5,-2.100000143,-918.9000244,1.511705954,0.095544603,0.110742727,LD
20.2,1.775886536,-0.574815392,8.826197624,-0.411587983,-0.205793992,-1.814036012,-1193.100098,4.5,-928.500061,1.523904425,0.189395282,0.069423357,LD
20.23333333,1.339242101,-0.954636157,8.705970764,0.045731999,-1.288118005,-0.72408998,-1197.900024,2.700000048,-926.1000366,1.519737329,0.157030076,0.105721841,LD
20.26666667,1.798615932,-1.338644028,9.159363747,0.152439997,-1.653973937,-0.266770005,-1197.900024,2.700000048,-914.1000366,1.513668153,0.191423344,0.141285238,LD
20.3,-0.023327576,-1.731025815,9.976427078,-1.173787951,-0.053353999,-0.304879993,-1205.100098,2.700000048,-911.7000122,1.51193245,0.015449954,0.17095285,LD
20.33333333,-0.462364525,-1.458870649,10.30062008,-0.777444005,2.309465885,-0.53354001,-1200.300049,-3.300000191,-914.1000366,1.514659504,-0.042997677,0.14449194,LD
20.36666667,1.04495573,-1.278829694,9.788609505,0.762199998,0.42683199,0.068598002,-1185.900024,2.100000143,-921.3000488,1.514880616,0.093513186,0.129804311,LD
20.4,0.427074075,-1.603621364,9.091773033,0.556405962,-0.472563982,0.663114011,-1188.300049,0.300000012,-911.7000122,1.509352471,0.051081661,0.169734151,LD
20.43333333,0.745286167,-1.303951621,10.11041069,0.891773999,-0.632625997,0.365855992,-1193.100098,2.100000143,-923.7000122,1.509992792,0.071916915,0.130652002,LD
20.46666667,0.848764896,-1.14364934,9.232336998,1.227141976,-0.967993975,0.823175967,-1195.5,5.100000381,-911.7000122,1.507105164,0.090623969,0.122098549,LD
20.5,0.419298232,-1.316512704,8.338112831,1.646351933,-0.030487999,0.952749968,-1185.900024,2.700000048,-909.3000488,1.501371849,0.053171658,0.150965667,LD
20.53333333,0.299071491,-1.022226334,10.88380909,0.167683989,2.408551931,0.693601966,-1183.5,8.700000763,-911.7000122,1.502034577,0.025767877,0.098584146,LD
20.56666667,0.688462555,-0.948654771,9.810741425,2.400929928,-1.478667974,1.775925994,-1195.5,4.5,-911.7000122,1.495288439,0.06783171,0.092963117,LD
20.6,0.041870009,-1.145443797,9.03195858,1.471045971,-0.663114011,1.74543798,-1188.300049,5.700000286,-914.1000366,1.487765531,0.011045765,0.120882635,LD
20.63333333,-0.460570097,-1.003683925,10.13134575,0.320124,1.211897969,2.59910202,-1169.100098,2.700000048,-902.1000366,1.478981865,-0.042468256,0.100116401,LD
20.66666667,-0.40255022,-0.799118996,10.72769451,0.53354001,1.692083955,1.951231956,-1181.100098,5.700000286,-904.500061,1.471827968,-0.040788971,0.075716213,LD
20.7,-0.393578082,-0.388194799,9.232934952,1.646351933,0.464941978,2.652456045,-1181.100098,2.100000143,-914.1000366,1.461603716,-0.043348385,0.042271735,LD
20.73333333,2.246026754,0.213537037,7.714848042,2.896359921,-2.164648056,2.477149963,-1171.5,5.100000381,-911.7000122,1.458948553,0.256643171,-0.024726449,LD
20.76666667,-0.672910869,-0.7249493,9.632493973,0.510674,-0.678357959,2.59910202,-1188.300049,-1.5,-911.7000122,1.439050441,-0.045899691,0.06754155,LD
20.8,0.686069965,0.509019673,10.0129137,1.173787951,-0.29725799,1.310984015,-1190.700073,-2.100000143,-909.3000488,1.435137331,0.058482636,-0.041808519,LD
20.83333333,0.524571359,0.261986613,8.686830521,1.661595941,-1.059458017,2.385685921,-1185.900024,-0.300000012,-923.7000122,1.425944122,0.061967467,-0.033542072,LD
20.86666667,0.783567309,0.017346146,9.427929878,0.746955991,-0.716467977,1.966475964,-1190.700073,3.900000095,-923.7000122,1.416776085,0.082374014,-0.005410706,LD
20.9,0.835007608,-0.012561003,9.791600227,-0.022865999,-1.440557957,0.708845973,-1205.100098,7.500000477,-904.500061,1.413823669,0.087115527,0.00081108,LD
20.93333333,0.690257013,0.379820794,9.246692657,0.015244,-1.12805593,0.335367978,-1195.5,-0.300000012,-914.1000366,1.415877552,0.077406675,-0.037255818,LD
20.96666667,1.445711613,0.360680223,8.707167625,0.40396598,-0.320124,0.701223969,-1193.100098,-2.100000143,-918.9000244,1.413625213,0.158977662,-0.041602518,LD
21.0,0.331371218,-0.110058308,8.74245739,-0.640248001,0.72408998,0.625003994,-1197.900024,1.5,-911.7000122,1.406278512,0.045869522,0.009641879,LD
21.03333333,-0.865512908,-0.295482635,11.25824738,-1.867389917,1.181409955,-0.411587983,-1195.5,-1.5,-914.1000366,1.407840601,-0.067445965,0.027730259,LD
21.06666667,-0.06041244,0.035290435,9.627709389,-0.785066009,-0.083841994,0.022865999,-1188.300049,0.300000012,-902.1000366,1.406561352,-0.009965654,-0.000421973,LD
21.1,-0.85654074,-0.532347262,9.812535286,-1.295740008,0.685979962,-0.030487999,-1185.900024,4.5,-914.1000366,1.408921917,-0.082236904,0.052153092,LD
21.13333333,-0.427074075,-0.296678901,8.756215096,-0.823175967,1.669217944,-0.708845973,-1190.700073,5.100000381,-904.500061,1.410384194,-0.054345684,0.036899426,LD
21.16666667,0.78835243,-0.159106031,9.710252762,-0.411587983,0.038109999,-0.884151995,-1195.5,0.300000012,-928.500061,1.413915102,0.071632973,0.018402633,LD
21.2,1.375728846,-0.368456066,9.391443253,-0.625003994,-2.019829988,-0.792688012,-1190.700073,5.100000381,-904.500061,1.414565006,0.141911861,0.038162234,LD
21.23333333,0.014355431,-0.849961162,8.698195457,-0.556405962,-1.006103992,-1.036592007,-1185.900024,1.5,-921.3000488,1.413961398,0.013093137,0.094216269,LD
21.26666667,0.039477438,-1.004281998,10.74145126,-1.417691946,1.082324028,-1.455801964,-1195.5,4.5,-897.3000488,1.419673288,0.002856399,0.095575716,LD
21.3,0.64719069,-1.017441154,10.24738503,-0.975615978,0.190549999,-1.432935953,-1185.900024,7.500000477,-916.500061,1.424952534,0.058162086,0.100170638,LD
21.33333333,1.606013894,-0.678892255,9.379480362,-0.167683989,-1.592997909,-1.417691946,-1190.700073,5.700000286,-923.7000122,1.432189007,0.161776722,0.074806811,LD
21.36666667,1.030002236,-0.846372306,8.823804855,0.083841994,-2.202757835,-0.350611985,-1188.300049,5.700000286,-916.500061,1.430026426,0.123383612,0.093593392,LD
21.4,-0.409129798,-1.425374746,9.544567108,-1.097568035,2.149404049,-0.045731999,-1181.100098,6.900000095,-926.1000366,1.428915505,-0.033245553,0.145913736,LD
21.43333333,0.986935914,-1.025815248,8.923694611,-0.282013983,0.373477995,-0.518296003,-1176.300049,0.300000012,-916.500061,1.431781774,0.095986948,0.117728498,LD
21.46666667,0.776389599,-1.202267408,9.777843475,-0.693601966,-0.091463998,-0.342989981,-1188.300049,3.300000191,-911.7000122,1.432660625,0.080425942,0.122984607,LD
21.5,0.241649762,-1.368551135,9.445275307,0.198172003,-1.699705958,-0.221037999,-1181.100098,10.5,-921.3000488,1.43153447,0.033022736,0.141693112,LD
21.53333333,-0.007177716,-1.54141438,9.532604218,0.449698001,-0.449698001,0.0,-1181.100098,2.700000048,-930.9000244,1.430967978,0.002520692,0.158183498,LD
21.56666667,0.263781041,-1.365560412,11.37608147,0.114329994,0.457319975,0.114329994,-1195.5,5.700000286,-921.3000488,1.431192721,0.020848606,0.121943546,LD
21.6,1.358382702,-0.718369722,8.935657501,2.355197906,-2.789651871,0.381099999,-1190.700073,1.5,-906.9000244,1.431502332,0.145016848,0.079743173,LD
21.63333333,-0.773398876,-1.69453907,9.649840355,-0.846041977,2.36281991,2.080806017,-1193.100098,10.5,-918.9000244,1.421860288,-0.062591597,0.166596135,LD
21.66666667,0.519786239,-0.712388277,9.95190239,0.121951997,1.775925994,0.72408998,-1190.700073,3.300000191,-923.7000122,1.419045462,0.038732429,0.079924462,LD
21.7,0.39297992,-1.144845605,10.6738615,0.525918007,-0.967993975,1.783547997,-1185.900024,7.500000477,-916.500061,1.411615989,0.03803448,0.103693262,LD
21.73333333,0.083740018,-0.82603544,9.110315323,0.72408998,-0.175305992,1.653973937,-1185.900024,4.5,-928.500061,1.406139894,0.011797207,0.090517459,LD
21.76666667,-0.446214646,-0.867307305,9.516454697,0.342989981,2.218001842,1.890255928,-1181.100098,3.900000095,-921.3000488,1.400344798,-0.045153377,0.090218372,LD
21.8,-1.513899803,-1.21423018,12.33310986,-0.510674,1.089946032,1.562510014,-1188.300049,0.900000036,-909.3000488,1.395816084,-0.116605789,0.097989201,LD
21.83333333,1.502535105,0.21892032,7.790812016,2.278977871,-1.63872993,1.089946032,-1183.5,7.500000477,-916.500061,1.39438569,0.173615668,-0.02339812,LD
21.86666667,0.551487803,-0.540123105,8.910535812,0.884151995,-0.365855992,2.705809832,-1171.5,2.100000143,-902.1000366,1.375439172,0.072285232,0.052035373,LD
21.9,-0.3271842,-0.576011658,10.91730595,-0.068598002,-1.204275966,1.42531395,-1190.700073,0.300000012,-909.3000488,1.370283119,-0.01887854,0.052760865,LD
21.93333333,1.533638597,0.248827472,9.240711212,0.823175967,-1.615863919,0.998481989,-1188.300049,5.100000381,-930.9000244,1.371399024,0.150323466,-0.020664366,LD
21.96666667,1.095199823,0.462962657,8.399722099,1.257629991,-0.868907988,1.882633924,-1190.700073,-3.300000191,-918.9000244,1.368945775,0.13272238,-0.053837912,LD
22.0,-0.358287632,-0.296080768,11.04471016,-0.457319975,0.556405962,1.905499935,-1185.900024,0.900000036,-914.1000366,1.3577797,-0.020832198,0.021492472,LD
22.03333333,-0.339147061,0.019140575,9.497912407,0.342989981,0.525918007,0.967993975,-1197.900024,3.900000095,-916.500061,1.353870101,-0.035189809,-0.000482974,LD
22.06666667,1.354195714,0.622068703,8.42005825,0.960371971,-0.990859985,0.205793992,-1188.300049,-0.300000012,-918.9000244,1.356741891,0.142954422,-0.068467673,LD
22.1,0.39297992,-0.034094151,9.907640457,-0.449698001,-1.059458017,0.312501997,-1193.100098,3.300000191,-918.9000244,1.349441983,0.049916344,-0.001705885,LD
22.13333333,0.212340757,0.025720147,9.432714462,-0.320124,-0.495429993,-0.160062,-1197.900024,5.100000381,-918.9000244,1.35005367,0.025772858,-0.002133949,LD
22.16666667,0.241649762,0.129797027,9.872947693,-0.594515979,0.083841994,-0.640248001,-1197.900024,0.900000036,-918.9000244,1.352542764,0.024444388,-0.011230906,LD
22.2,0.75784713,-0.193200186,10.236619,-1.250007987,-0.548784018,-0.571649969,-1205.100098,0.900000036,-921.3000488,1.353389301,0.0706866,0.018321085,LD
22.23333333,0.061608724,-0.146545023,9.325647354,-0.93750596,-0.449698001,-1.318606019,-1200.300049,9.300000191,-906.9000244,1.358349616,0.012206234,0.01737585,LD
22.26666667,-0.11484345,-0.265575469,9.474584579,-1.12805593,1.021348,-1.669217944,-1178.700073,1.5,-914.1000366,1.364721554,-0.012028414,0.029146228,LD
22.3,0.274547637,-0.132787734,9.360937119,-1.028970003,1.524399996,-1.349093914,-1190.700073,9.300000191,-923.7000122,1.369596267,0.023196683,0.017137644,LD
22.33333333,0.694444001,-0.299669623,9.110315323,-0.548784018,-0.053353999,-1.471045971,-1183.5,8.100000381,-909.3000488,1.374052611,0.071405178,0.032178904,LD
22.36666667,0.03828115,-0.851755619,10.58892536,-1.509155989,0.121951997,-1.539644003,-1190.700073,4.5,-921.3000488,1.377857031,0.009197025,0.07865896,LD
22.4,0.674107134,-0.694444001,10.01410961,-1.036592007,-0.731711984,-1.890255928,-1176.300049,4.5,-894.9000244,1.384983009,0.064081998,0.071462588,LD
22.43333333,-0.887644172,-0.864914715,8.541481972,-0.602137983,1.272873998,-1.204275966,-1183.5,5.100000381,-923.7000122,1.389813947,-0.089677554,0.099316498,LD
22.46666667,-0.020935005,-0.855942607,9.332226753,-0.868907988,2.721053839,-1.349093914,-1181.100098,6.900000095,-926.1000366,1.394918137,-0.014257137,0.093625005,LD
22.5,1.640706182,-0.728538156,8.743654251,-0.182927996,-0.93750596,-1.486289978,-1178.700073,5.100000381,-904.500061,1.400523889,0.168385577,0.084125764,LD
22.53333333,0.18482618,-1.446907878,9.425537109,-1.173787951,-1.303362012,-0.891773999,-1185.900024,12.30000019,-923.7000122,1.397049371,0.031964962,0.14953224,LD
22.56666667,0.117236026,-1.348812342,9.527819633,-0.556405962,-0.358233988,-1.402447939,-1193.100098,-0.900000036,-914.1000366,1.401875868,0.014854224,0.142281393,LD
22.6,0.053832866,-1.560554981,9.609765053,-0.800309956,0.663114011,-1.303362012,-1181.100098,-3.900000095,-921.3000488,1.406514625,0.005657429,0.160547913,LD
22.63333333,0.25181818,-1.790241957,9.884910583,-1.051836014,-0.251525998,-1.402447939,-1173.900024,8.700000763,-926.1000366,1.410923848,0.024086203,0.179106694,LD
22.66666667,1.331466198,-1.131088376,9.806553841,-0.388722003,-1.63872993,-1.227141976,-1176.300049,5.100000381,-914.1000366,1.419122158,0.128638257,0.120200824,LD
22.7,0.746482432,-1.597041726,8.786720276,0.899396002,-2.317087889,0.457319975,-1188.300049,2.100000143,-921.3000488,1.409822519,0.090108514,0.174390208,LD
22.73333333,-0.06041244,-1.345223546,8.494228363,0.929883957,1.219519973,0.060975999,-1190.700073,0.300000012,-928.500061,1.410957592,-0.000165711,0.157159337,LD
22.76666667,-0.24464047,-1.632930279,10.57636356,-0.060975999,2.454283953,0.510674,-1181.100098,-0.900000036,-921.3000488,1.410476602,-0.024778557,0.153637534,LD
22.8,0.199181616,-1.411019325,9.827488899,1.34147191,-1.410069942,0.556405962,-1183.5,3.300000191,-923.7000122,1.407661353,0.018800989,0.141286056,LD
22.83333333,-0.690855145,-1.664033771,8.695802689,1.303362012,-1.097568035,0.548784018,-1193.100098,2.700000048,-899.7000122,1.406316527,-0.067556203,0.182600164,LD
22.86666667,-0.001794429,-1.375728846,10.06136322,0.983237982,0.731711984,0.29725799,-1183.5,4.5,-926.1000366,1.404151393,-0.007497413,0.138545666,LD
22.9,0.434849948,-1.133480906,10.53808308,1.478667974,-0.967993975,0.670735955,-1171.5,5.700000286,-921.3000488,1.401667544,0.038777335,0.107171459,LD
22.93333333,0.68726629,-0.89422375,9.081007004,2.957335949,-2.36281991,1.120433927,-1193.100098,2.100000143,-904.500061,1.396810184,0.076052574,0.094214629,LD
22.96666667,1.22380054,-0.676499724,9.650438309,1.463423967,-0.076219998,1.036592007,-1188.300049,6.300000191,-906.9000244,1.395098654,0.121329334,0.07005279,LD
23.0,-0.029907148,-0.499449372,9.280786514,1.897877932,-0.525918007,1.074702024,-1190.700073,0.900000036,-914.1000366,1.391850534,0.006933945,0.051982535,LD
23.03333333,0.312230617,-0.280529052,10.13792515,1.440557957,0.083841994,1.364337921,-1195.5,2.700000048,-914.1000366,1.387200382,0.028775092,0.027228222,LD
23.06666667,1.94635725,0.32239905,8.948219299,2.865871906,-2.263733864,1.463423967,-1205.100098,5.100000381,-926.1000366,1.388037874,0.200842365,-0.034287945,LD
23.1,0.403148353,-0.21054633,9.647447586,1.303362012,-1.737815976,2.218001842,-1197.900024,0.300000012,-899.7000122,1.373507079,0.058929744,0.015073714,LD
23.13333333,0.655564725,-0.153722748,10.5476532,0.442075998,0.510674,1.920743942,-1185.900024,-4.5,-914.1000366,1.366872379,0.060928521,0.014100585,LD
23.16666667,1.08503139,0.315221339,8.555238724,1.646351933,-0.243903995,1.417691946,-1195.5,8.100000381,-916.500061,1.36551431,0.122055826,-0.035722001,LD
23.2,0.154320881,0.042468149,9.777244568,0.472563982,0.144817993,1.250007987,-1185.900024,-3.900000095,-914.1000366,1.359032764,0.025202399,-0.007826716,LD
23.23333333,1.000693202,-0.022729432,9.714440346,0.160062,0.342989981,1.135677934,-1193.100098,-2.700000048,-916.500061,1.354526474,0.095094469,0.001309207,LD
23.26666667,0.412718654,0.311034352,9.191064835,0.548784018,-0.327746004,0.663114011,-1183.5,-2.100000143,-916.500061,1.354507344,0.049944278,-0.031467805,LD
23.3,0.824839175,-0.089123301,10.72889042,-0.342989981,0.342989981,0.823175967,-1195.5,1.5,-887.7000122,1.349456719,0.073766195,0.005338056,LD
23.33333333,0.634031534,-0.037683006,9.327441216,-0.358233988,0.899396002,0.495429993,-1188.300049,2.100000143,-916.500061,1.347792792,0.066859239,0.004769971,LD
23.36666667,0.083740018,-0.047253296,10.00753021,-0.586893976,3.071666002,0.030487999,-1185.900024,2.700000048,-916.500061,1.34777336,0.007395114,0.005680149,LD
23.4,1.163986206,0.275743902,9.378881454,-0.586893976,3.734779835,-0.045731999,-1173.900024,3.900000095,-923.7000122,1.34973218,0.108623504,-0.025755224,LD
23.43333333,-0.356493205,0.05443101,9.572081566,-1.379581928,5.289668083,0.716467977,-1176.300049,2.100000143,-918.9000244,1.346344812,-0.032387441,-0.005311539,LD
23.46666667,0.176452175,-0.059814297,9.232934952,-1.105189919,6.135709763,0.952749968,-1157.100098,3.300000191,-918.9000244,1.343133803,0.005019772,0.007270524,LD
23.5,-0.915158749,-0.443223953,9.45604229,-2.042695999,8.117429733,1.059458017,-1149.900024,3.900000095,-923.7000122,1.341669131,-0.101875257,0.047037234,LD
23.53333333,-1.438533902,-0.365465343,9.30291748,-1.532021999,8.612859726,0.556405962,-1152.300049,5.700000286,-928.500061,1.339675608,-0.162864206,0.042314827,LD
23.56666667,-0.908579171,-0.768015563,9.209009171,-2.591480017,11.41775608,1.12805593,-1133.100098,4.5,-942.9000244,1.343037745,-0.121419746,0.084275358,LD
23.6,-1.333260655,-0.82603544,9.357946396,-2.210379839,11.234828,0.61738199,-1101.900024,5.100000381,-930.9000244,1.344249445,-0.157650473,0.091418624,LD
23.63333333,-1.79562521,-0.923532724,8.893787384,-1.935987949,10.56409168,0.594515979,-1092.300049,2.100000143,-950.1000366,1.347230789,-0.212176289,0.10584365,LD
23.66666667,-3.233560801,-1.546797752,9.119287491,-2.850627899,11.36440182,1.432935953,-1058.700073,13.50000095,-938.1000366,1.36183745,-0.343237181,0.16692479,LD
23.7,-3.603811502,-1.457674384,8.743055344,-2.263733864,11.234828,0.731711984,-1046.700073,4.5,-942.9000244,1.363711838,-0.400053236,0.16970394,LD
23.73333333,-4.011744976,-1.764521718,7.656828403,-2.096050024,10.35829735,0.792688012,-1032.300049,11.10000038,-926.1000366,1.388865299,-0.482592748,0.226210121,LD
23.76666667,-4.90237999,-1.907477975,8.535500526,-2.820139885,11.43299961,-0.182927996,-1003.500061,10.5,-930.9000244,1.393314545,-0.526987753,0.227405632,LD
23.8,-4.550671577,-1.620369315,8.524733543,-1.859767914,8.734811783,0.198172003,-993.9000244,11.70000076,-918.9000244,1.379380529,-0.500671919,0.195562938,LD
23.83333333,-5.426951408,-2.370440483,7.756119728,-1.730193973,6.471077919,1.775925994,-984.3000488,5.700000286,-926.1000366,1.424988192,-0.59245802,0.289785482,LD
23.86666667,-5.389268398,-2.014545441,8.216690063,-1.669217944,6.15095377,0.701223969,-984.3000488,12.30000019,-904.500061,1.400957967,-0.578952142,0.247332306,LD
23.9,-5.99638319,-1.985834718,7.480375767,-0.411587983,3.490875959,1.814036012,-965.1000366,14.70000076,-906.9000244,1.403759723,-0.659295136,0.258111045,LD
23.93333333,-5.788827896,-1.851850629,5.722434044,1.204275966,1.836901903,1.417691946,-957.9000244,17.70000076,-911.7000122,1.435775083,-0.763151727,0.305935477,LD
23.96666667,-5.947933674,-1.934992552,7.110125542,-0.388722003,3.269837856,1.669217944,-948.3000488,10.5,-897.3000488,1.407824655,-0.691268763,0.268126722,LD
24.0,-6.711762428,-2.041461945,6.618452072,-0.045731999,1.867389917,1.265251994,-962.7000122,11.10000038,-909.3000488,1.424053048,-0.765998521,0.295225097,LD
24.03333333,-6.771576405,-1.665230036,6.565815449,0.007622,2.568614006,0.952749968,-957.9000244,14.10000038,-906.9000244,1.392303579,-0.788534841,0.250884669,LD
24.06666667,-7.365532398,-1.839289665,7.66759491,-0.80793196,2.637212038,1.730193973,-943.500061,10.5,-911.7000122,1.377235848,-0.758941305,0.236211075,LD
24.1,-6.415083408,-1.509712815,7.195660114,0.670735955,0.373477995,1.349093914,-960.3000488,8.700000763,-914.1000366,1.354845696,-0.721083154,0.205678775,LD
24.13333333,-6.241621971,-1.460665107,7.550956726,0.647870004,-1.570132017,1.897877932,-948.3000488,12.30000019,-899.7000122,1.339468537,-0.683427237,0.188508161,ST
24.16666667,-5.434727192,-1.164584398,6.923504829,1.76830399,-3.528985977,1.615863919,-957.9000244,8.100000381,-904.500061,1.321503636,-0.655882021,0.163096381,ST
24.2,-6.183601856,-1.08503139,6.403120518,1.577754021,-3.102154016,1.63872993,-953.1000366,8.700000763,-909.3000488,1.318626763,-0.747691306,0.161723709,ST
24.23333333,-6.786530018,-0.893027484,7.192070961,0.701223969,-0.282013983,1.935987949,-950.7000122,7.500000477,-904.500061,1.288279325,-0.752177844,0.122339765,ST
24.26666667,-5.580673695,-0.727940023,7.642472744,0.548784018,-0.015244,1.310984015,-967.500061,5.100000381,-911.7000122,1.267935802,-0.638050365,0.094301935,ST
24.3,-6.169844627,-0.845176041,7.532414436,1.204275966,-2.278977871,1.440557957,-948.3000488,7.500000477,-918.9000244,1.273136696,-0.675778437,0.106054364,ST
24.33333333,-6.666901588,-0.723752975,7.626921177,0.693601966,-0.442075998,0.472563982,-962.7000122,2.100000143,-899.7000122,1.26553144,-0.711835112,0.093872428,ST
24.36666667,-5.003466129,-0.110656448,7.496525764,0.342989981,-0.746955991,0.236281991,-957.9000244,15.30000019,-906.9000244,1.220685269,-0.598557937,0.020413033,ST
24.4,-5.985616684,-0.24464047,7.091583252,0.609759986,-1.288118005,1.04421401,-962.7000122,11.10000038,-923.7000122,1.225232659,-0.689449267,0.030697126,ST
24.43333333,-5.865389824,-0.35290435,7.042535305,0.525918007,-1.196653962,0.716467977,-967.500061,5.100000381,-921.3000488,1.234394313,-0.691603783,0.046458149,ST
24.46666667,-5.438315868,-0.231481329,7.586845398,-0.411587983,-0.693601966,-0.518296003,-967.500061,6.300000191,-906.9000244,1.226615096,-0.625813569,0.032871562,ST
24.5,-5.916232109,-0.507823408,7.52164793,-0.472563982,-0.800309956,-0.358233988,-967.500061,8.700000763,-914.1000366,1.246440508,-0.661345682,0.066111223,ST
24.53333333,-6.21769619,-0.587974548,7.410991192,-0.609759986,-0.571649969,-0.350611985,-969.9000244,5.700000286,-928.500061,1.254223906,-0.692386979,0.079323056,ST
24.56666667,-6.811652184,-0.707603157,7.342803001,-0.548784018,0.411587983,-0.213415995,-957.9000244,18.30000114,-921.3000488,1.264404189,-0.741384119,0.095710044,ST
24.6,-6.648957253,-0.900205195,7.410393238,-0.777444005,1.95885396,-0.716467977,-965.1000366,10.5,-899.7000122,1.282112111,-0.731860949,0.12121348,ST
24.63333333,-6.02270174,-0.513206661,8.149698257,-0.716467977,0.769822001,-1.280496001,-962.7000122,3.900000095,-914.1000366,1.251464716,-0.643241352,0.069363645,ST
24.66666667,-5.740377903,-0.57900238,7.122686386,0.571649969,-1.250007987,-0.335367978,-972.3000488,6.300000191,-897.3000488,1.259689892,-0.672156287,0.079571003,ST
24.7,-5.79660368,-0.592161536,6.607087135,0.320124,0.053353999,-0.503051996,-977.1000366,5.100000381,-899.7000122,1.267542186,-0.714010366,0.088633367,ST
24.73333333,-6.830194473,-0.869699895,6.332539558,-0.388722003,1.897877932,-0.42683199,-955.500061,8.700000763,-904.500061,1.30042144,-0.814961287,0.134905765,ST
24.76666667,-5.992196083,-0.811081886,7.148406506,-0.358233988,2.46952796,-1.402447939,-950.7000122,11.10000038,-909.3000488,1.291992863,-0.70900096,0.117601851,ST
24.8,-6.58974123,-1.248922467,7.886515141,-0.701223969,1.753059983,-1.676839948,-960.3000488,3.300000191,-916.500061,1.321020498,-0.694071126,0.157198909,ST
24.83333333,-6.038851261,-1.135275364,6.507795334,0.442075998,0.609759986,-1.814036012,-950.7000122,9.300000191,-899.7000122,1.337470734,-0.736820599,0.173232775,ST
24.86666667,-6.46233654,-1.714875937,7.62273407,-0.541162014,2.568614006,-1.8292799,-948.3000488,7.500000477,-897.3000488,1.374147499,-0.698267266,0.221482348,ST
24.9,-6.348091125,-1.599434257,7.476189137,0.121951997,0.746955991,-1.463423967,-950.7000122,12.30000019,-899.7000122,1.373693209,-0.694068749,0.213564748,ST
