seconds,sensor_accX_m_s_,sensor_accY_m_s_,sensor_accZ_m_s_,sensor_gyroX___s_,sensor_gyroY___s_,sensor_gyroZ___s_,sensor_magX__T_,sensor_magY__T_,sensor_magZ__T_,sensor_yaw___,sensor_pitch___,sensor_roll___,label1
0.0,-2.231671333,-1.381112099,9.179699898,0.038109999,-0.137196004,0.358233988,-1068.300049,0.900000036,-938.1000366,-1.707926785,-0.236800719,0.147836603,ST
0.033333333,-2.220306635,-1.348214269,9.190466881,0.121951997,-0.152439997,0.358233988,-1061.100098,8.100000381,-909.3000488,-1.70897798,-0.235099694,0.145987306,ST
0.066666667,-2.214923382,-1.379915833,9.187476158,0.182927996,-0.167683989,0.312501997,-1070.700073,-0.300000012,-914.1000366,-1.709043385,-0.234194156,0.147865036,ST
0.1,-2.204156876,-1.376925111,9.189868927,0.152439997,-0.213415995,0.236281991,-1065.900024,-0.300000012,-899.7000122,-1.709349855,-0.23307042,0.148203014,ST
0.133333333,-2.205353022,-1.354793787,9.146801949,0.129574001,-0.243903995,0.205793992,-1075.5,-3.300000191,-914.1000366,-1.709940027,-0.233554109,0.147167578,ST
0.166666667,-2.193390369,-1.378121376,9.161755562,0.121951997,-0.213415995,0.221037999,-1068.300049,3.900000095,-926.1000366,-1.710018103,-0.232574107,0.14843873,ST
0.2,-2.183820009,-1.385299087,9.140820503,0.076219998,-0.198172003,0.213415995,-1065.900024,5.100000381,-930.9000244,-1.710112805,-0.231944075,0.149652152,ST
0.233333333,-2.22389555,-1.352401257,9.209009171,0.076219998,-0.175305992,0.221037999,-1058.700073,3.300000191,-914.1000366,-1.711150212,-0.233581891,0.146805286,ST
0.266666667,-2.192193985,-1.361373425,9.160559654,0.129574001,-0.221037999,0.259148002,-1077.900024,2.100000143,-909.3000488,-1.711558222,-0.232499409,0.147086974,ST
0.3,-2.197577238,-1.391280532,9.078614235,0.099086002,-0.152439997,0.259148002,-1065.900024,-3.300000191,-921.3000488,-1.711229704,-0.234008225,0.150365246,ST
0.333333333,-2.237054825,-1.364364147,9.192260742,0.106707998,-0.221037999,0.236281991,-1073.100098,0.300000012,-909.3000488,-1.712173336,-0.235338715,0.148049014,ST
0.366666667,-2.180829287,-1.383504748,9.116894722,0.152439997,-0.282013983,0.289635986,-1073.100098,1.5,-911.7000122,-1.712314766,-0.232879299,0.149553643,ST
0.4,-2.196979046,-1.381112099,9.207813263,0.083841994,-0.327746004,0.282013983,-1073.100098,3.900000095,-921.3000488,-1.713040905,-0.231661534,0.148851554,ST
0.433333333,-2.100678205,-1.413411856,9.207214355,0.137196004,-0.259148002,0.274392009,-1063.5,-5.700000286,-926.1000366,-1.713017256,-0.224506087,0.151025804,ST
0.466666667,-2.131781578,-1.409224868,9.134839058,0.167683989,-0.198172003,0.228659987,-1073.100098,5.700000286,-916.500061,-1.71312745,-0.225826593,0.152173489,ST
0.5,-2.203558683,-1.393673182,9.207813263,0.175305992,-0.175305992,0.236281991,-1080.300049,6.300000191,-938.1000366,-1.71387076,-0.23021675,0.150518924,ST
0.533333333,-2.16049242,-1.386495352,9.174915314,0.152439997,-0.243903995,0.243903995,-1070.700073,-8.100000381,-909.3000488,-1.714483429,-0.228855524,0.149832811,ST
0.566666667,-2.177838564,-1.388888001,9.137829781,0.152439997,-0.205793992,0.29725799,-1070.700073,-3.900000095,-918.9000244,-1.714911993,-0.230531912,0.150280684,ST
0.6,-2.159894228,-1.403243423,9.25387001,0.045731999,-0.175305992,0.243903995,-1077.900024,-3.300000191,-916.500061,-1.715340309,-0.227752741,0.15029679,ST
0.633333333,-2.149127722,-1.37453258,9.137829781,0.114329994,-0.221037999,0.266770005,-1075.5,-0.300000012,-904.500061,-1.716002733,-0.228065057,0.14937831,ST
0.666666667,-2.126996517,-1.431954265,9.136035919,0.099086002,-0.198172003,0.282013983,-1070.700073,2.100000143,-911.7000122,-1.715565486,-0.226427803,0.153583316,ST
0.7,-2.156903505,-1.428963542,9.198242188,0.114329994,-0.259148002,0.213415995,-1068.300049,-0.900000036,-916.500061,-1.715938112,-0.227073769,0.153757416,ST
0.733333333,-2.166473866,-1.401448965,9.155774117,0.167683989,-0.213415995,0.228659987,-1077.900024,2.100000143,-926.1000366,-1.71666582,-0.228743357,0.152172939,ST
0.766666667,-2.159894228,-1.406832218,9.201831818,0.160062,-0.190549999,0.289635986,-1068.300049,-5.100000381,-916.500061,-1.717287853,-0.22802963,0.151553958,ST
0.8,-2.123407602,-1.417598844,9.168335915,0.144817993,-0.29725799,0.243903995,-1068.300049,8.100000381,-916.500061,-1.717497169,-0.225511892,0.152629585,ST
0.833333333,-2.178436756,-1.399056435,9.207214355,0.205793992,-0.205793992,0.327746004,-1068.300049,7.500000477,-923.7000122,-1.718427207,-0.228416123,0.150937439,ST
0.866666667,-2.135370493,-1.412813663,9.156373024,0.251525998,-0.213415995,0.358233988,-1077.900024,2.100000143,-914.1000366,-1.718770012,-0.22682108,0.152087657,ST
0.9,-2.149127722,-1.366756678,9.174915314,0.251525998,-0.228659987,0.350611985,-1075.5,3.300000191,-911.7000122,-1.720068989,-0.227200437,0.148730953,ST
0.933333333,-2.101874352,-1.401448965,9.165943146,0.190549999,-0.205793992,0.282013983,-1068.300049,-1.5,-918.9000244,-1.720119787,-0.224005219,0.150504335,ST
0.966666667,-2.11563158,-1.397261977,9.205420494,0.205793992,-0.228659987,0.099086002,-1073.100098,-2.100000143,-916.500061,-1.720312127,-0.22333149,0.150305593,ST
1.0,-2.179632902,-1.354195714,9.191064835,0.289635986,-0.289635986,0.068598002,-1065.900024,-1.5,-916.500061,-1.72113295,-0.228142647,0.146992485,ST
1.033333333,-2.182025671,-1.314718246,9.281384468,0.228659987,-0.365855992,0.175305992,-1075.5,8.700000763,-918.9000244,-1.722494701,-0.228122631,0.142260334,ST
1.066666667,-2.131183386,-1.329073668,9.176709175,0.259148002,-0.365855992,0.411587983,-1063.5,-3.900000095,-909.3000488,-1.723020096,-0.226209729,0.142913103,ST
1.1,-2.107855797,-1.347018003,9.179101944,0.152439997,-0.282013983,0.449698001,-1068.300049,-2.700000048,-911.7000122,-1.723414237,-0.22399065,0.144546462,ST
1.133333333,-2.05701375,-1.382906556,9.212597847,0.289635986,-0.121951997,0.457319975,-1063.5,0.900000036,-906.9000244,-1.723548528,-0.219000988,0.147323745,ST
1.166666667,-2.04026556,-1.338045835,9.210803986,0.312501997,-0.251525998,0.236281991,-1075.5,3.900000095,-906.9000244,-1.724448949,-0.216496652,0.14472693,ST
1.2,-2.145538807,-1.300961018,9.216785431,0.282013983,-0.198172003,0.152439997,-1058.700073,3.300000191,-909.3000488,-1.725457991,-0.223564038,0.141056075,ST
1.233333333,-2.109650373,-1.347018003,9.123475075,0.243903995,-0.114329994,0.243903995,-1065.900024,8.100000381,-906.9000244,-1.725022125,-0.224392246,0.144551662,ST
1.266666667,-2.179632902,-1.309334993,9.18927002,0.114329994,-0.144817993,0.358233988,-1051.5,-0.300000012,-921.3000488,-1.726138566,-0.228650309,0.142196559,ST
1.3,-2.079743147,-1.361373425,9.139624596,0.076219998,-0.068598002,0.342989981,-1065.900024,-6.300000191,-918.9000244,-1.725851742,-0.223448354,0.146043826,ST
1.333333333,-2.157501698,-1.358980775,9.228748322,0.144817993,-0.045731999,0.266770005,-1077.900024,3.900000095,-909.3000488,-1.726308416,-0.226226548,0.145898522,ST
1.366666667,-2.145538807,-1.387691736,9.149792671,0.198172003,-0.129574001,0.213415995,-1077.900024,4.5,-918.9000244,-1.725962076,-0.227219354,0.148820554,ST
1.4,-2.224493742,-1.330269933,9.218579292,0.182927996,-0.205793992,0.251525998,-1070.700073,0.900000036,-933.3000488,-1.727304423,-0.232065069,0.144669638,ST
1.433333333,-2.203558683,-1.320699692,9.212597847,0.205793992,-0.342989981,0.480185986,-1070.700073,8.100000381,-916.500061,-1.728596708,-0.232029585,0.142634056,ST
1.466666667,-2.162286758,-1.305746078,9.174915314,0.190549999,-0.388722003,0.61738199,-1063.5,-1.5,-933.3000488,-1.730015745,-0.229616301,0.14127624,ST
1.5,-2.109650373,-1.339242101,9.219177246,0.190549999,-0.350611985,0.701223969,-1063.5,-0.900000036,-921.3000488,-1.730881137,-0.224286186,0.142982231,ST
1.533333333,-2.141949892,-1.303353548,9.199439049,0.182927996,-0.411587983,0.716467977,-1073.100098,5.700000286,-914.1000366,-1.73255037,-0.225512372,0.14097773,ST
1.566666667,-2.109052181,-1.303951621,9.184485435,0.190549999,-0.365855992,0.769822001,-1080.300049,4.5,-923.7000122,-1.733941228,-0.223831496,0.14055562,ST
1.6,-2.121613026,-1.309933066,9.194653511,0.221037999,-0.40396598,0.846041977,-1080.300049,4.5,-918.9000244,-1.735414077,-0.224021126,0.140713334,ST
1.633333333,-2.01933074,-1.326681137,9.20123291,0.129574001,-0.342989981,0.785066009,-1085.100098,-0.300000012,-916.500061,-1.736566393,-0.216254548,0.142144862,ST
1.666666667,-2.08273387,-1.285409212,9.247888565,0.175305992,-0.320124,0.785066009,-1075.5,3.900000095,-933.3000488,-1.738643464,-0.2182909,0.138827037,ST
1.7,-2.012751102,-1.245931864,9.195850372,0.175305992,-0.228659987,0.815553963,-1080.300049,-0.900000036,-923.7000122,-1.74092888,-0.214611715,0.135237417,ST
1.733333333,-2.095294714,-1.262679815,9.194653511,0.099086002,-0.076219998,0.800309956,-1075.5,2.100000143,-928.500061,-1.742133891,-0.219845481,0.135763907,ST
1.766666667,-2.131781578,-1.274044514,9.247888565,0.053353999,0.007622,0.998481989,-1077.900024,0.900000036,-923.7000122,-1.743774168,-0.223408847,0.13624083,ST
1.8,-2.110846519,-1.334456921,9.210803986,-0.045731999,0.015244,1.074702024,-1068.300049,3.900000095,-918.9000244,-1.744451393,-0.22334567,0.141342461,ST
1.833333333,-2.220904827,-1.2590909,9.037342072,-0.106707998,0.099086002,1.219519973,-1077.900024,-3.900000095,-916.500061,-1.747154558,-0.234860103,0.139014269,ST
1.866666667,-2.387188673,-1.310531259,9.234130859,-0.442075998,0.236281991,1.867389917,-1080.300049,-4.5,-923.7000122,-1.750057783,-0.246447461,0.140382059,ST
1.9,-2.366253614,-1.377523303,9.054688454,-0.487807989,0.358233988,2.629590034,-1077.900024,-6.900000095,-930.9000244,-1.752760748,-0.251805206,0.147586709,ST
1.933333333,-2.997892618,-1.239352226,8.966761589,-1.013725996,1.12805593,3.910085917,-1065.900024,4.5,-933.3000488,-1.761349744,-0.301358418,0.140437766,ST
1.966666667,-2.740092993,-1.500740767,8.955994606,-1.387203932,1.55488801,5.686011791,-1061.100098,-0.300000012,-923.7000122,-1.766355693,-0.298339193,0.158973642,ST
2.0,-2.604314566,-1.553377271,9.097754478,-1.905499935,1.737815976,6.631139755,-1068.300049,-0.300000012,-933.3000488,-1.776520061,-0.284744687,0.166515417,ST
2.033333333,-2.715569019,-1.505525827,9.18269062,-1.753059983,1.432935953,7.187545776,-1075.5,8.100000381,-921.3000488,-1.790764045,-0.287488997,0.163213629,ST
2.066666667,-2.521172523,-1.567134619,8.908740997,-1.623485923,1.089946032,6.867421627,-1063.5,5.100000381,-911.7000122,-1.801072401,-0.278944227,0.170773998,ST
2.1,-2.791533232,-1.512703538,8.874049187,-1.615863919,1.257629991,6.257661819,-1070.700073,4.5,-911.7000122,-1.8121571,-0.296944595,0.169235754,ST
2.133333333,-2.871684313,-1.425374746,8.829786301,-1.501533985,1.402447939,5.846074104,-1068.300049,4.5,-918.9000244,-1.824047135,-0.309401876,0.162533437,ST
2.166666667,-2.914152622,-1.397261977,8.902759552,-1.288118005,1.067080021,4.961921692,-1053.900024,3.900000095,-918.9000244,-1.834342989,-0.314083219,0.157353904,ST
2.2,-3.149820805,-1.264474273,9.102540016,-1.189031959,0.80793196,4.740883827,-1056.300049,5.700000286,-916.500061,-1.84783282,-0.327911066,0.142689622,ST
2.233333333,-2.916545153,-1.215426564,9.031360626,-0.647870004,0.205793992,4.359784126,-1073.100098,5.100000381,-916.500061,-1.858279755,-0.315549641,0.135105515,ST
2.266666667,-2.78435564,-1.274642706,8.988892555,-0.106707998,0.503051996,3.292703867,-1073.100098,8.700000763,-926.1000366,-1.863131855,-0.303515499,0.138191316,ST
2.3,-2.807682991,-1.194491506,8.928480148,0.091463998,1.028970003,2.111294031,-1061.100098,15.90000057,-918.9000244,-1.867645812,-0.304149322,0.133698294,ST
2.333333333,-3.158792973,-0.974973023,8.955994606,0.236281991,1.227141976,1.23476398,-1063.5,0.900000036,-918.9000244,-1.874978898,-0.328970264,0.115385366,ST
2.366666667,-3.430349827,-1.050937176,8.748438835,0.556405962,1.189031959,1.105189919,-1061.100098,7.500000477,-923.7000122,-1.875611418,-0.360124303,0.117192282,ST
2.4,-3.602016926,-0.966000915,8.962574005,0.221037999,0.884151995,1.059458017,-1049.100098,2.700000048,-930.9000244,-1.879731682,-0.37534167,0.109622234,ST
2.433333333,-3.695327282,-0.863120317,8.633595467,0.449698001,0.632625997,1.227141976,-1073.100098,2.100000143,-928.500061,-1.884638196,-0.396447265,0.10109832,ST
2.466666667,-3.686953306,-0.945065916,8.74245739,0.396344006,0.861285985,1.265251994,-1058.700073,6.900000095,-921.3000488,-1.884945613,-0.398144619,0.104814219,ST
2.5,-3.768300772,-0.860129595,8.762794495,0.320124,0.800309956,1.112811923,-1053.900024,3.300000191,-911.7000122,-1.888621146,-0.403621647,0.09902201,ST
2.533333333,-3.750954628,-0.931308627,8.338112831,0.289635986,0.800309956,0.945127964,-1049.100098,1.5,-911.7000122,-1.886710564,-0.416462659,0.106731315,ST
2.566666667,-3.900490284,-0.933103025,8.579164505,-0.007622,1.028970003,0.625003994,-1044.300049,5.700000286,-923.7000122,-1.887175435,-0.423412459,0.107584419,ST
2.6,-4.078736782,-0.916355014,8.750831604,-0.129574001,0.785066009,0.61738199,-1061.100098,6.900000095,-918.9000244,-1.889099713,-0.431900017,0.105179867,ST
2.633333333,-3.983632088,-0.887644172,8.729298592,-0.099086002,0.137196004,0.853663981,-1039.5,9.900000572,-923.7000122,-1.891942127,-0.42797219,0.101978073,ST
2.666666667,-3.981837749,-0.853550017,8.579164505,0.121951997,-0.175305992,1.074702024,-1049.100098,3.900000095,-916.500061,-1.894695644,-0.43117093,0.09925538,ST
2.7,-3.869386911,-0.837998331,8.794496536,0.29725799,-0.198172003,1.166165948,-1053.900024,5.100000381,-930.9000244,-1.89830135,-0.417301442,0.094978145,ST
2.733333333,-4.022511482,-0.696836591,8.621632576,0.548784018,-0.419209987,0.975615978,-1058.700073,3.300000191,-928.500061,-1.904479662,-0.430154526,0.083138359,ST
2.766666667,-3.891518116,-0.677097857,8.651539803,0.464941978,-0.449698001,0.975615978,-1049.100098,0.900000036,-918.9000244,-1.907657773,-0.423688398,0.078489415,ST
2.8,-3.834096432,-0.620872378,8.753822327,0.198172003,-0.777444005,0.685979962,-1046.700073,3.900000095,-928.500061,-1.911441292,-0.413902262,0.07203275,ST
2.833333333,-3.785646915,-0.593357801,8.758607864,0.289635986,-1.242385983,0.571649969,-1046.700073,5.100000381,-926.1000366,-1.913789605,-0.40770843,0.068259476,ST
2.866666667,-3.63132596,-0.687864423,8.762794495,0.251525998,-1.524399996,0.205793992,-1049.100098,7.500000477,-911.7000122,-1.911542967,-0.39473407,0.074853793,ST
2.9,-3.917238235,-0.604124427,8.814832687,0.327746004,-1.714949965,-0.327746004,-1070.700073,9.900000572,-911.7000122,-1.912865567,-0.408404749,0.070084418,ST
2.933333333,-3.920228958,-0.534739792,8.844739914,0.640248001,-1.600619912,-0.335367978,-1049.100098,9.300000191,-935.7000122,-1.915028235,-0.41211513,0.062652687,ST
2.966666667,-4.035072327,-0.39058736,8.967359543,1.120433927,-1.859767914,-0.53354001,-1061.100098,6.900000095,-930.9000244,-1.919653926,-0.417431046,0.047118484,ST
3.0,-4.458557606,-0.462364525,9.195251465,1.722571969,-2.126538038,-0.602137983,-1053.900024,1.5,-926.1000366,-1.917492766,-0.438260415,0.04746449,ST
3.033333333,-4.482483387,-0.215929613,8.592324257,2.591480017,-2.347575903,-0.602137983,-1065.900024,-1.5,-909.3000488,-1.923040231,-0.467010453,0.02775584,ST
3.066666667,-4.661328316,-0.037683006,8.073734283,2.751541853,-1.394825935,-0.312501997,-1073.100098,0.900000036,-928.500061,-1.929347139,-0.504868886,0.008611413,ST
3.1,-4.345508575,-0.007775859,7.859598637,2.36281991,0.388722003,-0.129574001,-1065.900024,3.300000191,-916.500061,-1.931104692,-0.505477766,0.000486288,ST
3.133333333,-4.672094822,0.269164324,8.054593086,1.181409955,2.202757835,-0.899396002,-1058.700073,-0.300000012,-918.9000244,-1.940804647,-0.522153297,-0.023970401,ST
3.166666667,-4.676281929,0.062805012,7.763895988,1.074702024,2.637212038,-0.891773999,-1065.900024,-3.900000095,-918.9000244,-1.933364678,-0.539353796,-0.013602284,ST
3.2,-4.84316349,0.189013183,7.869168758,0.182927996,2.23324585,-0.998481989,-1049.100098,3.300000191,-918.9000244,-1.935331494,-0.551078521,-0.02063371,ST
3.233333333,-5.006456852,0.482103229,7.91223526,0.053353999,1.844523907,-0.556405962,-1049.100098,5.100000381,-916.500061,-1.949213258,-0.561996898,-0.048383793,ST
3.266666667,-4.438818932,0.330174923,8.555238724,0.228659987,0.365855992,0.564027965,-1049.100098,0.300000012,-940.500061,-1.946677495,-0.503897017,-0.042059246,ST
3.3,-3.749160051,0.098693587,8.404506683,0.381099999,-1.836901903,0.731711984,-1053.900024,2.700000048,-923.7000122,-1.938007527,-0.442713803,-0.02141308,ST
3.333333333,-3.636709213,0.040075578,8.874647141,0.121951997,-4.138745785,-1.204275966,-1058.700073,8.100000381,-928.500061,-1.930386436,-0.397705737,-0.008291197,ST
3.366666667,-3.734206676,0.049047723,8.344094276,0.472563982,-4.740883827,-1.539644003,-1065.900024,-0.900000036,-940.500061,-1.926806527,-0.40807437,-0.006365516,ST
3.4,-3.460855246,0.380418926,8.917115211,-0.076219998,-4.001549721,-1.798792005,-1073.100098,-5.100000381,-914.1000366,-1.933225204,-0.376604807,-0.030792654,ST
3.433333333,-3.366946697,0.345128506,8.400918007,0.853663981,-3.978683949,-0.93750596,-1065.900024,-4.5,-921.3000488,-1.933783244,-0.374792793,-0.038486386,ST
3.466666667,-2.98174262,-0.029907148,8.774159431,0.060975999,-3.307947874,-0.564027965,-1068.300049,0.300000012,-906.9000244,-1.922346725,-0.337827365,-0.008814357,ST
3.5,-3.310721397,0.188415036,9.111512184,-0.861285985,-3.498497963,-1.814036012,-1094.700073,2.700000048,-923.7000122,-1.921959334,-0.341024194,-0.015238718,ST
3.533333333,-3.051725388,-0.154919028,8.539687157,-0.739333987,-2.301843882,-0.518296003,-1080.300049,-2.700000048,-923.7000122,-1.913356586,-0.339750791,0.009217415,ST
3.566666667,-3.018229485,-0.17286332,9.470397949,-1.676839948,-1.562510014,-0.625003994,-1097.100098,-5.700000286,-923.7000122,-1.910527647,-0.315964608,0.017849216,ST
3.6,-2.878862143,-0.430064797,8.661708832,-1.699705958,-1.76830399,-0.579271972,-1097.100098,-1.5,-902.1000366,-1.902952317,-0.316995404,0.04232816,ST
3.633333333,-2.957218885,-0.579600513,8.538491249,-1.501533985,-0.678357959,0.373477995,-1097.100098,-3.900000095,-911.7000122,-1.898078831,-0.327753125,0.062834893,ST
3.666666667,-2.77478528,-0.685471833,9.290356636,-2.157026052,-0.053353999,-0.137196004,-1089.900024,6.900000095,-921.3000488,-1.895843685,-0.300927507,0.073111391,ST
3.7,-2.732915163,-0.986337781,9.057081223,-2.278977871,-0.449698001,0.350611985,-1104.300049,6.300000191,-928.500061,-1.889340508,-0.293416318,0.102005809,ST
3.733333333,-2.667717695,-1.22858572,9.252075195,-2.370441914,0.198172003,0.121951997,-1101.900024,7.500000477,-923.7000122,-1.883635845,-0.28263417,0.127193254,ST
3.766666667,-2.691643476,-1.542610765,9.020594597,-2.545747995,0.525918007,0.152439997,-1092.300049,8.700000763,-918.9000244,-1.875602668,-0.285843023,0.160977306,ST
3.8,-2.709587574,-2.038471222,10.02547455,-3.437521935,0.457319975,-1.440557957,-1092.300049,6.900000095,-921.3000488,-1.865495969,-0.266579967,0.194665644,ST
3.833333333,-2.860917807,-2.078546762,9.590624809,-1.669217944,0.746955991,-0.304879993,-1085.100098,6.900000095,-930.9000244,-1.861246533,-0.279829544,0.210533864,ST
3.866666667,-3.139054298,-2.953629971,10.18338394,-2.378063917,0.868907988,-0.975615978,-1087.5,9.300000191,-916.500061,-1.845547704,-0.286300248,0.263989776,ST
3.9,-3.207242727,-2.943461657,9.722215652,-2.027451992,0.449698001,-1.189031959,-1080.300049,8.100000381,-926.1000366,-1.837392307,-0.300359458,0.288327822,ST
3.933333333,-3.583474636,-3.31610465,10.45912838,-2.76678586,-0.038109999,-0.792688012,-1092.300049,8.100000381,-928.500061,-1.83238649,-0.311127281,0.305680516,ST
3.966666667,-3.161783695,-4.114625454,10.61524296,-2.698187828,-0.769822001,-0.640248001,-1087.5,14.10000038,-926.1000366,-1.819002252,-0.281975429,0.35409411,ST
4.0,-3.287992001,-3.862209082,10.15168285,-0.472563982,-0.175305992,-1.189031959,-1077.900024,7.500000477,-935.7000122,-1.815357093,-0.289638748,0.361648228,ST
4.033333333,-2.628240108,-4.011146545,9.564904213,0.663114011,-0.945127964,-0.640248001,-1094.700073,9.900000572,-935.7000122,-1.808065317,-0.259326215,0.385808867,ST
4.066666667,-3.153409719,-3.512295485,8.478078842,-0.007622,-1.074702024,0.792688012,-1097.100098,9.900000572,-911.7000122,-1.808711158,-0.308528618,0.390271251,ST
4.1,-3.44530344,-3.655849934,9.328638077,0.708845973,0.548784018,2.355197906,-1080.300049,15.90000057,-918.9000244,-1.816074804,-0.326730645,0.37641042,ST
4.133333333,-2.826225519,-3.029594183,8.73169136,0.663114011,-2.477149963,0.754577994,-1087.5,9.300000191,-940.500061,-1.82798583,-0.303302046,0.345238722,ST
4.166666667,-3.834096432,-2.6898489,7.803971291,0.411587983,-1.897877932,2.934469938,-1099.5,12.30000019,-930.9000244,-1.837050316,-0.394064145,0.334204067,ST
4.2,-3.25688839,-3.919631004,10.51714802,-0.998481989,-1.326228023,2.789651871,-1094.700073,8.700000763,-928.500061,-1.837167745,-0.314163371,0.350439632,ST
4.233333333,-3.001481533,-2.779570341,8.293850899,0.221037999,-3.750023842,-0.015244,-1099.5,2.700000048,-930.9000244,-1.84522524,-0.321319116,0.330795336,ST
4.266666667,-2.771794558,-2.350103617,7.013824463,1.051836014,-0.586893976,1.692083955,-1097.100098,9.900000572,-918.9000244,-1.850282464,-0.348739714,0.323137303,ST
4.3,-2.531341076,-2.320196629,7.362541676,0.419209987,1.356715918,-0.152439997,-1101.900024,16.5,-935.7000122,-1.853446668,-0.327193269,0.309870334,ST
4.333333333,-2.674297333,-2.781364918,6.710566044,-0.609759986,1.028970003,-0.815553963,-1099.5,5.100000381,-918.9000244,-1.831606727,-0.346795655,0.371221773,ST
4.366666667,-2.865702868,-3.001481533,8.615053177,-1.592997909,0.518296003,-1.981719971,-1089.900024,10.5,-923.7000122,-1.836622645,-0.315776174,0.347921287,ST
4.4,-3.730617762,-2.191595793,7.467814922,0.693601966,0.434453994,0.182927996,-1092.300049,12.90000057,-916.500061,-1.852320383,-0.411523846,0.302696148,ST
4.433333333,-2.393170118,-2.142548084,5.873165607,0.525918007,3.323191881,2.164648056,-1087.5,4.5,-916.500061,-1.840807354,-0.383163442,0.335908864,ST
4.466666667,-3.630129576,-1.865009785,7.638884068,-1.150921941,3.628072023,3.315569878,-1089.900024,11.10000038,-918.9000244,-1.870975366,-0.423459438,0.269293971,ST
4.5,-3.765310049,-1.940375805,7.217193127,-1.257629991,2.286599874,2.888737917,-1082.700073,4.5,-918.9000244,-1.877154473,-0.457295029,0.264970213,ST
4.533333333,-3.331058264,-2.719756126,7.199846745,-0.853663981,3.094532013,2.19513607,-1082.700073,11.70000076,-933.3000488,-1.849964937,-0.427416029,0.334439511,ST
4.566666667,-4.251600266,-2.435039997,8.461928368,-0.853663981,2.530503988,1.387203932,-1065.900024,8.700000763,-926.1000366,-1.86844325,-0.44805481,0.294658523,ST
4.6,-4.251600266,-2.621660709,8.345889091,-0.038109999,1.486289978,1.844523907,-1068.300049,17.70000076,-911.7000122,-1.86793126,-0.45368991,0.300932532,ST
4.633333333,-3.235355377,-2.991312981,7.989395618,-0.076219998,0.777444005,0.967993975,-1063.5,17.70000076,-923.7000122,-1.852203343,-0.390165385,0.342087876,ST
4.666666667,-4.106251717,-2.66173625,8.728700638,0.038109999,1.501533985,0.007622,-1063.5,14.70000076,-928.500061,-1.863898325,-0.414835967,0.310213845,ST
4.7,-4.103260994,-2.631829023,8.804664612,1.181409955,1.059458017,0.045731999,-1044.300049,12.30000019,-942.9000244,-1.868758912,-0.419677189,0.295113431,ST
4.733333333,-3.599026203,-2.613884687,7.945133209,-0.060975999,0.556405962,0.076219998,-1068.300049,15.30000019,-926.1000366,-1.862052124,-0.410890468,0.311466347,ST
4.766666667,-4.233057976,-2.51578927,8.741261482,-0.960371971,0.602137983,0.396344006,-1063.5,18.30000114,-928.500061,-1.871470359,-0.42903035,0.290781425,ST
4.8,-3.990809917,-2.70181179,8.074332237,-1.242385983,0.72408998,0.472563982,-1056.300049,18.30000114,-923.7000122,-1.862750701,-0.436568642,0.314602583,ST
4.833333333,-4.276722431,-3.090604782,8.644960403,-1.028970003,1.821658015,1.394825935,-1051.5,19.5,-928.500061,-1.855791568,-0.43881451,0.335544847,ST
4.866666667,-4.264759541,-2.959611416,9.205420494,-0.350611985,0.91463995,0.663114011,-1053.900024,10.5,-921.3000488,-1.863953533,-0.423206217,0.317986066,ST
4.9,-3.975258112,-3.096586227,8.205325127,-0.342989981,0.106707998,2.118916035,-1049.100098,9.900000572,-926.1000366,-1.8552288,-0.425909627,0.347289977,ST
4.933333333,-4.875463486,-2.586968422,9.256262779,-1.12805593,1.105189919,1.493911982,-1041.900024,18.30000114,-930.9000244,-1.880083095,-0.45906352,0.295192538,ST
4.966666667,-3.803591251,-2.991911173,9.283179283,-0.731711984,0.182927996,1.737815976,-1041.900024,13.50000095,-928.500061,-1.878234607,-0.396672763,0.307459923,ST
5.0,-3.482388496,-2.426666021,9.342394829,0.289635986,-0.114329994,1.265251994,-1037.100098,15.90000057,-916.500061,-1.894286401,-0.361793488,0.269021639,ST
5.033333333,-2.920732021,-2.206549406,7.925992489,1.036592007,-0.388722003,1.333850026,-1049.100098,17.10000038,-914.1000366,-1.895959227,-0.347314428,0.268889389,ST
5.066666667,-1.928412914,-2.40274024,7.071844578,0.038109999,1.295740008,1.051836014,-1039.5,6.300000191,-906.9000244,-1.88367899,-0.279610262,0.312280327,ST
5.1,-2.467339754,-2.135370493,8.591127396,0.434453994,3.125020027,-0.114329994,-1039.5,9.300000191,-935.7000122,-1.895458972,-0.277842844,0.262238728,ST
5.133333333,-1.866804242,-3.079240084,8.772364616,2.903981924,1.501533985,-0.632625997,-1044.300049,13.50000095,-930.9000244,-1.880072183,-0.223851519,0.312074205,ST
5.166666667,-3.357974529,-2.438628912,9.267028809,2.218001842,1.280496001,-1.737815976,-1029.900024,12.90000057,-926.1000366,-1.886067632,-0.303897028,0.272309486,ST
5.2,-3.625344515,-1.838691473,8.969752312,3.51374197,1.920743942,0.487807989,-1017.900024,9.900000572,-928.500061,-1.902409015,-0.361429406,0.21554014,ST
5.233333333,-3.820339203,-2.08273387,9.380078316,2.644834042,1.326228023,-0.571649969,-1025.100098,9.300000191,-916.500061,-1.899689327,-0.374753805,0.214768824,ST
5.266666667,-3.846059322,-2.119220495,8.79509449,2.629590034,-0.335367978,-0.564027965,-1015.500061,11.10000038,-930.9000244,-1.892685904,-0.393260332,0.226894491,ST
5.3,-3.926210403,-2.281915426,9.732982635,1.996963978,-0.503051996,0.731711984,-1027.5,7.500000477,-938.1000366,-1.892875701,-0.37955878,0.226439391,ST
5.333333333,-4.618860245,-1.796821475,9.91063118,2.865871906,-0.137196004,0.876529992,-1032.300049,8.700000763,-921.3000488,-1.906553141,-0.414923067,0.189815168,ST
5.366666667,-4.629626751,-1.010263443,8.536696434,4.634175777,0.175305992,1.699705958,-1027.5,7.500000477,-914.1000366,-1.92986344,-0.470920398,0.13352626,ST
5.4,-4.520166397,-1.100583076,7.549760818,2.157026052,0.350611985,2.240867853,-1025.100098,2.100000143,-928.500061,-1.929686916,-0.516391743,0.137214761,ST
5.433333333,-5.548374176,-0.882859051,7.973245621,-0.053353999,1.417691946,2.294221878,-1022.700012,3.300000191,-928.500061,-1.943563792,-0.581654504,0.116887364,ST
5.466666667,-5.239732265,-0.875083148,7.565910339,-0.457319975,2.553369999,3.018311977,-1017.900024,2.700000048,-928.500061,-1.94964971,-0.60015455,0.113959731,ST
5.5,-5.030382156,-0.774595141,7.084405422,-0.205793992,3.429899931,2.286599874,-1029.900024,11.10000038,-923.7000122,-1.955464398,-0.615030182,0.108983397,ST
5.533333333,-5.1021595,-0.200377896,6.958795547,0.190549999,4.100636005,2.408551931,-1008.300049,7.500000477,-930.9000244,-1.991993429,-0.63276866,0.051037595,ST
5.566666667,-4.920323849,-0.288304925,7.384673119,1.295740008,2.995445967,2.49239397,-1010.700012,5.700000286,-928.500061,-2.000999899,-0.60482595,0.038968714,ST
5.6,-5.073448658,0.407335371,6.439607143,0.952749968,1.532021999,1.783547997,-1003.500061,-6.300000191,-914.1000366,-2.045423842,-0.650212765,-0.034053816,ST
5.633333333,-5.980831623,0.516197383,6.926495552,1.913121939,2.568614006,1.387203932,-1001.100037,3.300000191,-911.7000122,-2.065132966,-0.695733517,-0.065639653,ST
5.666666667,-5.653048992,0.375035644,7.086797714,1.836901903,2.949713945,0.411587983,-1001.100037,8.100000381,-938.1000366,-2.059980667,-0.683165733,-0.059465546,ST
5.7,-6.533515453,-0.144152462,6.778754234,0.769822001,2.568614006,0.053353999,-998.7000122,6.300000191,-923.7000122,-2.023847765,-0.745162422,-0.005377951,ST
5.733333333,-6.583759785,-0.599339247,7.956497669,0.266770005,2.530503988,0.289635986,-984.3000488,1.5,-904.500061,-1.986094976,-0.709989735,0.051385319,ST
5.766666667,-6.612470627,-0.522776961,8.003750801,1.913121939,0.289635986,0.868907988,-993.9000244,11.10000038,-904.500061,-1.980851572,-0.696055237,0.057923915,ST
5.8,-6.845148087,0.07117901,8.109622002,2.06556201,-1.021348,0.998481989,-991.500061,-1.5,-916.500061,-2.012095959,-0.698552176,0.007822197,ST
5.833333333,-6.513178825,0.314623207,7.528227329,2.713431835,-2.240867853,2.560992002,-979.500061,-3.900000095,-914.1000366,-2.038528842,-0.705842447,-0.03260428,ST
5.866666667,-6.31878233,0.221312895,6.953412056,1.440557957,-2.225623846,2.644834042,-993.9000244,0.300000012,-916.500061,-2.04296332,-0.725417254,-0.036652394,ST
5.9,-6.535310268,0.010766573,5.983822346,-0.876529992,-1.051836014,2.332331896,-989.1000366,-3.300000191,-916.500061,-2.031250838,-0.800697265,-0.013437845,ST
5.933333333,-6.437812805,-0.421092659,6.072347641,-2.111294031,0.175305992,3.018311977,-991.500061,3.300000191,-930.9000244,-1.996862431,-0.810280554,0.042879896,ST
5.966666667,-6.959393501,0.053832866,6.715949059,-3.071666002,1.707327962,2.957335949,-1003.500061,-0.900000036,-916.500061,-2.02995729,-0.807629922,0.007214416,ST
6.0,-6.691425323,0.017346146,7.016217232,-2.240867853,1.051836014,3.582340002,-1008.300049,2.700000048,-928.500061,-2.043104141,-0.776818425,-0.001288435,ST
6.033333333,-5.822921753,-0.223705471,6.985711575,-2.393307924,-0.739333987,3.056421995,-986.7000122,7.500000477,-902.1000366,-2.033773695,-0.716376474,0.022949764,ST
6.066666667,-5.761312962,-0.193200186,8.342898369,-2.19513607,-3.102154016,2.309465885,-1003.500061,3.900000095,-914.1000366,-2.039322922,-0.631189156,0.023639548,ST
6.1,-5.254685879,0.111852735,7.233941078,-1.189031959,-4.260697842,1.943609953,-996.3000488,2.100000143,-926.1000366,-2.059940891,-0.623837453,-0.004484751,ST
6.133333333,-5.010045528,0.112450875,7.708866596,-1.974097967,-2.827761889,1.486289978,-1010.700012,0.300000012,-926.1000366,-2.067713117,-0.585738818,-0.010635566,ST
6.166666667,-4.870678425,-0.023925718,7.898478031,-2.080806017,-1.920743942,0.899396002,-1017.900024,2.100000143,-918.9000244,-2.064749668,-0.560210848,0.000819929,ST
6.2,-5.200254917,-0.522178829,8.577968597,-2.843005896,-0.762199998,0.144817993,-1020.300049,2.100000143,-926.1000366,-2.042958439,-0.547782517,0.047922486,ST
6.233333333,-5.498728275,-0.327782363,8.664699554,-2.027451992,0.518296003,-0.411587983,-1017.900024,5.700000286,-918.9000244,-2.04638698,-0.560548339,0.04369149,ST
6.266666667,-5.82710886,-0.130395174,9.638475418,-1.463423967,1.821658015,-1.493911982,-1008.300049,0.300000012,-918.9000244,-2.055197939,-0.550826649,0.025131205,ST
6.3,-5.642880917,-0.381017059,8.470900536,-0.990859985,2.050318003,-0.975615978,-1005.900024,11.70000076,-926.1000366,-2.046131684,-0.578713448,0.040936848,ST
6.333333333,-5.979037285,-0.133385882,8.8890028,-2.134160042,2.660078049,-1.105189919,-1003.500061,8.700000763,-914.1000366,-2.054619195,-0.591538356,0.026147139,ST
6.366666667,-5.373118401,0.493467957,9.024781227,-2.202757835,1.684461951,0.342989981,-989.1000366,9.900000572,-916.500061,-2.086840143,-0.55539486,-0.028537756,ST
6.4,-4.333545685,0.189013183,8.749635696,-1.592997909,0.746955991,1.532021999,-998.7000122,5.700000286,-923.7000122,-2.087705058,-0.488167773,-0.022586526,ST
6.433333333,-4.743273735,-0.144750595,8.20173645,-2.25611186,1.227141976,0.221037999,-1001.100037,9.900000572,-928.500061,-2.074997897,-0.515470857,0.008580022,ST
6.466666667,-5.366538525,-0.547898948,8.248391151,-3.132642031,1.920743942,-0.602137983,-993.9000244,11.10000038,-923.7000122,-2.054085709,-0.560092019,0.052869981,ST
6.5,-5.385081291,-0.653172135,8.352468491,-2.393307924,1.890255928,-0.678357959,-981.9000244,20.10000038,-935.7000122,-2.0431204,-0.570906277,0.075532432,ST
6.533333333,-5.106346607,-0.940280735,6.660920143,-0.739333987,1.295740008,-2.057940006,-981.9000244,11.70000076,-916.500061,-2.014061117,-0.627182131,0.122802084,ST
6.566666667,-5.621347427,-1.300961018,6.113619328,-0.815553963,1.669217944,-2.911603928,-986.7000122,3.900000095,-914.1000366,-1.971586681,-0.702481639,0.186096868,ST
6.6,-5.871371269,-1.529451609,5.891708374,-0.899396002,2.370441914,-3.475631952,-986.7000122,16.5,-906.9000244,-1.932960211,-0.749930928,0.238206236,ST
6.633333333,-6.308015823,-1.564741969,5.258275032,-0.411587983,2.324709892,-3.765267849,-974.7000122,14.70000076,-916.500061,-1.899593474,-0.824888452,0.27875202,ST
6.666666667,-6.313398838,-2.397356987,5.687143326,-0.548784018,2.309465885,-3.727157831,-972.3000488,10.5,-909.3000488,-1.828779118,-0.807117906,0.369854002,ST
6.7,-6.332539558,-2.689250708,6.632807255,-1.12805593,1.288118005,-4.786615849,-972.3000488,15.90000057,-904.500061,-1.811351372,-0.748482696,0.38806958,ST
6.733333333,-6.158480167,-2.985929728,7.018609524,-0.320124,-1.44817996,-4.870458126,-974.7000122,18.30000114,-921.3000488,-1.79629842,-0.694144351,0.403282282,ST
6.766666667,-5.854025364,-3.138456106,7.019805908,0.0,-3.025933981,-4.634175777,-981.9000244,14.10000038,-921.3000488,-1.782762507,-0.658104707,0.418360111,ST
6.8,-5.685946941,-2.956620693,6.586152077,0.40396598,-4.230209827,-3.696669817,-972.3000488,11.10000038,-916.500061,-1.777533556,-0.657849539,0.422121893,ST
6.833333333,-5.343809128,-3.014042377,6.287678719,0.121951997,-3.460387945,-1.966475964,-981.9000244,27.30000114,-928.500061,-1.766245055,-0.650284691,0.439676857,ST
6.866666667,-5.368931293,-3.189298391,7.104144096,-0.289635986,-1.859767914,-1.112811923,-989.1000366,20.70000076,-926.1000366,-1.773285947,-0.615010895,0.427766178,ST
6.9,-5.686545372,-3.110941648,6.814044952,0.144817993,-1.250007987,-1.471045971,-993.9000244,17.70000076,-914.1000366,-1.771450066,-0.636868554,0.428696082,ST
6.933333333,-5.991000175,-3.444107294,6.951019287,-0.251525998,-0.045731999,-0.952749968,-991.500061,13.50000095,-914.1000366,-1.756809556,-0.650863782,0.451581004,ST
6.966666667,-5.528635502,-3.130680323,7.64187479,-0.541162014,-0.884151995,-1.181409955,-993.9000244,18.30000114,-911.7000122,-1.783070729,-0.604383474,0.406150715,ST
7.0,-5.602805138,-3.051127195,7.394841671,-0.221037999,-1.493911982,-0.586893976,-1008.300049,16.5,-921.3000488,-1.789106999,-0.607054731,0.396039385,ST
7.033333333,-5.363547802,-3.121708155,7.77286768,0.182927996,-1.63872993,-0.464941978,-1010.700012,22.5,-923.7000122,-1.794983343,-0.57875174,0.385724004,ST
7.066666667,-5.218797207,-3.078641891,7.385271072,0.899396002,-1.280496001,-0.594515979,-998.7000122,21.90000153,-928.500061,-1.791085085,-0.576477559,0.391133166,ST
7.1,-5.109935284,-2.925517321,7.265044689,1.844523907,-0.327746004,-0.72408998,-1001.100037,24.90000153,-921.3000488,-1.79271613,-0.576905587,0.383503788,ST
7.133333333,-5.590842247,-3.006864786,7.794401169,1.364337921,-0.121951997,-0.228659987,-1013.100037,20.10000038,-911.7000122,-1.7978874,-0.585668321,0.371289379,ST
7.166666667,-4.966979027,-3.146232128,7.630509853,1.592997909,-0.663114011,-0.038109999,-1017.900024,15.90000057,-918.9000244,-1.790275353,-0.554193484,0.383190528,ST
7.2,-4.98193264,-3.156998634,8.217288017,1.966475964,-0.602137983,0.541162014,-998.7000122,16.5,-926.1000366,-1.797253797,-0.525293274,0.368229092,ST
7.233333333,-4.875463486,-3.270645857,8.149100304,2.36281991,-0.647870004,0.861285985,-1008.300049,14.10000038,-918.9000244,-1.793753223,-0.511561043,0.374285478,ST
7.266666667,-4.892809391,-3.560745001,8.045022964,2.050318003,0.076219998,1.082324028,-1008.300049,15.90000057,-906.9000244,-1.779563843,-0.509277066,0.402715308,ST
7.3,-5.026195526,-3.100773096,8.138333321,2.218001842,0.487807989,1.55488801,-1020.300049,12.90000057,-916.500061,-1.79460831,-0.520495548,0.372153023,ST
7.333333333,-5.130272388,-3.020023823,8.327346802,2.035073996,1.676839948,2.23324585,-1003.500061,17.70000076,-916.500061,-1.805321364,-0.526511594,0.351668061,ST
7.366666667,-5.03397131,-2.807682991,7.571293831,1.501533985,2.179892063,1.592997909,-1005.900024,11.70000076,-916.500061,-1.805076055,-0.552223916,0.351692271,ST
7.4,-4.919127941,-2.695232153,7.89309454,1.272873998,3.239349842,2.202757835,-998.7000122,17.10000038,-921.3000488,-1.815395613,-0.542838624,0.332508362,ST
7.433333333,-4.618261814,-2.292083979,7.602995396,1.135677934,2.774407864,2.705809832,-998.7000122,8.700000763,-933.3000488,-1.832560176,-0.535901054,0.302015583,ST
7.466666667,-4.905968666,-2.030097246,7.294951916,1.310984015,2.25611186,3.635694027,-984.3000488,11.70000076,-918.9000244,-1.849994743,-0.56933479,0.275182168,ST
7.5,-6.019711018,-2.186810732,6.723725319,0.190549999,3.468009949,3.468009949,-974.7000122,11.70000076,-904.500061,-1.838599911,-0.673196963,0.300625124,ST
7.533333333,-6.319978714,-1.90628159,6.5329175,-0.792688012,4.123501778,3.208861828,-991.500061,7.500000477,-899.7000122,-1.850757183,-0.734921242,0.287551268,ST
7.566666667,-6.456355095,-1.938581347,7.178912163,-1.486289978,3.041177988,3.224105835,-972.3000488,14.10000038,-909.3000488,-1.866988577,-0.725663528,0.270136385,ST
7.6,-5.935372829,-2.073761702,6.874457359,-1.074702024,0.579271972,2.621968031,-960.3000488,9.300000191,-926.1000366,-1.861340383,-0.701586935,0.285937575,ST
7.633333333,-5.74456501,-1.934992552,7.305119991,-0.586893976,-1.974097967,2.553369999,-960.3000488,8.700000763,-909.3000488,-1.879813681,-0.663316906,0.264267495,ST
7.666666667,-5.708676338,-1.827924967,5.999972343,0.0,-3.102154016,3.10977602,-962.7000122,10.5,-923.7000122,-1.873699254,-0.714133794,0.282243191,ST
7.7,-5.584262848,-1.825532317,7.096368313,-0.434453994,-2.278977871,3.582340002,-962.7000122,14.70000076,-914.1000366,-1.89556321,-0.668619774,0.257197667,ST
7.733333333,-5.400034904,-1.355391979,7.071844578,0.72408998,-4.016793728,3.346057892,-991.500061,9.300000191,-916.500061,-1.93254842,-0.647379183,0.204795303,ST
7.766666667,-5.679965496,-0.849961162,7.37091589,1.882633924,-4.085391998,4.054903984,-986.7000122,11.70000076,-918.9000244,-1.978849511,-0.647837391,0.135487702,ST
7.8,-5.564524174,-0.473729223,7.265642643,2.179892063,-3.445143938,4.557955742,-986.7000122,10.5,-904.500061,-2.018791635,-0.647709994,0.077144966,ST
7.833333333,-5.820529461,-0.171068892,7.10055542,2.23324585,-2.416173935,4.222588062,-991.500061,9.300000191,-914.1000366,-2.050944546,-0.673599725,0.031122606,ST
7.866666667,-6.108235836,-0.020935005,7.937955379,1.219519973,-0.411587983,2.774407864,-996.3000488,6.300000191,-904.500061,-2.069037933,-0.660299963,0.006095512,ST
7.9,-6.426447868,0.404942781,7.788419724,1.562510014,-0.495429993,1.516777992,-1005.900024,7.500000477,-926.1000366,-2.096510332,-0.680046314,-0.037525457,ST
7.933333333,-5.927597046,0.206957474,7.250091076,1.371959925,0.365855992,1.288118005,-989.1000366,11.10000038,-916.500061,-2.094674811,-0.684031022,-0.034215378,ST
7.966666667,-5.765500069,0.311632484,7.186089516,1.714949965,0.632625997,0.442075998,-1003.500061,11.10000038,-916.500061,-2.099200373,-0.678761782,-0.043492245,ST
8.0,-5.781051636,-0.452794224,8.048013687,0.091463998,0.83079797,-0.746955991,-979.500061,3.900000095,-926.1000366,-2.054354417,-0.640775244,0.027854269,ST
8.033333333,-5.946737289,-0.075366013,8.374001503,-0.29725799,0.320124,-0.564027965,-981.9000244,6.900000095,-916.500061,-2.061539042,-0.624004559,0.014794292,ST
8.066666667,-4.889220715,0.1740596,8.177810669,0.53354001,-0.091463998,-0.853663981,-998.7000122,5.700000286,-904.500061,-2.074335754,-0.563211363,-0.011240492,ST
8.1,-5.024999142,-0.139367312,7.44628191,0.388722003,0.243903995,-0.762199998,-998.7000122,6.900000095,-930.9000244,-2.061485837,-0.584770534,0.009708982,ST
8.133333333,-4.943053722,-0.563450694,7.775260448,-0.518296003,1.410069942,-1.760681987,-1001.100037,12.90000057,-906.9000244,-2.034149667,-0.572859443,0.055793309,ST
8.166666667,-4.783349514,-0.864914715,7.982816219,-1.798792005,1.646351933,-3.612828016,-991.500061,9.300000191,-923.7000122,-2.008118618,-0.549735877,0.097570921,ST
8.2,-5.007054806,-0.851157427,7.63469696,-1.478667974,1.440557957,-3.38416791,-972.3000488,3.900000095,-911.7000122,-1.996937264,-0.570556241,0.111465622,ST
8.233333333,-5.43652153,-1.169967651,7.622136116,-1.432935953,1.310984015,-2.759163857,-989.1000366,11.10000038,-906.9000244,-1.974853234,-0.603918475,0.145770251,ST
8.266666667,-5.960494518,-1.707698226,7.737577438,-2.096050024,2.370441914,-1.882633924,-969.9000244,6.900000095,-918.9000244,-1.942329284,-0.63525072,0.199891752,ST
8.3,-4.810863972,-1.571321607,6.986907959,-0.983237982,2.271355867,-2.560992002,-974.7000122,8.100000381,-914.1000366,-1.928178845,-0.606744979,0.218741267,ST
8.333333333,-5.495139599,-1.446907878,7.070049763,-1.455801964,2.500015974,-2.835383892,-984.3000488,10.5,-897.3000488,-1.929013901,-0.641040858,0.211557844,ST
8.366666667,-6.88642025,-2.266363621,7.043731689,-1.905499935,3.849109888,-2.278977871,-974.7000122,9.300000191,-911.7000122,-1.878488162,-0.723949818,0.288033394,ST
8.4,-5.621945858,-2.119818687,5.776266575,-1.051836014,3.902463913,-3.353679895,-969.9000244,12.30000019,-911.7000122,-1.840278982,-0.738820375,0.338577009,ST
8.433333333,-6.055001259,-2.472723007,5.665610313,-1.55488801,3.361301899,-3.468009949,-953.1000366,17.70000076,-904.500061,-1.797118282,-0.766629543,0.396179685,ST
8.466666667,-7.549162388,-2.749663353,6.007748127,-0.670735955,2.507637978,-3.361301899,-955.500061,21.30000114,-897.3000488,-1.771413086,-0.829554205,0.426057278,ST
8.5,-7.419365406,-3.393863201,6.903168201,-0.480185986,2.004585981,-2.987823963,-953.1000366,13.50000095,-897.3000488,-1.747251041,-0.785102922,0.454148243,ST
8.533333333,-6.523945332,-3.146232128,7.241716862,0.769822001,-1.592997909,-4.222588062,-953.1000366,16.5,-894.9000244,-1.762822574,-0.711178907,0.423606316,ST
8.566666667,-6.032271862,-3.270645857,6.471907139,1.707327962,-3.948195934,-2.545747995,-950.7000122,18.30000114,-899.7000122,-1.740896744,-0.693514945,0.453260833,ST
8.6,-5.288181782,-3.68515873,5.825912476,0.853663981,-4.298808098,-2.06556201,-965.1000366,19.5,-911.7000122,-1.69195888,-0.661034682,0.530114906,ST
8.633333333,-5.532822609,-3.526052713,6.616657734,0.327746004,-3.78813386,-1.028970003,-965.1000366,17.10000038,-897.3000488,-1.711661806,-0.637921719,0.499315903,ST
8.666666667,-5.637497425,-3.869985104,6.985711575,-0.045731999,-2.278977871,0.182927996,-960.3000488,11.10000038,-902.1000366,-1.711351801,-0.619342667,0.502903037,ST
8.7,-6.388764858,-3.713271618,6.906158924,-0.205793992,-0.571649969,0.251525998,-981.9000244,15.30000019,-921.3000488,-1.716272081,-0.66382267,0.496190347,ST
8.733333333,-6.101058483,-3.536819458,7.155584335,-0.609759986,0.304879993,1.318606019,-965.1000366,16.5,-909.3000488,-1.73443051,-0.657136541,0.469922571,ST
8.766666667,-5.92101717,-3.246121883,8.184390068,-0.998481989,0.099086002,1.676839948,-974.7000122,18.90000153,-911.7000122,-1.778724822,-0.610446389,0.400900655,ST
8.8,-5.611179352,-3.488369703,7.23932457,0.289635986,-1.082324028,2.400929928,-969.9000244,14.10000038,-918.9000244,-1.763910799,-0.609922414,0.433121431,ST
8.833333333,-6.004158974,-3.407022476,6.972552776,0.099086002,-0.571649969,2.012207985,-974.7000122,14.70000076,-916.500061,-1.75918111,-0.644287452,0.445964686,ST
8.866666667,-5.456858158,-3.261075497,7.18010807,-0.594515979,0.586893976,1.859767914,-965.1000366,20.10000038,-921.3000488,-1.770284435,-0.618652787,0.431582698,ST
8.9,-5.567514896,-3.035575628,6.626227856,0.045731999,0.518296003,2.050318003,-977.1000366,13.50000095,-909.3000488,-1.774257063,-0.643800627,0.428673996,ST
8.933333333,-5.651254654,-2.565435171,6.847540855,1.158543944,0.876529992,2.881115913,-960.3000488,21.30000114,-899.7000122,-1.807962268,-0.656288007,0.3761766,ST
8.966666667,-5.490952492,-2.533135414,7.087396145,1.532021999,0.907018006,2.87349391,-962.7000122,19.5,-914.1000366,-1.826031913,-0.640410898,0.348986491,ST
9.0,-5.7631073,-2.353094339,6.579572678,1.74543798,-0.152439997,2.881115913,-972.3000488,15.90000057,-916.500061,-1.833229471,-0.675825793,0.340412725,ST
9.033333333,-5.796005249,-2.034284353,7.410393238,1.486289978,0.29725799,2.522881985,-969.9000244,12.30000019,-906.9000244,-1.869459602,-0.656255685,0.284339285,ST
9.066666667,-6.264949322,-1.658650517,7.902665138,1.34147191,-0.236281991,2.743919849,-948.3000488,12.30000019,-914.1000366,-1.907368471,-0.659611911,0.22605679,ST
9.1,-5.892306328,-1.312923789,7.273418427,2.378063917,-1.242385983,2.957335949,-957.9000244,12.30000019,-906.9000244,-1.933138416,-0.668346456,0.187077888,ST
9.133333333,-5.364744186,-1.015048623,6.659125805,2.332331896,-0.72408998,2.49239397,-969.9000244,15.90000057,-904.500061,-1.953728502,-0.671071844,0.155596348,ST
9.166666667,-5.915035725,-1.136471629,7.013226509,1.250007987,0.198172003,1.699705958,-967.500061,11.10000038,-918.9000244,-1.954440067,-0.688784327,0.155964466,ST
9.2,-5.92101717,-0.942673326,6.372016907,0.823175967,-0.609759986,1.410069942,-969.9000244,11.10000038,-892.500061,-1.96121939,-0.726425144,0.147153342,ST
9.233333333,-5.49274683,-1.352401257,7.363140106,-0.106707998,-0.525918007,1.204275966,-957.9000244,12.90000057,-918.9000244,-1.947911714,-0.66076105,0.170840355,ST
9.266666667,-5.649460316,-1.229781985,6.813446522,0.312501997,-1.577754021,0.586893976,-962.7000122,5.100000381,-911.7000122,-1.946151931,-0.675522915,0.175006277,ST
9.3,-6.494636536,-0.879270196,7.642472744,0.205793992,-1.600619912,1.082324028,-969.9000244,13.50000095,-916.500061,-1.975159071,-0.69189727,0.131516489,ST
9.333333333,-6.303230762,-0.837998331,7.029974461,0.907018006,-1.501533985,2.210379839,-969.9000244,12.30000019,-918.9000244,-1.985382067,-0.715261147,0.119017988,ST
9.366666667,-6.44379425,-1.262679815,7.128667831,0.007622,-0.548784018,2.240867853,-986.7000122,17.70000076,-906.9000244,-1.964132007,-0.723598725,0.1557711,ST
9.4,-6.141133785,-0.85893333,7.318279266,-0.320124,-0.952749968,1.875011921,-972.3000488,5.700000286,-897.3000488,-1.986130496,-0.702697473,0.12666698,ST
9.433333333,-5.956905842,-0.486888379,7.108929157,-0.106707998,-0.853663981,1.692083955,-981.9000244,6.900000095,-928.500061,-2.015948003,-0.697584809,0.084191222,ST
9.466666667,-6.558637619,-1.114340305,6.066366196,0.129574001,0.083841994,2.46952796,-977.1000366,10.5,-914.1000366,-1.976666573,-0.781300814,0.146937401,ST
9.5,-6.604096413,-0.651377678,7.567704678,-0.693601966,1.486289978,0.487807989,-972.3000488,3.300000191,-928.500061,-2.007478695,-0.737494536,0.103941629,ST
9.533333333,-6.581965446,-1.192697048,8.356057167,-0.609759986,0.846041977,0.419209987,-977.1000366,9.900000572,-906.9000244,-1.990656975,-0.686074301,0.131422457,ST
9.566666667,-6.31220293,-0.308641762,7.367925167,1.082324028,-1.04421401,0.022865999,-969.9000244,6.300000191,-923.7000122,-2.03176828,-0.701056112,0.065405861,ST
9.6,-5.344407558,-0.472532958,7.041937351,1.013725996,-1.310984015,0.053353999,-967.500061,10.5,-906.9000244,-2.030960507,-0.661702983,0.065206644,ST
9.633333333,-5.778060913,-0.956430614,7.27700758,0.068598002,-1.12805593,-0.342989981,-974.7000122,9.900000572,-914.1000366,-2.002308752,-0.664183428,0.111069669,ST
9.666666667,-5.842660427,-0.338548928,8.125772476,-0.045731999,-0.777444005,-1.257629991,-972.3000488,17.10000038,-930.9000244,-2.029656572,-0.634568116,0.063239598,ST
9.7,-5.602207184,-1.0730685,7.583256721,-0.342989981,-0.548784018,-0.868907988,-977.1000366,7.500000477,-904.500061,-1.996134119,-0.632010697,0.118510274,ST
9.733333333,-5.606394291,-1.111947775,7.291961193,-0.708845973,0.289635986,-1.989341974,-974.7000122,6.300000191,-909.3000488,-1.978840327,-0.644600404,0.144062811,ST
9.766666667,-6.193770409,-1.21423018,7.873954296,-1.181409955,0.746955991,-2.157026052,-989.1000366,11.70000076,-904.500061,-1.97106851,-0.656452608,0.153836206,ST
9.8,-5.934774399,-1.375728846,7.409795284,-1.112811923,0.625003994,-1.85214591,-977.1000366,11.10000038,-914.1000366,-1.954277043,-0.66456744,0.17868099,ST
9.833333333,-5.985616684,-1.149032593,7.637089252,-1.112811923,0.61738199,-2.17227006,-969.9000244,9.300000191,-911.7000122,-1.963304943,-0.661079369,0.160686131,ST
9.866666667,-4.87665987,-1.352401257,6.397737026,-0.701223969,0.42683199,-1.189031959,-962.7000122,14.70000076,-902.1000366,-1.940289789,-0.646989547,0.196858055,ST
9.9,-6.152498722,-1.469039083,7.717838764,-1.394825935,0.472563982,-1.821658015,-965.1000366,11.70000076,-923.7000122,-1.940758606,-0.659957657,0.194087139,ST
9.933333333,-6.102852821,-1.540816307,5.654245377,-0.373477995,1.04421401,-1.265251994,-955.500061,18.30000114,-914.1000366,-1.904121981,-0.768329317,0.247648003,ST
9.966666667,-5.324070454,-2.226886272,7.71664238,-1.875011921,1.707327962,-2.560992002,-960.3000488,9.300000191,-909.3000488,-1.883172264,-0.641668929,0.277551165,ST
10.0,-5.724826336,-2.243634224,7.354765892,-0.640248001,-0.640248001,-2.57623601,-962.7000122,13.50000095,-918.9000244,-1.870941103,-0.638806182,0.293679326,ST
10.03333333,-6.592731953,-2.549285412,7.643070698,0.243903995,-0.396344006,-1.890255928,-979.500061,17.10000038,-916.500061,-1.854716187,-0.67225084,0.315713466,ST
10.06666667,-4.978941917,-2.749065161,6.940851212,0.891773999,-1.349093914,-1.890255928,-967.500061,11.70000076,-902.1000366,-1.825577364,-0.611339618,0.359692915,ST
10.1,-5.612375736,-3.257486582,7.190276623,0.29725799,-1.791170001,-2.454283953,-974.7000122,15.30000019,-918.9000244,-1.796059988,-0.613104309,0.406531525,ST
10.13333333,-5.4293437,-2.950041056,6.760211945,0.846041977,-1.714949965,-2.111294031,-977.1000366,23.10000038,-909.3000488,-1.791410586,-0.625149865,0.410033989,ST
10.16666667,-6.18001318,-3.77248764,6.328950882,0.663114011,-0.083841994,-1.318606019,-969.9000244,15.30000019,-911.7000122,-1.735985057,-0.675942775,0.497808529,ST
10.2,-6.120797157,-3.446499825,6.322969437,0.228659987,1.585376024,-1.196653962,-972.3000488,20.70000076,-916.500061,-1.731338706,-0.698400032,0.500422159,ST
10.23333333,-6.11661005,-3.265262365,8.304018974,-0.045731999,1.585376024,-0.419209987,-969.9000244,15.90000057,-916.500061,-1.786660346,-0.62994975,0.408521277,ST
10.26666667,-5.696115494,-3.204252005,7.437309742,0.495429993,-1.265251994,1.227141976,-960.3000488,15.30000019,-909.3000488,-1.790503432,-0.616788775,0.405178077,ST
10.3,-5.705685616,-2.980546474,6.971954346,0.243903995,-1.623485923,1.791170001,-977.1000366,16.5,-909.3000488,-1.795677192,-0.636648445,0.401851703,ST
10.33333333,-5.964681625,-3.146830082,7.082611084,-0.129574001,0.091463998,2.355197906,-974.7000122,20.10000038,-909.3000488,-1.792998921,-0.652199393,0.411900908,ST
10.36666667,-5.743368626,-2.589959145,6.872662544,0.304879993,0.022865999,2.187514067,-960.3000488,11.70000076,-914.1000366,-1.818727498,-0.661389354,0.373718723,ST
10.4,-5.665011883,-2.483489513,8.176614761,0.0,-0.274392009,2.721053839,-972.3000488,16.5,-928.500061,-1.859162755,-0.606373187,0.312326725,ST
10.43333333,-5.138646126,-2.12998724,6.763800621,0.945127964,-1.85214591,3.300325871,-960.3000488,17.10000038,-926.1000366,-1.869564285,-0.620651135,0.302403825,ST
10.46666667,-4.922118664,-2.01215291,6.900775433,1.089946032,-2.149404049,3.826243877,-967.500061,9.300000191,-909.3000488,-1.884935519,-0.605341454,0.284314516,ST
10.5,-5.356968403,-1.862617254,7.796793461,0.929883957,-1.143299937,3.460387945,-969.9000244,18.30000114,-897.3000488,-1.911261263,-0.593840362,0.245230416,ST
10.53333333,-5.341416836,-1.495955586,8.167043686,0.998481989,-0.53354001,2.690565825,-977.1000366,12.90000057,-902.1000366,-1.942173639,-0.577997598,0.19504061,ST
10.56666667,-5.162571907,-0.897214472,6.753632069,1.821658015,-1.097568035,2.682943821,-979.500061,12.30000019,-909.3000488,-1.971571842,-0.626631549,0.147177133,ST
10.6,-5.343211174,-1.530049682,7.395439625,1.532021999,-0.083841994,3.033555984,-979.500061,13.50000095,-902.1000366,-1.95271403,-0.619362574,0.18448102,ST
10.63333333,-5.903072834,-1.077255487,7.880533695,0.83079797,0.243903995,1.303362012,-979.500061,9.900000572,-914.1000366,-1.974685676,-0.633394961,0.14852868,ST
10.66666667,-5.797799587,-0.663938701,8.176015854,0.716467977,-0.045731999,1.410069942,-962.7000122,12.30000019,-916.500061,-2.004947768,-0.621109098,0.099053612,ST
10.7,-5.47360611,-0.137572885,7.387663841,0.998481989,-1.150921941,1.722571969,-974.7000122,4.5,-916.500061,-2.043612948,-0.632397303,0.035993336,ST
10.73333333,-5.37251997,-0.732127011,6.736286163,0.586893976,-0.815553963,2.23324585,-984.3000488,13.50000095,-930.9000244,-2.016338749,-0.659856642,0.085861542,ST
10.76666667,-5.626730919,-0.766221166,8.911133766,-0.838419974,-0.228659987,-0.114329994,-974.7000122,9.900000572,-904.500061,-2.016479902,-0.587000674,0.087044416,ST
10.8,-6.324763775,-1.054526091,8.042032242,-0.434453994,-0.40396598,0.449698001,-977.1000366,3.900000095,-921.3000488,-1.999776574,-0.641208475,0.118114448,ST
10.83333333,-4.596728802,-0.223107323,7.894290924,0.259148002,-1.440557957,-0.282013983,-965.1000366,9.900000572,-911.7000122,-2.036298982,-0.558526594,0.052673287,ST
10.86666667,-5.313902378,-0.495860517,5.75892067,0.53354001,-0.259148002,0.571649969,-981.9000244,0.900000036,-918.9000244,-2.024348548,-0.687144511,0.073838491,ST
10.9,-5.953915119,-1.164584398,7.964273453,-1.463423967,2.339953899,-0.998481989,-972.3000488,10.5,-911.7000122,-1.990961035,-0.654983038,0.127400048,ST
10.93333333,-5.972457409,-1.325484872,7.647856236,-1.608241916,1.227141976,-1.913121939,-974.7000122,6.900000095,-909.3000488,-1.968566691,-0.65681033,0.162238441,ST
10.96666667,-5.468223095,-1.147836328,7.278801918,-1.280496001,-0.045731999,-1.989341974,-965.1000366,8.700000763,-904.500061,-1.967662889,-0.643503277,0.161509592,ST
11.0,-5.714657784,-1.251315117,8.625221252,-1.42531395,0.152439997,-1.387203932,-977.1000366,18.30000114,-904.500061,-1.972644828,-0.599280705,0.152104941,ST
11.03333333,-5.416782856,-1.336251378,6.370820999,0.571649969,-0.472563982,-0.190549999,-977.1000366,10.5,-918.9000244,-1.94927158,-0.667434261,0.190320723,ST
11.06666667,-6.196163177,-1.83330822,7.757316113,-1.150921941,0.868907988,-1.737815976,-969.9000244,20.10000038,-909.3000488,-1.927477661,-0.663372051,0.223395569,ST
11.1,-5.655441761,-2.061200619,7.632304192,-1.364337921,0.884151995,-2.027451992,-986.7000122,12.30000019,-921.3000488,-1.905272091,-0.632615583,0.257331351,ST
11.13333333,-4.921520233,-1.973273635,6.635200024,-1.089946032,-1.189031959,-2.324709892,-955.500061,13.50000095,-914.1000366,-1.888215213,-0.619841253,0.283544577,ST
11.16666667,-5.916830063,-2.674297333,8.252578735,-1.966475964,0.335367978,-1.753059983,-979.500061,16.5,-909.3000488,-1.872536761,-0.603929204,0.309775673,ST
11.2,-5.486765385,-2.819047928,7.184295177,-1.097568035,-0.060975999,-0.975615978,-967.500061,13.50000095,-918.9000244,-1.844032574,-0.614020171,0.359210677,ST
11.23333333,-4.594336033,-2.330963135,7.515068054,-1.036592007,-0.739333987,-1.089946032,-972.3000488,19.5,-911.7000122,-1.866510788,-0.550761896,0.318209494,ST
11.26666667,-5.295958042,-2.839982748,7.21300602,-1.318606019,0.647870004,0.327746004,-977.1000366,15.30000019,-916.500061,-1.845849052,-0.585717137,0.359155966,ST
11.3,-4.871276379,-2.813066483,6.297249317,-0.990859985,-0.190549999,0.381099999,-979.500061,14.70000076,-916.500061,-1.823160602,-0.606266907,0.402373124,DLL
11.33333333,-6.267342091,-2.98892045,7.197454453,-0.990859985,-0.083841994,0.472563982,-972.3000488,14.10000038,-904.500061,-1.827865773,-0.656002534,0.397236328,DLL
11.36666667,-6.426447868,-3.149820805,7.753129005,-1.288118005,0.175305992,1.471045971,-967.500061,18.90000153,-916.500061,-1.835610063,-0.65610833,0.389660851,DLL
11.4,-5.824118137,-2.965592861,8.070743561,-1.250007987,-1.211897969,1.623485923,-972.3000488,15.90000057,-911.7000122,-1.855897377,-0.612200524,0.362426896,DLL
11.43333333,-6.013131142,-2.866899252,6.379793167,-1.074702024,-2.522881985,4.153989792,-979.500061,17.10000038,-911.7000122,-1.841003393,-0.679731945,0.400131235,DLL
11.46666667,-5.996981621,-2.596538544,6.569404125,-2.06556201,-1.646351933,4.420759678,-974.7000122,22.5,-906.9000244,-1.861431738,-0.696827693,0.381424653,DLL
11.5,-6.624433517,-2.906974792,7.050909519,-4.016793728,-1.250007987,6.867421627,-986.7000122,20.10000038,-911.7000122,-1.872373254,-0.711659322,0.385993899,DLL
11.53333333,-6.287080765,-2.568425894,6.530524731,-4.047281742,-3.208861828,9.001582146,-981.9000244,20.70000076,-911.7000122,-1.898708968,-0.725531817,0.372593801,DLL
11.56666667,-4.893407822,-2.76521492,7.154387951,-5.152472019,-3.894841909,10.82323933,-984.3000488,24.90000153,-923.7000122,-1.924113106,-0.615666501,0.365782113,DLL
11.6,-6.211714745,-2.324383497,6.561628342,-4.908567905,-4.367405891,10.57933617,-991.500061,23.70000076,-911.7000122,-1.962025039,-0.699535068,0.342016872,DLL
11.63333333,-6.704584599,-2.036676884,6.551459789,-5.754610062,-2.538125992,12.24093151,-998.7000122,29.70000076,-909.3000488,-2.007452265,-0.753281378,0.307681676,DLL
11.66666667,-7.336223602,-2.243634224,8.774757385,-8.22413826,-0.518296003,14.31411552,-991.500061,24.90000153,-933.3000488,-2.065248166,-0.706995958,0.261874843,DLL
11.7,-6.309810162,-2.341729641,6.976739407,-6.432967663,-3.132642031,15.67083168,-991.500061,29.10000038,-921.3000488,-2.070949598,-0.710157411,0.296330011,DLL
11.73333333,-3.980043411,-2.77239275,7.775260448,-7.667731762,-4.458869934,15.8690033,-991.500061,26.70000076,-926.1000366,-2.084220205,-0.529322312,0.326780282,DLL
11.76666667,-4.75643301,-1.892524362,7.739970207,-6.821690083,-4.885701656,12.3095293,-998.7000122,32.70000076,-923.7000122,-2.141079121,-0.534483229,0.26500143,DLL
11.8,-5.23375082,-1.475020528,7.282989025,-5.586925983,-3.818621874,11.37202358,-1003.500061,33.90000153,-906.9000244,-2.188771184,-0.588697839,0.21789113,DLL
11.83333333,-5.325266838,-1.491170406,7.821317673,-5.411619663,-3.361301899,11.46348763,-979.500061,25.50000191,-904.500061,-2.224182568,-0.588103535,0.194190497,DLL
11.86666667,-4.161280632,-1.572517872,8.65632534,-5.061007977,-3.269837856,9.550365448,-1005.900024,35.10000229,-930.9000244,-2.2491886,-0.484172494,0.183086479,DLL
11.9,-4.880248547,-0.992917359,7.869767189,-4.237832069,-4.458869934,8.399443626,-998.7000122,35.10000229,-909.3000488,-2.288763286,-0.53002871,0.140158973,DLL
11.93333333,-3.604409456,-1.580891848,8.670680046,-2.903981924,-3.361301899,7.416205883,-1001.100037,32.10000229,-918.9000244,-2.290636716,-0.426495239,0.168199267,DLL
11.96666667,-4.187598705,-0.004785144,8.766383171,-1.714949965,-2.721053839,3.117398024,-1013.100037,33.90000153,-906.9000244,-2.345989849,-0.438288988,0.051832872,DLL
12.0,-4.60570097,-0.72016412,8.299832344,0.556405962,0.114329994,2.743919849,-1008.300049,30.30000114,-909.3000488,-2.340158816,-0.485335982,0.073481057,DLL
12.03333333,-4.431641102,-1.065890789,8.686232567,-0.236281991,0.907018006,0.594515979,-1010.700012,33.90000153,-906.9000244,-2.325390482,-0.475028351,0.107552643,DLL
12.06666667,-3.082230806,-1.284811139,8.798683167,-0.922261953,0.152439997,-1.486289978,-1008.300049,33.30000305,-904.500061,-2.311884924,-0.376282039,0.136278279,DLL
12.1,-6.382185459,-0.460570097,7.63409853,0.396344006,1.204275966,-0.769822001,-1015.500061,30.30000114,-914.1000366,-2.333233789,-0.599463793,0.087989801,DLL
12.13333333,-4.362854958,-1.276437044,8.059976578,0.556405962,2.400929928,-1.516777992,-1013.100037,24.90000153,-904.500061,-2.303408557,-0.526590957,0.138101379,DLL
12.16666667,-4.594934464,-1.591658473,7.982816219,-0.038109999,2.202757835,-2.370441914,-1017.900024,34.5,-904.500061,-2.277858435,-0.520072498,0.181220279,DLL
12.2,-7.181304455,0.528758407,7.18010807,1.227141976,1.501533985,-1.760681987,-1005.900024,30.30000114,-909.3000488,-2.368951802,-0.709044304,0.017921627,DLL
12.23333333,-5.322276115,-1.914057493,7.240520477,3.125020027,4.794238091,1.059458017,-1005.900024,31.50000191,-906.9000244,-2.254424901,-0.651479435,0.194924607,DLL
12.26666667,-7.113714218,-0.484495819,7.277605534,0.746955991,2.431417942,-4.565577984,-981.9000244,30.30000114,-906.9000244,-2.29982061,-0.739446568,0.112820867,DLL
12.3,-7.153191566,-0.529954672,7.661015034,0.525918007,1.227141976,-2.263733864,-984.3000488,27.30000114,-914.1000366,-2.315724228,-0.74829862,0.083801712,DLL
12.33333333,-5.565720558,-1.173556566,6.330147266,1.760681987,0.640248001,-0.663114011,-996.3000488,32.70000076,-902.1000366,-2.266339621,-0.724805419,0.152833709,DLL
12.36666667,-5.839071751,-1.160995483,7.693912983,-0.983237982,-0.61738199,-3.269837856,-998.7000122,35.70000076,-897.3000488,-2.261927193,-0.666778428,0.155022875,DLL
12.4,-5.950326443,-1.283614874,7.381682396,0.175305992,-0.823175967,-1.867389917,-984.3000488,40.5,-902.1000366,-2.250879622,-0.668540998,0.168684208,DLL
12.43333333,-5.032176971,-1.638911724,6.981524944,0.586893976,0.068598002,-1.63872993,-993.9000244,31.50000191,-899.7000122,-2.221036519,-0.628831234,0.213365356,DLL
12.46666667,-3.819741011,-2.342327833,6.95401001,-0.876529992,-0.388722003,-3.307947874,-993.9000244,32.70000076,-906.9000244,-2.1716067,-0.52398234,0.297253816,DLL
12.5,-7.445683479,-0.981552601,7.413383961,-0.762199998,-0.106707998,-2.888737917,-993.9000244,31.50000191,-916.500061,-2.228009328,-0.704977215,0.194724794,DLL
12.53333333,-4.36584568,-2.677886009,7.537797928,0.762199998,1.806414008,-0.891773999,-998.7000122,33.90000153,-911.7000122,-2.161413931,-0.564778659,0.302452941,DLL
12.56666667,-6.141133785,-2.22389555,7.477983475,0.541162014,2.675322056,-2.858249903,-989.1000366,36.90000153,-894.9000244,-2.159639296,-0.638183403,0.295841278,DLL
12.6,-5.440110207,-2.156903505,6.904364109,-0.685979962,1.120433927,-4.352161884,-996.3000488,30.30000114,-906.9000244,-2.147450518,-0.642797919,0.306166072,DLL
12.63333333,-5.685348988,-2.348309278,6.948626995,0.0,0.091463998,-2.23324585,-996.3000488,37.5,-897.3000488,-2.134973653,-0.653676083,0.321911432,DLL
12.66666667,-5.449082375,-2.942265272,7.137639999,-0.167683989,0.198172003,-1.798792005,-1003.500061,39.90000153,-899.7000122,-2.102486327,-0.626098704,0.372477313,DLL
12.7,-5.181712627,-2.287896872,6.678864479,-1.173787951,-0.891773999,-3.185995817,-986.7000122,37.5,-892.500061,-2.115095047,-0.628777639,0.346675637,DLL
12.73333333,-6.382783413,-2.732317209,6.555646896,0.160062,0.525918007,-0.876529992,-1005.900024,36.90000153,-909.3000488,-2.092783683,-0.701212565,0.380415707,DLL
12.76666667,-4.677477837,-3.634914875,7.230950356,0.411587983,0.868907988,-2.126538038,-989.1000366,31.50000191,-899.7000122,-2.050941034,-0.57776778,0.444404289,DLL
12.8,-5.960494518,-2.920134068,6.380391121,0.754577994,0.320124,-1.783547997,-1010.700012,35.10000229,-899.7000122,-2.053259274,-0.668707828,0.434701913,DLL
12.83333333,-7.46542263,-2.765813112,6.382185459,0.823175967,1.387203932,-0.91463995,-1010.700012,36.90000153,-909.3000488,-2.061578786,-0.779862252,0.41794075,DLL
12.86666667,-7.122686386,-2.94166708,5.952120781,1.105189919,2.157026052,-0.053353999,-984.3000488,35.10000229,-921.3000488,-2.037965475,-0.811854194,0.44728081,DLL
12.9,-7.323662758,-3.282010555,7.363140106,0.015244,1.821658015,0.091463998,-991.500061,36.30000305,-890.1000366,-2.051115596,-0.760050359,0.427482513,DLL
12.93333333,-6.562226772,-3.209037066,7.083209038,-0.449698001,-1.974097967,0.579271972,-991.500061,32.10000229,-906.9000244,-2.055233962,-0.714403686,0.425030324,DLL
12.96666667,-5.85761404,-2.869889975,5.705087662,-0.952749968,-3.856731892,1.798792005,-991.500061,36.30000305,-909.3000488,-2.042991546,-0.731245589,0.452074729,DLL
13.0,-5.383884907,-3.227579355,6.376802444,-1.272873998,-3.460387945,2.667700052,-993.9000244,36.30000305,-909.3000488,-2.043469919,-0.669028301,0.461601093,DLL
13.03333333,-5.935970783,-3.04514575,7.167547226,0.320124,-1.791170001,3.399411917,-986.7000122,32.70000076,-902.1000366,-2.076666667,-0.65654622,0.415566727,DLL
13.06666667,-4.144532681,-3.006266594,6.633405685,-0.121951997,-2.629590034,2.103672028,-1003.500061,29.70000076,-914.1000366,-2.078388857,-0.55186366,0.42104422,DLL
13.1,-5.366538525,-2.450591803,6.77755785,-0.190549999,-3.307947874,3.750023842,-1008.300049,36.30000305,-918.9000244,-2.115210293,-0.611753884,0.366818907,DLL
13.13333333,-4.76361084,-3.04275322,7.396636009,-0.282013983,-2.355197906,4.245453835,-1017.900024,38.70000076,-894.9000244,-2.115081017,-0.558874206,0.38007806,DLL
13.16666667,-7.05569458,-2.045050859,8.966761589,-0.640248001,-1.798792005,3.224105835,-1003.500061,35.10000229,-916.500061,-2.181434082,-0.626071816,0.271672447,DLL
13.2,-5.867184639,-2.473321199,8.665895462,1.577754021,-0.632625997,2.903981924,-996.3000488,31.50000191,-921.3000488,-2.184087578,-0.591400575,0.271794144,DLL
13.23333333,-4.520166397,-1.597639918,7.823112011,0.876529992,-2.705809832,1.250007987,-998.7000122,35.10000229,-909.3000488,-2.215532621,-0.532307619,0.216766794,DLL
13.26666667,-4.203748703,-1.534834862,6.801483631,0.922261953,-2.721053839,1.943609953,-1003.500061,31.50000191,-906.9000244,-2.218228589,-0.536907059,0.217475552,DLL
13.3,-4.044044495,-1.643098712,7.481572151,0.83079797,-0.464941978,2.500015974,-1022.700012,32.70000076,-906.9000244,-2.223130641,-0.501237235,0.213839273,DLL
13.33333333,-4.716955662,-1.056918621,7.448076248,0.746955991,0.571649969,1.974097967,-996.3000488,32.70000076,-923.7000122,-2.251453577,-0.543741145,0.161310241,DLL
13.36666667,-5.237937927,-1.058114886,7.866178036,0.579271972,0.388722003,1.577754021,-1010.700012,33.90000153,-909.3000488,-2.264244932,-0.572207162,0.14032478,DLL
13.4,-5.690134048,-0.784763575,8.534303665,0.068598002,0.29725799,0.411587983,-998.7000122,32.10000229,-894.9000244,-2.283419426,-0.582478557,0.106054699,DLL
13.43333333,-5.115318775,-1.174752831,8.499611855,0.007622,-0.442075998,-0.228659987,-1010.700012,38.70000076,-906.9000244,-2.27123501,-0.550578273,0.128276117,DLL
13.46666667,-5.570505619,-1.019235611,8.232241631,-0.419209987,-0.876529992,-1.387203932,-1005.900024,32.10000229,-906.9000244,-2.27085223,-0.577821751,0.126264899,DLL
13.5,-4.051222324,-1.614986062,7.799784184,-1.166165948,-0.945127964,-1.631107926,-1008.300049,30.90000153,-906.9000244,-2.238304908,-0.497423051,0.187415002,DLL
13.53333333,-3.794020891,-1.802204728,7.526432991,-2.324709892,-1.051836014,-2.019829988,-1015.500061,39.30000305,-906.9000244,-2.219757399,-0.46606434,0.225584935,DLL
13.56666667,-5.73738718,-0.571226537,7.360149384,-0.419209987,0.320124,-0.907018006,-1022.700012,40.5,-909.3000488,-2.268422049,-0.603118854,0.128456503,DLL
13.6,-5.000475407,-1.44032824,7.817130566,1.12805593,3.559473991,-0.365855992,-1013.100037,37.5,-897.3000488,-2.245275974,-0.578440689,0.165796717,DLL
13.63333333,-5.723629951,-1.021628141,7.350578785,2.439039946,4.230209827,-0.739333987,-993.9000244,36.90000153,-906.9000244,-2.252802768,-0.63831613,0.14503304,DLL
13.66666667,-6.795502186,-1.046750188,7.345793724,2.301843882,4.565577984,-0.564027965,-1001.100037,32.10000229,-906.9000244,-2.251099086,-0.7172724,0.141082571,DLL
13.7,-6.031075478,-1.940375805,7.432524681,0.685979962,3.414655924,-2.850627899,-998.7000122,34.5,-894.9000244,-2.189428222,-0.68405443,0.227960964,DLL
13.73333333,-6.026290417,-1.695137143,7.647257805,-0.61738199,0.792688012,-3.673803806,-991.500061,28.50000191,-887.7000122,-2.186402255,-0.663479506,0.225338138,DLL
13.76666667,-5.507102489,-2.216717958,7.32605505,-0.495429993,-1.189031959,-2.19513607,-993.9000244,26.70000076,-911.7000122,-2.153786397,-0.633835898,0.275968493,DLL
13.8,-5.19606781,-2.832206964,6.574189186,-0.42683199,-0.480185986,-2.545747995,-993.9000244,35.70000076,-909.3000488,-2.095403515,-0.629031648,0.370076441,DLL
13.83333333,-3.784450531,-3.05471611,6.479084492,-1.966475964,-1.097568035,-4.367405891,-996.3000488,35.70000076,-894.9000244,-2.061433389,-0.526011954,0.426120157,DLL
13.86666667,-4.646972656,-2.979948282,6.617255688,-1.486289978,-1.775925994,-2.500015974,-1005.900024,36.30000305,-897.3000488,-2.059955323,-0.553716274,0.427058106,DLL
13.9,-5.216404915,-3.293375254,6.415681362,-0.464941978,-0.541162014,-0.571649969,-1005.900024,36.90000153,-892.500061,-2.041771386,-0.603538009,0.460401088,DLL
13.93333333,-5.920419216,-2.623455048,7.193865299,-0.61738199,1.379581928,-0.015244,-1013.100037,38.10000229,-894.9000244,-2.087900039,-0.64612505,0.381111349,DLL
13.96666667,-7.182500839,-3.326272964,7.476189137,1.303362012,3.483253956,1.989341974,-1008.300049,32.10000229,-902.1000366,-2.072407636,-0.702918739,0.404850557,DLL
14.0,-6.827203751,-3.429153681,7.419365406,0.106707998,2.583858013,-2.012207985,-989.1000366,35.10000229,-894.9000244,-2.052771965,-0.699748172,0.428630562,DLL
14.03333333,-5.966475964,-3.624746323,7.105938435,-0.243903995,0.045731999,-1.356715918,-996.3000488,33.90000153,-892.500061,-2.030383267,-0.657398283,0.461900465,DLL
14.06666667,-6.471308708,-2.694036007,6.491047382,-0.198172003,-2.545747995,-0.80793196,-984.3000488,40.5,-892.500061,-2.060617492,-0.715078926,0.415294164,DLL
14.1,-5.635105133,-3.186905861,6.540095329,-0.541162014,-2.454283953,2.210379839,-986.7000122,38.70000076,-902.1000366,-2.049396559,-0.674392865,0.440024129,DLL
14.13333333,-4.925109386,-3.016434908,6.635797977,-0.129574001,-1.669217944,2.423795938,-1001.100037,39.90000153,-894.9000244,-2.060697994,-0.617696091,0.428169622,DLL
14.16666667,-7.035955906,-2.265167475,7.460637093,0.243903995,-0.640248001,2.035073996,-1001.100037,38.10000229,-916.500061,-2.119892857,-0.700196029,0.335853914,DLL
14.2,-5.88393259,-2.803496122,6.882831097,0.945127964,0.381099999,1.905499935,-991.500061,42.90000153,-894.9000244,-2.09994608,-0.680268186,0.368999128,DLL
14.23333333,-6.504804611,-2.511602402,7.13046217,0.983237982,0.373477995,1.440557957,-1008.300049,32.70000076,-909.3000488,-2.116355252,-0.70372486,0.344205052,DLL
14.26666667,-5.355772018,-2.535527945,7.403813839,1.55488801,-1.021348,2.500015974,-998.7000122,39.30000305,-899.7000122,-2.127529779,-0.629727646,0.329536123,DLL
14.3,-5.385679245,-2.302850485,7.376298904,2.218001842,-1.364337921,1.493911982,-996.3000488,38.10000229,-897.3000488,-2.141403714,-0.614014986,0.306332586,DLL
14.33333333,-4.983129025,-1.801008463,7.339812279,2.431417942,-2.126538038,0.42683199,-1008.300049,33.30000305,-897.3000488,-2.168756546,-0.590111677,0.256357675,DLL
14.36666667,-4.377808571,-2.557061195,8.225064278,3.849109888,-0.983237982,-1.547266006,-1005.900024,32.10000229,-906.9000244,-2.148557339,-0.504754423,0.285005592,DLL
14.4,-5.217601299,-2.132977724,8.437404633,6.265284061,0.282013983,-3.68142581,-1008.300049,30.30000114,-899.7000122,-2.153149034,-0.528653726,0.253898461,DLL
14.43333333,-4.423865318,-2.519378185,8.832777023,8.018343925,1.089946032,-4.748506069,-1010.700012,30.30000114,-904.500061,-2.134013402,-0.472653573,0.264457064,DLL
14.46666667,-5.501121044,-2.284307957,8.402113914,11.15098572,2.477149963,-6.493943691,-1010.700012,30.90000153,-911.7000122,-2.118288245,-0.53702746,0.256202391,DLL
14.5,-3.588259697,-2.220306635,8.021097183,11.45586586,1.486289978,-8.666213989,-1005.900024,27.90000153,-911.7000122,-2.094676464,-0.445134639,0.258052025,DLL
14.53333333,-5.815743923,-0.631639004,7.655632019,11.34153557,1.23476398,-10.03817368,-1008.300049,23.10000038,-933.3000488,-2.131235028,-0.587274578,0.1344179,DLL
14.56666667,-4.65056181,-1.300961018,7.096368313,10.41165161,1.920743942,-7.141813755,-998.7000122,16.5,-914.1000366,-2.096303414,-0.578157698,0.160550783,DLL
14.6,-5.426951408,0.03229972,6.715351105,9.344572067,2.225623846,-9.62658596,-1010.700012,9.900000572,-923.7000122,-2.141828796,-0.656187606,0.038474474,DLL
14.63333333,-4.883837223,-0.595750391,7.147210598,7.606755733,2.111294031,-6.654006004,-989.1000366,12.90000057,-914.1000366,-2.107625192,-0.617602054,0.067032703,DLL
14.66666667,-6.583161354,-0.709397554,7.753129005,5.609791756,2.378063917,-7.515291691,-989.1000366,10.5,-914.1000366,-2.079495881,-0.681036183,0.084699673,DLL
14.7,-5.289976597,-0.197387174,7.491740704,4.961921692,0.685979962,-7.94212389,-981.9000244,1.5,-911.7000122,-2.087880427,-0.635015639,0.044659972,DLL
14.73333333,-6.413887024,-0.568235815,7.034759521,4.298808098,0.670735955,-6.471077919,-993.9000244,12.90000057,-906.9000244,-2.058468282,-0.707138191,0.07034034,DLL
14.76666667,-5.280405998,-0.764426708,7.277605534,3.628072023,1.089946032,-6.44821167,-977.1000366,6.900000095,-916.500061,-2.027195732,-0.647266479,0.098173704,DLL
14.8,-5.450876713,-0.82842803,7.686137199,3.071666002,0.975615978,-6.981751919,-974.7000122,14.10000038,-916.500061,-2.008874577,-0.624388327,0.107223049,DLL
14.83333333,-5.377305508,-0.970187902,7.817728519,3.269837856,0.93750596,-6.882665634,-986.7000122,11.10000038,-921.3000488,-1.98645766,-0.60578677,0.121357719,DLL
14.86666667,-5.754135609,-1.078451753,7.293157101,3.879597902,1.661595941,-8.193650246,-974.7000122,13.50000095,-921.3000488,-1.958919181,-0.646310048,0.141660226,DLL
14.9,-6.089095592,-1.244137406,7.201043129,2.820139885,2.515259981,-7.782062054,-957.9000244,9.900000572,-911.7000122,-1.927476352,-0.683655934,0.167820548,DLL
14.93333333,-6.711163998,-1.301559091,6.251192093,1.951231956,3.163130045,-6.55491972,-981.9000244,9.900000572,-914.1000366,-1.895542511,-0.774389746,0.198816873,DLL
14.96666667,-5.901278496,-2.482293367,8.490639687,-0.701223969,4.329296112,-5.396375656,-969.9000244,4.5,-899.7000122,-1.842365019,-0.648224106,0.26904577,DLL
15.0,-6.291865826,-1.297372103,6.964178562,1.996963978,1.692083955,-5.693634033,-950.7000122,13.50000095,-923.7000122,-1.866287274,-0.703575321,0.214587109,DLL
15.03333333,-5.548374176,-1.661043048,6.82241869,1.105189919,0.693601966,-1.74543798,-962.7000122,8.100000381,-892.500061,-1.851348299,-0.679576822,0.232227574,DLL
15.06666667,-6.416279793,-1.716072202,7.00365591,-0.030487999,1.303362012,-1.471045971,-953.1000366,14.10000038,-899.7000122,-1.843831864,-0.715849734,0.240097507,DLL
15.1,-6.194368839,-2.210138321,6.535908222,-0.068598002,1.280496001,-0.548784018,-953.1000366,14.10000038,-906.9000244,-1.802479415,-0.728579181,0.301031832,DLL
15.13333333,-6.42465353,-2.231671333,7.958890438,-0.838419974,1.04421401,-2.012207985,-955.500061,14.10000038,-892.500061,-1.811125552,-0.681658,0.284687642,DLL
15.16666667,-5.931783676,-1.954731226,7.98760128,-0.411587983,-0.449698001,-1.265251994,-936.3000488,9.900000572,-904.500061,-1.82857887,-0.641121369,0.254597846,DLL
15.2,-5.044737816,-2.083930016,8.007938385,-0.365855992,-2.835383892,0.365855992,-948.3000488,17.70000076,-909.3000488,-1.830734191,-0.571074904,0.254275605,DLL
15.23333333,-5.651254654,-1.890729904,6.689033031,-0.114329994,-1.288118005,-0.160062,-950.7000122,9.900000572,-911.7000122,-1.822820323,-0.647356539,0.268826773,DLL
15.26666667,-5.054906368,-2.049237728,5.815145969,-0.083841994,-0.198172003,0.792688012,-965.1000366,14.10000038,-894.9000244,-1.794685987,-0.675177818,0.316602971,DLL
15.3,-6.133955956,-1.937385082,7.534807205,-0.998481989,0.571649969,0.083841994,-960.3000488,11.70000076,-899.7000122,-1.824254915,-0.670673489,0.270777848,DLL
15.33333333,-5.501718998,-2.368646145,7.205230236,-0.769822001,-0.259148002,1.028970003,-965.1000366,13.50000095,-902.1000366,-1.806045706,-0.640134107,0.304467226,DLL
15.36666667,-5.107542992,-2.073761702,6.438410759,-0.731711984,-1.112811923,-0.099086002,-960.3000488,12.90000057,-897.3000488,-1.803694309,-0.643554907,0.310328819,DLL
15.4,-5.760116577,-2.851945639,7.152593613,-0.708845973,-0.571649969,0.899396002,-967.500061,12.30000019,-909.3000488,-1.776923851,-0.642609036,0.358564186,DLL
15.43333333,-6.039449692,-3.039762497,7.202239513,-0.175305992,-0.510674,-0.091463998,-950.7000122,14.70000076,-897.3000488,-1.760019546,-0.652681588,0.38711371,DLL
15.46666667,-6.211116791,-3.433938742,7.877542973,-0.175305992,-1.036592007,-0.068598002,-953.1000366,20.10000038,-899.7000122,-1.750275923,-0.632000954,0.404513896,DLL
15.5,-5.675778866,-3.413601875,7.347588062,0.518296003,-1.493911982,0.076219998,-948.3000488,9.300000191,-911.7000122,-1.738914622,-0.615809884,0.424660124,DLL
15.53333333,-5.682358265,-3.390872478,7.445085526,1.410069942,-0.945127964,0.472563982,-965.1000366,10.5,-906.9000244,-1.738960339,-0.608393732,0.424109052,ST
15.56666667,-5.562131405,-3.024809122,7.1310606,2.210379839,-0.716467977,1.272873998,-962.7000122,5.700000286,-909.3000488,-1.750292463,-0.618267187,0.404170642,ST
15.6,-5.294163227,-2.994901896,7.694511414,2.728675842,-1.112811923,1.890255928,-965.1000366,8.100000381,-909.3000488,-1.767931365,-0.58176056,0.373809335,ST
15.63333333,-5.670395374,-3.081632614,7.820719242,2.385685921,-1.250007987,1.737815976,-960.3000488,10.5,-906.9000244,-1.77058915,-0.589286641,0.370286343,ST
15.66666667,-5.377305508,-2.469732285,7.651444912,1.219519973,-0.449698001,1.585376024,-974.7000122,11.70000076,-899.7000122,-1.797345132,-0.589712267,0.324474613,ST
15.7,-4.706188679,-2.70898962,7.455254078,1.55488801,-0.358233988,3.094532013,-974.7000122,13.50000095,-914.1000366,-1.79331127,-0.551261277,0.337766052,ST
15.73333333,-4.846752644,-2.245428801,7.815934181,0.655492008,-0.342989981,2.59910202,-960.3000488,12.30000019,-902.1000366,-1.820581582,-0.541822291,0.292022854,ST
15.76666667,-5.146421909,-1.862617254,8.083304405,0.731711984,-0.693601966,3.323191881,-962.7000122,7.500000477,-914.1000366,-1.850433927,-0.551675198,0.242923319,ST
15.8,-5.043541431,-1.894916892,8.078518867,0.525918007,-0.647870004,3.955817938,-974.7000122,17.10000038,-904.500061,-1.862317887,-0.54817234,0.230530329,ST
15.83333333,-5.745761395,-1.681379914,7.134649277,-0.350611985,0.495429993,4.992409706,-977.1000366,7.500000477,-902.1000366,-1.871102289,-0.631514168,0.227744035,ST
15.86666667,-5.959298611,-1.230978251,8.650941849,-1.021348,1.196653962,5.114361763,-969.9000244,7.500000477,-902.1000366,-1.91591702,-0.611444399,0.163996266,ST
15.9,-5.212217808,-0.765024841,7.031768799,0.472563982,-0.518296003,4.916189671,-974.7000122,5.100000381,-904.500061,-1.949040015,-0.628898734,0.118788879,ST
15.93333333,-4.940660954,-0.606516957,7.186687946,-0.655492008,-1.04421401,4.253076077,-969.9000244,8.700000763,-911.7000122,-1.971598851,-0.608440912,0.091529101,ST
15.96666667,-5.498130322,-0.866709173,7.461833477,-1.42531395,-1.082324028,3.658559799,-977.1000366,2.700000048,-904.500061,-1.969500312,-0.623951344,0.106772411,ST
16.0,-5.910250664,-0.500645638,6.89060688,-0.922261953,-1.219519973,3.368923903,-972.3000488,9.900000572,-906.9000244,-1.99075668,-0.6813652,0.081285116,ST
16.03333333,-6.040047646,-0.960019469,7.688529968,-2.08842802,-0.350611985,3.102154016,-969.9000244,0.900000036,-921.3000488,-1.978678372,-0.667981409,0.110970897,ST
16.06666667,-6.28588438,-0.854148149,8.384169579,-1.753059983,-0.068598002,2.484771967,-967.500061,6.300000191,-911.7000122,-1.988097874,-0.649258475,0.104138367,ST
16.1,-5.79660368,-0.668723822,8.03246212,-0.61738199,-0.510674,2.560992002,-969.9000244,8.100000381,-899.7000122,-2.002129966,-0.630920644,0.08773014,ST
16.13333333,-6.303828716,-0.622068703,6.828400135,0.160062,0.236281991,2.865871906,-965.1000366,6.300000191,-916.500061,-2.006374024,-0.710031626,0.08693936,ST
16.16666667,-5.175731182,-0.137572885,6.446187019,0.320124,0.929883957,1.753059983,-977.1000366,6.300000191,-911.7000122,-2.039356202,-0.688007566,0.038571413,ST
16.2,-6.325960159,0.097497307,7.547966003,-0.457319975,1.707327962,-0.030487999,-979.500061,8.700000763,-906.9000244,-2.062740038,-0.697051946,0.002604824,ST
16.23333333,-6.04842186,-0.244042337,6.884027481,-0.518296003,1.394825935,0.221037999,-962.7000122,9.300000191,-902.1000366,-2.048495459,-0.715255351,0.02585947,ST
16.26666667,-5.793014526,-0.381017059,7.163360119,-0.93750596,1.318606019,-0.663114011,-955.500061,6.300000191,-904.500061,-2.034447414,-0.690866503,0.047785453,ST
16.3,-6.814044952,-0.198583469,8.092874527,-1.326228023,0.647870004,-1.432935953,-957.9000244,5.100000381,-897.3000488,-2.042365234,-0.697784172,0.034672564,ST
16.33333333,-6.157881737,-0.365465343,8.865077019,-1.402447939,-0.304879993,-1.455801964,-957.9000244,5.700000286,-914.1000366,-2.037155534,-0.633652111,0.042446357,ST
16.36666667,-5.282798767,-0.867307305,7.882328033,-0.335367978,-1.417691946,-1.250007987,-953.1000366,3.900000095,-911.7000122,-2.007053905,-0.599254704,0.092195537,ST
16.4,-4.31619978,-0.628050148,7.013226509,-0.282013983,-1.714949965,-2.675322056,-962.7000122,3.300000191,-928.500061,-2.003341733,-0.5609737,0.092514906,ST
16.43333333,-4.446594715,-0.904392183,7.234539032,-1.318606019,0.754577994,-3.635694027,-960.3000488,10.5,-909.3000488,-1.984212989,-0.551798117,0.120254767,ST
16.46666667,-4.766003132,-1.08503139,6.682453156,-1.493911982,1.204275966,-3.559473991,-962.7000122,11.10000038,-923.7000122,-1.961876171,-0.596587661,0.153843485,ST
16.5,-6.4766922,-1.987629056,6.561628342,-1.85214591,2.49239397,-3.132642031,-969.9000244,5.100000381,-921.3000488,-1.893773502,-0.717635764,0.259937439,ST
16.53333333,-6.548469067,-2.286700487,7.889505863,-2.644834042,2.583858013,-3.780511856,-969.9000244,18.90000153,-902.1000366,-1.87593918,-0.688242587,0.28328404,ST
16.56666667,-5.991000175,-2.277130365,7.72382021,-0.960371971,0.015244,-3.841487885,-953.1000366,12.30000019,-909.3000488,-1.867567478,-0.652929789,0.29041281,ST
16.6,-5.933578491,-2.426067829,7.223174572,-0.038109999,-1.410069942,-2.843005896,-957.9000244,15.30000019,-906.9000244,-1.848838294,-0.656378311,0.316054692,ST
16.63333333,-5.764303684,-3.13725996,7.147210598,0.800309956,-1.684461951,-1.996963978,-967.500061,11.10000038,-904.500061,-1.801385255,-0.638659833,0.389718021,ST
16.66666667,-5.097972393,-2.650969744,6.456953526,0.91463995,-3.155508041,-1.333850026,-969.9000244,15.30000019,-904.500061,-1.801095471,-0.62899537,0.38854038,ST
16.7,-5.033372879,-3.220999956,6.579572678,-0.381099999,-2.583858013,-0.160062,-957.9000244,18.90000153,-916.500061,-1.775679326,-0.607409026,0.435146008,ST
16.73333333,-4.940063,-3.284403086,6.168050289,-0.411587983,-1.753059983,-0.350611985,-972.3000488,14.70000076,-894.9000244,-1.755039213,-0.611011636,0.47303219,ST
16.76666667,-6.284687996,-3.569717169,8.10782814,-1.356715918,0.586893976,0.121951997,-986.7000122,8.700000763,-904.500061,-1.778573743,-0.61611649,0.434118988,ST
16.8,-6.65792942,-3.697719812,7.363140106,-0.251525998,1.211897969,1.067080021,-957.9000244,9.900000572,-906.9000244,-1.766641461,-0.66240294,0.455631586,ST
16.83333333,-6.552656174,-3.423770428,7.756718159,-0.274392009,1.600619912,1.333850026,-972.3000488,15.90000057,-904.500061,-1.784940845,-0.661838209,0.427480749,ST
16.86666667,-6.150105953,-2.736504078,7.747745991,0.640248001,-0.282013983,2.621968031,-974.7000122,18.90000153,-902.1000366,-1.828909202,-0.649101275,0.360173666,ST
16.9,-5.315098286,-2.321392775,6.552656174,1.166165948,-1.006103992,3.635694027,-967.500061,15.30000019,-902.1000366,-1.844166973,-0.652036761,0.341491822,ST
16.93333333,-5.174534798,-1.900898337,6.839166641,0.335367978,-0.731711984,4.527467728,-955.500061,14.10000038,-909.3000488,-1.882502248,-0.637618629,0.287499143,ST
16.96666667,-5.033372879,-2.039667606,7.108331203,-0.144817993,-0.746955991,4.885701656,-957.9000244,14.70000076,-894.9000244,-1.895523057,-0.609902635,0.277573942,ST
17.0,-6.66450882,-1.991217971,8.142519951,-0.899396002,0.556405962,3.978683949,-967.500061,17.10000038,-911.7000122,-1.919294671,-0.65674174,0.248292133,ST
17.03333333,-5.593235016,-1.251315117,7.924198151,-0.068598002,0.236281991,4.245453835,-962.7000122,17.10000038,-899.7000122,-1.968551943,-0.62318664,0.176261296,ST
17.06666667,-5.520859718,-1.265072346,7.878739357,0.137196004,-0.754577994,4.169233799,-972.3000488,11.10000038,-923.7000122,-1.984190771,-0.610113849,0.159901159,ST
17.1,-5.039952755,-0.829026163,7.024590969,0.716467977,-1.859767914,4.222588062,-955.500061,12.30000019,-899.7000122,-2.009999675,-0.615018401,0.124980736,ST
17.13333333,-4.874865055,-0.386400372,7.319475651,0.320124,-1.013725996,3.612828016,-967.500061,13.50000095,-921.3000488,-2.045759547,-0.594801816,0.070737074,ST
17.16666667,-4.871276379,-0.223107323,6.377400398,0.853663981,-0.670735955,3.925329924,-957.9000244,11.10000038,-904.500061,-2.067324203,-0.634264198,0.041604474,ST
17.2,-5.637497425,0.192003891,8.042032242,0.114329994,-0.640248001,2.454283953,-967.500061,9.900000572,-909.3000488,-2.098926706,-0.617670984,-0.006672569,ST
17.23333333,-6.35646534,0.037683006,7.20164156,0.716467977,-0.655492008,2.126538038,-962.7000122,10.5,-914.1000366,-2.102474199,-0.693222401,-0.008630707,ST
17.26666667,-6.113619328,0.044860724,8.0695467,-0.129574001,-0.93750596,0.571649969,-950.7000122,9.300000191,-911.7000122,-2.102276871,-0.658897143,-0.006731058,ST
17.3,-6.095077038,0.136376604,8.020499229,-0.503051996,-1.394825935,0.282013983,-962.7000122,4.5,-916.500061,-2.107333534,-0.650809537,-0.013560586,ST
17.33333333,-6.012533188,-0.17286332,7.071844578,-0.442075998,-0.487807989,0.251525998,-979.500061,9.900000572,-911.7000122,-2.091697602,-0.687797283,0.012946637,ST
17.36666667,-5.888717651,-0.350511789,6.908551216,-0.868907988,1.303362012,-0.53354001,-977.1000366,11.10000038,-911.7000122,-2.07302329,-0.702391893,0.042447435,ST
17.4,-5.862399101,-0.302660346,7.332634449,-1.211897969,1.303362012,-1.844523907,-969.9000244,10.5,-916.500061,-2.070089615,-0.683353451,0.045083063,ST
17.43333333,-5.63869381,-0.7249493,7.102947712,-0.975615978,1.34147191,-1.478667974,-967.500061,4.5,-921.3000488,-2.042342182,-0.674614572,0.08759555,ST
17.46666667,-5.804977417,-0.78595984,7.23932457,-0.891773999,1.402447939,-1.478667974,-977.1000366,8.700000763,-909.3000488,-2.029790523,-0.675064893,0.105579235,ST
17.5,-6.312800884,-0.924130917,7.388860226,-0.434453994,1.349093914,-1.570132017,-965.1000366,16.5,-914.1000366,-2.018250294,-0.696160014,0.120935542,ST
17.53333333,-5.980831623,-1.125106931,8.439797401,-1.326228023,1.112811923,-2.477149963,-965.1000366,13.50000095,-906.9000244,-2.008531581,-0.638508799,0.133317496,ST
17.56666667,-6.15429306,-1.147836328,7.287774086,-0.80793196,0.365855992,-2.49239397,-965.1000366,14.10000038,-914.1000366,-1.994168518,-0.678176137,0.152553592,ST
17.6,-4.935277462,-1.559956908,6.719538212,-0.083841994,0.586893976,-3.231727839,-974.7000122,12.30000019,-906.9000244,-1.955005264,-0.638472621,0.209341753,ST
17.63333333,-5.947933674,-1.871589303,7.361345768,-0.388722003,1.440557957,-3.81099987,-953.1000366,15.30000019,-902.1000366,-1.930645591,-0.657282453,0.241135829,ST
17.66666667,-6.07892704,-1.982843995,7.930179596,-0.945127964,1.219519973,-3.925329924,-950.7000122,18.90000153,-916.500061,-1.921347494,-0.645075344,0.248809603,ST
17.7,-6.107637882,-2.508611679,6.565815449,0.015244,0.83079797,-2.614346027,-957.9000244,12.90000057,-904.500061,-1.865208146,-0.695803718,0.332902396,ST
17.73333333,-5.563925743,-2.534929991,7.123284817,0.068598002,0.762199998,-2.98020196,-953.1000366,14.70000076,-902.1000366,-1.855217496,-0.652515906,0.34219185,ST
17.76666667,-6.207527637,-2.655156612,6.370820999,0.716467977,0.464941978,-2.507637978,-948.3000488,17.10000038,-918.9000244,-1.826106509,-0.709965416,0.381465114,ST
17.8,-6.376204014,-2.950041056,7.424748898,0.342989981,0.457319975,-2.080806017,-957.9000244,24.30000114,-909.3000488,-1.822966867,-0.682201674,0.380840649,ST
17.83333333,-5.995785236,-2.769402027,7.358355045,0.975615978,-1.76830399,-1.722571969,-957.9000244,18.30000114,-902.1000366,-1.830014474,-0.657517738,0.365618674,ST
17.86666667,-6.063375473,-2.531341076,7.133452892,1.379581928,-2.49239397,-0.72408998,-955.500061,18.90000153,-902.1000366,-1.840487175,-0.666878276,0.34663182,ST
17.9,-5.660825253,-2.888432503,6.363643169,1.219519973,-1.547266006,0.381099999,-965.1000366,18.90000153,-911.7000122,-1.807473284,-0.675406835,0.399577129,ST
17.93333333,-5.606394291,-3.201261282,7.015618801,-0.221037999,-0.42683199,-0.632625997,-957.9000244,17.70000076,-906.9000244,-1.793461856,-0.63951216,0.421894097,ST
17.96666667,-6.77337122,-3.419583321,7.004254341,-1.242385983,0.091463998,-0.282013983,-953.1000366,16.5,-906.9000244,-1.779287617,-0.693499579,0.446411516,ST
18.0,-5.715854168,-2.94405961,6.597517014,-0.655492008,0.129574001,0.72408998,-957.9000244,18.90000153,-916.500061,-1.792567055,-0.677147266,0.427840992,ST
18.03333333,-6.862494469,-3.285001278,6.430634975,-0.304879993,1.272873998,2.317087889,-965.1000366,21.30000114,-897.3000488,-1.776029773,-0.737637585,0.45704436,ST
18.06666667,-6.520954609,-2.826225519,7.962479115,0.503051996,1.288118005,1.8292799,-957.9000244,16.5,-902.1000366,-1.832182878,-0.68441238,0.372555556,ST
18.1,-7.047918797,-2.730522633,7.912833214,1.074702024,-0.152439997,3.064043999,-955.500061,17.70000076,-902.1000366,-1.855467133,-0.696373499,0.340236193,ST
18.13333333,-5.495139599,-2.23107338,6.074141979,1.791170001,-1.867389917,3.650938034,-965.1000366,12.90000057,-906.9000244,-1.857912574,-0.701351266,0.342181094,ST
18.16666667,-5.370127678,-1.862019062,7.464226246,0.975615978,-1.211897969,3.605206013,-960.3000488,14.10000038,-902.1000366,-1.908215569,-0.637347969,0.26780428,ST
18.2,-5.745163441,-1.711885214,6.844550133,1.112811923,-1.387203932,3.993927956,-955.500061,16.5,-906.9000244,-1.926405497,-0.670319073,0.245966075,ST
18.23333333,-4.65056181,-1.064694524,7.215996742,0.716467977,-1.882633924,3.346057892,-965.1000366,12.30000019,-911.7000122,-1.975211542,-0.597508763,0.171013652,ST
18.26666667,-5.254087925,-0.904990315,6.870270252,0.647870004,-2.789651871,3.734779835,-969.9000244,15.30000019,-902.1000366,-1.999871765,-0.631930261,0.137799233,ST
18.3,-5.922811508,-0.982748926,7.219585896,0.129574001,-1.349093914,3.254593849,-957.9000244,9.300000191,-892.500061,-2.007510931,-0.66620047,0.132732589,ST
18.33333333,-5.985616684,-0.955832481,8.305812836,-0.541162014,-0.266770005,2.568614006,-972.3000488,11.70000076,-921.3000488,-2.02098015,-0.63373353,0.117689733,ST
18.36666667,-5.982625961,-0.510215938,7.232744694,0.53354001,-1.981719971,2.408551931,-972.3000488,15.90000057,-906.9000244,-2.047159812,-0.672982315,0.080050218,ST
18.4,-5.633310318,-0.842783451,8.019302368,0.083841994,-0.846041977,2.164648056,-981.9000244,14.10000038,-899.7000122,-2.040812255,-0.628049903,0.095461526,ST
18.43333333,-5.065672874,-0.845176041,7.129266262,0.083841994,-0.785066009,1.303362012,-974.7000122,13.50000095,-916.500061,-2.033904153,-0.617236829,0.110761716,ST
18.46666667,-6.163863182,-0.303856641,7.602396965,0.190549999,-0.579271972,0.259148002,-967.500061,9.300000191,-916.500061,-2.063478056,-0.661321925,0.061623865,ST
18.5,-6.212911129,-0.654368401,6.994085789,-0.182927996,0.228659987,0.891773999,-981.9000244,10.5,-921.3000488,-2.051063092,-0.70729371,0.083583866,ST
18.53333333,-5.918624878,-0.589170814,7.616752625,-0.480185986,0.945127964,-0.099086002,-967.500061,9.300000191,-914.1000366,-2.053859375,-0.673548082,0.079703832,ST
18.56666667,-6.663312912,-0.739304721,7.588639736,-0.182927996,1.04421401,-0.045731999,-977.1000366,9.900000572,-909.3000488,-2.045984998,-0.706050749,0.092122526,ST
18.6,-5.959298611,-0.730332553,7.235137463,-0.243903995,0.762199998,-0.685979962,-965.1000366,11.70000076,-911.7000122,-2.040419286,-0.692530052,0.099540766,ST
18.63333333,-5.278013706,-0.470140368,6.756622791,-0.266770005,0.564027965,-0.93750596,-960.3000488,9.900000572,-911.7000122,-2.051937572,-0.671803265,0.079645149,ST
18.66666667,-7.174126625,-1.116732955,7.813541412,-1.295740008,1.486289978,-0.967993975,-962.7000122,16.5,-906.9000244,-2.022643705,-0.719734394,0.125261709,ST
18.7,-5.43652153,-1.085629463,6.391755581,-0.274392009,1.714949965,-1.189031959,-965.1000366,5.700000286,-911.7000122,-1.999239849,-0.705850091,0.158541571,ST
18.73333333,-6.669294357,-2.063593149,7.901468754,-1.371959925,2.202757835,-2.57623601,-960.3000488,12.90000057,-906.9000244,-1.947976761,-0.693128207,0.234172296,ST
18.76666667,-5.837875366,-1.514497995,7.424748898,-0.541162014,0.381099999,-3.780511856,-950.7000122,12.30000019,-897.3000488,-1.955696045,-0.665065694,0.213919251,ST
18.8,-5.40601635,-2.097687483,6.962982178,-0.045731999,0.038109999,-2.888737917,-957.9000244,12.30000019,-899.7000122,-1.916436664,-0.646524719,0.271995407,ST
18.83333333,-4.783349514,-2.00258255,6.191378117,0.449698001,0.106707998,-3.178373814,-955.500061,16.5,-909.3000488,-1.891310431,-0.636053755,0.305105659,ST
18.86666667,-6.139937401,-2.621660709,7.570097446,0.243903995,0.853663981,-3.346057892,-955.500061,11.70000076,-909.3000488,-1.871946785,-0.648743156,0.3285234,ST
18.9,-5.621945858,-2.239447355,6.833783627,0.571649969,-0.762199998,-2.789651871,-953.1000366,17.70000076,-902.1000366,-1.872038531,-0.657433628,0.32157607,ST
18.93333333,-5.550168514,-3.15580225,6.240425587,-0.099086002,-1.013725996,-1.410069942,-953.1000366,21.30000114,-911.7000122,-1.802561777,-0.666610843,0.432250544,ST
18.96666667,-6.422859192,-3.305936098,6.712360382,-0.060975999,1.120433927,-2.705809832,-948.3000488,13.50000095,-906.9000244,-1.784630975,-0.697944881,0.454022038,ST
19.0,-6.166853905,-3.627139091,6.891205311,-0.358233988,1.387203932,-2.667700052,-953.1000366,14.70000076,-902.1000366,-1.764000986,-0.677229587,0.480282145,ST
19.03333333,-6.217098236,-3.456668139,6.615461349,-0.312501997,-0.853663981,-1.8292799,-965.1000366,24.90000153,-904.500061,-1.761149455,-0.687347064,0.482735947,ST
19.06666667,-6.163265228,-3.712075233,6.791315079,0.152439997,-1.471045971,-0.838419974,-962.7000122,19.5,-902.1000366,-1.753270802,-0.674915011,0.494871246,ST
19.1,-5.606992245,-3.626540899,6.321773052,0.83079797,-1.615863919,-0.304879993,-938.7000122,11.10000038,-904.500061,-1.742711085,-0.659656948,0.511605799,ST
19.13333333,-6.336128712,-4.027296543,7.462431908,-1.371959925,0.678357959,-0.708845973,-953.1000366,12.90000057,-911.7000122,-1.748443633,-0.647426952,0.502415649,ST
19.16666667,-5.80796814,-3.549978495,6.904364109,0.129574001,-1.692083955,0.442075998,-960.3000488,20.10000038,-906.9000244,-1.76254452,-0.642200457,0.481541968,ST
19.2,-4.963988304,-3.555361748,7.436711788,0.556405962,-1.714949965,1.920743942,-960.3000488,21.90000153,-904.500061,-1.782229402,-0.568655286,0.452627099,ST
19.23333333,-5.953915119,-3.05950141,6.636396408,1.539644003,-1.143299937,2.461905956,-962.7000122,17.70000076,-914.1000366,-1.795536803,-0.651943829,0.433789752,ST
19.26666667,-5.611777306,-3.261075497,7.6795578,0.83079797,0.40396598,3.38416791,-967.500061,17.70000076,-914.1000366,-1.814347435,-0.612239571,0.407430078,ST
19.3,-5.239732265,-2.496648788,7.203435898,1.34147191,0.198172003,3.734779835,-962.7000122,18.30000114,-911.7000122,-1.852750626,-0.606888684,0.347130616,ST
19.33333333,-5.369529247,-2.357281446,8.174819946,0.945127964,-0.571649969,3.978683949,-955.500061,15.30000019,-897.3000488,-1.886049971,-0.577218257,0.29597103,ST
19.36666667,-6.402522564,-2.041461945,7.113116264,1.859767914,-0.038109999,3.780511856,-967.500061,16.5,-911.7000122,-1.899050121,-0.673346872,0.279458481,ST
19.4,-5.44788599,-1.417598844,7.549162388,1.288118005,-0.160062,3.254593849,-962.7000122,9.900000572,-904.500061,-1.947746855,-0.632846422,0.204751884,ST
19.43333333,-4.921520233,-1.022226334,6.074141979,1.189031959,-1.158543944,3.536607981,-955.500061,12.30000019,-906.9000244,-1.970402152,-0.661175239,0.173575413,ST
19.46666667,-5.010045528,-0.910373628,7.110723495,0.137196004,-0.769822001,2.073184013,-969.9000244,8.700000763,-921.3000488,-1.994117896,-0.624922806,0.138787269,ST
19.5,-6.121993542,-1.051535368,7.3523736,0.030487999,-0.434453994,1.204275966,-969.9000244,15.30000019,-909.3000488,-1.995187659,-0.669623899,0.139865622,ST
19.53333333,-5.121898174,-0.707004964,8.329738617,0.625003994,-1.859767914,0.068598002,-953.1000366,9.300000191,-914.1000366,-2.018722265,-0.58366273,0.099478922,ST
19.56666667,-5.4359231,-0.252416342,6.593928337,2.317087889,-2.621968031,1.036592007,-974.7000122,11.70000076,-911.7000122,-2.044622292,-0.654363143,0.054005419,ST
19.6,-6.5263381,-1.22619307,7.303923607,0.365855992,-0.579271972,0.93750596,-969.9000244,14.10000038,-923.7000122,-1.998032712,-0.701987318,0.12967419,ST
19.63333333,-6.276912212,-1.32727921,7.895487309,-0.266770005,0.899396002,-0.701223969,-962.7000122,5.700000286,-916.500061,-1.978616511,-0.675271878,0.158813073,ST
19.66666667,-5.928792953,-0.190807611,7.488152027,1.250007987,-0.91463995,-0.960371971,-962.7000122,14.10000038,-902.1000366,-2.037630294,-0.670691153,0.059742146,ST
19.7,-5.989803791,-0.963608325,6.631611347,0.42683199,0.022865999,0.678357959,-979.500061,15.30000019,-911.7000122,-2.000283986,-0.713755304,0.118929098,ST
19.73333333,-6.179415226,-1.444515228,8.32614994,-1.219519973,1.600619912,-1.006103992,-965.1000366,12.90000057,-914.1000366,-1.973040014,-0.654962079,0.161553867,ST
19.76666667,-5.700302601,-0.78835243,8.018704414,-0.083841994,0.40396598,-1.463423967,-962.7000122,12.30000019,-894.9000244,-1.998194731,-0.626479998,0.115840003,ST
19.8,-4.48547411,-0.763230443,7.512675762,0.221037999,-1.067080021,-1.34147191,-957.9000244,13.50000095,-918.9000244,-2.001724275,-0.559300726,0.105896542,ST
19.83333333,-5.662619591,-1.371541858,5.924007893,0.335367978,0.083841994,-0.899396002,-955.500061,11.10000038,-909.3000488,-1.952387665,-0.692671958,0.187334264,ST
19.86666667,-5.963485241,-2.024115801,8.000760078,-1.875011921,3.589962006,-2.698187828,-972.3000488,15.90000057,-906.9000244,-1.919619159,-0.649606052,0.235912044,ST
19.9,-4.571008682,-2.508611679,7.158575058,-1.166165948,2.827761889,-4.192100048,-950.7000122,18.30000114,-914.1000366,-1.869065645,-0.5769997,0.313880024,ST
19.93333333,-6.602900028,-2.627642155,7.900272369,-0.304879993,0.739333987,-4.367405891,-950.7000122,19.5,-902.1000366,-1.857861379,-0.641467843,0.323155872,ST
19.96666667,-6.263154984,-2.737700462,6.532319546,0.503051996,1.394825935,-3.094532013,-955.500061,15.90000057,-897.3000488,-1.816409267,-0.703820266,0.380494859,ST
20.0,-5.27143383,-3.173148394,7.077825546,-0.289635986,1.707327962,-2.614346027,-960.3000488,21.30000114,-899.7000122,-1.792283667,-0.629786101,0.413266657,ST
20.03333333,-5.3234725,-3.178531647,7.91941309,0.72408998,-0.564027965,-3.589962006,-945.9000244,7.500000477,-897.3000488,-1.799141643,-0.573241725,0.391138389,ST
20.06666667,-5.609982967,-2.437432528,7.103546143,2.210379839,-2.995445967,-2.187514067,-957.9000244,15.90000057,-911.7000122,-1.820025379,-0.616816554,0.347655812,ST
20.1,-4.641589642,-2.551677942,6.101656437,2.317087889,-2.964957952,0.160062,-965.1000366,15.30000019,-911.7000122,-1.801439419,-0.609994354,0.378790703,ST
20.13333333,-5.155394077,-3.133072853,6.586152077,1.219519973,-0.922261953,0.655492008,-965.1000366,13.50000095,-911.7000122,-1.776287124,-0.613286694,0.422847245,ST
20.16666667,-6.133955956,-3.274234533,7.78064394,-0.259148002,1.211897969,-1.23476398,-969.9000244,15.90000057,-911.7000122,-1.783390216,-0.625052362,0.40691381,ST
20.2,-5.870773315,-2.789140701,8.15687561,-0.137196004,-0.922261953,-0.998481989,-969.9000244,11.10000038,-911.7000122,-1.815330059,-0.603700734,0.35023579,DLL
20.23333333,-5.938363552,-2.999088764,7.560527325,-0.068598002,-2.446661949,0.91463995,-953.1000366,15.30000019,-914.1000366,-1.807577665,-0.620482854,0.368207484,DLL
20.26666667,-5.206236362,-2.971574306,6.063375473,-0.060975999,-0.693601966,1.42531395,-962.7000122,16.5,-918.9000244,-1.774771667,-0.646171769,0.427480899,DLL
20.3,-5.798398018,-3.449490547,6.8038764,-1.211897969,2.317087889,1.158543944,-969.9000244,18.90000153,-916.500061,-1.757607578,-0.652049225,0.458105651,DLL
20.33333333,-5.94733572,-2.959611416,7.588041782,-0.861285985,0.731711984,1.814036012,-962.7000122,12.90000057,-914.1000366,-1.796918634,-0.639230551,0.397332487,DLL
20.36666667,-5.077635765,-2.136566639,6.788922787,0.625003994,-1.55488801,3.140264034,-972.3000488,17.70000076,-906.9000244,-1.841743906,-0.625525278,0.328612539,DLL
20.4,-6.008346081,-2.75564456,7.925394535,-0.967993975,-1.250007987,4.496979713,-965.1000366,16.5,-916.500061,-1.848493854,-0.622995127,0.329906748,DLL
20.43333333,-5.80856657,-2.41948843,7.208818913,0.251525998,-1.158543944,3.91770792,-955.500061,15.30000019,-923.7000122,-1.859560502,-0.644820048,0.321223472,DLL
20.46666667,-4.661328316,-1.301559091,6.89060688,1.471045971,-1.074702024,2.888737917,-969.9000244,12.30000019,-909.3000488,-1.924922096,-0.601558543,0.214673279,DLL
20.5,-4.822228432,-1.695137143,8.241811752,-0.152439997,-0.876529992,3.056421995,-960.3000488,16.5,-911.7000122,-1.935419234,-0.544527809,0.204095123,DLL
20.53333333,-5.09079504,-1.091610909,6.900177479,1.272873998,-2.08842802,2.621968031,-957.9000244,9.300000191,-911.7000122,-1.95920289,-0.604367746,0.166468773,DLL
20.56666667,-4.854528427,-0.904392183,7.37091589,0.076219998,0.358233988,2.515259981,-969.9000244,9.900000572,-911.7000122,-1.981279162,-0.587587735,0.133184152,DLL
20.6,-5.366538525,-0.991122901,7.098760605,-0.160062,-0.358233988,3.102154016,-974.7000122,6.300000191,-909.3000488,-1.985364223,-0.627595913,0.13459211,DLL
20.63333333,-6.195564747,-1.154415965,8.207119942,-0.076219998,-0.144817993,1.882633924,-979.500061,12.90000057,-909.3000488,-1.987074287,-0.638312745,0.136692179,DLL
20.66666667,-6.168648243,-0.881662726,8.191568375,-0.586893976,-1.051836014,1.410069942,-974.7000122,10.5,-909.3000488,-2.002800435,-0.640391615,0.115041138,DLL
20.7,-5.125487328,-0.136376604,6.959393501,-1.189031959,-3.399411917,2.926847935,-979.500061,18.30000114,-918.9000244,-2.048930509,-0.633049951,0.046948811,DLL
20.73333333,-6.329548836,-0.715379,6.146517277,-2.682943821,-2.507637978,6.006135941,-981.9000244,6.900000095,-902.1000366,-2.032960401,-0.744852472,0.089797115,DLL
20.76666667,-7.080218315,-0.459971935,6.513776779,-4.794238091,-1.250007987,7.378095627,-981.9000244,17.70000076,-918.9000244,-2.059334813,-0.800574917,0.073596734,DLL
20.8,-6.602900028,-1.531844139,7.630509853,-7.568645954,-0.266770005,9.22262001,-984.3000488,14.70000076,-916.500061,-2.017676062,-0.732352301,0.164998457,DLL
20.83333333,-7.677762985,-0.965402782,7.299138546,-7.896391869,-0.731711984,8.650969505,-972.3000488,12.90000057,-904.500061,-2.053933911,-0.784762639,0.141746955,DLL
20.86666667,-7.266240597,-1.154415965,6.834979534,-9.550365448,-1.867389917,12.37812805,-979.500061,16.5,-911.7000122,-2.071038348,-0.801682275,0.155523354,DLL
20.9,-6.467720032,-1.824934244,7.5706954,-11.79123402,-3.071666002,14.33698177,-991.500061,20.70000076,-914.1000366,-2.065238521,-0.723026275,0.213624905,DLL
20.93333333,-4.898790836,-1.896113276,7.109527588,-12.7363615,-5.297289848,13.74246597,-996.3000488,21.30000114,-914.1000366,-2.078340068,-0.620708131,0.251193284,DLL
20.96666667,-5.534616947,-2.259186029,6.660322189,-12.1875782,-4.527467728,15.12204742,-984.3000488,30.30000114,-921.3000488,-2.081337603,-0.652907108,0.304094108,DLL
21.0,-4.160682678,-2.533733606,7.436113358,-13.24703598,-4.359784126,13.36898804,-1005.900024,29.10000038,-918.9000244,-2.104836111,-0.528814289,0.328348405,DLL
21.03333333,-5.174534798,-3.05950141,7.72860527,-10.01530743,-2.660078049,11.53208542,-989.1000366,34.5,-921.3000488,-2.11193895,-0.550210686,0.365732775,DLL
21.06666667,-5.333641052,-2.743681908,8.251980782,-7.904013634,-0.457319975,7.004617691,-984.3000488,32.10000229,-890.1000366,-2.143730347,-0.552755366,0.338517535,DLL
21.1,-6.184798241,-3.210233212,7.791410446,-5.259180069,0.739333987,4.458869934,-1001.100037,34.5,-892.500061,-2.132580857,-0.613923452,0.379343703,DLL
21.13333333,-5.213414192,-2.826225519,6.927093983,-5.205825806,-1.158543944,2.736297846,-991.500061,38.70000076,-897.3000488,-2.13653366,-0.610148049,0.388770819,DLL
21.16666667,-4.716357231,-3.330460072,6.67228508,-4.603687763,-2.263733864,3.307947874,-989.1000366,38.10000229,-897.3000488,-2.11597019,-0.577268886,0.443543397,DLL
21.2,-6.069356918,-2.735905886,7.530620098,-2.416173935,-1.753059983,1.379581928,-979.500061,36.30000305,-885.3000488,-2.157262795,-0.626130525,0.379664544,DLL
21.23333333,-4.38438797,-3.889723778,7.629313469,0.350611985,-0.929883957,-0.068598002,-1001.100037,36.90000153,-894.9000244,-2.12111136,-0.516637303,0.446585356,DLL
21.26666667,-7.095171928,-2.497844934,7.865580082,1.996963978,-0.952749968,-2.17227006,-996.3000488,38.10000229,-899.7000122,-2.170250191,-0.655471388,0.349924041,DLL
21.3,-5.790023804,-2.880058289,6.707575321,2.530503988,-1.394825935,-1.265251994,-1001.100037,38.70000076,-894.9000244,-2.143321506,-0.664376507,0.387576584,DLL
21.33333333,-6.738678932,-2.515191078,6.275117874,3.27745986,1.288118005,1.432935953,-993.9000244,41.70000076,-904.500061,-2.146756454,-0.749839065,0.37852852,DLL
21.36666667,-5.701498985,-2.814262629,6.888214588,1.288118005,1.509155989,-0.160062,-991.500061,36.90000153,-902.1000366,-2.140034696,-0.680691772,0.384886534,DLL
21.4,-5.910250664,-2.351300001,6.412690639,0.388722003,-1.150921941,-0.388722003,-986.7000122,35.70000076,-885.3000488,-2.155342479,-0.702881038,0.360309068,DLL
21.43333333,-6.150704384,-2.254400969,6.54488039,0.990859985,-0.556405962,0.61738199,-1008.300049,35.10000229,-916.500061,-2.169506819,-0.71901833,0.338440247,DLL
21.46666667,-6.33792305,-1.848859906,7.03715229,1.44817996,0.365855992,1.897877932,-1003.500061,35.70000076,-906.9000244,-2.209952471,-0.718797219,0.277832838,DLL
21.5,-6.712360382,-1.945160985,7.282390594,2.690565825,1.074702024,2.103672028,-989.1000366,39.30000305,-894.9000244,-2.22050893,-0.727018112,0.260601308,DLL
21.53333333,-5.235545635,-2.084528208,7.027581692,1.943609953,-0.022865999,0.891773999,-979.500061,29.10000038,-894.9000244,-2.208372418,-0.649879747,0.278127892,DLL
21.56666667,-5.158983231,-2.035480499,7.332634449,-0.434453994,-1.608241916,0.670735955,-991.500061,33.90000153,-899.7000122,-2.213629722,-0.610363756,0.272545928,DLL
21.6,-6.479682922,-1.125106931,7.359550953,-0.495429993,-2.896359921,1.189031959,-996.3000488,36.30000305,-911.7000122,-2.266642559,-0.68199413,0.189679502,DLL
21.63333333,-4.720544338,-2.44760108,7.582658291,-0.266770005,-1.387203932,2.515259981,-996.3000488,36.30000305,-902.1000366,-2.219646531,-0.579235566,0.276294592,DLL
21.66666667,-5.25947094,-1.788447499,7.769877434,-0.243903995,-2.118916035,0.434453994,-996.3000488,35.70000076,-890.1000366,-2.240655207,-0.57972792,0.240888884,DLL
21.7,-4.058998108,-1.128097653,7.367327213,0.350611985,-2.972579956,0.457319975,-1005.900024,41.70000076,-899.7000122,-2.275477075,-0.520001913,0.176717653,DLL
21.73333333,-5.704489708,-1.061703801,7.702885151,0.503051996,-1.166165948,1.806414008,-996.3000488,39.90000153,-906.9000244,-2.293421242,-0.597898082,0.147603578,DLL
21.76666667,-4.489661217,-1.554573536,7.843448639,0.182927996,-0.739333987,-0.205793992,-1003.500061,29.10000038,-914.1000366,-2.27482294,-0.536780543,0.181697988,DLL
21.8,-5.932382107,-0.942673326,7.98760128,0.40396598,-0.91463995,-0.556405962,-1001.100037,38.10000229,-897.3000488,-2.297648871,-0.604772842,0.137768255,DLL
21.83333333,-4.394556522,-1.554573536,7.914029598,-1.135677934,-1.067080021,-0.945127964,-1010.700012,38.10000229,-904.500061,-2.274218412,-0.52663132,0.181419342,DLL
21.86666667,-5.944344997,-1.573714137,8.495424271,-1.196653962,-1.028970003,0.579271972,-998.7000122,33.90000153,-909.3000488,-2.275440749,-0.581494623,0.183694857,DLL
21.9,-5.204442024,-1.924225926,8.707765579,0.716467977,-0.099086002,0.228659987,-993.9000244,39.30000305,-909.3000488,-2.262490983,-0.542888741,0.207388409,DLL
21.93333333,-4.609888077,-1.159799218,8.276504517,-0.464941978,-0.602137983,-2.378063917,-1001.100037,38.70000076,-902.1000366,-2.283358457,-0.513675312,0.159878607,DLL
21.96666667,-4.317994118,-1.485787153,6.899579048,0.80793196,0.015244,0.198172003,-1003.500061,39.30000305,-911.7000122,-2.264236227,-0.539974106,0.197002171,DLL
22.0,-5.162571907,-1.801008463,7.663407803,0.708845973,2.934469938,-0.625003994,-1013.100037,29.70000076,-899.7000122,-2.248428643,-0.573399656,0.221896536,DLL
22.03333333,-5.748752117,-1.836298943,7.652042866,0.495429993,3.468009949,-2.309465885,-991.500061,36.30000305,-897.3000488,-2.237223601,-0.6170923,0.233293511,DLL
22.06666667,-6.111226559,-1.533638597,8.170034409,-0.282013983,3.00306797,-2.545747995,-996.3000488,35.10000229,-894.9000244,-2.250729435,-0.631936289,0.203145004,DLL
22.1,-5.324070454,-2.135968447,7.02937603,1.364337921,2.614346027,-1.211897969,-993.9000244,35.10000229,-897.3000488,-2.208826877,-0.631783633,0.267458891,DLL
22.13333333,-6.413887024,-2.064789534,7.43192625,1.600619912,3.544229984,-2.263733864,-986.7000122,35.10000229,-897.3000488,-2.200735742,-0.678466797,0.270966604,DLL
22.16666667,-5.543589115,-2.995500088,6.831988811,1.34147191,3.231727839,-3.68142581,-991.500061,33.30000305,-906.9000244,-2.129217755,-0.654333608,0.374210297,DLL
22.2,-5.656039715,-2.293280125,6.451570034,0.007622,1.699705958,-5.007653713,-984.3000488,34.5,-909.3000488,-2.132841562,-0.679419055,0.356727511,DLL
22.23333333,-6.057394028,-2.528948545,6.006551743,0.129574001,0.800309956,-2.629590034,-1003.500061,38.10000229,-897.3000488,-2.108740775,-0.727723737,0.388185648,DLL
22.26666667,-6.662116528,-2.851945639,6.410298347,0.358233988,2.789651871,-2.423795938,-981.9000244,36.30000305,-894.9000244,-2.087626421,-0.751961524,0.412598883,DLL
22.3,-4.868285656,-3.749758244,5.721835613,0.685979962,2.301843882,-3.102154016,-974.7000122,33.30000305,-890.1000366,-1.996282184,-0.655756198,0.543389077,DLL
22.33333333,-6.512580872,-3.113334179,6.232649803,-1.356715918,-1.303362012,-2.225623846,-993.9000244,37.5,-894.9000244,-2.029870146,-0.722865123,0.490180557,DLL
22.36666667,-5.524448395,-3.592446804,6.116012096,-0.586893976,-2.317087889,1.356715918,-991.500061,31.50000191,-892.500061,-2.015238393,-0.676089769,0.519161413,DLL
22.4,-7.185491562,-3.483584642,6.81524086,-0.030487999,0.007622,0.274392009,-979.500061,42.30000305,-887.7000122,-2.036255736,-0.730709924,0.487213466,DLL
22.43333333,-6.396541119,-3.721047401,6.703986645,0.335367978,0.792688012,-0.83079797,-986.7000122,35.10000229,-894.9000244,-2.024850285,-0.70631942,0.501771608,DLL
22.46666667,-7.796793461,-2.874675035,6.484467983,-0.678357959,-1.227141976,0.91463995,-981.9000244,36.90000153,-890.1000366,-2.066287779,-0.794074612,0.44479593,DLL
22.5,-6.013131142,-4.204945087,6.953412056,-0.53354001,-0.80793196,2.400929928,-993.9000244,35.70000076,-899.7000122,-2.021715414,-0.683418923,0.516697648,DLL
22.53333333,-6.669294357,-2.996098042,6.699201107,-1.250007987,-1.875011921,-0.167683989,-984.3000488,32.70000076,-909.3000488,-2.068812071,-0.721694479,0.447723361,DLL
22.56666667,-6.575385571,-3.102567673,6.340913773,0.556405962,-1.23476398,2.87349391,-991.500061,35.70000076,-902.1000366,-2.07156416,-0.74159355,0.448673722,DLL
22.6,-5.89529705,-3.1276896,7.051507473,0.114329994,-0.823175967,3.803377867,-991.500061,41.70000076,-899.7000122,-2.095253195,-0.675905469,0.420708409,DLL
22.63333333,-5.518466949,-2.630034685,7.192070961,0.160062,-1.85214591,4.314052105,-996.3000488,32.10000229,-899.7000122,-2.136139087,-0.638651677,0.364626931,DLL
22.66666667,-5.861203194,-2.363262892,7.076629639,1.562510014,-0.998481989,4.542711735,-996.3000488,34.5,-899.7000122,-2.162349001,-0.658496603,0.3290393,DLL
22.7,-5.55674839,-2.502630234,7.613163948,0.708845973,-0.182927996,3.079288006,-989.1000366,35.10000229,-897.3000488,-2.172666683,-0.622951591,0.317454617,DLL
22.73333333,-6.245809078,-1.165182471,7.757914543,0.891773999,-1.486289978,1.730193973,-991.500061,32.10000229,-897.3000488,-2.245656602,-0.657852979,0.198504087,DLL
22.76666667,-4.594934464,-2.518779993,7.917618275,1.143299937,-0.769822001,2.46952796,-993.9000244,33.30000305,-890.1000366,-2.205063994,-0.551772722,0.274276616,DLL
22.8,-5.185899734,-0.317015767,6.437812805,0.282013983,-4.001549721,0.007622,-1003.500061,31.50000191,-890.1000366,-2.291661271,-0.637604428,0.121642728,DLL
22.83333333,-5.800192356,-1.596443534,7.247100353,2.164648056,-0.091463998,3.346057892,-1008.300049,34.5,-899.7000122,-2.257552655,-0.656760867,0.182041905,DLL
22.86666667,-3.698318005,-2.176642179,7.576078892,0.945127964,0.952749968,-0.960371971,-996.3000488,38.70000076,-899.7000122,-2.215830142,-0.506018434,0.253419031,DLL
22.9,-4.956810951,-0.964206457,7.872757912,-0.42683199,-2.378063917,-2.667700052,-996.3000488,35.70000076,-897.3000488,-2.257399105,-0.54019152,0.164661733,DLL
22.93333333,-6.733295441,-1.096994162,8.22027874,0.068598002,-1.913121939,-0.060975999,-1003.500061,38.70000076,-906.9000244,-2.270060638,-0.63871225,0.142572975,DLL
22.96666667,-5.038158417,-1.692744613,8.034255981,-0.907018006,-0.464941978,-2.225623846,-1008.300049,35.10000229,-894.9000244,-2.238746559,-0.573787692,0.193634616,DLL
23.0,-4.539905071,-1.898505807,7.833878517,1.135677934,-0.099086002,-1.310984015,-998.7000122,37.5,-911.7000122,-2.219684296,-0.530891819,0.224461844,DLL
23.03333333,-4.337732792,-1.865009785,7.376897335,-0.518296003,-0.61738199,-2.522881985,-1008.300049,35.70000076,-904.500061,-2.207390729,-0.520539468,0.242962619,DLL
23.06666667,-6.833783627,-1.258492827,7.713053703,0.495429993,0.701223969,-0.198172003,-1001.100037,31.50000191,-909.3000488,-2.237201468,-0.662312776,0.188125086,DLL
23.1,-5.682956219,-2.377618313,8.807655334,1.432935953,3.528985977,0.205793992,-1015.500061,33.90000153,-909.3000488,-2.203849732,-0.593383408,0.241134788,DLL
23.13333333,-5.943746567,-1.43793571,7.652641296,1.402447939,2.096050024,-2.606724024,-981.9000244,31.50000191,-911.7000122,-2.220454542,-0.638693547,0.20177129,DLL
23.16666667,-4.695422173,-1.36735487,6.66510725,1.661595941,1.135677934,-1.730193973,-1001.100037,40.5,-899.7000122,-2.216034605,-0.615399325,0.201856992,DLL
23.2,-6.643573761,-1.741792321,6.630414963,1.42531395,2.446661949,-0.861285985,-1003.500061,35.10000229,-911.7000122,-2.189278679,-0.72794654,0.239374157,DLL
23.23333333,-5.489158154,-2.388384819,7.39424324,-0.61738199,2.835383892,-4.100636005,-989.1000366,28.50000191,-897.3000488,-2.146778331,-0.651251608,0.297440531,DLL
23.26666667,-4.425061703,-2.822636604,7.211809635,-0.327746004,0.83079797,-3.414655924,-989.1000366,31.50000191,-897.3000488,-2.107231658,-0.553621106,0.358234107,DLL
23.3,-6.94982338,-2.658147335,6.549067497,0.731711984,0.121951997,-2.149404049,-989.1000366,36.90000153,-914.1000366,-2.091425241,-0.714010522,0.378848392,DLL
23.33333333,-5.148216724,-3.676784754,6.864288807,0.304879993,1.882633924,-3.795755863,-991.500061,29.70000076,-902.1000366,-2.028275122,-0.617431162,0.469802031,DLL
23.36666667,-5.987411022,-3.333450794,6.317585945,-0.213415995,1.859767914,-3.887219906,-1005.900024,42.30000305,-897.3000488,-2.013411968,-0.673255745,0.485014469,DLL
23.4,-5.689536095,-3.132474661,6.265547752,-1.379581928,-0.510674,-1.897877932,-993.9000244,39.90000153,-887.7000122,-2.020818971,-0.678221062,0.472340909,DLL
23.43333333,-6.973748684,-3.487173557,6.691425323,0.137196004,0.114329994,0.846041977,-984.3000488,28.50000191,-892.500061,-2.01846386,-0.728834591,0.477334361,DLL
23.46666667,-6.925299168,-3.466238499,7.617350578,-0.487807989,0.076219998,-1.120433927,-981.9000244,40.5,-902.1000366,-2.040614021,-0.7011817,0.442290472,DLL
23.5,-4.855126381,-4.256385326,7.116704941,-0.701223969,-1.158543944,-0.846041977,-984.3000488,33.30000305,-899.7000122,-1.998088673,-0.580177731,0.513937802,DLL
23.53333333,-7.712455273,-2.841179132,6.204536915,0.579271972,-2.126538038,1.669217944,-993.9000244,33.30000305,-906.9000244,-2.03790947,-0.771092628,0.455507514,DLL
23.56666667,-5.767892838,-4.09488678,6.654340744,1.059458017,0.800309956,3.201239824,-1003.500061,36.30000305,-897.3000488,-1.995823121,-0.679948509,0.521737775,DLL
23.6,-6.857708931,-3.387283564,7.567106724,0.221037999,0.358233988,1.021348,-996.3000488,39.30000305,-892.500061,-2.044201347,-0.689700335,0.446476128,DLL
23.63333333,-5.139244556,-2.857927084,6.520356655,-0.525918007,-2.568614006,1.196653962,-989.1000366,28.50000191,-914.1000366,-2.063189785,-0.642429378,0.421469375,DLL
23.66666667,-8.625221252,-2.151520252,6.232649803,0.945127964,-1.585376024,3.971061945,-991.500061,35.10000229,-902.1000366,-2.109198112,-0.834362153,0.360560982,DLL
23.7,-4.775573254,-3.509902954,8.004947662,-0.640248001,-0.121951997,1.859767914,-998.7000122,37.5,-894.9000244,-2.085665434,-0.59801146,0.401747745,DLL
23.73333333,-4.819237709,-2.353692532,6.644172192,0.876529992,-2.637212038,2.027451992,-993.9000244,29.70000076,-890.1000366,-2.11490618,-0.597282531,0.35551013,DLL
23.76666667,-5.77088356,-2.05701375,6.005355358,0.998481989,-2.568614006,2.667700052,-1015.500061,34.5,-906.9000244,-2.131884521,-0.695326279,0.333750036,DLL
23.8,-5.291770935,-2.791533232,7.546171665,0.853663981,0.678357959,4.146368027,-996.3000488,38.10000229,-906.9000244,-2.129579103,-0.618437102,0.34434354,DLL
23.83333333,-5.822323799,-1.90867424,8.524733543,-0.632625997,-0.480185986,2.339953899,-991.500061,33.30000305,-899.7000122,-2.184105166,-0.598148895,0.255866328,DLL
23.86666667,-4.596130371,-2.004975319,6.889410973,1.242385983,-1.471045971,2.583858013,-984.3000488,29.10000038,-899.7000122,-2.17837272,-0.576633882,0.271841823,DLL
23.9,-6.260164261,-1.53902185,8.470302582,0.861285985,-0.998481989,1.509155989,-991.500061,31.50000191,-892.500061,-2.216963123,-0.612741925,0.205832849,DLL
23.93333333,-4.205543041,-2.390179396,7.912833214,1.600619912,-0.396344006,1.455801964,-986.7000122,34.5,-904.500061,-2.185604045,-0.513884201,0.265859501,DLL
23.96666667,-2.820244074,-1.611397147,6.973748684,0.472563982,-3.315569878,-2.423795938,-1001.100037,33.90000153,-902.1000366,-2.195419437,-0.406783361,0.237339684,DLL
24.0,-4.830004692,-1.244735479,7.524040222,1.440557957,-2.850627899,-2.08842802,-1015.500061,30.30000114,-906.9000244,-2.214551033,-0.513219428,0.186978485,DLL
24.03333333,-5.646469593,-1.098190546,8.564808846,3.986305952,0.076219998,-1.112811923,-1015.500061,28.50000191,-904.500061,-2.232432754,-0.559324132,0.141935055,DLL
24.06666667,-2.931498766,-2.619268179,8.808253288,6.699738026,2.210379839,-4.588443756,-1003.500061,22.5,-904.500061,-2.171821286,-0.384016852,0.245620519,DLL
24.1,-5.103355885,-1.00966537,8.704176903,7.439071655,1.951231956,-10.8079958,-1005.900024,27.30000114,-916.500061,-2.187873004,-0.48660939,0.152550203,DLL
24.13333333,-5.882137775,-1.858430266,8.830983162,9.649452209,1.547266006,-8.422309875,-1001.100037,27.30000114,-904.500061,-2.148953379,-0.552907314,0.185743464,DLL
24.16666667,-5.693124771,-2.281915426,8.769373894,10.78512955,3.163130045,-11.29580402,-996.3000488,18.30000114,-921.3000488,-2.096172281,-0.559917016,0.231209665,DLL
24.2,-4.741479397,-1.079648018,7.265044689,10.11439419,0.899396002,-13.3308773,-1005.900024,24.30000114,-921.3000488,-2.099562308,-0.567625811,0.169587953,DLL
24.23333333,-5.618955135,-0.85654074,7.095769882,9.557988167,0.655492008,-11.56257343,-1013.100037,23.10000038,-916.500061,-2.093201617,-0.63793649,0.132637101,DLL
24.26666667,-5.272032261,-0.475523651,6.984515667,8.117429733,1.082324028,-9.984819412,-1001.100037,14.10000038,-928.500061,-2.098344121,-0.64344987,0.086727498,DLL
24.3,-5.937167168,-0.86371845,7.09337759,6.288149834,2.477149963,-6.646383762,-1013.100037,11.70000076,-918.9000244,-2.068337787,-0.680565189,0.109425667,DLL
24.33333333,-5.569309235,-1.230380058,7.966666222,4.016793728,3.650938034,-7.515291691,-998.7000122,11.70000076,-928.500061,-2.031089653,-0.628842468,0.144345238,DLL
24.36666667,-5.506504059,-1.189706326,7.097564697,2.896359921,1.432935953,-5.891805649,-989.1000366,12.90000057,-928.500061,-2.007920126,-0.647434561,0.162386042,DLL
24.4,-5.906661987,-1.72504437,9.22336483,0.0,2.560992002,-5.838451862,-979.500061,11.70000076,-923.7000122,-1.98685299,-0.589391071,0.183761893,DLL
24.43333333,-4.118812561,-1.837495208,7.001263618,1.631107926,0.442075998,-5.091495991,-972.3000488,15.90000057,-923.7000122,-1.94922463,-0.538458124,0.237412202,DLL
24.46666667,-4.657141209,-2.426067829,7.623332024,0.846041977,1.951231956,-5.510705948,-986.7000122,16.5,-914.1000366,-1.912091572,-0.531163543,0.291157192,DLL
24.5,-5.481980324,-2.308233738,6.453962803,1.509155989,3.414655924,-5.091495991,-984.3000488,11.10000038,-926.1000366,-1.879369359,-0.637152473,0.33146472,DLL
24.53333333,-5.289378166,-2.899199009,7.111321926,0.480185986,4.275941849,-4.199721813,-960.3000488,11.10000038,-926.1000366,-1.843679536,-0.615433164,0.377271084,DLL
24.56666667,-5.22956419,-2.872880697,6.943243504,0.731711984,3.635694027,-4.192100048,-969.9000244,18.90000153,-923.7000122,-1.827370007,-0.612435959,0.391434872,DLL
24.6,-6.881634712,-3.21262598,7.461235523,1.257629991,2.027451992,-2.957335949,-967.500061,16.5,-909.3000488,-1.813884452,-0.676426116,0.403684069,DLL
24.63333333,-6.220686913,-3.320889711,8.159866333,0.266770005,2.179892063,-2.06556201,-957.9000244,10.5,-904.500061,-1.815916571,-0.634806947,0.393755902,DLL
