seconds,sensor_accX_m_s_,sensor_accY_m_s_,sensor_accZ_m_s_,sensor_gyroX___s_,sensor_gyroY___s_,sensor_gyroZ___s_,sensor_magX__T_,sensor_magY__T_,sensor_magZ__T_,sensor_yaw___,sensor_pitch___,sensor_roll___,label3
0.0,-6.045431137,-1.182528615,7.338017941,0.190549999,0.106707998,0.335367978,-967.500061,6.300000191,-928.500061,0.895373017,-0.683067466,0.158971004,ST
0.033333333,-6.056795597,-1.127499461,7.359550953,0.243903995,-0.152439997,0.388722003,-957.9000244,7.500000477,-911.7000122,0.889648586,-0.682762859,0.151232662,ST
0.066666667,-5.98920536,-1.123910666,7.261455536,0.274392009,-0.312501997,0.472563982,-967.500061,12.30000019,-892.500061,0.889097281,-0.683445826,0.152325377,ST
0.1,-5.994588852,-1.144247532,7.305718422,0.182927996,-0.320124,0.449698001,-965.1000366,9.300000191,-914.1000366,0.888946694,-0.680843355,0.154289074,ST
0.133333333,-5.993990898,-1.13886416,7.269231319,0.160062,-0.282013983,0.487807989,-955.500061,5.700000286,-899.7000122,0.887268478,-0.683201614,0.15437826,ST
0.166666667,-6.014925957,-1.15082705,7.257268906,0.137196004,-0.121951997,0.556405962,-967.500061,6.300000191,-897.3000488,0.886514121,-0.685848006,0.156170977,ST
0.2,-5.995186806,-1.102975607,7.279399872,0.099086002,0.015244,0.53354001,-967.500061,4.5,-897.3000488,0.880597803,-0.683620845,0.149638708,ST
0.233333333,-5.981429577,-1.104770064,7.343401432,0.045731999,-0.007622,0.495429993,-969.9000244,6.300000191,-906.9000244,0.878102583,-0.678328556,0.148582682,ST
0.266666667,-5.975448132,-1.065890789,7.351775169,0.076219998,-0.060975999,0.495429993,-974.7000122,7.500000477,-902.1000366,0.873018605,-0.677448987,0.143294865,ST
0.3,-5.942550182,-1.078451753,7.331438541,0.099086002,-0.083841994,0.472563982,-957.9000244,3.900000095,-897.3000488,0.872430104,-0.675917866,0.145173339,ST
0.333333333,-6.012533188,-1.030002236,7.339214325,0.144817993,-0.015244,0.487807989,-957.9000244,10.5,-897.3000488,0.866749303,-0.681555871,0.138631081,ST
0.366666667,-5.959896564,-1.00727272,7.323064327,0.137196004,0.030487999,0.564027965,-977.1000366,12.90000057,-902.1000366,0.863148133,-0.678810395,0.135750182,ST
0.4,-5.98920536,-0.986337781,7.303325653,0.053353999,0.106707998,0.602137983,-965.1000366,3.900000095,-906.9000244,0.859419677,-0.682660442,0.133379455,ST
0.433333333,-6.057991982,-1.00488019,7.317082882,-0.076219998,0.304879993,0.632625997,-972.3000488,15.30000019,-902.1000366,0.858220178,-0.687511163,0.135717105,ST
0.466666667,-6.020308971,-0.981552601,7.203435898,-0.083841994,0.442075998,0.685979962,-953.1000366,5.100000381,-902.1000366,0.854735809,-0.69244878,0.134701594,ST
0.5,-6.087899208,-1.043161392,7.192669392,-0.121951997,0.72408998,0.609759986,-957.9000244,11.70000076,-894.9000244,0.857821811,-0.698507861,0.143267163,ST
0.533333333,-6.102852821,-1.029404044,7.061077595,0.038109999,0.967993975,0.625003994,-965.1000366,13.50000095,-894.9000244,0.856507809,-0.709069507,0.143963067,ST
0.566666667,-6.322371006,-1.092209101,7.084405422,0.137196004,1.211897969,0.701223969,-950.7000122,8.100000381,-921.3000488,0.85995456,-0.724814934,0.151814804,ST
0.6,-6.36842823,-1.032394767,7.047320366,0.243903995,1.303362012,0.655492008,-953.1000366,11.70000076,-899.7000122,0.854083273,-0.731826925,0.144470095,ST
0.633333333,-6.378596783,-1.060507536,7.073638916,0.518296003,0.929883957,0.625003994,-965.1000366,10.5,-899.7000122,0.855767169,-0.730055986,0.14710517,ST
0.666666667,-6.50001955,-1.027011514,6.9659729,0.503051996,0.503051996,0.449698001,-965.1000366,3.900000095,-904.500061,0.854664025,-0.745985507,0.144960776,ST
0.7,-6.553254604,-1.010263443,6.869073868,0.518296003,0.152439997,0.548784018,-953.1000366,4.5,-904.500061,0.854049868,-0.756760923,0.144275095,ST
0.733333333,-6.541291714,-0.988730311,6.906158924,0.53354001,0.144817993,0.685979962,-955.500061,12.90000057,-890.1000366,0.850732892,-0.75371258,0.140301085,ST
0.766666667,-6.535310268,-0.943271458,7.010235786,0.480185986,-0.099086002,0.785066009,-957.9000244,4.5,-897.3000488,0.843675947,-0.746100829,0.131872122,ST
0.8,-6.334333897,-0.945664048,7.146014214,0.564027965,-0.564027965,0.907018006,-948.3000488,9.900000572,-906.9000244,0.840053386,-0.720885336,0.129166226,ST
0.833333333,-6.24102354,-0.884653449,6.963580608,0.472563982,-0.891773999,0.647870004,-962.7000122,6.300000191,-909.3000488,0.835657778,-0.725231295,0.12450119,ST
0.866666667,-6.342708111,-0.836802006,7.035357475,0.312501997,-0.868907988,0.541162014,-945.9000244,-1.5,-909.3000488,0.829304403,-0.728685969,0.117052752,ST
0.9,-6.212911129,-0.83082056,7.137639999,0.205793992,-0.785066009,0.525918007,-948.3000488,5.100000381,-906.9000244,0.826034517,-0.712119645,0.11466053,ST
0.933333333,-6.220088959,-0.79313755,7.078423977,0.099086002,-0.769822001,0.487807989,-943.500061,3.300000191,-890.1000366,0.821382939,-0.716517792,0.110630201,ST
0.966666667,-6.218294144,-0.824839175,7.027581692,-0.106707998,-0.381099999,0.381099999,-965.1000366,5.100000381,-914.1000366,0.823050644,-0.720293985,0.116218914,ST
1.0,-6.10943222,-0.85654074,7.099359035,-0.266770005,0.015244,0.190549999,-948.3000488,0.300000012,-899.7000122,0.823984728,-0.707448067,0.120146624,ST
1.033333333,-6.200948238,-0.888242304,7.156182289,-0.320124,0.099086002,-0.038109999,-955.500061,10.5,-914.1000366,0.825542095,-0.710341079,0.124062308,ST
1.066666667,-6.345698833,-0.93669188,7.15678072,-0.129574001,0.175305992,-0.030487999,-948.3000488,10.5,-902.1000366,0.829400018,-0.721283353,0.130333178,ST
1.1,-6.345100403,-0.9719823,7.116704941,-0.045731999,0.160062,0.053353999,-948.3000488,5.700000286,-904.500061,0.832617546,-0.723774964,0.135621169,ST
1.133333333,-6.378596783,-0.961813927,7.078423977,0.106707998,-0.022865999,0.068598002,-955.500061,1.5,-897.3000488,0.832151155,-0.728731418,0.134779204,ST
1.166666667,-6.401924133,-0.997104347,6.991095066,0.198172003,-0.182927996,0.091463998,-955.500061,14.70000076,-897.3000488,0.836528653,-0.735928286,0.14096512,ST
1.2,-6.382185459,-1.001889467,6.994085789,0.243903995,-0.342989981,0.030487999,-960.3000488,3.900000095,-902.1000366,0.837645219,-0.73407479,0.141718451,ST
1.233333333,-6.513178825,-0.966000915,6.971356392,0.388722003,-0.61738199,0.015244,-948.3000488,12.30000019,-897.3000488,0.835432996,-0.745312916,0.136984243,ST
1.266666667,-6.534711838,-0.942075193,6.924701214,0.442075998,-0.716467977,0.083841994,-948.3000488,6.300000191,-909.3000488,0.834437475,-0.750490953,0.134228651,ST
1.3,-6.460542202,-1.038974285,6.700995922,0.525918007,-0.785066009,0.015244,-962.7000122,9.900000572,-916.500061,0.848431242,-0.759702772,0.152388605,ST
1.333333333,-6.611872196,-1.012656093,6.995282173,0.106707998,-0.785066009,-0.022865999,-957.9000244,11.10000038,-892.500061,0.842487601,-0.75093717,0.143672878,ST
1.366666667,-6.290669441,-0.937290013,7.079021931,0.129574001,-1.326228023,0.327746004,-962.7000122,8.100000381,-928.500061,0.832480905,-0.720810545,0.130989151,ST
1.4,-6.232051849,-1.012656093,7.343401432,0.152439997,-1.516777992,0.480185986,-965.1000366,8.700000763,-904.500061,0.833231687,-0.697064673,0.135673613,ST
1.433333333,-6.176424503,-0.802707851,7.433721066,0.548784018,-1.775925994,0.503051996,-957.9000244,5.100000381,-916.500061,0.813554754,-0.687712183,0.106426991,ST
1.466666667,-6.120198727,-0.86611104,7.238128185,0.899396002,-1.63872993,0.762199998,-969.9000244,0.900000036,-911.7000122,0.818800134,-0.695500148,0.115870956,ST
1.5,-6.168050289,-0.718369722,7.333830833,0.632625997,-1.318606019,0.655492008,-962.7000122,13.50000095,-914.1000366,0.805012875,-0.694762104,0.09595756,ST
1.533333333,-6.005355358,-0.43544808,7.025787354,0.868907988,-0.846041977,0.929883957,-967.500061,2.100000143,-897.3000488,0.780812979,-0.704661061,0.059943043,ST
1.566666667,-5.833090305,-0.778183997,6.749445438,0.670735955,-0.137196004,0.632625997,-965.1000366,8.100000381,-918.9000244,0.813837017,-0.709212891,0.111211132,ST
1.6,-6.248799801,-0.608909547,7.186089516,0.038109999,0.419209987,-0.198172003,-969.9000244,8.100000381,-921.3000488,0.798121634,-0.71453,0.085539586,ST
1.633333333,-6.558637619,-0.366661638,7.278801918,0.198172003,0.442075998,-0.076219998,-960.3000488,6.900000095,-906.9000244,0.776410432,-0.733024188,0.051118678,ST
1.666666667,-6.174629688,-0.715379,6.619050026,0.449698001,0.952749968,0.129574001,-960.3000488,6.300000191,-899.7000122,0.815002198,-0.749213006,0.105944972,ST
1.7,-6.444392204,-0.631040812,6.670490265,-0.320124,1.631107926,-0.564027965,-972.3000488,3.300000191,-902.1000366,0.809974248,-0.768144248,0.096358656,ST
1.733333333,-6.726117611,-0.602928102,7.052703857,-0.114329994,1.55488801,-0.228659987,-960.3000488,3.300000191,-904.500061,0.80400799,-0.762704484,0.086360003,ST
1.766666667,-6.235640526,-0.994113624,6.517963886,-0.167683989,0.800309956,-0.434453994,-960.3000488,2.100000143,-904.500061,0.849817561,-0.758928056,0.150758538,ST
1.8,-6.863690376,-0.736313999,6.497627258,-0.876529992,0.594515979,-0.93750596,-965.1000366,5.700000286,-899.7000122,0.826543453,-0.809048148,0.117189969,ST
1.833333333,-7.162762165,-0.689060688,6.988702297,-0.632625997,0.510674,-0.396344006,-953.1000366,11.70000076,-902.1000366,0.81377359,-0.796367552,0.100522194,ST
1.866666667,-6.934271336,-0.631040812,6.762604237,0.007622,0.076219998,0.114329994,-948.3000488,3.900000095,-909.3000488,0.808074436,-0.795927708,0.093049108,ST
1.9,-6.746454716,-0.97676748,5.607590199,0.129574001,0.53354001,0.213415995,-950.7000122,17.10000038,-902.1000366,0.865410766,-0.86961661,0.170418431,ST
1.933333333,-6.648957253,-0.72016412,5.980831623,-0.708845973,0.93750596,0.038109999,-957.9000244,8.100000381,-909.3000488,0.826836439,-0.837224987,0.122494557,ST
1.966666667,-6.639985085,-0.704014301,5.96587801,-0.350611985,-0.076219998,0.602137983,-948.3000488,7.500000477,-902.1000366,0.819341728,-0.835425541,0.117056101,ST
2.0,-6.870868206,-0.848166704,6.139339447,-0.640248001,-0.80793196,0.312501997,-943.500061,6.900000095,-897.3000488,0.83025009,-0.835542892,0.137031539,ST
2.033333333,-6.967767239,-1.268063068,6.451570034,-0.419209987,-1.089946032,0.472563982,-957.9000244,9.300000191,-911.7000122,0.866768223,-0.813240205,0.192250921,ST
2.066666667,-6.870270252,-1.333858848,6.270332813,-1.692083955,-1.135677934,-0.876529992,-950.7000122,8.700000763,-914.1000366,0.877718315,-0.817629688,0.213198736,ST
2.1,-7.114910603,-1.50612402,7.077227592,-0.61738199,-1.067080021,-0.144817993,-945.9000244,9.300000191,-909.3000488,0.873360132,-0.77626043,0.210684482,ST
2.133333333,-6.926495552,-1.719062924,7.477385521,0.182927996,-1.775925994,-0.015244,-962.7000122,13.50000095,-894.9000244,0.882182144,-0.732540136,0.224677972,ST
2.166666667,-6.868475914,-0.968393445,7.132256985,1.699705958,-3.346057892,0.693601966,-957.9000244,12.90000057,-902.1000366,0.821211231,-0.755778858,0.132735006,ST
2.2,-6.384578228,-0.867905438,6.648359299,2.004585981,-3.589962006,1.501533985,-960.3000488,6.900000095,-921.3000488,0.814581688,-0.755076056,0.123364404,ST
2.233333333,-6.187788963,-0.759641588,6.965374947,1.227141976,-3.376545906,0.846041977,-965.1000366,3.900000095,-916.500061,0.801833572,-0.718599742,0.105076054,ST
2.266666667,-6.302034378,-0.480906963,7.333830833,1.120433927,-3.246971846,0.42683199,-969.9000244,2.700000048,-914.1000366,0.775958962,-0.703635733,0.063719346,ST
2.3,-5.985616684,-0.32000649,6.95460844,0.868907988,-2.934469938,0.312501997,-986.7000122,10.5,-904.500061,0.764513305,-0.705004853,0.044342988,ST
2.333333333,-6.188387394,-0.162694886,7.291362762,0.663114011,-2.141782045,0.205793992,-979.500061,6.900000095,-897.3000488,0.750860819,-0.700045095,0.021417799,ST
2.366666667,-6.495234489,-0.073571585,7.768082619,-0.236281991,-1.394825935,-0.632625997,-969.9000244,2.700000048,-904.500061,0.745870033,-0.694093501,0.011070673,ST
2.4,-6.434822083,-0.138769165,7.763297558,-0.640248001,-1.356715918,-0.411587983,-986.7000122,11.70000076,-921.3000488,0.750570064,-0.689735887,0.019373013,ST
2.433333333,-6.10943222,-0.321202785,8.002554893,-1.112811923,-1.036592007,-1.04421401,-991.500061,3.900000095,-916.500061,0.765671464,-0.650861232,0.04275421,ST
2.466666667,-5.790622234,-0.579600513,8.004947662,-1.34147191,-1.067080021,-1.669217944,-979.500061,9.300000191,-914.1000366,0.787998393,-0.623600908,0.07582561,ST
2.5,-5.892904758,-0.6753034,7.355364323,-1.562510014,-0.922261953,-2.134160042,-981.9000244,4.5,-923.7000122,0.803918302,-0.670150226,0.096500329,ST
2.533333333,-6.755426884,-1.506722093,7.750138283,-2.248489857,0.739333987,-1.981719971,-974.7000122,14.10000038,-921.3000488,0.868047223,-0.707379421,0.196162554,ST
2.566666667,-7.040142536,-1.815962076,8.098855972,-2.23324585,0.884151995,-1.600619912,-986.7000122,6.300000191,-906.9000244,0.886970129,-0.704430636,0.226237433,ST
2.6,-7.095171928,-2.669512033,8.19396019,-1.806414008,1.112811923,-1.280496001,-989.1000366,12.30000019,-921.3000488,0.946497625,-0.690244374,0.31866842,ST
2.633333333,-7.455254078,-2.902189732,8.58095932,-1.547266006,0.769822001,-1.219519973,-984.3000488,15.30000019,-911.7000122,0.954544108,-0.689232824,0.330520835,ST
2.666666667,-7.071844578,-3.241336823,7.461235523,-0.762199998,0.045731999,-0.678357959,-984.3000488,15.30000019,-928.500061,1.005746536,-0.714543646,0.409844289,ST
2.7,-5.79660368,-3.679775476,6.557441235,-1.516777992,1.585376024,-1.189031959,-984.3000488,18.30000114,-914.1000366,1.074475427,-0.659364324,0.514350678,ST
2.733333333,-5.877951145,-4.03148365,6.705780983,-1.067080021,1.974097967,-0.746955991,-967.500061,12.90000057,-916.500061,1.096246993,-0.646925193,0.54450927,ST
2.766666667,-6.511982441,-4.242030144,6.375007629,-0.769822001,1.791170001,-0.320124,-974.7000122,6.900000095,-899.7000122,1.126608702,-0.705401327,0.589031177,ST
2.8,-7.102349758,-3.187503815,7.28897047,-0.388722003,1.920743942,0.556405962,-967.500061,15.90000057,-904.500061,1.013942493,-0.73175767,0.418187629,ST
2.833333333,-6.166255951,-4.036867142,4.69243145,2.248489857,1.196653962,2.263733864,-962.7000122,9.900000572,-911.7000122,1.209928312,-0.786738843,0.696474444,ST
2.866666667,-5.939559937,-3.544595242,7.30033493,-2.660078049,1.699705958,0.144817993,-974.7000122,15.90000057,-892.500061,1.050873352,-0.639102481,0.463016257,ST
2.9,-6.930682659,-2.836394072,8.644960403,-0.586893976,-1.379581928,2.25611186,-972.3000488,20.70000076,-906.9000244,0.951357195,-0.649817893,0.318684649,ST
2.933333333,-5.01961565,-3.47102356,5.986813068,1.219519973,-2.19513607,2.06556201,-972.3000488,12.90000057,-902.1000366,1.060277218,-0.626598123,0.516035492,ST
2.966666667,-5.930587769,-2.38419795,6.746454716,-1.288118005,0.556405962,0.640248001,-977.1000366,15.30000019,-911.7000122,0.949132153,-0.692177636,0.345147131,ST
3.0,-5.8719697,-2.048041582,7.544975281,0.548784018,-0.373477995,1.257629991,-972.3000488,13.50000095,-916.500061,0.894696164,-0.645033447,0.263799192,ST
3.033333333,-5.33543539,-2.013349295,7.246501923,1.455801964,-2.667700052,2.286599874,-969.9000244,15.30000019,-906.9000244,0.887498384,-0.614424394,0.264835894,ST
3.066666667,-4.597326756,-2.243634224,5.826510906,1.349093914,-3.635694027,2.141782045,-972.3000488,8.700000763,-911.7000122,0.932430334,-0.629790115,0.35898955,ST
3.1,-6.297847271,-1.154415965,6.205733299,0.091463998,-1.410069942,0.678357959,-977.1000366,12.90000057,-918.9000244,0.817539309,-0.778125398,0.187685566,ST
3.133333333,-5.106346607,-1.763325453,6.093880653,0.83079797,0.823175967,2.782029867,-981.9000244,15.30000019,-916.500061,0.868651938,-0.683140158,0.274503252,ST
3.166666667,-5.198460579,-1.125705123,5.804379463,-0.137196004,0.304879993,2.416173935,-979.500061,6.300000191,-914.1000366,0.804968092,-0.721535556,0.190680154,ST
3.2,-5.937167168,-1.629341483,6.021505356,-0.388722003,2.004585981,2.019829988,-984.3000488,13.50000095,-923.7000122,0.845193454,-0.763821878,0.260514801,ST
3.233333333,-6.343306065,-1.61438787,6.794904232,-1.814036012,2.271355867,1.089946032,-979.500061,15.30000019,-902.1000366,0.819929083,-0.742191463,0.236144112,ST
3.266666667,-6.620844364,-1.099386811,7.341008663,-0.076219998,1.379581928,2.057940006,-989.1000366,9.300000191,-914.1000366,0.753728637,-0.731625424,0.148337261,ST
3.3,-6.626825809,-1.758540392,6.383979797,0.228659987,1.196653962,1.966475964,-972.3000488,13.50000095,-911.7000122,0.826885741,-0.787219446,0.26223856,ST
3.333333333,-6.847540855,-1.216024637,6.297249317,0.198172003,1.699705958,1.585376024,-962.7000122,6.900000095,-904.500061,0.771469855,-0.820653942,0.190188004,ST
3.366666667,-7.393645287,-1.448702335,6.419868469,-0.205793992,2.903981924,1.692083955,-965.1000366,7.500000477,-899.7000122,0.788625896,-0.848466495,0.219654521,ST
3.4,-7.513872147,-1.258492827,7.046722412,-0.327746004,2.301843882,0.411587983,-960.3000488,7.500000477,-918.9000244,0.756997117,-0.814670712,0.178403235,ST
3.433333333,-7.580265999,-1.248922467,6.559834003,0.442075998,1.608241916,0.907018006,-960.3000488,13.50000095,-918.9000244,0.762237648,-0.850662107,0.185967502,ST
3.466666667,-7.080218315,-1.419991374,6.570002556,-0.129574001,1.189031959,0.525918007,-957.9000244,11.10000038,-916.500061,0.779979136,-0.814600672,0.211900132,ST
3.5,-7.096368313,-0.784763575,6.564021111,0.685979962,-0.373477995,0.495429993,-948.3000488,9.900000572,-904.500061,0.713118621,-0.820170943,0.119385701,ST
3.533333333,-6.076534271,-1.098788619,6.07174921,1.859767914,-0.541162014,0.891773999,-967.500061,13.50000095,-904.500061,0.754698198,-0.778276225,0.172692835,ST
3.566666667,-6.203938961,-1.090414643,6.382783413,0.998481989,-1.006103992,-0.388722003,-948.3000488,10.5,-906.9000244,0.756279782,-0.762410216,0.167893883,ST
3.6,-6.706378937,-0.806894839,6.220686913,1.303362012,-0.198172003,0.076219998,-965.1000366,7.500000477,-911.7000122,0.732229098,-0.816942413,0.12770719,ST
3.633333333,-6.77337122,-1.025815248,6.561628342,1.684461951,1.440557957,0.495429993,-955.500061,9.900000572,-902.1000366,0.754355115,-0.798385542,0.151028224,ST
3.666666667,-6.593329906,-0.85893333,6.447382927,1.394825935,1.592997909,-0.060975999,-953.1000366,8.100000381,-899.7000122,0.746242567,-0.795029398,0.131047149,ST
3.7,-7.785429001,-0.577806115,7.214202404,1.166165948,1.631107926,0.396344006,-945.9000244,11.10000038,-899.7000122,0.71203009,-0.82396639,0.078887934,ST
3.733333333,-7.049713135,-0.733921409,7.049713135,1.006103992,1.028970003,0.632625997,-945.9000244,3.900000095,-894.9000244,0.729417209,-0.785675869,0.100489308,ST
3.766666667,-6.328352451,-0.926523447,6.725519657,1.04421401,-0.381099999,0.40396598,-962.7000122,8.700000763,-894.9000244,0.754894315,-0.750295582,0.133834181,ST
3.8,-6.202144623,-1.069479585,6.383979797,0.61738199,-0.762199998,-0.663114011,-953.1000366,8.100000381,-897.3000488,0.780432079,-0.762210671,0.164903531,ST
3.833333333,-7.381682396,-1.003683925,7.436711788,0.243903995,-0.060975999,0.144817993,-938.7000122,7.500000477,-899.7000122,0.759479743,-0.776701579,0.134333971,ST
3.866666667,-7.294353485,-0.72255671,7.432524681,0.42683199,-0.320124,0.625003994,-950.7000122,9.300000191,-899.7000122,0.731847954,-0.77331946,0.096117095,ST
3.9,-6.861298084,-0.888840437,7.28837204,1.493911982,-0.579271972,1.737815976,-938.7000122,9.900000572,-904.500061,0.74368513,-0.751506583,0.115296044,ST
3.933333333,-6.447981358,-1.891926169,6.02270174,0.129574001,-0.61738199,0.099086002,-957.9000244,5.100000381,-909.3000488,0.87107884,-0.794065965,0.298250215,ST
3.966666667,-7.075433254,-2.038471222,6.197957516,-1.402447939,0.670735955,-1.021348,-945.9000244,5.700000286,-904.500061,0.886999052,-0.825552073,0.321751263,ST
4.0,-7.652042866,-1.922431469,6.481477261,-1.463423967,1.867389917,-0.632625997,-953.1000366,11.10000038,-904.500061,0.864694305,-0.849321764,0.293953587,ST
4.033333333,-6.767987728,-1.441524506,6.930084229,-0.876529992,1.882633924,0.777444005,-936.3000488,5.100000381,-892.500061,0.798116085,-0.768776272,0.208137191,ST
4.066666667,-5.947933674,-1.263278008,6.452168465,0.022865999,0.312501997,1.379581928,-953.1000366,13.50000095,-897.3000488,0.782038766,-0.737268276,0.191694875,ST
4.1,-5.623740196,-0.647788823,4.26416111,0.579271972,-0.251525998,0.891773999,-945.9000244,8.100000381,-897.3000488,0.750066967,-0.911398539,0.149113254,ST
4.133333333,-5.953915119,-0.444420218,4.806676865,-0.274392009,1.631107926,1.524399996,-933.9000244,8.700000763,-887.7000122,0.699224734,-0.89314567,0.091280131,ST
4.166666667,-4.844958305,-0.678892255,6.316987991,-0.068598002,-0.335367978,0.663114011,-921.9000244,11.10000038,-897.3000488,0.70691909,-0.657576648,0.105851932,ST
4.2,-5.610580921,-0.503038228,6.970160007,-0.29725799,-2.393307924,0.342989981,-933.9000244,3.900000095,-885.3000488,0.683365987,-0.671964105,0.072787038,ST
4.233333333,-5.464634418,-0.448607236,7.800382614,1.04421401,-4.054903984,0.983237982,-941.1000366,6.300000191,-902.1000366,0.670573419,-0.605216819,0.05463562,ST
4.266666667,-4.297657013,-0.595152259,6.732697487,1.859767914,-6.173820019,1.371959925,-953.1000366,2.700000048,-904.500061,0.682940294,-0.557170049,0.082101159,ST
4.3,-5.151805401,-1.315316439,6.631611347,0.175305992,-5.167716026,0.91463995,-955.500061,8.100000381,-899.7000122,0.737029795,-0.640316219,0.189795334,ST
4.333333333,-6.857708931,-1.178939819,9.047510147,-0.495429993,-2.660078049,0.42683199,-962.7000122,4.5,-902.1000366,0.697002574,-0.640064243,0.131081449,ST
4.366666667,-5.739181995,-1.40503788,7.461833477,1.356715918,-2.87349391,0.571649969,-977.1000366,9.900000572,-918.9000244,0.726974837,-0.642457919,0.181394226,ST
4.4,-6.921112537,-1.318307161,6.503608704,0.167683989,-1.699705958,-0.312501997,-969.9000244,5.700000286,-902.1000366,0.739393735,-0.799538018,0.199112127,ST
4.433333333,-8.372805595,-0.781174719,7.686137199,-0.121951997,0.472563982,0.602137983,-969.9000244,5.100000381,-928.500061,0.666453601,-0.826060172,0.102282757,ST
4.466666667,-7.574284554,0.189013183,7.351177216,0.106707998,0.625003994,2.553369999,-972.3000488,-1.5,-914.1000366,0.561925297,-0.801685879,-0.028211938,ST
4.5,-6.727911949,0.138769165,6.58974123,0.40396598,-0.198172003,2.355197906,-974.7000122,9.900000572,-921.3000488,0.556494867,-0.795391054,-0.026007432,ST
4.533333333,-6.854718685,0.247033045,7.016815186,-0.594515979,0.266770005,1.089946032,-972.3000488,3.300000191,-926.1000366,0.543380355,-0.774388868,-0.035767476,ST
4.566666667,-6.703388214,0.477318078,7.266839027,-0.571649969,-0.419209987,0.503051996,-967.500061,3.900000095,-923.7000122,0.519695988,-0.744081908,-0.064579877,ST
4.6,-6.984515667,0.738108456,6.10943222,-0.228659987,-0.342989981,0.731711984,-969.9000244,9.900000572,-902.1000366,0.477238837,-0.844965581,-0.119454118,ST
4.633333333,-6.727313995,0.305651069,6.281099319,-0.731711984,1.63872993,0.785066009,-979.500061,12.90000057,-926.1000366,0.522114765,-0.822453354,-0.050606311,ST
4.666666667,-6.534711838,-0.005383287,7.162163734,-1.478667974,1.417691946,-0.594515979,-967.500061,11.10000038,-914.1000366,0.556774686,-0.744283014,0.002893308,ST
4.7,-6.732697487,-0.288903058,7.050311089,-1.570132017,0.121951997,-0.434453994,-965.1000366,2.700000048,-904.500061,0.580452904,-0.761642997,0.043278421,ST
4.733333333,-7.061676025,-0.299669623,7.099359035,-1.577754021,-0.091463998,-0.144817993,-960.3000488,12.30000019,-911.7000122,0.576236953,-0.78169849,0.045147274,ST
4.766666667,-6.145918846,-0.945065916,8.121584892,-0.792688012,0.259148002,-0.525918007,-960.3000488,13.50000095,-923.7000122,0.622896731,-0.647748605,0.116603177,ST
4.8,-6.175826073,-1.024020791,7.884122372,-0.228659987,-0.815553963,-1.44817996,-955.500061,11.70000076,-914.1000366,0.636372594,-0.658397608,0.130950556,ST
4.833333333,-6.638190746,-0.928317904,7.162762165,0.556405962,-0.091463998,-0.990859985,-965.1000366,9.300000191,-921.3000488,0.641149847,-0.740559499,0.129486408,ST
4.866666667,-6.40132618,-0.78835243,7.269231319,0.381099999,0.838419974,-0.685979962,-969.9000244,12.30000019,-904.500061,0.631874276,-0.720970307,0.109109011,ST
4.9,-6.831390858,-1.056918621,6.925299168,0.053353999,1.211897969,-0.685979962,-974.7000122,8.100000381,-906.9000244,0.664104295,-0.773273007,0.151558873,ST
4.933333333,-6.55205822,-1.472029805,6.849933147,-0.40396598,1.669217944,-0.922261953,-955.500061,14.70000076,-911.7000122,0.709612164,-0.754957746,0.21275784,ST
4.966666667,-6.226668358,-1.358980775,7.191473007,-0.853663981,1.173787951,-1.42531395,-962.7000122,14.10000038,-911.7000122,0.698719103,-0.707641694,0.191175906,ST
5.0,-6.715351105,-1.377523303,7.376298904,-0.205793992,0.129574001,-1.295740008,-955.500061,11.10000038,-909.3000488,0.700389135,-0.729202301,0.187119354,ST
5.033333333,-6.351680279,-1.193893313,6.340913773,0.518296003,-0.327746004,-1.143299937,-955.500061,13.50000095,-928.500061,0.706167097,-0.775309849,0.187011412,ST
5.066666667,-6.292464256,-0.82603544,5.9778409,0.198172003,0.060975999,-0.853663981,-960.3000488,5.700000286,-911.7000122,0.676515517,-0.805659703,0.139418917,ST
5.1,-6.520954609,-1.196285963,6.623237133,-0.022865999,0.899396002,-0.762199998,-950.7000122,11.10000038,-906.9000244,0.70836895,-0.771629837,0.179462564,ST
5.133333333,-6.189583302,-1.378719568,6.315193653,0.152439997,0.548784018,-1.615863919,-965.1000366,11.10000038,-918.9000244,0.741543811,-0.764217462,0.216733944,ST
5.166666667,-6.326558113,-1.959516406,6.708771706,-0.571649969,-0.289635986,-2.553369999,-953.1000366,6.300000191,-906.9000244,0.797253898,-0.734599934,0.287458618,ST
5.2,-6.831390858,-1.792036295,6.838568687,-0.609759986,-0.91463995,-2.995445967,-948.3000488,16.5,-914.1000366,0.788427743,-0.764745443,0.262357936,ST
5.233333333,-5.935372829,-2.246026754,7.13046217,0.487807989,-2.042695999,-2.073184013,-945.9000244,11.10000038,-911.7000122,0.823781447,-0.66923082,0.305102905,ST
5.266666667,-5.854025364,-2.177838564,6.81524086,0.40396598,-3.414655924,-2.903981924,-965.1000366,8.700000763,-916.500061,0.835668765,-0.678265182,0.310857444,ST
5.3,-5.931783676,-2.281317234,6.281099319,0.838419974,-2.957335949,-2.36281991,-967.500061,7.500000477,-926.1000366,0.867132496,-0.718576154,0.347689439,ST
5.333333333,-5.248704433,-2.896806479,6.705780983,0.579271972,-2.743919849,-2.629590034,-960.3000488,12.90000057,-918.9000244,0.911500702,-0.619642593,0.406903232,ST
5.366666667,-6.040047646,-2.801701784,6.994085789,-0.022865999,-3.064043999,-3.094532013,-979.500061,8.100000381,-926.1000366,0.904868591,-0.667605672,0.384003694,ST
5.4,-5.968868732,-3.086417675,6.901971817,0.213415995,-2.423795938,-2.568614006,-979.500061,16.5,-923.7000122,0.934021779,-0.66274314,0.420949187,ST
5.433333333,-5.728415012,-3.365750551,6.593928337,-0.388722003,-1.120433927,-2.621968031,-986.7000122,12.30000019,-916.500061,0.97323391,-0.654901129,0.473967274,ST
5.466666667,-5.851632595,-3.516482592,6.324763775,-0.289635986,-0.175305992,-2.164648056,-979.500061,15.90000057,-911.7000122,1.001611885,-0.677251477,0.509450468,ST
5.5,-6.175826073,-3.738393545,6.066366196,-0.503051996,1.333850026,-1.097568035,-989.1000366,17.70000076,-930.9000244,1.035142431,-0.714062375,0.554324564,ST
5.533333333,-6.437812805,-3.672597885,6.211116791,-1.326228023,2.355197906,-0.457319975,-977.1000366,21.30000114,-906.9000244,1.026886436,-0.731297004,0.539086629,ST
5.566666667,-6.378596783,-3.895705223,6.677668095,-1.577754021,1.95885396,0.221037999,-967.500061,15.30000019,-906.9000244,1.020281469,-0.694029802,0.532207787,ST
5.6,-6.468317986,-4.022511482,6.201546192,-1.288118005,1.303362012,0.381099999,-972.3000488,14.10000038,-918.9000244,1.046482692,-0.720405603,0.57697368,ST
5.633333333,-6.832587242,-4.127186298,6.84155941,-1.913121939,0.990859985,0.602137983,-965.1000366,14.10000038,-930.9000244,1.020360663,-0.709804092,0.546966384,ST
5.666666667,-5.899484158,-4.381397247,6.544282436,-1.646351933,-0.701223969,0.990859985,-957.9000244,19.5,-911.7000122,1.036487312,-0.644071672,0.590469426,ST
5.7,-5.788827896,-4.582971573,6.924701214,-1.562510014,-1.173787951,1.067080021,-960.3000488,13.50000095,-918.9000244,1.022104203,-0.608966076,0.585604126,ST
5.733333333,-5.58246851,-4.477100372,7.21779108,-0.708845973,-2.164648056,1.74543798,-965.1000366,15.90000057,-909.3000488,0.99116464,-0.580655739,0.554278442,ST
5.766666667,-5.830099583,-4.337134838,7.126873493,0.472563982,-2.446661949,3.429899931,-969.9000244,21.30000114,-909.3000488,0.965629375,-0.608847405,0.541010111,ST
5.8,-5.327061176,-4.149916172,7.891898155,0.693601966,-2.713431835,4.115880013,-969.9000244,17.10000038,-911.7000122,0.910404143,-0.538956139,0.478828078,ST
5.833333333,-4.9962883,-3.781459808,7.354765892,1.600619912,-3.468009949,4.93905592,-979.500061,15.30000019,-909.3000488,0.881612862,-0.541874958,0.466184808,ST
5.866666667,-5.057897091,-3.479995728,7.600602627,1.798792005,-2.629590034,5.137228012,-1003.500061,12.30000019,-918.9000244,0.837678074,-0.543607329,0.421398326,ST
5.9,-5.112328053,-3.010453463,7.656828403,1.844523907,-1.890255928,4.923811913,-991.500061,10.5,-921.3000488,0.78851562,-0.555839195,0.36654761,ST
5.933333333,-5.543589115,-2.780766726,7.930179596,2.385685921,0.625003994,6.379613876,-986.7000122,12.30000019,-918.9000244,0.747630323,-0.587137569,0.327202765,ST
5.966666667,-5.484971046,-2.403936625,8.305214882,2.820139885,2.225623846,5.068629742,-977.1000366,11.10000038,-928.500061,0.707845446,-0.571920656,0.273529839,ST
6.0,-5.076439381,-1.939777613,8.169436455,3.071666002,1.76830399,3.330813885,-979.500061,15.30000019,-926.1000366,0.678611273,-0.548770629,0.226046564,ST
6.033333333,-5.072850704,-1.317708969,7.034759521,3.292703867,0.335367978,3.849109888,-969.9000244,12.90000057,-909.3000488,0.644865367,-0.616495112,0.17627857,ST
6.066666667,-4.683459282,-1.083835006,6.407307625,2.835383892,0.739333987,4.778994083,-979.500061,8.100000381,-928.500061,0.623089082,-0.626819871,0.157354949,ST
6.1,-5.090196609,-0.622068703,5.975448132,2.286599874,1.547266006,3.948195934,-979.500061,6.900000095,-909.3000488,0.577581219,-0.704136648,0.095990829,ST
6.133333333,-6.565217018,-0.464757085,6.558637619,1.059458017,2.522881985,3.132642031,-974.7000122,8.100000381,-914.1000366,0.548299322,-0.787864343,0.064361321,ST
6.166666667,-6.952814102,-0.223705471,6.869671822,0.891773999,2.004585981,2.545747995,-974.7000122,6.900000095,-914.1000366,0.516219328,-0.794621594,0.027492386,ST
6.2,-6.856513023,0.138171032,7.125079155,0.221037999,1.143299937,2.248489857,-960.3000488,5.100000381,-904.500061,0.473602193,-0.768753649,-0.022261882,ST
6.233333333,-7.093975544,0.515599251,6.836175919,0.42683199,-0.678357959,2.568614006,-969.9000244,7.500000477,-897.3000488,0.425977627,-0.800107001,-0.078894409,ST
6.266666667,-6.574787617,0.040673722,6.962982178,-0.274392009,-0.739333987,2.667700052,-965.1000366,0.900000036,-923.7000122,0.462472723,-0.756615477,-0.0115613,ST
6.3,-6.252388477,0.867307305,6.712958336,0.045731999,-2.141782045,1.615863919,-962.7000122,8.100000381,-916.500061,0.377015998,-0.742032668,-0.128582403,ST
6.333333333,-5.572299957,0.346922934,5.542392731,-0.053353999,-2.164648056,2.477149963,-969.9000244,6.900000095,-916.500061,0.409625742,-0.782324172,-0.067636183,ST
6.366666667,-6.474897861,0.291295618,5.842660427,-1.333850026,-0.175305992,1.074702024,-981.9000244,7.500000477,-918.9000244,0.413095681,-0.834553903,-0.049923052,ST
6.4,-6.684247494,-0.118432306,7.522245884,-1.76830399,1.059458017,0.960371971,-969.9000244,5.700000286,-918.9000244,0.449236586,-0.730488682,0.016066735,ST
6.433333333,-6.583759785,-0.212340757,6.912140369,0.038109999,-0.144817993,0.160062,-969.9000244,4.5,-923.7000122,0.458227734,-0.760048407,0.030105063,ST
6.466666667,-6.720734596,-0.599937379,7.172930717,0.0,0.670735955,-0.602137983,-965.1000366,2.700000048,-911.7000122,0.496995093,-0.752438386,0.083046705,ST
6.5,-6.851129532,-0.511412263,7.088592529,-0.701223969,0.457319975,-1.158543944,-974.7000122,6.900000095,-902.1000366,0.49389091,-0.767475063,0.075369915,ST
6.533333333,-6.87864399,-0.601731837,7.987003326,-0.876529992,0.221037999,-0.960371971,-981.9000244,0.300000012,-897.3000488,0.496532978,-0.711198759,0.078124316,ST
6.566666667,-6.380989075,0.096301019,7.887711525,0.053353999,-1.516777992,-0.80793196,-960.3000488,-0.300000012,-906.9000244,0.444132757,-0.678482195,-0.008781254,ST
6.6,-6.247004986,-0.432457358,7.009637356,0.411587983,-1.966475964,0.525918007,-957.9000244,11.10000038,-906.9000244,0.486180214,-0.722416418,0.057953301,ST
6.633333333,-6.40132618,0.06998273,7.655632019,-0.83079797,-0.975615978,-0.29725799,-972.3000488,6.900000095,-933.3000488,0.443157763,-0.69546834,-0.005520004,ST
6.666666667,-5.394053459,-0.135778457,7.004254341,-1.471045971,0.396344006,-0.175305992,-962.7000122,4.5,-923.7000122,0.455863771,-0.657539069,0.021707942,ST
6.7,-5.879147053,-0.02213129,6.87864399,-1.707327962,1.059458017,-0.487807989,-984.3000488,9.300000191,-909.3000488,0.44317326,-0.707653753,0.00736028,ST
6.733333333,-6.113021374,-0.789548695,6.945636272,-2.263733864,3.102154016,-1.074702024,-965.1000366,4.5,-904.500061,0.512528496,-0.723465658,0.117276226,ST
6.766666667,-6.713556767,-0.328978628,7.735184669,-2.339953899,4.047281742,-1.867389917,-969.9000244,8.700000763,-916.500061,0.469404508,-0.721357372,0.051548644,ST
6.8,-6.611872196,-0.648985147,7.74296093,-1.836901903,2.728675842,-0.853663981,-965.1000366,14.10000038,-902.1000366,0.490920121,-0.709903155,0.087686338,ST
6.833333333,-6.206929684,-0.617881715,6.84873724,-1.486289978,1.631107926,-0.922261953,-960.3000488,12.90000057,-902.1000366,0.494155591,-0.736212024,0.094073292,ST
6.866666667,-6.454560757,-0.991122901,6.497627258,-1.082324028,2.271355867,-1.722571969,-945.9000244,13.50000095,-906.9000244,0.54039363,-0.779010694,0.15559806,ST
6.9,-6.185994625,-1.272848248,6.382783413,-1.082324028,2.164648056,-2.987823963,-957.9000244,12.90000057,-892.500061,0.582740686,-0.763016217,0.203330277,ST
6.933333333,-6.441401482,-1.827326775,5.98501873,-0.678357959,0.495429993,-3.201239824,-972.3000488,13.50000095,-897.3000488,0.660313947,-0.79813334,0.30041297,ST
6.966666667,-7.400823116,-1.937385082,6.830194473,-1.04421401,0.602137983,-3.567095995,-941.1000366,14.70000076,-894.9000244,0.658393916,-0.80524149,0.285172416,ST
7.0,-6.675275326,-1.44272089,6.453962803,0.72408998,-0.076219998,-3.307947874,-943.500061,17.10000038,-897.3000488,0.630278303,-0.789111443,0.225939156,ST
7.033333333,-6.193770409,-1.536629319,5.852231026,1.410069942,-1.882633924,-2.149404049,-948.3000488,22.5,-914.1000366,0.66297063,-0.792867978,0.256295233,ST
7.066666667,-7.30751276,-1.869196773,5.818136692,1.189031959,-1.798792005,-1.95885396,-957.9000244,14.10000038,-909.3000488,0.711806948,-0.868203012,0.309811111,ST
7.1,-7.210015297,-2.131781578,6.725519657,0.388722003,-0.282013983,-2.911603928,-950.7000122,17.10000038,-906.9000244,0.723770952,-0.796230246,0.311056221,ST
7.133333333,-6.914532661,-2.163483143,7.308110714,0.442075998,-1.478667974,-3.51374197,-948.3000488,19.5,-914.1000366,0.723371807,-0.734284585,0.292206811,ST
7.166666667,-6.014925957,-2.3064394,6.282893658,0.61738199,-2.911603928,-3.185995817,-955.500061,12.30000019,-897.3000488,0.773421703,-0.72569115,0.352160566,ST
7.2,-5.270237923,-2.901591539,5.798398018,1.028970003,-3.170752048,-2.812517881,-960.3000488,11.70000076,-902.1000366,0.851886961,-0.67684539,0.460810541,ST
7.233333333,-6.178816795,-3.652859211,6.649555206,0.274392009,-1.379581928,-3.094532013,-965.1000366,11.70000076,-902.1000366,0.888329668,-0.678726025,0.503690594,ST
7.266666667,-6.57060051,-3.363955975,6.931280613,0.160062,-0.495429993,-3.033555984,-965.1000366,14.70000076,-911.7000122,0.869151031,-0.70253073,0.456293254,ST
7.3,-6.844550133,-3.484781027,7.593424797,0.754577994,-0.190549999,-1.204275966,-960.3000488,11.10000038,-918.9000244,0.859547677,-0.685649057,0.431077232,ST
7.333333333,-6.543086052,-3.312515736,7.598808289,1.875011921,-0.998481989,-0.060975999,-957.9000244,12.90000057,-918.9000244,0.8497455,-0.667080851,0.407983123,ST
7.366666667,-6.107637882,-2.976359367,6.972552776,2.057940006,-1.112811923,0.929883957,-969.9000244,11.70000076,-923.7000122,0.845157107,-0.67673749,0.398319226,ST
7.4,-6.006551743,-2.530742884,6.804474354,0.83079797,0.434453994,2.545747995,-984.3000488,15.30000019,-916.500061,0.796874813,-0.693452086,0.351379128,ST
7.433333333,-6.17283535,-2.354888916,7.768681049,0.091463998,1.143299937,2.515259981,-972.3000488,9.900000572,-921.3000488,0.751615309,-0.654162553,0.292574324,ST
7.466666667,-5.987411022,-2.220306635,7.766886711,0.396344006,0.068598002,2.827761889,-953.1000366,4.5,-906.9000244,0.730904984,-0.63971095,0.274732584,ST
7.5,-5.388072014,-1.882954121,6.745856285,1.021348,-0.80793196,3.064043999,-960.3000488,13.50000095,-926.1000366,0.715077304,-0.655516065,0.266323415,ST
7.533333333,-5.694919109,-1.686763167,6.623237133,1.059458017,0.144817993,3.711913824,-965.1000366,9.300000191,-923.7000122,0.689663571,-0.69539134,0.243018831,ST
7.566666667,-5.678769588,-1.610200882,7.115508556,0.739333987,0.998481989,3.216483831,-965.1000366,10.5,-921.3000488,0.663805668,-0.664999708,0.217776869,ST
7.6,-6.154891014,-0.995309889,7.141827106,0.815553963,-0.053353999,2.675322056,-969.9000244,6.300000191,-914.1000366,0.603387338,-0.706149064,0.135180004,ST
7.633333333,-6.668695927,-1.056320429,6.870270252,0.739333987,0.320124,3.155508041,-957.9000244,11.70000076,-911.7000122,0.600951327,-0.76479082,0.145890538,ST
7.666666667,-5.712863445,-0.728538156,6.551459789,0.838419974,0.777444005,2.736297846,-972.3000488,11.10000038,-918.9000244,0.56699825,-0.717285354,0.106320648,ST
7.7,-5.803781033,-0.668723822,6.297847271,1.059458017,0.342989981,2.035073996,-962.7000122,5.700000286,-894.9000244,0.55942411,-0.742067183,0.100911767,ST
7.733333333,-6.62742424,-0.79792273,7.301531315,0.320124,0.396344006,1.166165948,-957.9000244,14.70000076,-906.9000244,0.559927951,-0.735184306,0.10637702,ST
7.766666667,-6.418672085,-0.36247465,6.906158924,1.074702024,-0.655492008,0.853663981,-955.500061,9.300000191,-902.1000366,0.522687925,-0.746774748,0.050701835,ST
7.8,-6.545478344,-0.075366013,7.575480938,0.716467977,-1.775925994,0.998481989,-957.9000244,8.700000763,-916.500061,0.492867476,-0.710502138,0.008314169,ST
7.833333333,-6.268538475,0.107665733,6.867877483,1.280496001,-2.431417942,1.570132017,-955.500061,6.300000191,-909.3000488,0.472892145,-0.73477771,-0.019530539,ST
7.866666667,-6.513178825,0.331371218,7.189678669,1.105189919,-1.981719971,1.250007987,-957.9000244,7.500000477,-921.3000488,0.452500877,-0.732064078,-0.048980288,ST
7.9,-6.628022194,0.086730734,6.24820137,0.541162014,-0.388722003,0.602137983,-977.1000366,5.100000381,-909.3000488,0.474936191,-0.812658967,-0.016582138,ST
7.933333333,-6.762604237,0.183629885,7.126275539,-0.53354001,0.861285985,-0.007622,-960.3000488,9.900000572,-911.7000122,0.467238027,-0.761970285,-0.024648885,ST
7.966666667,-6.140535831,-0.099889874,7.434916973,-0.030487999,0.236281991,-0.304879993,-974.7000122,11.70000076,-902.1000366,0.493380625,-0.692640028,0.012948736,ST
8.0,-6.831390858,0.018542431,7.312895775,-0.205793992,-0.342989981,-0.556405962,-962.7000122,1.5,-914.1000366,0.485701852,-0.749181851,-0.000866144,ST
8.033333333,-6.635797977,-0.162694886,7.196856022,-0.167683989,0.182927996,-0.381099999,-974.7000122,8.700000763,-909.3000488,0.502692426,-0.745153671,0.022854462,ST
8.066666667,-6.355867386,-0.531749129,7.44628191,-0.701223969,0.457319975,-0.625003994,-969.9000244,6.900000095,-921.3000488,0.535597663,-0.707099422,0.072160113,ST
8.1,-5.745163441,-0.636424124,7.656229973,-0.960371971,-0.060975999,-1.326228023,-969.9000244,15.90000057,-914.1000366,0.546571209,-0.643568728,0.085966737,ST
8.133333333,-5.86479187,-0.913962483,7.114312649,-0.320124,-0.91463995,-1.471045971,-967.500061,6.300000191,-909.3000488,0.578177572,-0.682783919,0.129402364,ST
8.166666667,-5.820529461,-1.269259334,6.993487835,-0.716467977,0.099086002,-2.08842802,-969.9000244,9.300000191,-918.9000244,0.618685403,-0.685640462,0.182893109,ST
8.2,-6.113619328,-1.116732955,7.15678072,-0.731711984,0.602137983,-1.836901903,-960.3000488,5.700000286,-906.9000244,0.609249157,-0.701264601,0.159316655,ST
8.233333333,-6.357661724,-1.606013894,7.230352402,-0.891773999,1.410069942,-1.692083955,-960.3000488,15.30000019,-909.3000488,0.654387386,-0.710888689,0.221538383,ST
8.266666667,-5.9778409,-1.487581611,7.21300602,-0.693601966,1.089946032,-1.85214591,-955.500061,8.700000763,-923.7000122,0.651605573,-0.683680601,0.207815634,ST
8.3,-6.038253307,-1.759736657,7.433721066,-0.983237982,0.304879993,-1.42531395,-950.7000122,12.90000057,-923.7000122,0.671604689,-0.669230731,0.235409876,ST
8.333333333,-6.148909569,-2.042060137,7.102349758,-0.785066009,0.358233988,-1.364337921,-960.3000488,3.900000095,-904.500061,0.704050458,-0.693262784,0.282045436,ST
8.366666667,-6.017916203,-1.877570748,6.5825634,-0.327746004,0.556405962,-1.143299937,-955.500061,12.90000057,-904.500061,0.707229229,-0.721118335,0.280373916,ST
8.4,-5.633310318,-2.156305313,6.373213291,-0.556405962,0.967993975,-0.983237982,-957.9000244,19.5,-902.1000366,0.741483897,-0.698601011,0.328051184,ST
8.433333333,-6.265547752,-2.448199272,6.89778471,-0.960371971,1.059458017,-1.532021999,-948.3000488,14.70000076,-906.9000244,0.756276601,-0.708545159,0.34494402,ST
8.466666667,-6.400129795,-2.455376863,6.448579311,-0.076219998,0.952749968,-1.753059983,-948.3000488,12.90000057,-911.7000122,0.778238008,-0.747331621,0.366588123,ST
8.5,-6.566413403,-2.771794558,7.146612167,-0.038109999,0.868907988,-1.036592007,-955.500061,15.90000057,-894.9000244,0.786598857,-0.710132831,0.371836532,ST
8.533333333,-6.477888584,-2.758635283,7.237529755,0.358233988,-0.61738199,-0.510674,-943.500061,15.90000057,-923.7000122,0.783822781,-0.695596886,0.364121141,ST
8.566666667,-6.425251961,-2.842973471,6.550861835,0.846041977,-2.301843882,-0.205793992,-955.500061,9.300000191,-921.3000488,0.811342602,-0.728164458,0.405929725,ST
8.6,-6.484467983,-2.816655159,6.682453156,0.632625997,-2.225623846,-0.266770005,-977.1000366,12.90000057,-911.7000122,0.805164804,-0.725874746,0.397003482,ST
8.633333333,-6.576581955,-2.590557098,6.786530018,0.152439997,-1.897877932,0.030487999,-972.3000488,18.30000114,-911.7000122,0.78103892,-0.732509101,0.364198486,ST
8.666666667,-6.02210331,-2.627043962,6.233846188,0.342989981,-1.44817996,0.983237982,-962.7000122,15.30000019,-921.3000488,0.797037926,-0.725857555,0.395303018,ST
8.7,-6.609479904,-2.836992025,6.918121815,-0.282013983,-0.266770005,1.166165948,-965.1000366,13.50000095,-914.1000366,0.786121033,-0.724245148,0.387970915,ST
8.733333333,-5.906661987,-2.667717695,6.565217018,0.015244,0.266770005,1.288118005,-953.1000366,14.70000076,-914.1000366,0.779552441,-0.696880085,0.384430681,ST
8.766666667,-6.361848831,-2.609099627,6.892401695,-0.091463998,0.72408998,1.684461951,-945.9000244,13.50000095,-918.9000244,0.758706909,-0.713883912,0.360717703,ST
8.8,-6.797894955,-2.59833312,7.400224686,-0.320124,0.381099999,2.667700052,-950.7000122,14.70000076,-930.9000244,0.73162256,-0.716234124,0.335306762,ST
8.833333333,-5.63869381,-2.243036032,7.040740967,0.396344006,-0.967993975,3.018311977,-962.7000122,13.50000095,-916.500061,0.700428272,-0.653547885,0.304283994,ST
8.866666667,-6.52155304,-2.448199272,7.251885414,0.40396598,-0.861285985,3.300325871,-967.500061,16.5,-911.7000122,0.69765142,-0.704636439,0.319396853,ST
8.9,-6.190181732,-2.316607714,6.267342091,0.541162014,-0.091463998,2.881115913,-967.500061,12.30000019,-909.3000488,0.70787932,-0.747594281,0.347861176,ST
8.933333333,-5.860604763,-1.897907615,7.060479641,-0.304879993,0.785066009,2.560992002,-965.1000366,6.900000095,-909.3000488,0.641813655,-0.680140588,0.262145905,ST
8.966666667,-5.8719697,-1.916450024,7.470207691,-0.152439997,-0.396344006,2.812517881,-962.7000122,16.5,-899.7000122,0.61985911,-0.651811857,0.247884054,ST
9.0,-5.525046825,-1.697529793,6.863690376,0.160062,-1.516777992,2.942091942,-967.500061,9.300000191,-914.1000366,0.60037396,-0.661745967,0.238011227,ST
9.033333333,-6.139339447,-1.454085588,7.172332287,0.160062,-1.333850026,2.614346027,-960.3000488,5.100000381,-906.9000244,0.56365938,-0.695702214,0.196819526,ST
9.066666667,-5.77088356,-1.208846927,7.259063244,0.365855992,-0.327746004,2.370441914,-969.9000244,5.100000381,-909.3000488,0.531970757,-0.665615683,0.161636723,ST
9.1,-5.68116188,-0.933701158,6.844550133,0.792688012,-1.219519973,2.408551931,-965.1000366,14.10000038,-906.9000244,0.504750251,-0.686273341,0.131205127,ST
9.133333333,-6.272127151,-0.658555388,7.005450249,0.61738199,-1.288118005,2.164648056,-962.7000122,11.10000038,-914.1000366,0.471375462,-0.725072939,0.090323359,ST
9.166666667,-6.120797157,-0.738108456,7.606584072,0.114329994,-1.387203932,2.080806017,-974.7000122,7.500000477,-906.9000244,0.464670182,-0.674452481,0.093374157,ST
9.2,-6.455757141,-0.656760991,7.886515141,0.175305992,-2.111294031,1.501533985,-967.500061,15.90000057,-914.1000366,0.449948849,-0.680702814,0.080651501,ST
9.233333333,-6.087899208,0.189611316,7.148406506,0.647870004,-2.347575903,1.615863919,-974.7000122,15.90000057,-921.3000488,0.376684175,-0.700693802,-0.027262952,ST
9.266666667,-6.352876663,-0.328380495,6.906158924,0.304879993,-0.495429993,2.187514067,-984.3000488,9.900000572,-930.9000244,0.414605931,-0.741317668,0.041453939,ST
9.3,-5.727817059,-0.515001118,7.032366753,-0.40396598,0.518296003,0.754577994,-965.1000366,12.30000019,-916.500061,0.430393173,-0.684783136,0.071970432,ST
9.333333333,-6.705182552,-0.193200186,7.793802738,-0.769822001,0.609759986,-0.335367978,-967.500061,6.300000191,-909.3000488,0.400939722,-0.710644404,0.027917431,ST
9.366666667,-6.200349808,-0.21174261,8.299233437,-0.40396598,0.594515979,-0.457319975,-979.500061,15.30000019,-914.1000366,0.400925854,-0.644348503,0.026857666,ST
9.4,-5.761911392,0.200377896,6.111226559,0.80793196,-0.419209987,0.40396598,-969.9000244,8.100000381,-911.7000122,0.363676206,-0.75194683,-0.032981571,ST
9.433333333,-6.496430874,-0.820652127,7.552751064,-0.586893976,2.263733864,-0.121951997,-972.3000488,11.70000076,-926.1000366,0.456549785,-0.712173643,0.10732355,ST
9.466666667,-5.606992245,-0.86611104,7.475590706,-0.42683199,2.19513607,-1.935987949,-957.9000244,6.900000095,-909.3000488,0.471201729,-0.645594812,0.118659782,ST
9.5,-5.665610313,-0.909775436,7.732792377,-0.61738199,0.625003994,-2.782029867,-960.3000488,9.900000572,-916.500061,0.482968712,-0.629981364,0.121718669,ST
9.533333333,-5.632712364,-1.027609587,6.921710491,-0.175305992,-0.762199998,-2.621968031,-969.9000244,11.10000038,-914.1000366,0.509946035,-0.674515327,0.150310775,ST
9.566666667,-5.797799587,-1.059909344,5.693722725,0.160062,0.266770005,-1.897877932,-969.9000244,11.70000076,-918.9000244,0.541571044,-0.782739995,0.185945829,ST
9.6,-6.441401482,-2.05701375,7.019207954,-1.493911982,3.147886038,-1.974097967,-957.9000244,11.70000076,-914.1000366,0.618324545,-0.727537043,0.28991507,ST
9.633333333,-6.162666798,-1.967890382,7.455254078,-0.80793196,3.018311977,-3.231727839,-950.7000122,11.70000076,-902.1000366,0.615596136,-0.67924263,0.265634703,ST
9.666666667,-5.526242733,-1.923627853,7.108331203,-0.205793992,0.632625997,-2.903981924,-945.9000244,14.10000038,-906.9000244,0.628898489,-0.644478073,0.268471264,ST
9.7,-6.808063507,-2.280719042,7.338017941,0.114329994,-0.503051996,-2.721053839,-953.1000366,21.90000153,-911.7000122,0.661383264,-0.720624937,0.303810164,ST
9.733333333,-6.767389774,-2.595342398,6.370820999,0.449698001,0.670735955,-1.836901903,-950.7000122,21.90000153,-902.1000366,0.726897642,-0.775598044,0.386922962,ST
9.766666667,-6.047823429,-2.377020121,7.492937088,-0.022865999,0.678357959,-1.989341974,-955.500061,21.90000153,-914.1000366,0.686024855,-0.658687854,0.311722852,ST
9.8,-5.26006937,-2.456573248,4.557251453,1.928365946,-1.8292799,-1.318606019,-943.500061,16.5,-911.7000122,0.812160789,-0.787226715,0.487770743,ST
9.833333333,-6.668695927,-2.761028051,7.370317459,-0.701223969,1.280496001,-1.608241916,-941.1000366,15.30000019,-916.500061,0.734346349,-0.706360205,0.365701041,ST
9.866666667,-6.459944248,-2.637212276,6.388166904,1.42531395,-0.373477995,-1.12805593,-948.3000488,15.90000057,-906.9000244,0.758813769,-0.749125087,0.389769816,ST
9.9,-6.753034115,-2.794523954,8.067752838,1.410069942,-0.40396598,-0.541162014,-955.500061,14.10000038,-911.7000122,0.728228023,-0.669674022,0.332495249,ST
9.933333333,-6.223079681,-2.456573248,7.120892048,1.974097967,-2.591480017,0.099086002,-950.7000122,22.5,-914.1000366,0.727889082,-0.685861716,0.327529775,ST
9.966666667,-6.34928751,-2.72992444,6.317585945,1.798792005,-2.210379839,0.678357959,-965.1000366,8.100000381,-897.3000488,0.776026752,-0.740568338,0.400186075,ST
10.0,-6.235042095,-2.512200594,6.404914856,1.364337921,-0.083841994,0.160062,-965.1000366,12.30000019,-918.9000244,0.761058907,-0.736349925,0.371912285,ST
10.03333333,-5.986813068,-2.357879639,6.672883034,0.335367978,1.600619912,-0.106707998,-950.7000122,11.10000038,-904.500061,0.744391826,-0.705268027,0.340574189,ST
10.06666667,-6.195564747,-2.237652779,6.764399052,0.678357959,0.182927996,0.891773999,-955.500061,3.300000191,-914.1000366,0.728700107,-0.716231469,0.317729152,ST
10.1,-5.837875366,-2.05462122,6.846942425,0.899396002,-0.701223969,1.577754021,-953.1000366,11.70000076,-904.500061,0.705889171,-0.685294,0.288311796,ST
10.13333333,-6.479682922,-2.198773623,7.126873493,0.236281991,-0.647870004,2.096050024,-960.3000488,14.10000038,-899.7000122,0.702549838,-0.714466687,0.295323445,ST
10.16666667,-6.54488039,-1.999591947,6.671686649,0.701223969,-0.548784018,2.416173935,-962.7000122,12.30000019,-899.7000122,0.68944738,-0.753504208,0.286190939,ST
10.2,-6.301436424,-1.866804242,7.374504566,0.045731999,0.716467977,2.263733864,-955.500061,14.10000038,-914.1000366,0.655064472,-0.695601024,0.24596145,ST
10.23333333,-6.914532661,-1.952338696,7.280596256,-0.381099999,0.975615978,1.943609953,-965.1000366,14.10000038,-928.500061,0.656280732,-0.74364194,0.259707173,ST
10.26666667,-5.452671528,-1.632332206,7.064666748,0.167683989,-0.449698001,1.798792005,-945.9000244,11.70000076,-911.7000122,0.626404055,-0.646500914,0.22490208,ST
10.3,-5.721835613,-1.726240635,6.96178627,-0.045731999,-2.850627899,2.690565825,-955.500061,13.50000095,-906.9000244,0.619847228,-0.669217605,0.238339537,ST
10.33333333,-6.648957253,-1.641902447,7.180706501,-0.503051996,-2.591480017,2.629590034,-967.500061,10.5,-906.9000244,0.594844012,-0.729199536,0.221295919,ST
10.36666667,-5.520261288,-1.207650661,6.748249054,0.312501997,-2.339953899,2.660078049,-960.3000488,8.700000763,-911.7000122,0.552818623,-0.67620839,0.173545688,ST
10.4,-5.733798504,-0.876877606,7.341008663,0.335367978,-1.920743942,2.728675842,-957.9000244,15.90000057,-904.500061,0.50480091,-0.65724729,0.115387027,ST
10.43333333,-5.944344997,-1.010263443,7.877542973,0.785066009,-2.675322056,2.743919849,-972.3000488,8.100000381,-930.9000244,0.498041634,-0.638860098,0.122067431,ST
10.46666667,-5.823520184,-0.378026366,8.799879074,0.678357959,-3.795755863,1.692083955,-957.9000244,11.10000038,-914.1000366,0.445693104,-0.57939544,0.041762516,ST
10.5,-5.618955135,0.160302311,7.469609261,2.126538038,-4.413137913,2.850627899,-974.7000122,11.10000038,-921.3000488,0.401052998,-0.635462489,-0.026713847,ST
10.53333333,-5.021410465,-0.769810021,8.168240547,0.564027965,-2.591480017,2.317087889,-974.7000122,3.900000095,-914.1000366,0.455602921,-0.547268353,0.087633018,ST
10.56666667,-5.502915382,0.340343356,8.059378624,0.487807989,-2.522881985,0.442075998,-998.7000122,7.500000477,-930.9000244,0.386225315,-0.59306391,-0.039767932,ST
10.6,-6.032271862,-0.358287632,7.807559967,0.586893976,-0.609759986,1.791170001,-986.7000122,7.500000477,-923.7000122,0.427165021,-0.654683673,0.040050427,ST
10.63333333,-5.275620937,0.162694886,7.406804562,0.93750596,0.503051996,0.114329994,-991.500061,7.500000477,-911.7000122,0.392540199,-0.620643423,-0.022063408,ST
10.66666667,-5.587253571,-0.268566191,7.836271286,-0.670735955,2.370441914,-0.243903995,-986.7000122,9.300000191,-921.3000488,0.424832127,-0.623210427,0.034929235,ST
10.7,-6.269136429,-0.394176215,7.383476734,-0.411587983,3.475631952,-0.198172003,-993.9000244,2.700000048,-921.3000488,0.436823949,-0.707236312,0.054119467,ST
10.73333333,-5.282200813,-0.521580696,7.722025871,-0.716467977,3.391789913,-1.074702024,-977.1000366,5.100000381,-923.7000122,0.449943774,-0.606767604,0.069960541,ST
10.76666667,-6.99169302,-0.247033045,7.81055069,-0.289635986,2.446661949,-0.83079797,-967.500061,8.100000381,-916.500061,0.430878238,-0.730610264,0.034636563,ST
10.8,-6.290071487,-0.646592557,6.132760048,0.663114011,3.612828016,-0.777444005,-965.1000366,6.300000191,-909.3000488,0.485926704,-0.799983708,0.104348577,ST
10.83333333,-6.12797451,-0.845176041,7.073638916,-1.204275966,4.83234787,-2.17227006,-979.500061,8.700000763,-914.1000366,0.506412378,-0.720225128,0.124746079,ST
10.86666667,-5.598020077,-1.481001973,6.945037842,-0.541162014,3.734779835,-3.536607981,-960.3000488,12.30000019,-897.3000488,0.579024649,-0.674013742,0.214553473,ST
10.9,-5.81993103,-1.010263443,7.845841408,-0.815553963,1.722571969,-3.856731892,-945.9000244,14.10000038,-902.1000366,0.545905044,-0.637411622,0.136827684,ST
10.93333333,-5.584262848,-1.11314404,6.567011833,0.907018006,-0.853663981,-2.103672028,-960.3000488,12.30000019,-918.9000244,0.576071496,-0.694053702,0.168186205,ST
10.96666667,-6.553852558,-1.415206313,6.069954872,1.021348,-0.632625997,-1.288118005,-962.7000122,5.700000286,-926.1000366,0.625935536,-0.807122532,0.228190156,ST
11.0,-6.668695927,-1.887739182,6.426447868,-0.144817993,1.737815976,-1.85214591,-950.7000122,15.90000057,-904.500061,0.676541662,-0.78582864,0.288280327,ST
11.03333333,-5.043541431,-2.079144955,6.321773052,-0.243903995,0.564027965,-2.736297846,-950.7000122,6.300000191,-914.1000366,0.70860323,-0.651698461,0.321076814,ST
11.06666667,-7.022796631,-2.738896608,8.310598373,-1.44817996,-0.320124,-2.423795938,-948.3000488,14.10000038,-918.9000244,0.714628742,-0.673823146,0.323872441,ST
11.1,-6.306819439,-2.603118181,7.859598637,-0.152439997,-2.682943821,-1.219519973,-950.7000122,9.900000572,-918.9000244,0.713452609,-0.646437683,0.320579262,ST
11.13333333,-5.344407558,-2.531341076,5.986813068,1.34147191,-3.079288006,0.548784018,-953.1000366,12.90000057,-902.1000366,0.755951852,-0.682576687,0.393156098,ST
11.16666667,-5.614768028,-2.619866133,6.677070141,-0.464941978,-0.388722003,0.80793196,-953.1000366,15.90000057,-909.3000488,0.738883488,-0.664557218,0.374021319,ST
11.2,-6.04124403,-2.435039997,7.59701395,-0.205793992,0.259148002,0.990859985,-962.7000122,13.50000095,-909.3000488,0.696279315,-0.649546081,0.311122388,ST
11.23333333,-5.340220451,-2.335748196,5.493943214,1.478667974,-0.434453994,1.23476398,-957.9000244,11.70000076,-899.7000122,0.749353686,-0.727772711,0.394840297,ST
11.26666667,-6.979730129,-2.610893965,6.032271862,-1.074702024,2.858249903,0.762199998,-962.7000122,14.10000038,-902.1000366,0.758100741,-0.817963334,0.410683647,ST
11.3,-7.128667831,-2.475115538,6.376204014,-0.350611985,2.248489857,1.318606019,-941.1000366,12.90000057,-899.7000122,0.726705066,-0.810784553,0.371216004,ST
11.33333333,-9.02777195,-2.630632877,7.519255161,-1.463423967,3.262215853,1.112811923,-955.500061,11.70000076,-916.500061,0.698305217,-0.852644179,0.340078169,ST
11.36666667,-7.85541153,-2.19817543,8.257962227,-0.80793196,2.439039946,0.800309956,-931.500061,15.30000019,-909.3000488,0.639509416,-0.750331948,0.26297696,ST
11.4,-5.236741543,-1.847065449,7.841056347,0.236281991,-2.942091942,1.524399996,-938.7000122,14.10000038,-897.3000488,0.609482748,-0.57521927,0.228986597,ST
11.43333333,-5.313902378,-1.984638333,5.322276115,1.707327962,-5.312533855,1.882633924,-938.7000122,12.30000019,-902.1000366,0.672473998,-0.739894975,0.344381266,ST
11.46666667,-5.189488411,-1.524666429,6.595722675,0.129574001,-0.381099999,1.089946032,-945.9000244,7.500000477,-902.1000366,0.593189765,-0.655928973,0.228000433,ST
11.5,-4.401734352,-1.157406688,7.202837467,0.929883957,-1.8292799,1.653973937,-945.9000244,14.70000076,-909.3000488,0.546613199,-0.542290112,0.156860521,ST
11.53333333,-6.145918846,-1.352999449,7.391252518,0.876529992,-1.219519973,1.714949965,-953.1000366,11.10000038,-909.3000488,0.55232697,-0.681422529,0.176418224,ST
11.56666667,-7.114312649,-1.217220902,7.620939732,0.861285985,-0.304879993,1.676839948,-962.7000122,7.500000477,-918.9000244,0.534553021,-0.742954866,0.154788935,ST
11.6,-7.257866859,-1.111349583,7.511479378,0.663114011,1.082324028,1.402447939,-960.3000488,9.300000191,-918.9000244,0.524899215,-0.764441422,0.143982298,ST
11.63333333,-6.535908222,-0.739902854,7.455254078,0.167683989,1.592997909,0.495429993,-948.3000488,6.300000191,-916.500061,0.494036889,-0.721420797,0.099307349,ST
11.66666667,-5.788827896,-0.610703945,7.81055069,0.503051996,-0.144817993,0.61738199,-943.500061,8.100000381,-904.500061,0.479005062,-0.638500898,0.076918702,ST
11.7,-5.386875629,-0.367857933,7.195061684,1.836901903,-2.385685921,0.53354001,-945.9000244,6.900000095,-911.7000122,0.46457012,-0.637943984,0.047841514,ST
11.73333333,-6.248799801,-0.43066293,5.878549099,1.509155989,-0.449698001,0.792688012,-950.7000122,8.100000381,-909.3000488,0.480488013,-0.809031118,0.068245968,ST
11.76666667,-6.525141716,-0.39537251,6.341511726,0.525918007,1.379581928,0.701223969,-953.1000366,12.90000057,-909.3000488,0.474629297,-0.801391618,0.060457913,ST
11.8,-7.128069878,-0.700425446,7.758512497,-0.442075998,1.943609953,0.129574001,-948.3000488,4.5,-918.9000244,0.493894152,-0.745999589,0.090091838,ST
11.83333333,-7.18010807,-0.707603157,7.763297558,-0.29725799,-0.152439997,-0.746955991,-948.3000488,11.70000076,-899.7000122,0.497451734,-0.743982049,0.092542812,ST
11.86666667,-6.895990372,-1.181930542,7.589238167,-0.091463998,-0.647870004,-0.571649969,-960.3000488,3.300000191,-909.3000488,0.540094993,-0.730743816,0.153694064,ST
11.9,-5.437119484,-0.782969177,7.181304455,0.030487999,-2.050318003,-1.120433927,-960.3000488,12.30000019,-902.1000366,0.516588242,-0.643035419,0.110448251,ST
11.93333333,-5.189488411,-0.679490387,5.478989601,1.295740008,-2.347575903,-0.121951997,-948.3000488,6.900000095,-918.9000244,0.52688698,-0.747420899,0.120513631,ST
11.96666667,-5.526242733,-1.096994162,6.98032856,-0.320124,1.615863919,-1.112811923,-962.7000122,13.50000095,-911.7000122,0.55517882,-0.668418909,0.157345007,ST
12.0,-6.056197643,-1.489974141,6.620844364,-0.365855992,2.004585981,-0.975615978,-948.3000488,11.10000038,-918.9000244,0.601042835,-0.729941777,0.22223084,ST
12.03333333,-6.823615074,-1.607210159,6.623237133,-0.175305992,2.118916035,-0.967993975,-953.1000366,2.700000048,-918.9000244,0.618228695,-0.787571505,0.24034434,ST
12.06666667,-7.498320103,-1.830317497,7.636491299,-1.585376024,2.728675842,-0.899396002,-943.500061,5.100000381,-921.3000488,0.618280057,-0.766898686,0.240545581,ST
12.1,-7.128667831,-2.064191341,6.95401001,-0.785066009,1.608241916,-0.678357959,-931.500061,6.300000191,-894.9000244,0.654274092,-0.778729619,0.290413671,ST
12.13333333,-6.662714481,-1.925422192,7.282989025,-0.266770005,0.72408998,-1.150921941,-931.500061,16.5,-899.7000122,0.638697137,-0.726322839,0.261699627,ST
12.16666667,-5.029784203,-1.741194248,6.970757961,0.381099999,-0.983237982,-1.013725996,-943.500061,9.900000572,-894.9000244,0.633354683,-0.610490657,0.245263106,ST
12.2,-5.442502975,-1.701716781,6.072945595,1.615863919,-3.292703867,0.198172003,-941.1000366,3.300000191,-899.7000122,0.648374848,-0.703890967,0.268072476,ST
12.23333333,-6.610077858,-1.684370637,6.555646896,0.708845973,-1.63872993,0.282013983,-943.500061,13.50000095,-916.500061,0.635919371,-0.769073429,0.249650579,ST
12.26666667,-5.629721642,-1.57909739,6.454560757,0.243903995,-0.823175967,0.472563982,-948.3000488,11.10000038,-918.9000244,0.626956002,-0.703505956,0.238819482,ST
12.3,-6.14233017,-2.232867718,7.501310825,-0.282013983,-0.907018006,0.175305992,-933.9000244,8.100000381,-904.500061,0.655401523,-0.665063713,0.287887819,ST
12.33333333,-6.422859192,-2.098883629,7.661613464,0.099086002,-1.814036012,-0.137196004,-955.500061,5.100000381,-921.3000488,0.641324837,-0.676561061,0.267171144,ST
12.36666667,-6.473701477,-2.448199272,7.716044426,0.586893976,-1.753059983,0.236281991,-960.3000488,11.70000076,-906.9000244,0.663329678,-0.671906043,0.304135829,ST
12.4,-5.62015152,-1.824934244,6.920514107,1.067080021,-1.486289978,0.190549999,-953.1000366,9.300000191,-921.3000488,0.634881833,-0.663511143,0.256519197,ST
12.43333333,-5.653647423,-2.044452667,7.058685303,1.166165948,-1.295740008,1.257629991,-962.7000122,11.10000038,-921.3000488,0.644665001,-0.654335375,0.277456545,ST
12.46666667,-6.112422943,-2.146735191,6.678864479,0.80793196,-0.487807989,0.838419974,-948.3000488,10.5,-918.9000244,0.662510324,-0.714881476,0.307371396,ST
12.5,-6.457551479,-2.141351938,6.497028828,0.464941978,1.158543944,0.564027965,-953.1000366,4.5,-916.500061,0.669938048,-0.757615976,0.316994759,ST
12.53333333,-6.823615074,-2.230475187,7.308709145,-0.083841994,1.989341974,0.480185986,-960.3000488,15.90000057,-914.1000366,0.656658305,-0.733168225,0.297082181,ST
12.56666667,-6.690228939,-2.057611704,7.047918797,0.114329994,0.609759986,0.777444005,-955.500061,8.700000763,-918.9000244,0.645616496,-0.740181287,0.283322211,ST
12.6,-6.66510725,-2.030695438,6.849933147,0.015244,-0.053353999,1.028970003,-950.7000122,6.300000191,-906.9000244,0.643880457,-0.750849578,0.286466525,ST
12.63333333,-5.329453945,-1.506722093,7.19446373,-0.167683989,-1.028970003,1.783547997,-957.9000244,11.10000038,-897.3000488,0.583715028,-0.629200594,0.20596919,ST
12.66666667,-5.637497425,-1.754951477,6.706378937,-0.312501997,-1.410069942,2.500015974,-955.500061,14.10000038,-909.3000488,0.599047489,-0.680039855,0.251261601,ST
12.7,-6.167452335,-1.516890526,6.78473568,-0.190549999,-0.518296003,2.157026052,-955.500061,9.300000191,-911.7000122,0.568112902,-0.72435624,0.217847544,ST
12.73333333,-5.933578491,-1.567134619,7.052703857,-0.525918007,0.868907988,2.012207985,-965.1000366,6.900000095,-914.1000366,0.558777167,-0.690762591,0.217019941,ST
12.76666667,-7.019207954,-1.361373425,8.458937645,-0.609759986,0.434453994,1.577754021,-950.7000122,12.30000019,-914.1000366,0.514630136,-0.687678046,0.160084376,ST
12.8,-6.052010536,-0.980954468,7.416374683,0.335367978,-1.455801964,1.897877932,-953.1000366,3.900000095,-923.7000122,0.487636663,-0.678375952,0.128867957,ST
12.83333333,-5.904867649,-0.854148149,6.787128448,0.228659987,-1.63872993,2.583858013,-953.1000366,8.100000381,-918.9000244,0.471361747,-0.709251122,0.120802314,ST
12.86666667,-6.215303421,-0.965402782,6.641779423,0.213415995,-0.350611985,2.286599874,-972.3000488,11.10000038,-909.3000488,0.475582389,-0.746081824,0.139764206,ST
12.9,-5.603403568,-0.182433605,7.358355045,0.541162014,-1.013725996,1.135677934,-950.7000122,6.900000095,-911.7000122,0.39863314,-0.651672729,0.025220355,ST
12.93333333,-6.188387394,-0.469542235,7.377495289,0.396344006,-1.303362012,1.432935953,-957.9000244,5.700000286,-916.500061,0.415373663,-0.693680314,0.059673271,ST
12.96666667,-5.708078384,-0.233873904,7.06287241,0.434453994,-1.478667974,0.80793196,-969.9000244,11.70000076,-909.3000488,0.395481839,-0.677259069,0.031722283,ST
13.0,-6.424055576,-0.157311603,6.669892311,0.449698001,-0.228659987,0.548784018,-969.9000244,8.100000381,-904.500061,0.388525711,-0.764494878,0.022057676,ST
13.03333333,-6.847540855,-0.873288751,7.256670475,-0.602137983,1.516777992,0.40396598,-953.1000366,3.300000191,-904.500061,0.451354161,-0.755825007,0.117797381,ST
13.06666667,-6.21051836,-0.411522359,7.254278183,0.495429993,-0.320124,-0.419209987,-953.1000366,12.30000019,-914.1000366,0.414584281,-0.707995522,0.057998582,ST
13.1,-5.991000175,-0.235070184,6.482075214,0.815553963,-0.769822001,-0.289635986,-955.500061,0.900000036,-914.1000366,0.403725704,-0.74336866,0.035879557,ST
13.13333333,-6.134554386,-0.851755619,6.610077858,-0.42683199,1.013725996,-0.442075998,-972.3000488,12.90000057,-899.7000122,0.466197036,-0.745653058,0.127245607,ST
13.16666667,-6.523347378,-0.893625617,7.748942375,-0.876529992,1.04421401,-1.486289978,-962.7000122,11.10000038,-911.7000122,0.463997237,-0.699282206,0.118910589,ST
13.2,-6.873260975,-0.831418753,7.261455536,-0.022865999,-0.068598002,-1.166165948,-948.3000488,12.90000057,-918.9000244,0.466414406,-0.752831994,0.116001445,ST
13.23333333,-5.857016087,-1.140658617,6.599909782,-0.099086002,0.594515979,-1.227141976,-953.1000366,13.50000095,-902.1000366,0.509139681,-0.719904404,0.172168816,ST
13.26666667,-6.328352451,-1.422982097,7.445085526,-0.868907988,0.990859985,-1.951231956,-945.9000244,11.10000038,-909.3000488,0.528005844,-0.697341175,0.19287773,ST
13.3,-6.669892311,-1.636519194,7.004852295,-0.525918007,0.907018006,-1.76830399,-953.1000366,18.30000114,-909.3000488,0.559717243,-0.747097415,0.232375925,ST
13.33333333,-5.591440678,-1.464852095,7.084405422,0.198172003,-0.312501997,-1.394825935,-950.7000122,8.700000763,-899.7000122,0.548666598,-0.659104613,0.20591594,ST
13.36666667,-5.973653793,-1.996003151,6.708771706,0.228659987,-0.365855992,-1.105189919,-955.500061,11.70000076,-906.9000244,0.605542461,-0.704413486,0.288367447,ST
13.4,-6.52573967,-1.93917954,6.750043392,0.099086002,0.221037999,-1.42531395,-950.7000122,13.50000095,-904.500061,0.607219231,-0.74718674,0.282067236,ST
13.43333333,-6.369624615,-2.153912783,7.348186493,-0.221037999,0.769822001,-1.23476398,-943.500061,12.30000019,-906.9000244,0.615534965,-0.695959175,0.287424927,ST
13.46666667,-5.764303684,-2.004975319,7.117303371,0.304879993,-0.655492008,-1.074702024,-960.3000488,8.100000381,-909.3000488,0.612526705,-0.661502391,0.275546391,ST
13.5,-5.398240089,-2.068378448,6.270930767,0.960371971,-1.8292799,-0.266770005,-948.3000488,11.70000076,-897.3000488,0.639498779,-0.681732843,0.315604135,ST
13.53333333,-6.33074522,-2.192792177,6.968365669,0.251525998,-0.815553963,-0.251525998,-945.9000244,8.100000381,-899.7000122,0.633339308,-0.711831885,0.304693221,ST
13.56666667,-6.331343174,-2.07555604,7.522245884,0.594515979,-0.564027965,-0.411587983,-950.7000122,10.5,-911.7000122,0.613673148,-0.6813483,0.269493811,ST
13.6,-6.001168251,-1.933796167,7.946927547,0.846041977,-1.600619912,0.007622,-953.1000366,12.90000057,-904.500061,0.595111881,-0.631224305,0.237297292,DLR
13.63333333,-5.252293587,-1.860822797,5.827706814,2.484771967,-2.507637978,0.42683199,-955.500061,7.500000477,-909.3000488,0.638286111,-0.703495195,0.301071494,DLR
13.66666667,-6.419868469,-2.347711086,7.811747074,1.006103992,0.708845973,-0.198172003,-962.7000122,13.50000095,-918.9000244,0.637175098,-0.66851884,0.290920096,DLR
13.7,-6.017916203,-2.067780256,7.023993015,2.19513607,0.381099999,-1.158543944,-967.500061,3.300000191,-916.500061,0.645156426,-0.687486481,0.284393184,DLR
13.73333333,-5.655441761,-2.289093256,6.901373386,2.743919849,1.257629991,-2.08842802,-955.500061,9.300000191,-911.7000122,0.686375919,-0.662474957,0.318122667,DLR
13.76666667,-5.626730919,-2.19817543,7.875748634,4.13112402,1.089946032,-3.559473991,-945.9000244,5.100000381,-916.500061,0.687282791,-0.604292754,0.270607714,DLR
13.8,-6.066964149,-1.954133034,8.200540543,5.876561642,0.251525998,-4.481735706,-950.7000122,6.900000095,-906.9000244,0.700357153,-0.621936191,0.230323547,DLR
13.83333333,-5.022606373,-2.409319878,7.686137199,7.553401947,0.647870004,-5.861317635,-955.500061,7.500000477,-911.7000122,0.783097133,-0.557570325,0.295241189,DLR
13.86666667,-4.565625191,-2.064789534,8.752626419,9.961954117,2.812517881,-9.763781548,-948.3000488,-2.700000048,-899.7000122,0.819615623,-0.473042457,0.225398715,DLR
13.9,-5.33483696,-2.190399647,7.463627815,14.50466537,2.57623601,-12.5686779,-931.500061,-0.900000036,-904.500061,0.949244946,-0.597351249,0.274039037,DLR
13.93333333,-5.449680805,-1.823139787,8.048013687,14.32173729,2.721053839,-14.19216347,-938.7000122,1.5,-902.1000366,1.020285789,-0.583262527,0.216088091,DLR
13.96666667,-5.33543539,-1.0730685,6.842755795,18.41475105,1.440557957,-14.74094772,-914.7000122,-2.700000048,-882.9000244,1.100463942,-0.653279585,0.144762558,DLR
14.0,-6.303828716,-1.400850892,4.977147579,18.07938385,2.012207985,-14.44368935,-905.1000366,-9.300000191,-875.7000122,1.3055642,-0.874624506,0.267341235,DLR
14.03333333,-7.954703331,-0.311632484,5.693722725,13.74246597,4.565577984,-14.51990986,-897.9000244,-3.900000095,-880.500061,1.254743201,-0.952732932,0.072719523,DLR
14.06666667,-8.772364616,0.363072783,6.492243767,9.939087868,2.812517881,-8.155539513,-888.3000488,-3.900000095,-851.7000122,1.227786209,-0.938758073,-0.052171909,DLR
14.1,-8.351272583,0.810483754,6.284090042,6.882665634,0.678357959,-3.178373814,-883.500061,-3.900000095,-863.7000122,1.205529858,-0.92391459,-0.131733561,DLR
14.13333333,-6.734491825,0.906186581,7.291362762,2.949713945,-0.449698001,0.945127964,-895.500061,-9.300000191,-851.7000122,1.214897332,-0.745236537,-0.130231222,DLR
14.16666667,-6.295454979,0.309838057,6.656733036,2.294221878,-1.036592007,1.074702024,-888.3000488,-12.90000057,-854.1000366,1.271303218,-0.754886949,-0.054078842,DLR
14.2,-6.72851038,-0.04844958,5.912643433,0.396344006,0.472563982,-1.707327962,-876.3000488,-12.30000019,-866.1000366,1.349741215,-0.85064479,0.01091903,DLR
14.23333333,-6.54488039,-0.358287632,7.849430084,-1.04421401,0.205793992,-1.95885396,-878.7000122,-11.10000038,-849.3000488,1.387918118,-0.694695938,0.05029554,DLR
14.26666667,-5.289976597,-0.917551339,6.620844364,-0.182927996,-0.312501997,-1.379581928,-881.1000366,-9.300000191,-842.1000366,1.447668368,-0.669393489,0.137466718,DLR
14.3,-6.360054016,-0.640611112,8.042032242,-0.884151995,0.083841994,-2.477149963,-881.1000366,-15.30000019,-851.7000122,1.422909164,-0.667450118,0.085878427,DLR
14.33333333,-5.701498985,-1.142453074,8.151492119,-0.015244,-1.310984015,-1.326228023,-888.3000488,-7.500000477,-858.9000244,1.47024363,-0.603201482,0.140632704,DLR
14.36666667,-4.809069633,-1.993012428,6.760809898,1.684461951,-0.548784018,0.0,-885.9000244,-5.100000381,-849.3000488,1.780777877,-0.423514469,0.813228254,DLR
14.4,-6.244612694,-0.82364285,8.073734283,0.243903995,0.602137983,-0.503051996,-876.3000488,-11.70000076,-851.7000122,1.414627455,-0.654267961,0.124670035,DLR
14.43333333,-5.303135395,-0.865512908,8.119791031,0.838419974,-0.121951997,1.806414008,-885.9000244,-5.700000286,-851.7000122,1.396974801,-0.578218701,0.103217959,DLR
14.46666667,-4.471716881,-0.921140194,7.014422417,1.532021999,-0.72408998,2.347575903,-895.500061,-12.30000019,-858.9000244,1.402258858,-0.563350424,0.124635288,DLR
14.5,-6.107039928,-1.722053647,7.419365406,-0.114329994,0.358233988,1.410069942,-881.1000366,-10.5,-858.9000244,1.454029485,-0.674676697,0.224145202,DLR
14.53333333,-6.225471973,-0.374437511,8.431423187,-1.760681987,0.960371971,1.387203932,-885.9000244,-8.100000381,-870.9000244,1.336813167,-0.638614574,0.050373676,DLR
14.56666667,-4.590747356,-0.886447906,6.823615074,-1.166165948,-0.495429993,2.606724024,-885.9000244,-8.100000381,-844.500061,1.365737926,-0.589451691,0.126062455,DLR
14.6,-5.90247488,-1.040768743,7.958890438,-2.157026052,-0.312501997,2.835383892,-890.7000122,-8.100000381,-858.9000244,1.348947526,-0.633101871,0.130066755,DLR
14.63333333,-5.283396721,-1.204061747,7.044928074,-1.577754021,-0.327746004,3.742401838,-885.9000244,-12.90000057,-851.7000122,1.349882002,-0.636979921,0.166185894,DLR
14.66666667,-5.822921753,-0.603526235,7.474992752,-1.95885396,0.060975999,3.68142581,-890.7000122,-9.300000191,-858.9000244,1.275745286,-0.660426351,0.080860209,DLR
14.7,-6.615461349,-0.335558206,7.948123932,-2.286599874,-0.320124,4.382649899,-893.1000366,-12.30000019,-875.7000122,1.225610349,-0.69259811,0.040995812,DLR
14.73333333,-6.057991982,-0.442625791,7.873355865,-1.974097967,-0.320124,4.885701656,-912.3000488,-12.30000019,-854.1000366,1.205083776,-0.655721826,0.052765093,DLR
14.76666667,-5.68116188,-0.028710863,7.839262009,-0.891773999,-0.91463995,5.007653713,-902.7000122,-5.100000381,-861.3000488,1.149962633,-0.626384202,0.0002959,DLR
14.8,-5.341416836,0.89661634,7.745951653,0.739333987,-1.547266006,4.542711735,-893.1000366,-14.10000038,-858.9000244,1.064300919,-0.59778915,-0.118870565,DLR
14.83333333,-5.868978977,1.18611753,6.447981358,1.692083955,-0.693601966,4.100636005,-895.500061,-12.30000019,-861.3000488,1.000075103,-0.727616731,-0.190941761,DLR
14.86666667,-6.083114147,0.725547433,6.89060688,0.160062,-0.205793992,2.942091942,-890.7000122,-8.100000381,-861.3000488,1.041653455,-0.719798355,-0.111552912,DLR
14.9,-6.534711838,0.787156165,6.808063507,-0.106707998,-0.899396002,1.166165948,-917.1000366,-12.90000057,-868.500061,1.024780871,-0.759802037,-0.116673185,DLR
14.93333333,-6.706378937,0.623863101,6.622040749,-0.396344006,-0.373477995,-1.257629991,-909.9000244,-9.900000572,-870.9000244,1.05193166,-0.789069214,-0.090977962,DLR
14.96666667,-6.220686913,0.305651069,8.240615845,-2.25611186,0.274392009,-1.501533985,-902.7000122,-12.30000019,-885.3000488,1.089073334,-0.650723594,-0.032640245,DLR
15.0,-5.966475964,0.415111214,7.101153374,-0.060975999,-0.114329994,-1.181409955,-905.1000366,-8.100000381,-861.3000488,1.079152155,-0.696576145,-0.055882853,DLR
15.03333333,-5.950326443,-0.42587781,7.217193127,-0.861285985,0.251525998,-1.737815976,-890.7000122,-9.900000572,-863.7000122,1.157122023,-0.689199866,0.059737274,DLR
15.06666667,-6.066964149,-0.021533147,8.009134293,-1.364337921,-0.060975999,-2.507637978,-902.7000122,-3.300000191,-861.3000488,1.131994436,-0.649275172,0.009742517,DLR
15.1,-5.188890457,-0.392381787,7.759110451,-0.998481989,-0.975615978,-2.271355867,-895.500061,-12.90000057,-878.1000366,1.164058751,-0.588653917,0.053686538,DLR
15.13333333,-5.269639492,-0.580198705,7.253081799,0.289635986,-1.379581928,-2.004585981,-907.500061,-12.30000019,-868.500061,1.189737349,-0.6235667,0.081230417,DLR
15.16666667,-5.979635239,-0.835007608,8.170034409,-0.487807989,0.106707998,-2.385685921,-885.9000244,-14.70000076,-868.500061,1.212220658,-0.628949589,0.105057369,DLR
15.2,-5.398240089,-0.043664437,8.155679703,1.105189919,-0.129574001,-1.349093914,-900.3000488,-7.500000477,-868.500061,1.165541351,-0.585699673,0.007628711,DLR
15.23333333,-4.504016399,-1.431954265,6.779352665,1.85214591,-0.182927996,-0.076219998,-912.3000488,-3.900000095,-866.1000366,1.276540486,-0.576612178,0.199593875,DLR
15.26666667,-6.061580658,-1.0120579,8.330337524,0.701223969,0.91463995,-1.669217944,-888.3000488,-2.100000143,-882.9000244,1.243471172,-0.62544349,0.12407655,DLR
15.3,-5.842660427,-0.916355014,8.399123192,1.211897969,0.182927996,-0.373477995,-902.7000122,-13.50000095,-863.7000122,1.239290145,-0.605741791,0.107431437,DLR
15.33333333,-5.866586208,-0.864914715,7.650846958,0.640248001,0.358233988,-0.518296003,-893.1000366,-10.5,-856.500061,1.250697569,-0.651613551,0.112191776,DLR
15.36666667,-5.958102226,-1.19329524,7.815934181,0.060975999,0.29725799,0.472563982,-900.3000488,-1.5,-861.3000488,1.27184993,-0.646568841,0.149793287,DLR
15.4,-5.355174065,-1.283016682,6.875055313,0.221037999,-0.060975999,1.242385983,-902.7000122,-13.50000095,-878.1000366,1.286552287,-0.653622074,0.181782766,DLR
15.43333333,-4.646972656,-1.818952799,5.199058533,0.525918007,0.693601966,2.317087889,-900.3000488,-11.70000076,-868.500061,1.362945472,-0.703274091,0.332736495,DLR
15.46666667,-7.009039402,-0.483897656,8.059976578,-2.141782045,2.134160042,1.23476398,-897.9000244,-11.10000038,-854.1000366,1.179320879,-0.718914987,0.069407943,DLR
15.5,-6.425251961,0.05443101,8.429030418,-1.394825935,0.205793992,3.361301899,-897.9000244,-12.90000057,-873.3000488,1.093503308,-0.651615486,-0.008493486,DLR
15.53333333,-5.166759014,-0.192602038,6.750043392,1.379581928,-1.204275966,3.650938034,-900.3000488,-9.900000572,-866.1000366,1.091556779,-0.651160121,0.021212753,DLR
15.56666667,-4.908959389,0.313426912,5.98501873,1.585376024,-0.129574001,3.285081863,-907.500061,-10.5,-873.3000488,1.025019884,-0.685714369,-0.059758408,DLR
15.6,-6.648957253,0.445616513,6.826605797,0.518296003,0.716467977,1.966475964,-897.9000244,-15.30000019,-868.500061,1.012930486,-0.76980313,-0.069201374,DLR
15.63333333,-7.725016594,1.053329825,7.763297558,-0.114329994,0.731711984,2.339953899,-907.500061,-16.5,-863.7000122,0.954931732,-0.778937319,-0.13755694,DLR
15.66666667,-6.857110977,0.855942607,7.7920084,0.282013983,-0.137196004,2.76678586,-905.1000366,-14.10000038,-858.9000244,0.961034038,-0.719560116,-0.114705526,DLR
15.7,-6.689033031,1.280025959,8.503798485,0.045731999,-0.838419974,1.592997909,-909.9000244,-12.90000057,-863.7000122,0.932463742,-0.660861665,-0.150515529,DLR
15.73333333,-5.301341057,0.668125689,5.949130058,1.63872993,-1.600619912,0.83079797,-912.3000488,-16.5,-868.500061,0.957028706,-0.720177356,-0.116707088,DLR
15.76666667,-6.260164261,1.005478382,6.381587505,0.327746004,-0.152439997,-1.440557957,-914.7000122,-15.90000057,-844.500061,0.938856058,-0.768436516,-0.153340918,DLR
15.8,-6.849335194,0.191405743,7.05569458,-1.836901903,1.173787951,-1.905499935,-917.1000366,-15.30000019,-863.7000122,1.029466706,-0.772511495,-0.023494942,DLR
15.83333333,-7.141827106,0.314623207,7.325457096,-1.166165948,0.42683199,-1.562510014,-912.3000488,-15.90000057,-870.9000244,1.021002304,-0.773089643,-0.037994277,DLR
15.86666667,-6.804474354,0.299669623,7.258464813,-0.571649969,-0.282013983,-1.34147191,-895.500061,-8.700000763,-858.9000244,1.024007054,-0.752866558,-0.038051885,DLR
15.9,-6.288277149,-0.441429526,7.360149384,-1.356715918,0.304879993,-1.76830399,-900.3000488,-13.50000095,-875.7000122,1.093521913,-0.707644057,0.062581079,DLR
15.93333333,-5.702694893,-0.202172324,6.937262058,-0.464941978,-0.152439997,-2.103672028,-919.500061,-11.10000038,-866.1000366,1.08180192,-0.687993537,0.033750676,DLR
15.96666667,-6.099862099,-0.086730734,7.46542263,0.083841994,-0.647870004,-2.59910202,-900.3000488,-10.5,-863.7000122,1.080993249,-0.683950809,0.015663695,DLR
16.0,-5.806173801,-0.307445496,7.759708881,-0.678357959,-0.731711984,-1.890255928,-900.3000488,-14.10000038,-863.7000122,1.103692958,-0.641372851,0.042731113,DLR
16.03333333,-5.880941868,-0.457579374,8.218484879,-1.310984015,-0.114329994,-2.278977871,-905.1000366,-15.90000057,-863.7000122,1.119777463,-0.620449704,0.06031773,DLR
16.06666667,-6.139937401,-0.89422375,8.22027874,-1.135677934,-1.112811923,-0.510674,-897.9000244,-8.100000381,-866.1000366,1.146867904,-0.63625783,0.109445456,DLR
16.1,-4.984325409,-1.107760787,7.070049763,-0.510674,-2.36281991,0.266770005,-902.7000122,-9.300000191,-873.3000488,1.168841087,-0.605033264,0.154614141,DLR
16.13333333,-5.313303947,-0.470140368,8.399722099,-1.250007987,-1.897877932,-0.213415995,-900.3000488,-1.5,-878.1000366,1.113479954,-0.561109722,0.060417145,DLR
16.16666667,-5.050719261,-0.694444001,8.485256195,-0.625003994,-1.562510014,0.556405962,-907.500061,-8.100000381,-875.7000122,1.119781613,-0.533572942,0.081464203,DLR
16.2,-6.704584599,-0.494066089,8.615651131,-2.36281991,1.928365946,-0.693601966,-895.500061,-3.900000095,-868.500061,1.101393575,-0.663784346,0.062503915,DLR
16.23333333,-5.708676338,-1.586275101,6.877448082,-1.112811923,0.571649969,0.480185986,-917.1000366,-4.5,-863.7000122,1.18125122,-0.681273677,0.228363449,DLR
16.26666667,-5.501121044,-0.963608325,8.146707535,0.861285985,-0.53354001,2.301843882,-907.500061,-6.300000191,-861.3000488,1.1007573,-0.590330008,0.113579734,DLR
16.3,-4.840172768,-1.152023315,6.127376556,3.40703392,-1.562510014,3.285081863,-905.1000366,-8.700000763,-873.3000488,1.131701905,-0.656867457,0.173604976,DLR
16.33333333,-6.454560757,-0.299669623,8.390151024,-0.182927996,0.731711984,1.417691946,-905.1000366,-9.300000191,-873.3000488,1.042546404,-0.656951931,0.037925012,DLR
16.36666667,-7.704679489,0.385802209,9.917808533,-2.797273874,2.522881985,0.312501997,-902.7000122,-5.700000286,-863.7000122,0.97712677,-0.664486353,-0.034554023,DLR
16.4,-5.834884644,0.074169725,7.748343945,1.867389917,-0.586893976,3.750023842,-905.1000366,-3.300000191,-882.9000244,0.976761501,-0.644663988,-0.018044832,DLR
16.43333333,-5.573496342,-0.913364291,6.086702824,2.644834042,-0.746955991,2.271355867,-900.3000488,-5.700000286,-863.7000122,1.075225422,-0.733399443,0.137010964,DLR
16.46666667,-7.091583252,1.302755356,8.07732296,-0.411587983,0.670735955,0.152439997,-907.500061,-9.900000572,-863.7000122,0.879114423,-0.716108495,-0.15358765,DLR
16.5,-5.61297369,-0.298473328,5.723031998,1.63872993,-0.289635986,2.568614006,-907.500061,-9.300000191,-875.7000122,1.006040448,-0.773375855,0.039092997,DLR
16.53333333,-6.712958336,1.766914368,7.068853855,1.410069942,-0.152439997,1.623485923,-890.7000122,-14.10000038,-868.500061,0.810453163,-0.744891885,-0.242282498,DLR
16.56666667,-6.087301254,-0.046057008,6.221883297,0.236281991,0.129574001,1.646351933,-912.3000488,-8.700000763,-861.3000488,0.970830811,-0.774321358,-0.001880393,DLR
16.6,-7.394841671,1.0425632,8.19754982,-0.289635986,-0.388722003,-0.060975999,-914.7000122,-15.90000057,-875.7000122,0.887511669,-0.730641371,-0.122609753,DLR
16.63333333,-7.358952999,0.474327385,7.856607914,-1.974097967,0.251525998,-1.791170001,-912.3000488,-14.70000076,-866.1000366,0.932995538,-0.752412272,-0.053957989,DLR
16.66666667,-5.451475143,0.243444189,6.212312698,0.93750596,-1.692083955,-0.899396002,-905.1000366,-14.10000038,-868.500061,0.957420417,-0.716990952,-0.039335379,DLR
16.7,-5.352183342,-0.704612434,7.330242157,0.091463998,-1.547266006,-1.585376024,-897.9000244,-3.900000095,-868.500061,1.06561029,-0.625531054,0.097473157,DLR
16.73333333,-6.962384224,-1.530049682,7.34519577,-10.61744595,-2.050318003,10.89945984,-926.7000122,-1.5,-885.3000488,0.704938598,0.659079945,1.550312286,DLR
16.76666667,-5.497531891,-1.933796167,8.228055,-10.85372734,-2.903981924,12.82782555,-931.500061,-2.700000048,-906.9000244,0.679066775,-0.55336354,0.28425976,DLR
16.8,-4.90656662,-1.561153173,7.762699604,-9.702805519,-3.978683949,11.8293438,-941.1000366,0.300000012,-897.3000488,0.555644624,-0.55235858,0.204293055,DLR
16.83333333,-4.813854694,-2.045050859,7.658622742,-10.23634624,-3.102154016,11.5015974,-948.3000488,0.900000036,-902.1000366,0.506686648,-0.545866606,0.264492501,DLR
16.86666667,-6.163265228,-1.348214269,8.335122108,-8.551883698,-2.263733864,10.51073742,-962.7000122,4.5,-906.9000244,0.380343235,-0.627602388,0.16483027,DLR
16.9,-3.983632088,-1.494759321,7.113116264,-7.599133968,-2.286599874,11.35678005,-967.500061,-3.300000191,-906.9000244,0.331625569,-0.504888654,0.207845289,DLR
16.93333333,-4.785143852,-1.477413177,6.650751591,-7.073215961,-2.08842802,10.86135006,-960.3000488,2.700000048,-909.3000488,0.268731407,-0.609879176,0.217392841,DLR
16.96666667,-6.101058483,-1.578499317,9.801170349,-8.384200096,-0.160062,10.70128822,-972.3000488,0.300000012,-904.500061,0.169759317,-0.555448048,0.164150294,DLR
17.0,-4.722338676,-0.861923993,7.702287197,-4.771371841,-1.951231956,10.58695793,-969.9000244,6.900000095,-914.1000366,0.080866296,-0.546223747,0.10986325,DLR
17.03333333,-5.648862362,-0.686069965,8.504396439,-4.138745785,-1.524399996,9.961954117,-979.500061,4.5,-916.500061,0.001012285,-0.582950767,0.076733263,DLR
17.06666667,-5.495737553,-0.808091164,8.26513958,-3.338435888,-1.676839948,8.887251854,-984.3000488,2.100000143,-914.1000366,-0.038789134,-0.583112179,0.092476441,DLR
17.1,-4.413098812,0.101086162,7.796793461,-0.891773999,-0.907018006,5.990891933,-977.1000366,8.700000763,-916.500061,-0.126020067,-0.514827566,-0.015182862,DLR
17.13333333,-3.213822126,-0.092712164,8.0103302,-0.525918007,-1.585376024,3.772889853,-993.9000244,8.700000763,-926.1000366,-0.136102509,-0.381252584,0.00936715,DLR
17.16666667,-5.088402271,0.157909751,7.837467194,0.259148002,-1.440557957,1.150921941,-998.7000122,10.5,-916.500061,-0.154443888,-0.567893976,-0.020866961,DLR
17.2,-5.077635765,-0.411522359,7.741764545,0.464941978,1.295740008,-0.434453994,-986.7000122,6.300000191,-914.1000366,-0.112086163,-0.581720459,0.050843903,DLR
17.23333333,-4.696020603,0.265575469,7.476189137,1.204275966,0.640248001,-2.286599874,-989.1000366,12.90000057,-911.7000122,-0.144067962,-0.562372692,-0.032804731,ST
17.26666667,-6.817633629,0.150133893,6.760211945,0.975615978,1.280496001,-1.63872993,-993.9000244,12.30000019,-935.7000122,-0.127509087,-0.785409386,-0.021551395,ST
17.3,-6.754828453,-0.957626879,7.861392975,0.121951997,4.085391998,-1.897877932,-979.500061,3.300000191,-914.1000366,-0.021186156,-0.714998317,0.120915844,ST
17.33333333,-6.818830013,-0.003588858,8.324954033,-0.960371971,2.942091942,-3.445143938,-977.1000366,7.500000477,-926.1000366,-0.081972181,-0.69206635,0.010130953,ST
17.36666667,-5.513083935,-0.056225438,6.744061947,0.594515979,0.434453994,-1.272873998,-962.7000122,10.5,-911.7000122,-0.074886582,-0.686134072,0.009142479,ST
17.4,-6.118404388,-0.459373802,6.449775696,-0.274392009,0.93750596,-0.83079797,-967.500061,11.10000038,-906.9000244,-0.030836342,-0.757995487,0.071822507,ST
17.43333333,-5.548374176,-0.475523651,7.296746254,-0.754577994,1.318606019,-1.303362012,-977.1000366,9.900000572,-906.9000244,-0.029980082,-0.654125925,0.068342602,ST
17.46666667,-4.442408085,-0.331969351,7.360747337,-1.006103992,-0.243903995,-1.8292799,-960.3000488,5.700000286,-921.3000488,-0.035750865,-0.545014323,0.049251107,ST
17.5,-5.946139336,-0.620274246,7.158575058,-0.655492008,-0.823175967,-1.143299937,-967.500061,13.50000095,-930.9000244,-0.010981242,-0.685720683,0.087881871,ST
17.53333333,-6.51437521,-1.553377271,8.003152847,-1.463423967,1.661595941,-2.118916035,-957.9000244,11.10000038,-906.9000244,0.061029455,-0.676644262,0.194659999,ST
17.56666667,-5.595029354,-1.452889323,7.314092159,-1.265251994,1.166165948,-2.431417942,-972.3000488,11.10000038,-902.1000366,0.072016469,-0.64571321,0.201548688,ST
17.6,-5.241527081,-1.249520659,7.907450199,-0.40396598,-0.762199998,-1.8292799,-967.500061,12.90000057,-923.7000122,0.054334205,-0.579719468,0.160456787,ST
17.63333333,-6.086702824,-1.125705123,7.187883854,-0.358233988,-0.442075998,-0.93750596,-957.9000244,8.100000381,-911.7000122,0.055058574,-0.693534606,0.15728048,ST
17.66666667,-5.778060913,-1.179537892,7.492338657,0.72408998,0.099086002,-0.167683989,-962.7000122,15.30000019,-918.9000244,0.056991235,-0.652019583,0.155175314,ST
17.7,-4.991503239,-1.008469105,6.538898945,1.12805593,-0.746955991,-0.015244,-965.1000366,14.70000076,-911.7000122,0.05761213,-0.645231566,0.151037905,ST
17.73333333,-7.489347935,-1.485188961,7.652641296,0.40396598,1.143299937,0.060975999,-967.500061,10.5,-899.7000122,0.084844055,-0.764005612,0.190013522,ST
17.76666667,-6.322969437,-1.55098474,7.435515404,0.739333987,0.632625997,-1.211897969,-945.9000244,11.70000076,-928.500061,0.10311981,-0.696745879,0.205874221,ST
17.8,-6.434822083,-1.385897279,7.202239513,0.518296003,0.167683989,-1.455801964,-957.9000244,10.5,-909.3000488,0.102062947,-0.719544559,0.191694436,ST
17.83333333,-6.407905579,-1.683772445,6.924701214,-0.228659987,0.221037999,-0.899396002,-957.9000244,12.30000019,-911.7000122,0.136270521,-0.732027821,0.239034653,ST
17.86666667,-5.687143326,-1.832710028,6.297249317,0.007622,0.960371971,-0.983237982,-953.1000366,14.10000038,-899.7000122,0.176659188,-0.715487256,0.285035073,ST
17.9,-6.593928337,-1.884748459,7.653837681,-0.442075998,1.227141976,-0.373477995,-948.3000488,11.70000076,-904.500061,0.151355289,-0.699014312,0.24429948,ST
17.93333333,-6.907354832,-1.943964601,7.714250088,0.320124,0.160062,0.518296003,-950.7000122,11.10000038,-916.500061,0.151433445,-0.715041267,0.245559868,ST
17.96666667,-6.643573761,-1.719660997,7.184295177,0.929883957,0.106707998,0.884151995,-950.7000122,9.300000191,-911.7000122,0.14268222,-0.732496017,0.232383234,ST
18.0,-5.781650066,-1.231576324,6.916327,1.402447939,-0.396344006,1.440557957,-955.500061,2.700000048,-909.3000488,0.102249638,-0.689061191,0.172545881,ST
18.03333333,-5.512485504,-1.15561223,6.568806171,1.791170001,-0.525918007,1.471045971,-957.9000244,6.300000191,-916.500061,0.099655526,-0.690200808,0.168874584,ST
18.06666667,-5.458054543,-0.586180091,6.970160007,1.730193973,-1.227141976,1.608241916,-950.7000122,7.500000477,-914.1000366,0.043144034,-0.661563715,0.080959704,ST
18.1,-5.615964413,-0.344530344,6.827203751,1.12805593,-1.112811923,1.722571969,-945.9000244,-0.300000012,-916.500061,0.01836892,-0.685287995,0.046891809,ST
18.13333333,-6.828998089,-0.232677609,7.009637356,0.785066009,0.152439997,1.676839948,-957.9000244,5.100000381,-899.7000122,0.003058784,-0.770341099,0.029446593,ST
18.16666667,-7.234539032,-0.608311415,8.323159218,0.137196004,0.739333987,0.442075998,-955.500061,8.700000763,-899.7000122,0.030188049,-0.717058569,0.071025608,ST
18.2,-5.590244293,-0.202770472,7.853019238,0.998481989,-1.257629991,-0.647870004,-953.1000366,8.700000763,-914.1000366,0.007846895,-0.618993051,0.026013504,ST
18.23333333,-5.432932377,-0.080151156,7.195660114,0.670735955,-3.140264034,-0.038109999,-953.1000366,8.100000381,-918.9000244,0.000821004,-0.640853618,0.010225871,ST
18.26666667,-5.307920933,-0.171667039,6.672883034,0.823175967,-2.439039946,0.007622,-957.9000244,6.900000095,-911.7000122,0.011457278,-0.666816682,0.023795842,ST
18.3,-6.238032818,-0.476121813,7.151397228,-0.114329994,0.838419974,-0.068598002,-957.9000244,1.5,-911.7000122,0.038199014,-0.716268573,0.065641028,ST
18.33333333,-6.430634975,-0.464158952,7.595219612,-0.099086002,1.623485923,-0.609759986,-974.7000122,6.300000191,-914.1000366,0.038519787,-0.704722552,0.062350953,ST
18.36666667,-6.726716042,-0.805100441,6.881634712,-0.365855992,1.509155989,-0.716467977,-965.1000366,16.5,-930.9000244,0.077234909,-0.77123807,0.11696773,ST
18.4,-7.135845661,-1.26148355,8.244204521,-1.082324028,2.271355867,-1.356715918,-965.1000366,5.700000286,-916.500061,0.105849762,-0.71292674,0.155256916,ST
18.43333333,-6.078329086,-1.204061747,7.367925167,-0.510674,0.586893976,-1.8292799,-969.9000244,12.30000019,-894.9000244,0.118211376,-0.684602849,0.165314927,ST
18.46666667,-6.002364635,-1.168173194,6.340913773,0.320124,-0.045731999,-1.219519973,-955.500061,15.30000019,-926.1000366,0.135551485,-0.74742078,0.183015113,ST
18.5,-6.132161617,-1.612593412,7.543180943,-0.541162014,1.653973937,-0.907018006,-943.500061,6.300000191,-902.1000366,0.157925448,-0.676152488,0.212512753,ST
18.53333333,-4.932286739,-1.376925111,5.972457409,0.670735955,0.182927996,-1.143299937,-955.500061,11.70000076,-911.7000122,0.173858763,-0.677452044,0.226692086,ST
18.56666667,-7.014422417,-2.341729641,7.69092226,-0.838419974,1.600619912,-0.716467977,-948.3000488,11.10000038,-909.3000488,0.220485755,-0.718594315,0.296741884,ST
18.6,-6.724323273,-2.112640858,7.675968647,0.42683199,-0.053353999,-1.707327962,-950.7000122,11.70000076,-909.3000488,0.211527465,-0.700967216,0.270949657,ST
18.63333333,-5.666208267,-2.107855797,6.795502186,-0.022865999,-0.144817993,-1.143299937,-948.3000488,8.100000381,-897.3000488,0.235036428,-0.672503447,0.301442558,ST
18.66666667,-5.490354538,-2.335748196,6.395942688,-0.137196004,-0.548784018,-0.853663981,-960.3000488,7.500000477,-904.500061,0.267377628,-0.677066478,0.349881876,ST
18.7,-6.387568951,-2.265765667,7.448076248,0.29725799,-0.373477995,-0.091463998,-943.500061,16.5,-899.7000122,0.234204933,-0.686283075,0.295762789,ST
18.73333333,-5.472410202,-1.927216649,7.832682133,0.708845973,-0.929883957,0.365855992,-955.500061,9.300000191,-906.9000244,0.200607871,-0.596328996,0.240279266,ST
18.76666667,-5.699106216,-1.826130509,7.3523736,1.524399996,-3.185995817,1.737815976,-953.1000366,8.700000763,-902.1000366,0.193486203,-0.639078401,0.237679927,ST
18.8,-6.595722675,-2.12041688,5.886324883,1.455801964,-1.478667974,1.707327962,-948.3000488,12.30000019,-899.7000122,0.256183323,-0.805660619,0.336075294,ST
18.83333333,-5.923409939,-1.996003151,7.396038055,-0.022865999,1.417691946,0.228659987,-962.7000122,5.100000381,-897.3000488,0.209435812,-0.664633558,0.265555331,ST
18.86666667,-6.084908485,-1.865009785,6.679462433,-0.373477995,0.602137983,0.045731999,-957.9000244,14.70000076,-918.9000244,0.213349651,-0.719689633,0.272899037,ST
18.9,-7.090984821,-2.232269526,7.425346851,-0.960371971,0.579271972,0.434453994,-953.1000366,15.30000019,-899.7000122,0.221924178,-0.741627213,0.292986887,ST
18.93333333,-6.196761131,-1.940973997,6.597517014,-0.137196004,-0.40396598,0.975615978,-953.1000366,9.900000572,-904.500061,0.21168727,-0.733383794,0.284882448,ST
18.96666667,-6.422261238,-1.69214642,7.520451546,-0.282013983,0.076219998,0.93750596,-945.9000244,11.10000038,-909.3000488,0.165813121,-0.696049414,0.221973008,ST
19.0,-5.892904758,-1.587471485,7.264446259,0.160062,-1.006103992,1.737815976,-962.7000122,6.300000191,-904.500061,0.152137579,-0.669632479,0.212415488,ST
19.03333333,-5.959298611,-1.829121232,7.321269989,-0.312501997,0.121951997,1.333850026,-957.9000244,13.50000095,-911.7000122,0.164810525,-0.669209051,0.242775082,ST
19.06666667,-4.87665987,-0.925925314,6.507795334,0.663114011,-0.83079797,0.777444005,-945.9000244,6.900000095,-911.7000122,0.101629713,-0.637985051,0.141771133,ST
19.1,-7.107134819,-1.673604012,8.222671509,-0.510674,0.53354001,1.493911982,-943.500061,12.90000057,-906.9000244,0.129383243,-0.702360891,0.198021534,ST
19.13333333,-6.532319546,-1.144247532,7.982816219,0.746955991,-0.121951997,0.861285985,-948.3000488,11.70000076,-904.500061,0.09220308,-0.681428417,0.141386573,ST
19.16666667,-5.600412846,-0.570030272,8.452358246,0.480185986,-0.678357959,0.640248001,-953.1000366,12.30000019,-902.1000366,0.046899091,-0.585719249,0.067615921,ST
19.2,-6.267342091,-0.686668158,5.386875629,1.44817996,-0.388722003,2.530503988,-953.1000366,9.300000191,-918.9000244,0.07554905,-0.849082621,0.117303235,ST
19.23333333,-6.066366196,-0.706406832,7.890103817,-0.060975999,1.12805593,1.04421401,-974.7000122,6.300000191,-902.1000366,0.051739765,-0.659621534,0.088612895,ST
19.26666667,-6.215303421,-0.818259597,7.772269726,-0.106707998,0.274392009,0.40396598,-953.1000366,9.300000191,-914.1000366,0.059452386,-0.672059727,0.104123209,ST
19.3,-5.706284046,0.119628593,6.5329175,0.716467977,-2.271355867,0.015244,-953.1000366,7.500000477,-914.1000366,-0.015158442,-0.712864881,-0.016032033,ST
19.33333333,-6.95460844,-0.809287429,6.8038764,0.243903995,-0.205793992,1.12805593,-967.500061,12.90000057,-921.3000488,0.069735321,-0.791515432,0.113698716,ST
19.36666667,-6.601704121,-1.038376212,7.096966267,-0.411587983,1.592997909,-0.91463995,-953.1000366,6.300000191,-911.7000122,0.09611373,-0.747311917,0.147250625,ST
19.4,-4.993895531,-0.736912131,8.128763199,-0.83079797,0.228659987,-1.920743942,-948.3000488,12.90000057,-902.1000366,0.070171989,-0.554518115,0.095217081,ST
19.43333333,-6.287678719,-1.253707647,6.782941341,0.152439997,-2.06556201,-0.198172003,-957.9000244,6.300000191,-911.7000122,0.121456219,-0.732250008,0.180375661,ST
19.46666667,-6.613068581,-1.141854882,6.328352451,0.312501997,-0.320124,-0.510674,-948.3000488,7.500000477,-909.3000488,0.123245926,-0.797093716,0.178800209,ST
19.5,-6.069954872,-1.613789678,7.658622742,-1.371959925,2.675322056,-0.594515979,-943.500061,6.900000095,-904.500061,0.144668191,-0.667141226,0.210928108,ST
19.53333333,-6.112422943,-1.576106787,6.977935791,-0.503051996,0.655492008,-0.72408998,-945.9000244,3.300000191,-918.9000244,0.154854329,-0.707165451,0.224039044,ST
19.56666667,-6.279304981,-2.071967363,6.921710491,-0.480185986,0.609759986,-1.272873998,-950.7000122,8.700000763,-894.9000244,0.202964536,-0.715650905,0.291890757,ST
19.6,-6.038253307,-2.202362537,7.887113094,-0.53354001,-0.213415995,-1.173787951,-950.7000122,15.30000019,-902.1000366,0.197736636,-0.634465162,0.2746104,ST
19.63333333,-5.355174065,-2.159894228,6.852325916,0.099086002,-1.600619912,-0.945127964,-953.1000366,9.300000191,-904.500061,0.217834938,-0.63729392,0.30486899,ST
19.66666667,-5.824118137,-2.354290724,6.802082062,0.129574001,-1.257629991,-0.503051996,-948.3000488,14.10000038,-909.3000488,0.235307989,-0.676818865,0.332275941,ST
19.7,-5.891708374,-2.290289402,7.550956726,-0.304879993,-0.594515979,-0.228659987,-953.1000366,12.30000019,-914.1000366,0.212322277,-0.641258341,0.296063785,ST
19.73333333,-5.839071751,-2.453582525,7.279998302,0.114329994,-1.196653962,0.40396598,-950.7000122,8.700000763,-923.7000122,0.225741851,-0.648014544,0.323284771,ST
19.76666667,-5.267845154,-2.042060137,7.126873493,0.907018006,-1.913121939,0.731711984,-955.500061,15.90000057,-902.1000366,0.195535479,-0.615520859,0.276780263,ST
19.8,-5.858212471,-2.307037354,6.297847271,0.419209987,-0.388722003,1.669217944,-955.500061,4.5,-921.3000488,0.232721031,-0.715850678,0.345983052,ST
19.83333333,-6.567609787,-2.353094339,7.8482337,-0.022865999,1.013725996,1.013725996,-957.9000244,5.100000381,-906.9000244,0.195212431,-0.678953541,0.291836552,ST
19.86666667,-6.806867123,-2.18860507,7.349382877,0.350611985,0.670735955,0.91463995,-960.3000488,6.900000095,-914.1000366,0.191162131,-0.726204711,0.287874246,ST
19.9,-6.504206657,-2.199371815,7.308110714,0.503051996,0.472563982,0.731711984,-960.3000488,10.5,-899.7000122,0.192398767,-0.707473572,0.290534444,ST
19.93333333,-6.095674992,-1.889533639,7.015020847,0.129574001,0.007622,0.609759986,-957.9000244,6.900000095,-899.7000122,0.172572488,-0.698640138,0.262792963,ST
19.96666667,-6.322371006,-2.027704716,6.950421333,0.205793992,0.625003994,0.815553963,-945.9000244,8.100000381,-918.9000244,0.183376736,-0.718714183,0.282024682,ST
20.0,-5.134459496,-1.481001973,7.617350578,0.160062,-0.457319975,0.571649969,-943.500061,15.90000057,-906.9000244,0.126969364,-0.587624617,0.193214154,ST
20.03333333,-5.09498167,-1.312325716,5.619553089,1.532021999,-2.111294031,1.928365946,-955.500061,15.30000019,-909.3000488,0.14022395,-0.716788547,0.222240157,ST
20.06666667,-6.355867386,-1.498946309,6.998272896,-0.137196004,1.112811923,1.753059983,-945.9000244,5.100000381,-921.3000488,0.125243926,-0.728435774,0.209254657,ST
20.1,-6.392951965,-1.589864016,7.41996336,-0.525918007,1.669217944,1.12805593,-948.3000488,11.10000038,-897.3000488,0.121116344,-0.703815318,0.210847289,ST
20.13333333,-7.395439625,-1.497151852,8.826795578,-0.777444005,0.746955991,0.282013983,-950.7000122,7.500000477,-923.7000122,0.091881627,-0.692129219,0.170270793,ST
20.16666667,-6.220088959,-1.131686449,6.284090042,0.815553963,-1.112811923,1.250007987,-948.3000488,10.5,-894.9000244,0.091985924,-0.768616151,0.174223981,ST
20.2,-6.41328907,-1.430159807,8.065958023,0.274392009,-0.091463998,0.800309956,-950.7000122,14.70000076,-890.1000366,0.0895299,-0.667127999,0.173903783,ST
20.23333333,-4.708581448,-0.122021168,5.955111504,2.218001842,-3.521363974,1.257629991,-948.3000488,5.700000286,-899.7000122,-0.005898634,-0.662824502,0.014806888,ST
20.26666667,-6.024496078,-0.805100441,7.177715778,0.72408998,-0.746955991,1.326228023,-953.1000366,12.30000019,-906.9000244,0.04821205,-0.69353549,0.106408885,ST
20.3,-6.883429527,-0.94147706,7.49114275,-0.434453994,0.708845973,0.266770005,-948.3000488,10.5,-918.9000244,0.05812544,-0.739679754,0.125143728,ST
20.33333333,-6.838568687,-0.993515491,7.523442268,-0.548784018,0.472563982,-0.373477995,-962.7000122,4.5,-914.1000366,0.062988413,-0.73429304,0.132774169,ST
20.36666667,-7.049114704,-1.399056435,6.913336277,0.030487999,0.411587983,-0.731711984,-957.9000244,9.900000572,-914.1000366,0.112404454,-0.784633933,0.199711746,ST
20.4,-6.340315342,-1.459468842,7.799784184,-1.12805593,0.792688012,-1.387203932,-945.9000244,7.500000477,-902.1000366,0.107629086,-0.678009817,0.189327511,ST
20.43333333,-5.109935284,-1.124508739,7.157378674,-0.396344006,-0.800309956,-1.577754021,-943.500061,6.300000191,-940.500061,0.09423236,-0.614006174,0.159000008,ST
20.46666667,-5.438315868,-1.11553669,6.104049206,0.365855992,-1.166165948,-0.030487999,-965.1000366,16.5,-918.9000244,0.107245811,-0.714779074,0.179222667,ST
20.5,-6.434822083,-1.704707503,6.6387887,-0.137196004,0.967993975,0.282013983,-953.1000366,13.50000095,-906.9000244,0.153641768,-0.754529635,0.249486805,ST
20.53333333,-5.686545372,-1.308138728,7.553947449,-0.129574001,0.929883957,-1.227141976,-955.500061,3.900000095,-909.3000488,0.11114535,-0.641502335,0.174728033,ST
20.56666667,-5.98501873,-1.937385082,8.004349709,-0.327746004,0.327746004,-0.823175967,-945.9000244,8.100000381,-911.7000122,0.151409333,-0.628951395,0.23783767,ST
20.6,-5.857016087,-1.922431469,7.64606142,0.053353999,-1.166165948,-1.219519973,-953.1000366,0.900000036,-904.500061,0.161234867,-0.636310618,0.247213519,ST
20.63333333,-4.846154213,-2.092902184,5.840268135,0.449698001,-1.150921941,-0.701223969,-962.7000122,12.30000019,-906.9000244,0.221109706,-0.660372643,0.341636072,ST
20.66666667,-6.147713661,-2.444012165,7.942142487,-1.189031959,1.028970003,-1.021348,-962.7000122,11.10000038,-904.500061,0.199526056,-0.638678556,0.303180579,ST
20.7,-5.351585388,-2.00019002,7.387065887,-0.114329994,-0.396344006,-0.541162014,-943.500061,3.900000095,-902.1000366,0.179264796,-0.610126872,0.266151001,ST
20.73333333,-5.736789227,-2.490667343,6.700397491,0.342989981,-0.40396598,0.518296003,-938.7000122,10.5,-916.500061,0.22931802,-0.674402697,0.352197349,ST
20.76666667,-6.238032818,-2.454778671,7.269231319,0.289635986,-0.899396002,0.510674,-953.1000366,2.100000143,-899.7000122,0.209970748,-0.681250663,0.324842361,ST
20.8,-6.636994362,-2.439227104,7.387065887,0.015244,0.114329994,0.358233988,-955.500061,15.30000019,-899.7000122,0.204658971,-0.706308745,0.318553066,ST
20.83333333,-5.044737816,-1.771101356,7.906851768,0.388722003,-1.608241916,0.365855992,-950.7000122,12.90000057,-892.500061,0.144499043,-0.557432249,0.220739646,ST
20.86666667,-5.190086365,-1.934992552,6.376802444,1.387203932,-3.483253956,2.057940006,-957.9000244,11.70000076,-921.3000488,0.173674637,-0.654829912,0.286690737,ST
20.9,-5.15419817,-1.731025815,5.73738718,1.143299937,-0.838419974,1.8292799,-969.9000244,10.5,-902.1000366,0.170353394,-0.708313051,0.288010741,ST
20.93333333,-6.313997269,-2.258587837,7.494133472,-0.91463995,2.187514067,1.432935953,-957.9000244,6.300000191,-911.7000122,0.167639255,-0.683864288,0.293120739,ST
20.96666667,-6.224275589,-1.649080157,7.733390331,0.060975999,1.387203932,0.114329994,-953.1000366,21.90000153,-928.500061,0.118143936,-0.669709596,0.212457329,ST
21.0,-6.738678932,-2.165875673,7.160369396,-1.189031959,2.698187828,0.975615978,-955.500061,5.100000381,-918.9000244,0.16549991,-0.736854507,0.293736677,ST
21.03333333,-7.093975544,-2.059406281,8.465517044,-0.975615978,1.44817996,0.274392009,-941.1000366,10.5,-902.1000366,0.128486563,-0.687155859,0.241647403,ST
21.06666667,-5.109935284,-1.217819095,6.836175919,0.708845973,-1.859767914,1.181409955,-953.1000366,8.100000381,-897.3000488,0.083212585,-0.632921552,0.174699746,ST
21.1,-5.607590199,-1.606013894,6.766791344,0.121951997,-0.853663981,1.928365946,-957.9000244,8.700000763,-909.3000488,0.107847513,-0.676664913,0.228353441,ST
21.13333333,-6.167452335,-1.19329524,7.504301548,0.693601966,-1.105189919,1.928365946,-948.3000488,13.50000095,-916.500061,0.055622276,-0.680375445,0.15533008,ST
21.16666667,-5.672189713,-0.92951417,6.970160007,1.189031959,-0.083841994,1.753059983,-950.7000122,12.90000057,-906.9000244,0.035753597,-0.679071475,0.128776744,ST
21.2,-5.68116188,-0.671714544,8.034255981,0.411587983,-0.503051996,1.440557957,-962.7000122,2.700000048,-904.500061,0.002653156,-0.614980493,0.082102858,ST
21.23333333,-6.753632069,-0.632835269,7.145415783,0.975615978,-0.80793196,1.539644003,-960.3000488,7.500000477,-899.7000122,0.000840665,-0.750256659,0.083960583,ST
21.26666667,-5.365342617,-0.633433402,7.958890438,0.663114011,-0.259148002,0.663114011,-955.500061,7.500000477,-914.1000366,-0.003869296,-0.595619091,0.07761524,ST
21.3,-5.486765385,-0.479112506,7.558134556,0.40396598,-1.547266006,0.282013983,-945.9000244,9.900000572,-904.500061,-0.012912406,-0.623527395,0.062554779,ST
21.33333333,-5.366538525,-0.495860517,6.837372303,1.006103992,-1.85214591,0.137196004,-962.7000122,5.100000381,-911.7000122,-0.006358035,-0.659953854,0.070052087,ST
21.36666667,-6.106441498,-1.093405366,7.732194424,-0.632625997,0.861285985,-0.228659987,-957.9000244,8.700000763,-899.7000122,0.036044579,-0.664970218,0.140088295,ST
21.4,-6.357063293,-0.821250319,7.304522038,-0.038109999,-0.320124,-0.907018006,-957.9000244,12.90000057,-916.500061,0.022872638,-0.711187076,0.113988443,ST
21.43333333,-6.247004986,-1.32967186,6.770380497,-0.251525998,0.960371971,-0.480185986,-955.500061,14.10000038,-906.9000244,0.077327773,-0.736767108,0.193673686,ST
21.46666667,-6.501813889,-1.610799074,6.976141453,-1.250007987,1.951231956,-1.082324028,-957.9000244,13.50000095,-918.9000244,0.103389417,-0.740084239,0.230453777,ST
21.5,-5.373118401,-1.238155961,7.470805645,-0.739333987,-0.083841994,-1.76830399,-967.500061,2.700000048,-904.500061,0.069637559,-0.61899222,0.168862409,ST
21.53333333,-5.880941868,-1.187911987,7.008440971,0.449698001,-1.295740008,0.0,-948.3000488,11.10000038,-914.1000366,0.068995661,-0.687036214,0.16686291,ST
21.56666667,-6.242219925,-1.772895813,7.028180122,0.564027965,-0.274392009,0.373477995,-965.1000366,14.10000038,-916.500061,0.118533337,-0.710123657,0.243558995,ST
21.6,-5.675778866,-1.776484609,7.054498196,0.182927996,1.318606019,-1.013725996,-960.3000488,10.5,-926.1000366,0.127634517,-0.665295555,0.24807579,ST
21.63333333,-5.492148876,-1.594649196,6.706977367,-0.304879993,0.701223969,-1.089946032,-957.9000244,10.5,-897.3000488,0.124135029,-0.673227667,0.235998956,ST
21.66666667,-6.383979797,-2.310028076,8.071341515,-0.716467977,0.731711984,-1.295740008,-962.7000122,10.5,-914.1000366,0.15567783,-0.651212369,0.280991394,ST
21.7,-5.815145969,-2.09230423,7.515068054,-0.190549999,-0.663114011,-1.364337921,-948.3000488,12.30000019,-906.9000244,0.155643636,-0.639046212,0.273481614,ST
21.73333333,-5.686545372,-2.253802776,7.410393238,-0.015244,-1.257629991,-0.647870004,-957.9000244,7.500000477,-897.3000488,0.16946509,-0.631089441,0.295003604,ST
21.76666667,-4.691833496,-1.920637131,5.656039715,1.105189919,-1.440557957,0.030487999,-948.3000488,7.500000477,-902.1000366,0.18881987,-0.662953194,0.324275307,ST
21.8,-6.962982178,-2.567229748,7.6299119,-1.166165948,2.385685921,0.373477995,-948.3000488,7.500000477,-894.9000244,0.188273093,-0.716128976,0.327164982,ST
21.83333333,-6.096272945,-2.288495064,8.725111961,-0.365855992,0.274392009,-0.289635986,-948.3000488,8.700000763,-897.3000488,0.146891217,-0.597179497,0.258868825,ST
21.86666667,-5.649460316,-2.101874352,7.451066971,1.135677934,-3.10977602,0.762199998,-950.7000122,9.900000572,-906.9000244,0.150400143,-0.62485614,0.270683919,ST
21.9,-5.888119221,-2.360272169,6.730304718,0.312501997,-2.187514067,0.891773999,-950.7000122,11.70000076,-906.9000244,0.18295352,-0.685761921,0.333119335,ST
21.93333333,-5.75174284,-2.027106524,7.01083374,0.236281991,-0.167683989,1.196653962,-955.500061,9.900000572,-904.500061,0.13668881,-0.667753619,0.279404447,ST
21.96666667,-6.613667011,-2.115033627,6.887018204,-0.327746004,1.34147191,1.082324028,-962.7000122,13.50000095,-909.3000488,0.14446338,-0.743332534,0.296984399,ST
22.0,-6.700397491,-2.12280941,6.216499805,-0.266770005,2.271355867,1.082324028,-960.3000488,10.5,-902.1000366,0.164038401,-0.798495487,0.328308631,ST
22.03333333,-6.918121815,-2.150323868,8.994874001,-0.72408998,2.25611186,0.259148002,-938.7000122,9.300000191,-904.500061,0.103236107,-0.65033907,0.238453733,ST
22.06666667,-4.859313488,-1.477413177,6.077730656,0.693601966,-1.577754021,0.289635986,-945.9000244,5.700000286,-904.500061,0.101514384,-0.65773337,0.23642555,ST
22.1,-5.730209827,-1.855439544,7.40142107,-0.42683199,-1.478667974,1.600619912,-943.500061,14.70000076,-899.7000122,0.096675282,-0.642708598,0.243667273,ST
22.13333333,-5.368931293,-1.545003295,7.208220959,-0.198172003,-1.471045971,1.158543944,-965.1000366,17.10000038,-899.7000122,0.069563516,-0.627658447,0.210267811,ST
22.16666667,-6.105245113,-1.378121376,6.261958599,0.632625997,-0.952749968,1.974097967,-962.7000122,9.300000191,-899.7000122,0.064547296,-0.75636907,0.211966282,ST
22.2,-5.194273472,-0.955832481,7.637089252,0.495429993,-0.632625997,1.516777992,-953.1000366,5.100000381,-916.500061,0.002898644,-0.595451472,0.122989481,ST
22.23333333,-6.642377853,-1.260885358,6.692621708,0.632625997,-0.518296003,2.118916035,-955.500061,8.100000381,-911.7000122,0.032331999,-0.767794988,0.179583715,ST
22.26666667,-6.5329175,-1.352401257,8.195157051,0.167683989,0.899396002,1.105189919,-948.3000488,20.10000038,-909.3000488,0.017828095,-0.671026284,0.162382238,ST
22.3,-5.103355885,-0.288903058,7.676567078,1.112811923,-2.522881985,1.074702024,-950.7000122,14.10000038,-911.7000122,-0.058021788,-0.584240975,0.03716908,ST
22.33333333,-5.826510906,-0.618479848,6.727313995,0.929883957,-2.820139885,1.661595941,-967.500061,10.5,-904.500061,-0.033498107,-0.704801946,0.086218246,ST
22.36666667,-5.773275852,-0.865512908,7.252483368,0.0,-0.350611985,1.173787951,-962.7000122,9.300000191,-911.7000122,-0.019346576,-0.669374213,0.116396122,ST
22.4,-6.023299694,-0.639414847,7.39424324,0.144817993,0.29725799,0.182927996,-962.7000122,17.10000038,-918.9000244,-0.038184038,-0.681995172,0.086520721,ST
22.43333333,-6.24102354,-0.654966533,7.085601807,-0.144817993,0.823175967,-0.015244,-955.500061,8.100000381,-918.9000244,-0.034510372,-0.720606768,0.092437157,ST
22.46666667,-7.436711788,-1.187911987,7.400823116,-0.571649969,1.379581928,-0.030487999,-972.3000488,13.50000095,-914.1000366,0.009428737,-0.78212487,0.158610259,ST
22.5,-5.614768028,-1.183126807,7.184893608,-0.670735955,1.150921941,-1.143299937,-953.1000366,19.5,-909.3000488,0.017467961,-0.661428075,0.166006123,ST
22.53333333,-5.441904545,-1.531245947,7.479179859,-0.693601966,-0.29725799,-0.990859985,-960.3000488,6.900000095,-914.1000366,0.041828035,-0.619201713,0.20362135,ST
22.56666667,-6.004158974,-1.425972819,6.52573967,0.342989981,-1.371959925,-0.967993975,-950.7000122,9.900000572,-918.9000244,0.052971019,-0.726839388,0.215224288,ST
22.6,-6.096871376,-1.609004617,7.34519577,0.228659987,0.685979962,-0.815553963,-960.3000488,9.300000191,-911.7000122,0.05836121,-0.683381014,0.216560571,ST
22.63333333,-5.425755024,-1.637117267,7.262053967,0.038109999,1.021348,-1.082324028,-967.500061,11.70000076,-906.9000244,0.067805825,-0.632563761,0.223130859,ST
22.66666667,-5.761312962,-1.80280292,7.030572414,0.746955991,0.038109999,-0.922261953,-943.500061,13.50000095,-894.9000244,0.090266344,-0.669575053,0.250169731,ST
22.7,-6.414485455,-2.3016541,7.106536865,-0.205793992,0.716467977,-1.387203932,-950.7000122,10.5,-906.9000244,0.136280101,-0.70889673,0.314021544,ST
22.73333333,-6.28588438,-2.3064394,8.319570541,-0.967993975,0.769822001,-1.562510014,-960.3000488,7.500000477,-899.7000122,0.11622647,-0.632033677,0.275330746,ST
22.76666667,-5.317491055,-2.112042904,7.751334667,-0.320124,-1.432935953,-0.975615978,-950.7000122,18.90000153,-918.9000244,0.11318653,-0.583181676,0.267439395,ST
22.8,-5.04533577,-2.062397003,6.620844364,1.394825935,-2.713431835,0.167683989,-950.7000122,8.100000381,-923.7000122,0.130601208,-0.623800132,0.297747729,ST
22.83333333,-5.861203194,-2.037275076,7.638285637,0.289635986,0.068598002,0.038109999,-965.1000366,7.500000477,-902.1000366,0.109776531,-0.637790893,0.261023758,ST
22.86666667,-5.098570824,-1.728035092,6.863092422,1.463423967,-0.693601966,0.42683199,-950.7000122,17.10000038,-902.1000366,0.101738049,-0.623562787,0.243688553,ST
22.9,-5.907857895,-2.121015072,7.337419987,0.693601966,-0.663114011,0.861285985,-943.500061,9.300000191,-911.7000122,0.120160387,-0.65686638,0.277966796,ST
22.93333333,-6.805670738,-2.130585194,8.084500313,-0.42683199,0.182927996,0.480185986,-965.1000366,15.30000019,-918.9000244,0.10467719,-0.683201459,0.258260934,ST
22.96666667,-6.46951437,-2.167670012,7.185491562,0.015244,-0.144817993,0.556405962,-960.3000488,9.300000191,-906.9000244,0.123568415,-0.710685457,0.291157649,ST
23.0,-5.886324883,-2.262176752,8.025283813,-0.175305992,-0.038109999,0.091463998,-950.7000122,11.10000038,-911.7000122,0.112889083,-0.617293613,0.275341534,ST
23.03333333,-4.973558903,-1.882355928,6.599311352,0.449698001,-1.653973937,0.495429993,-957.9000244,14.10000038,-921.3000488,0.110660828,-0.624399357,0.275887014,ST
23.06666667,-5.160179615,-1.497151852,6.674079418,0.746955991,-0.975615978,0.769822001,-965.1000366,14.70000076,-904.500061,0.075111429,-0.644598814,0.219157926,ST
23.1,-5.618356705,-1.759138465,5.950924397,0.198172003,0.365855992,2.17227006,-967.500061,9.900000572,-909.3000488,0.107744715,-0.735779149,0.282685123,ST
23.13333333,-6.410896301,-1.787251234,7.126873493,-0.243903995,1.981719971,1.577754021,-957.9000244,13.50000095,-902.1000366,0.077962053,-0.72179945,0.245416417,ST
23.16666667,-6.659723759,-1.94157207,7.981021881,-0.83079797,2.118916035,0.983237982,-945.9000244,11.70000076,-906.9000244,0.069644,-0.686281686,0.239589914,ST
23.2,-6.364839554,-1.653267145,8.473891258,-0.396344006,-0.236281991,0.312501997,-953.1000366,11.70000076,-899.7000122,0.038990167,-0.636373484,0.194131164,ST
23.23333333,-5.755331516,-1.360775232,6.464729309,0.358233988,-2.294221878,1.227141976,-960.3000488,11.10000038,-906.9000244,0.039722688,-0.711071382,0.204033825,ST
23.26666667,-6.133955956,-1.410421133,7.955899715,-0.769822001,-0.640248001,0.922261953,-945.9000244,9.900000572,-899.7000122,0.015529917,-0.650220858,0.176171822,ST
23.3,-4.463941097,-0.772202551,6.940851212,0.53354001,-0.945127964,1.326228023,-957.9000244,12.30000019,-911.7000122,-0.028044458,-0.568663257,0.109272686,ST
23.33333333,-5.001671314,-0.562852561,7.160369396,1.028970003,-1.74543798,1.310984015,-962.7000122,10.5,-914.1000366,-0.049803038,-0.604431947,0.075870305,ST
23.36666667,-6.045431137,-0.436644375,6.920514107,0.838419974,-0.899396002,1.356715918,-957.9000244,11.10000038,-909.3000488,-0.062520963,-0.712550425,0.059914908,ST
23.4,-6.668097973,-1.47322619,8.147305489,-0.518296003,1.059458017,1.333850026,-967.500061,9.300000191,-918.9000244,0.00506741,-0.681195515,0.175065772,ST
23.43333333,-5.411399364,-0.690855145,8.546266556,0.40396598,-0.899396002,-0.899396002,-977.1000366,8.100000381,-923.7000122,-0.044121203,-0.563798247,0.082663667,ST
23.46666667,-5.542392731,-0.771604419,7.512675762,0.708845973,-2.682943821,-0.114329994,-969.9000244,11.10000038,-904.500061,-0.032685408,-0.626659767,0.100382746,ST
23.5,-6.292464256,-0.916355014,6.657331467,1.006103992,-0.846041977,0.190549999,-979.500061,14.10000038,-906.9000244,-0.009412819,-0.747711209,0.133481303,ST
23.53333333,-6.010140419,-1.385299087,7.632902622,-0.221037999,1.775925994,-0.007622,-960.3000488,3.300000191,-899.7000122,0.020907355,-0.664231441,0.179332495,ST
23.56666667,-6.282893658,-1.137667894,7.290764809,0.099086002,1.585376024,-0.945127964,-965.1000366,18.30000114,-921.3000488,0.01186614,-0.706627003,0.157020121,ST
23.6,-6.136348724,-1.143051267,7.959488392,-0.114329994,0.632625997,-0.762199998,-972.3000488,9.900000572,-918.9000244,0.006942012,-0.654207116,0.144306326,ST
23.63333333,-6.647162914,-1.215426564,7.378691673,0.518296003,-0.312501997,-0.121951997,-967.500061,15.90000057,-916.500061,0.020171818,-0.724100865,0.161925128,ST
23.66666667,-5.62433815,-1.792036295,7.786625385,-0.693601966,1.097568035,-0.129574001,-950.7000122,11.70000076,-902.1000366,0.059585932,-0.618134333,0.226227214,ST
23.7,-5.454465866,-1.123910666,7.259661198,0.274392009,-0.693601966,-0.457319975,-957.9000244,4.5,-909.3000488,0.02029666,-0.636866895,0.15556746,ST
23.73333333,-5.645871639,-1.6472857,8.253774643,-0.396344006,-0.815553963,0.137196004,-950.7000122,12.30000019,-909.3000488,0.041371657,-0.590643403,0.196376629,ST
23.76666667,-5.618356705,-1.896711349,7.20642662,-0.411587983,0.670735955,0.251525998,-960.3000488,8.100000381,-902.1000366,0.074446443,-0.645743165,0.25623288,ST
23.8,-5.18470335,-1.821943521,7.838663578,-0.609759986,0.259148002,-0.076219998,-960.3000488,3.300000191,-904.500061,0.058368767,-0.574717429,0.230273116,ST
23.83333333,-5.772677898,-2.506817102,8.098258018,-1.120433927,1.288118005,-0.106707998,-941.1000366,9.300000191,-909.3000488,0.096104933,-0.59926029,0.30071695,ST
23.86666667,-4.312012672,-1.701118588,7.282390594,-0.007622,-0.640248001,-0.602137983,-955.500061,14.10000038,-911.7000122,0.061135089,-0.523557159,0.23153528,ST
23.9,-5.639291763,-2.072565317,6.415681362,0.457319975,-0.42683199,0.586893976,-948.3000488,5.700000286,-916.500061,0.103969128,-0.692547819,0.308777986,ST
23.93333333,-6.370820999,-1.910468698,8.842946053,-0.342989981,1.166165948,0.61738199,-953.1000366,9.900000572,-914.1000366,0.044549024,-0.617891407,0.215372729,ST
23.96666667,-5.167955399,-1.421187758,7.062273979,1.265251994,-1.242385983,1.943609953,-957.9000244,9.900000572,-906.9000244,0.026832615,-0.620766888,0.194208415,ST
24.0,-5.350986958,-1.683174372,7.531218052,1.036592007,-1.600619912,2.164648056,-960.3000488,8.700000763,-902.1000366,0.031012709,-0.604753935,0.214608223,ST
24.03333333,-6.096272945,-1.717866659,7.691520691,-0.762199998,0.91463995,0.891773999,-957.9000244,7.500000477,-916.500061,0.029060814,-0.658775644,0.220014342,ST
24.06666667,-5.943148613,-1.598237991,7.77346611,-0.259148002,0.61738199,0.144817993,-955.500061,8.100000381,-916.500061,0.018270401,-0.644295989,0.203656522,ST
24.1,-5.591440678,-1.467244744,7.78483057,-0.045731999,0.114329994,0.121951997,-943.500061,9.900000572,-906.9000244,0.007733331,-0.615658945,0.186710017,ST
24.13333333,-5.34261322,-0.956430614,7.324858665,1.379581928,-2.46952796,0.945127964,-953.1000366,6.300000191,-904.500061,-0.02791226,-0.621939726,0.127520627,ST
24.16666667,-6.083712101,-1.248324394,7.102349758,1.42531395,-0.640248001,1.646351933,-960.3000488,6.300000191,-904.500061,-0.005607355,-0.698045494,0.167752049,ST
24.2,-5.422764301,-0.829026163,6.986310005,0.838419974,0.785066009,1.280496001,-960.3000488,11.10000038,-916.500061,-0.039879728,-0.65939333,0.116439306,ST
24.23333333,-5.564524174,-1.163986206,8.463125229,-0.182927996,1.112811923,0.952749968,-948.3000488,11.10000038,-899.7000122,-0.032678102,-0.581653013,0.135576812,ST
24.26666667,-5.788827896,-0.971384168,7.309905052,0.213415995,-1.211897969,0.80793196,-955.500061,6.300000191,-894.9000244,-0.039022059,-0.66166243,0.130570177,ST
24.3,-5.227171421,-1.586873293,8.045022964,-0.411587983,-0.487807989,0.182927996,-953.1000366,9.300000191,-904.500061,-0.004870776,-0.568998326,0.193722454,ST
24.33333333,-5.668002605,-1.549788475,6.449775696,-0.846041977,-0.304879993,-0.388722003,-957.9000244,9.900000572,-916.500061,0.019139114,-0.702629254,0.236415245,ST
24.36666667,-6.131563663,-1.734016418,7.973245621,-1.097568035,0.91463995,-0.358233988,-965.1000366,6.900000095,-916.500061,0.005922597,-0.647397221,0.217283448,ST
24.4,-5.945540905,-1.983442068,7.841056347,-1.242385983,1.189031959,-0.022865999,-953.1000366,6.900000095,-911.7000122,0.022595126,-0.636218851,0.24943859,ST
24.43333333,-5.141636848,-1.754951477,6.763800621,-0.419209987,-0.510674,0.228659987,-955.500061,8.100000381,-926.1000366,0.022567074,-0.633663613,0.254019624,ST
24.46666667,-6.126180172,-2.167072058,7.549760818,-0.762199998,0.29725799,0.464941978,-955.500061,-0.900000036,-906.9000244,0.033976608,-0.662505086,0.279801026,ST
24.5,-5.882137775,-1.881757736,8.025283813,-0.350611985,0.518296003,0.442075998,-957.9000244,10.5,-909.3000488,0.002554333,-0.621723165,0.231523008,ST
24.53333333,-5.785238743,-1.780073524,6.690228939,0.182927996,0.29725799,0.884151995,-969.9000244,5.100000381,-906.9000244,0.016039348,-0.69543523,0.257998507,ST
24.56666667,-5.411997795,-1.678987265,7.181304455,0.182927996,-0.899396002,1.105189919,-957.9000244,13.50000095,-906.9000244,-0.007294652,-0.633295997,0.228302974,ST
24.6,-5.400632858,-1.613789678,7.323662758,0.335367978,-0.746955991,0.975615978,-962.7000122,14.10000038,-899.7000122,-0.018622573,-0.623486255,0.215264714,ST
24.63333333,-6.556245327,-1.702913046,7.373906612,-0.068598002,-0.121951997,1.158543944,-969.9000244,5.700000286,-916.500061,-0.017402777,-0.711646923,0.225053242,ST
24.66666667,-6.10464716,-1.774092078,7.891898155,0.099086002,-0.167683989,0.564027965,-953.1000366,11.70000076,-921.3000488,-0.022456359,-0.648198465,0.220297577,ST
24.7,-5.600412846,-1.661043048,8.188577652,0.251525998,-1.333850026,0.152439997,-960.3000488,12.30000019,-902.1000366,-0.035501445,-0.589690783,0.199688561,ST
24.73333333,-5.307920933,-1.503133297,6.150704384,0.93750596,-1.760681987,0.495429993,-960.3000488,6.300000191,-911.7000122,-0.01442904,-0.692687737,0.235904996,ST
24.76666667,-5.802585125,-1.714277744,7.519255161,-0.388722003,0.419209987,0.731711984,-962.7000122,9.900000572,-918.9000244,-0.025797163,-0.646865405,0.224216757,ST
