seconds,sensor_accX_m_s_,sensor_accY_m_s_,sensor_accZ_m_s_,sensor_gyroX___s_,sensor_gyroY___s_,sensor_gyroZ___s_,sensor_magX__T_,sensor_magY__T_,sensor_magZ__T_,sensor_yaw___,sensor_pitch___,sensor_roll___,label5
0.0,-6.093282223,-1.149032593,7.313494205,0.198172003,-0.205793992,0.160062,-957.9000244,9.300000191,-906.9000244,-2.891243918,-0.688330076,0.15521731,ST
0.033333333,-6.027486801,-1.156210423,7.236931801,0.289635986,-0.213415995,0.228659987,-957.9000244,10.5,-930.9000244,-2.889916176,-0.687975437,0.15754482,ST
0.066666667,-6.063973427,-1.132284641,7.237529755,0.259148002,-0.190549999,0.342989981,-967.500061,9.300000191,-894.9000244,-2.893133038,-0.69121154,0.154209703,ST
0.1,-6.036458969,-1.122116208,7.303325653,0.205793992,-0.243903995,0.442075998,-953.1000366,6.900000095,-904.500061,-2.897081033,-0.684697287,0.151422321,ST
0.133333333,-6.081917763,-1.079648018,7.290166378,0.091463998,-0.320124,0.472563982,-972.3000488,9.300000191,-904.500061,-2.903558445,-0.689515666,0.146136762,ST
0.166666667,-5.974252224,-1.129293919,7.259063244,0.053353999,-0.259148002,0.434453994,-957.9000244,9.300000191,-906.9000244,-2.901892944,-0.682433283,0.153562293,ST
0.2,-6.025094032,-1.108957052,7.314092159,0.076219998,-0.137196004,0.358233988,-965.1000366,12.30000019,-909.3000488,-2.906493418,-0.683349258,0.14981379,ST
0.233333333,-5.96587801,-1.14843452,7.265642643,0.106707998,-0.099086002,0.304879993,-969.9000244,10.5,-914.1000366,-2.904306864,-0.681349502,0.15612741,ST
0.266666667,-6.045431137,-1.111349583,7.287175655,0.083841994,-0.106707998,0.243903995,-960.3000488,0.900000036,-916.500061,-2.908996514,-0.686758068,0.150835858,ST
0.3,-6.055001259,-1.120919943,7.282989025,0.114329994,-0.121951997,0.312501997,-955.500061,6.900000095,-911.7000122,-2.909895235,-0.687712487,0.152040063,ST
0.333333333,-6.047823429,-1.125705123,7.291961193,0.137196004,-0.129574001,0.312501997,-955.500061,10.5,-906.9000244,-2.911263845,-0.686482509,0.1524572,ST
0.366666667,-6.039449692,-1.121518016,7.260857582,0.152439997,-0.068598002,0.312501997,-965.1000366,12.30000019,-906.9000244,-2.912686129,-0.687995518,0.152525513,ST
0.4,-6.055599213,-1.089218378,7.256670475,0.114329994,0.038109999,0.373477995,-957.9000244,11.70000076,-909.3000488,-2.917424434,-0.690104584,0.14826749,ST
0.433333333,-6.04842186,-1.086227655,7.25128746,0.091463998,0.022865999,0.472563982,-960.3000488,3.900000095,-906.9000244,-2.920442212,-0.689909755,0.147865107,ST
0.466666667,-5.966475964,-1.162191749,7.225566864,0.175305992,0.053353999,0.388722003,-967.500061,9.900000572,-906.9000244,-2.915278483,-0.684189496,0.158620519,ST
0.5,-6.081917763,-1.102975607,7.330840111,0.106707998,-0.038109999,0.190549999,-962.7000122,5.100000381,-914.1000366,-2.92220049,-0.687036116,0.148888747,ST
0.533333333,-6.056795597,-1.114340305,7.244109631,0.198172003,-0.099086002,0.213415995,-965.1000366,6.900000095,-911.7000122,-2.920695911,-0.690500047,0.151953872,ST
0.566666667,-6.057991982,-1.129293919,7.143621445,0.221037999,-0.076219998,0.221037999,-957.9000244,10.5,-914.1000366,-2.918393449,-0.697184143,0.156057634,ST
0.6,-6.133358002,-1.132882833,7.229156017,0.167683989,0.015244,0.335367978,-960.3000488,8.100000381,-904.500061,-2.920775023,-0.697713888,0.154672817,ST
0.633333333,-6.087301254,-1.128695846,7.212408066,0.152439997,-0.076219998,0.342989981,-962.7000122,4.5,-914.1000366,-2.922492942,-0.695011384,0.154458548,ST
0.666666667,-6.075338364,-1.138266087,7.190874577,0.129574001,-0.053353999,0.29725799,-960.3000488,5.700000286,-902.1000366,-2.92267111,-0.69540159,0.156321581,ST
0.7,-6.077132702,-1.129892111,7.221380234,0.068598002,-0.091463998,0.175305992,-960.3000488,15.30000019,-902.1000366,-2.924641339,-0.693505857,0.154816129,ST
0.733333333,-6.060982704,-1.133480906,7.163958549,0.167683989,-0.144817993,0.198172003,-974.7000122,15.90000057,-914.1000366,-2.924242014,-0.6959003,0.156305645,ST
0.766666667,-6.096272945,-1.143051267,7.198650837,0.114329994,-0.137196004,0.160062,-962.7000122,11.10000038,-914.1000366,-2.924384362,-0.696342997,0.157009421,ST
0.8,-6.099862099,-1.149630785,7.204632282,0.121951997,-0.213415995,0.182927996,-955.500061,12.30000019,-911.7000122,-2.924778039,-0.696040375,0.157708261,ST
0.833333333,-6.121993542,-1.156210423,7.218389511,0.129574001,-0.29725799,0.236281991,-957.9000244,8.700000763,-899.7000122,-2.925682912,-0.696706281,0.158190257,ST
0.866666667,-6.121395111,-1.140060544,7.238726139,0.144817993,-0.320124,0.274392009,-960.3000488,8.700000763,-916.500061,-2.928824484,-0.695450819,0.155495829,ST
0.9,-6.125582218,-1.164584398,7.182500839,0.152439997,-0.274392009,0.327746004,-977.1000366,11.10000038,-906.9000244,-2.927663333,-0.699357684,0.159930154,ST
0.933333333,-6.092684269,-1.142453074,7.216595173,0.175305992,-0.182927996,0.365855992,-972.3000488,9.300000191,-902.1000366,-2.93181992,-0.694849816,0.156139138,ST
0.966666667,-6.08610487,-1.172360182,7.177715778,0.129574001,-0.167683989,0.350611985,-957.9000244,5.700000286,-916.500061,-2.930494919,-0.696603579,0.16112464,ST
1.0,-6.066964149,-1.159799218,7.303923607,0.0,-0.205793992,0.251525998,-948.3000488,5.700000286,-906.9000244,-2.935071327,-0.686766843,0.157081373,ST
1.033333333,-6.062777042,-1.153817773,7.290166378,0.167683989,-0.342989981,0.342989981,-965.1000366,10.5,-902.1000366,-2.937497975,-0.687163386,0.156115368,ST
1.066666667,-6.049019814,-1.169369459,7.215398788,0.274392009,-0.282013983,0.373477995,-948.3000488,3.900000095,-906.9000244,-2.936618327,-0.69092781,0.15958703,ST
1.1,-6.101058483,-1.137667894,7.185491562,0.259148002,-0.167683989,0.365855992,-960.3000488,12.30000019,-909.3000488,-2.940114298,-0.697657559,0.156011627,ST
1.133333333,-6.057394028,-1.101779342,7.21779108,0.182927996,-0.175305992,0.42683199,-962.7000122,7.500000477,-904.500061,-2.945797035,-0.692359722,0.150517177,ST
1.166666667,-6.089693546,-1.126901388,7.181304455,0.137196004,-0.198172003,0.487807989,-960.3000488,11.10000038,-897.3000488,-2.9459593,-0.697115639,0.154656716,ST
1.2,-6.089693546,-1.137667894,7.208220959,0.007622,-0.160062,0.449698001,-967.500061,4.5,-906.9000244,-2.948473992,-0.695273267,0.155839579,ST
1.233333333,-6.095674992,-1.113742232,7.248296738,0.152439997,-0.114329994,0.434453994,-967.500061,11.10000038,-909.3000488,-2.953690395,-0.693411588,0.151552554,ST
1.266666667,-6.085506439,-1.079049945,7.172332287,0.198172003,-0.121951997,0.419209987,-957.9000244,10.5,-909.3000488,-2.957626234,-0.69797971,0.148352244,ST
1.3,-6.121993542,-1.061105609,7.152593613,0.106707998,-0.182927996,0.396344006,-974.7000122,4.5,-904.500061,-2.961148748,-0.702321999,0.146476549,ST
1.333333333,-6.149507999,-1.073666692,7.272820473,0.045731999,-0.29725799,0.365855992,-962.7000122,7.500000477,-909.3000488,-2.964112579,-0.696182574,0.145898439,ST
1.366666667,-6.12378788,-1.063498259,7.238128185,0.121951997,-0.434453994,0.350611985,-977.1000366,9.900000572,-906.9000244,-2.966816423,-0.696270973,0.145076432,ST
1.4,-6.158480167,-1.082638741,7.190874577,0.175305992,-0.518296003,0.350611985,-955.500061,14.10000038,-914.1000366,-2.966611275,-0.701871881,0.148499048,ST
1.433333333,-6.114217281,-1.013254166,7.149004936,0.106707998,-0.434453994,0.42683199,-972.3000488,11.70000076,-928.500061,-2.97492662,-0.701981373,0.139909992,ST
1.466666667,-6.069356918,-1.029404044,7.219585896,0.091463998,-0.434453994,0.541162014,-969.9000244,11.70000076,-906.9000244,-2.978164136,-0.693501384,0.140603189,ST
1.5,-5.985616684,-1.073666692,7.454655647,0.045731999,-0.564027965,0.40396598,-974.7000122,10.5,-904.500061,-2.980286744,-0.670686364,0.142294963,ST
1.533333333,-5.950326443,-1.038376212,7.361345768,0.182927996,-0.777444005,0.304879993,-957.9000244,9.300000191,-909.3000488,-2.984089675,-0.67370815,0.139247245,ST
1.566666667,-5.90247488,-1.024020791,7.237529755,0.205793992,-0.625003994,0.373477995,-974.7000122,4.5,-914.1000366,-2.985990283,-0.678297329,0.139551735,ST
1.6,-5.934774399,-1.019833803,7.252483368,0.068598002,-0.228659987,0.358233988,-965.1000366,15.30000019,-923.7000122,-2.988900573,-0.680701809,0.139036849,ST
1.633333333,-5.969466686,-1.027011514,7.363140106,0.022865999,-0.045731999,0.289635986,-953.1000366,9.900000572,-914.1000366,-2.991438821,-0.676534615,0.13813669,ST
1.666666667,-5.979635239,-1.03777802,7.421159744,0.038109999,-0.160062,0.068598002,-962.7000122,-1.5,-935.7000122,-2.991538938,-0.67325611,0.138747098,ST
1.7,-6.045431137,-1.093405366,7.252483368,0.137196004,-0.358233988,-0.022865999,-960.3000488,3.900000095,-923.7000122,-2.984265362,-0.688710767,0.149338319,ST
1.733333333,-6.354671001,-0.978561878,7.234539032,0.182927996,-0.365855992,0.289635986,-974.7000122,6.900000095,-914.1000366,-2.995743055,-0.715656129,0.13363375,ST
1.766666667,-6.336128712,-1.041366935,7.11191988,0.160062,-0.381099999,0.541162014,-960.3000488,9.300000191,-909.3000488,-2.991902156,-0.721976426,0.144187708,ST
1.8,-6.468317986,-0.956430614,6.99887085,0.129574001,-0.495429993,0.381099999,-967.500061,8.100000381,-914.1000366,-3.000553345,-0.740631116,0.134885615,ST
1.833333333,-6.73987484,-0.930710435,6.799689293,0.121951997,-0.457319975,0.365855992,-972.3000488,5.700000286,-926.1000366,-3.002443929,-0.775578062,0.135090673,ST
1.866666667,-6.809259415,-1.011459708,6.409101963,-0.083841994,-0.060975999,0.487807989,-967.500061,9.900000572,-916.500061,-2.991759465,-0.809520858,0.155754736,ST
1.9,-6.92410326,-0.988730311,6.45037365,-0.274392009,0.419209987,0.358233988,-953.1000366,13.50000095,-921.3000488,-2.998128744,-0.815817649,0.152044941,ST
1.933333333,-6.846942425,-1.053329825,6.382783413,-0.289635986,0.701223969,0.190549999,-969.9000244,12.30000019,-909.3000488,-2.991914388,-0.815027581,0.163901837,ST
1.966666667,-7.176519394,-0.886447906,6.587946892,-0.243903995,0.853663981,0.182927996,-967.500061,11.10000038,-906.9000244,-3.015886339,-0.825170564,0.134081591,ST
2.0,-6.907953262,-0.981552601,6.347493172,0.0,0.716467977,0.396344006,-962.7000122,3.300000191,-918.9000244,-3.003891142,-0.823109858,0.152858973,ST
2.033333333,-6.837970257,-0.906784773,6.622040749,-0.449698001,0.373477995,0.106707998,-955.500061,5.700000286,-909.3000488,-3.019157894,-0.797488168,0.13678662,ST
2.066666667,-6.982122898,-0.738706589,6.729706764,-0.40396598,-0.083841994,0.289635986,-972.3000488,8.700000763,-904.500061,-3.043407744,-0.8007182,0.109536298,ST
2.1,-6.668695927,-0.639414847,6.761408329,0.472563982,-0.815553963,0.731711984,-948.3000488,6.900000095,-909.3000488,-3.058045563,-0.775004178,0.092108542,ST
2.133333333,-6.574787617,-0.623264968,6.407307625,0.998481989,-1.12805593,0.716467977,-960.3000488,8.100000381,-918.9000244,-3.055644425,-0.794072463,0.093763025,ST
2.166666667,-6.809259415,-0.512010396,6.745258331,0.929883957,-0.952749968,0.442075998,-969.9000244,8.700000763,-902.1000366,-3.067468773,-0.787094862,0.073273879,ST
2.2,-6.671088696,-0.221312895,6.312800884,1.356715918,-1.364337921,0.335367978,-965.1000366,2.700000048,-921.3000488,-3.09048594,-0.810282398,0.032042321,ST
2.233333333,-6.778754234,-0.343334079,6.221284866,0.853663981,-1.333850026,0.388722003,-977.1000366,6.900000095,-921.3000488,-3.07236908,-0.82518981,0.05274114,ST
2.266666667,-6.738080502,-0.46116823,6.615461349,-0.083841994,-1.669217944,0.236281991,-981.9000244,12.30000019,-904.500061,-3.063413795,-0.790535823,0.069103454,ST
2.3,-6.290071487,-0.772800744,6.75183773,-0.579271972,-2.339953899,0.045731999,-957.9000244,5.700000286,-918.9000244,-3.037949044,-0.742762403,0.114429371,ST
2.333333333,-5.922811508,-1.034787297,6.835577965,-0.80793196,-2.637212038,-0.586893976,-974.7000122,8.700000763,-914.1000366,-3.016644696,-0.703736002,0.151866805,ST
2.366666667,-6.426447868,-1.076657295,7.144219875,-0.716467977,-2.408551931,-1.04421401,-981.9000244,13.50000095,-926.1000366,-3.016364846,-0.722515574,0.151864657,ST
2.4,-6.14233017,-1.220809817,7.762699604,-0.785066009,-1.890255928,-1.051836014,-998.7000122,9.300000191,-923.7000122,-3.011351758,-0.659989652,0.158360545,ST
2.433333333,-6.304427147,-1.03777802,7.745353222,-0.190549999,-2.271355867,-0.632625997,-986.7000122,0.300000012,-916.500061,-3.025257097,-0.674744902,0.13402151,ST
2.466666667,-6.152498722,-1.066488862,7.421758175,-0.167683989,-1.85214591,0.350611985,-986.7000122,10.5,-904.500061,-3.025635207,-0.684022719,0.142133995,ST
2.5,-6.41328907,-1.159799218,7.94991827,-0.236281991,-1.669217944,0.792688012,-979.500061,5.100000381,-916.500061,-3.034079081,-0.671005302,0.14385631,ST
2.533333333,-6.707575321,-1.914057493,8.313589096,-0.282013983,-1.920743942,0.632625997,-993.9000244,16.5,-914.1000366,-2.993227738,-0.663289297,0.225270396,ST
2.566666667,-6.464729309,-2.397356987,8.038443565,-0.525918007,-1.42531395,-0.091463998,-991.500061,6.300000191,-916.500061,-2.958623695,-0.654194122,0.290221488,ST
2.6,-6.508991718,-2.15809989,8.567201614,-0.792688012,-1.471045971,-0.579271972,-981.9000244,13.50000095,-923.7000122,-2.98660715,-0.632262229,0.24847832,ST
2.633333333,-6.050814152,-2.344720364,7.270427704,0.647870004,-1.463423967,-0.015244,-996.3000488,12.90000057,-933.3000488,-2.948566311,-0.667417506,0.310176758,ST
2.666666667,-5.99638319,-2.70181179,7.597611904,-0.952749968,-0.625003994,0.42683199,-1003.500061,1.5,-916.500061,-2.939278262,-0.638660824,0.34250443,ST
2.7,-6.012533188,-1.932599902,6.849335194,-1.082324028,-1.143299937,0.868907988,-1013.100037,15.30000019,-911.7000122,-2.996959864,-0.699936219,0.27527042,ST
2.733333333,-6.254781246,-2.593547821,7.494133472,-1.867389917,0.434453994,1.326228023,-1005.900024,14.70000076,-914.1000366,-2.978662691,-0.669345419,0.33482355,ST
2.766666667,-6.836774349,-2.342926025,8.05100441,-1.836901903,-0.099086002,0.266770005,-993.9000244,14.10000038,-921.3000488,-3.021886774,-0.68398159,0.286073245,ST
2.8,-6.583759785,-2.358477831,7.430131912,-1.021348,-0.282013983,0.167683989,-996.3000488,5.100000381,-923.7000122,-3.01518474,-0.700921321,0.308745351,ST
2.833333333,-6.670490265,-1.718464732,6.114815712,-1.516777992,1.219519973,-0.442075998,-1001.100037,9.300000191,-935.7000122,-3.041342821,-0.811530725,0.278063497,ST
2.866666667,-6.487458706,-2.286102533,6.315791607,-1.074702024,2.698187828,0.045731999,-991.500061,12.30000019,-923.7000122,-2.991140441,-0.772550502,0.350544807,ST
2.9,-6.175228119,-2.300457954,6.370820999,-1.12805593,2.08842802,-1.707327962,-996.3000488,8.700000763,-909.3000488,-2.980591623,-0.741658113,0.352192373,ST
2.933333333,-5.846847534,-2.279522896,5.663815975,-0.746955991,1.905499935,-1.349093914,-984.3000488,12.90000057,-926.1000366,-2.948050508,-0.765940075,0.387186921,ST
2.966666667,-5.531626225,-2.530742884,6.076534271,-1.036592007,1.600619912,-2.278977871,-974.7000122,9.300000191,-926.1000366,-2.925704907,-0.699966553,0.4004254,ST
3.0,-5.78942585,-1.981049538,5.5944314,0.045731999,1.501533985,-1.882633924,-984.3000488,15.30000019,-923.7000122,-2.946632671,-0.774299345,0.344184043,ST
3.033333333,-5.413792133,-1.892524362,6.132161617,-0.266770005,0.556405962,-1.303362012,-977.1000366,14.70000076,-923.7000122,-2.966619548,-0.701108734,0.301943511,ST
3.066666667,-5.217601299,-1.154415965,5.154796124,-0.274392009,-0.800309956,-0.625003994,-974.7000122,11.10000038,-909.3000488,-3.019750364,-0.777541626,0.221629509,ST
3.1,-5.345005512,-1.576106787,5.47360611,-0.42683199,-0.266770005,0.762199998,-977.1000366,18.30000114,-921.3000488,-2.987606385,-0.753578602,0.279692854,ST
3.133333333,-4.90237999,-1.959516406,7.138836384,-1.478667974,-1.455801964,0.221037999,-974.7000122,18.90000153,-914.1000366,-3.006263277,-0.58285962,0.269791607,ST
3.166666667,-4.447193146,-2.22628808,7.433122635,-0.678357959,-3.285081863,0.480185986,-993.9000244,17.70000076,-916.500061,-3.009540546,-0.515293176,0.290768669,ST
3.2,-4.618860245,-2.947648525,7.619145393,0.160062,-2.896359921,0.373477995,-984.3000488,16.5,-921.3000488,-2.983302013,-0.51009624,0.367452498,ST
3.233333333,-4.963988304,-2.655754805,7.876945019,0.548784018,-2.339953899,0.29725799,-991.500061,16.5,-918.9000244,-3.011099026,-0.534585907,0.323239523,ST
3.266666667,-4.802489758,-3.436929464,7.921805382,0.442075998,-1.387203932,0.670735955,-984.3000488,17.10000038,-921.3000488,-2.976512851,-0.505843434,0.40731135,ST
3.3,-5.925204277,-3.581081867,8.904554367,0.144817993,0.480185986,-0.038109999,-996.3000488,18.30000114,-923.7000122,-2.98672316,-0.553759388,0.382390751,ST
3.333333333,-7.252483368,-2.764018774,9.252075195,0.274392009,0.685979962,0.160062,-998.7000122,19.5,-921.3000488,-3.036908743,-0.645361777,0.289944727,ST
3.366666667,-5.787631512,-2.999088764,8.735877991,0.990859985,1.524399996,1.684461951,-989.1000366,15.30000019,-933.3000488,-3.019421392,-0.563292436,0.327731759,ST
3.4,-5.05311203,-2.780168533,7.507292271,0.289635986,1.875011921,0.556405962,-984.3000488,16.5,-921.3000488,-3.002859655,-0.566447737,0.354263478,ST
3.433333333,-5.017223358,-2.704204321,7.782438278,0.304879993,1.585376024,0.381099999,-991.500061,10.5,-918.9000244,-3.010763831,-0.54984821,0.334096295,ST
3.466666667,-5.051317215,-2.590557098,7.824906349,0.579271972,1.410069942,-0.350611985,-972.3000488,21.30000114,-914.1000366,-3.009462435,-0.551941887,0.319555094,ST
3.5,-4.9962883,-2.589360952,7.871561527,1.059458017,1.310984015,-0.868907988,-977.1000366,22.5,-904.500061,-2.994968478,-0.54428843,0.31725948,ST
3.533333333,-5.54897213,-2.703008175,8.711354256,1.661595941,0.91463995,-0.091463998,-996.3000488,14.10000038,-911.7000122,-2.993978964,-0.548023781,0.298379068,ST
3.566666667,-5.847445488,-2.583977699,8.656923294,2.126538038,0.205793992,0.495429993,-974.7000122,17.10000038,-914.1000366,-2.992611663,-0.57500815,0.285895819,ST
3.6,-4.935875893,-3.262271881,7.45345974,1.844523907,-0.251525998,0.53354001,-974.7000122,13.50000095,-899.7000122,-2.923056177,-0.545331077,0.408524441,ST
3.633333333,-4.704394341,-2.710783958,6.656135082,1.966475964,0.40396598,0.251525998,-986.7000122,12.30000019,-930.9000244,-2.927322014,-0.580346112,0.383267563,ST
3.666666667,-5.462839603,-2.053424835,7.507890701,1.592997909,0.678357959,0.990859985,-977.1000366,14.10000038,-906.9000244,-2.992024576,-0.613515775,0.263397663,ST
3.7,-4.839574814,-1.215426564,6.037056923,2.461905956,-1.516777992,3.193617821,-972.3000488,6.300000191,-921.3000488,-3.047239131,-0.664459912,0.189813287,ST
3.733333333,-4.15171051,-0.89422375,4.590747356,2.347575903,-1.067080021,4.695151806,-991.500061,7.500000477,-911.7000122,-3.07234677,-0.72554087,0.18084976,ST
3.766666667,-5.723629951,-1.174752831,7.675968647,-0.053353999,0.358233988,4.53508997,-981.9000244,9.900000572,-928.500061,-3.126802885,-0.637103116,0.146282913,ST
3.8,-4.691235542,-0.407335371,6.020906925,2.042695999,-2.675322056,3.795755863,-974.7000122,15.90000057,-904.500061,3.085888157,-0.656515803,0.058796592,ST
3.833333333,-5.504709721,-1.062900066,6.594526291,0.800309956,-2.012207985,3.971061945,-981.9000244,8.100000381,-928.500061,3.117101083,-0.686827845,0.152241774,ST
3.866666667,-6.004158974,-0.663938701,6.671088696,1.166165948,-1.501533985,2.439039946,-993.9000244,12.90000057,-921.3000488,3.066935623,-0.728144291,0.093203745,ST
3.9,-7.939749718,-0.888840437,6.551459789,0.640248001,0.762199998,2.050318003,-996.3000488,8.700000763,-926.1000366,3.085824484,-0.877968425,0.129604253,ST
3.933333333,-9.567296982,-0.458177507,8.380580902,0.099086002,3.00306797,1.219519973,-979.500061,11.10000038,-921.3000488,3.021586563,-0.856068824,0.052448163,ST
3.966666667,-7.863785744,-0.378624499,6.846942425,1.189031959,1.661595941,1.859767914,-979.500061,-0.900000036,-906.9000244,3.016794829,-0.856719618,0.049614094,ST
4.0,-7.393047333,-0.071777157,6.763202667,0.960371971,0.823175967,1.295740008,-981.9000244,9.900000572,-909.3000488,2.983251499,-0.831331623,0.006542791,ST
4.033333333,-6.885223866,0.53653425,5.705087662,2.042695999,-0.548784018,1.684461951,-972.3000488,5.700000286,-916.500061,2.907058423,-0.875390041,-0.100549051,ST
4.066666667,-5.580075741,0.148937598,5.788827896,1.806414008,-0.449698001,1.303362012,-981.9000244,3.900000095,-923.7000122,2.961317909,-0.766208337,-0.031144301,ST
4.1,-5.75892067,0.666331291,6.248799801,0.846041977,-1.013725996,-0.304879993,-969.9000244,5.100000381,-918.9000244,2.918145769,-0.740126402,-0.10699516,ST
4.133333333,-5.846847534,0.247631192,6.884027481,1.394825935,-0.655492008,0.160062,-1001.100037,4.5,-904.500061,2.970736316,-0.7027016,-0.038700381,ST
4.166666667,-6.272127151,0.17764847,6.971356392,1.23476398,-1.067080021,-1.105189919,-986.7000122,2.100000143,-918.9000244,2.994538715,-0.730629742,-0.02588474,ST
4.2,-6.712360382,-0.228490621,7.860795021,0.945127964,-0.350611985,-0.838419974,-984.3000488,11.70000076,-930.9000244,3.041847908,-0.705936886,0.028554124,ST
4.233333333,-7.143621445,-0.458775669,8.17123127,0.480185986,-0.442075998,-0.929883957,-972.3000488,11.10000038,-928.500061,3.069637453,-0.716744369,0.056585483,ST
4.266666667,-6.575984001,-0.666929424,8.059976578,0.40396598,-0.853663981,-1.120433927,-979.500061,-2.100000143,-921.3000488,3.097556694,-0.681060472,0.083312509,ST
4.3,-6.585554123,-0.693845868,8.272316933,-0.434453994,0.030487999,-1.318606019,-989.1000366,2.100000143,-911.7000122,3.106392162,-0.670521971,0.086255773,ST
4.333333333,-6.331343174,-0.366063505,7.996573448,-0.068598002,0.320124,-0.266770005,-979.500061,9.900000572,-916.500061,3.083243451,-0.669723766,0.046319761,ST
4.366666667,-5.557944298,-0.547300816,7.621537685,-0.83079797,0.998481989,-0.144817993,-974.7000122,6.900000095,-918.9000244,3.096627647,-0.630644086,0.073368293,ST
4.4,-5.708078384,-0.474925518,7.470207691,-1.143299937,1.493911982,-0.289635986,-960.3000488,9.300000191,-914.1000366,3.088265273,-0.654054746,0.066004277,ST
4.433333333,-5.624936581,-0.503038228,7.260259151,-1.356715918,1.951231956,-0.221037999,-965.1000366,6.300000191,-902.1000366,3.0868865,-0.661358038,0.072016783,ST
4.466666667,-5.904867649,-0.299669623,7.852420807,-2.141782045,1.814036012,-0.29725799,-972.3000488,8.100000381,-918.9000244,3.059170277,-0.647577976,0.042395276,ST
4.5,-5.874361992,-0.366661638,8.018704414,-2.553369999,1.23476398,0.510674,-974.7000122,3.300000191,-916.500061,3.04508249,-0.633975866,0.049560529,ST
4.533333333,-5.798995972,-0.315221339,7.768082619,-2.210379839,1.34147191,0.663114011,-969.9000244,4.5,-909.3000488,3.023388363,-0.643257171,0.043623918,ST
4.566666667,-6.113021374,-0.476121813,6.863092422,-1.440557957,2.050318003,0.381099999,-962.7000122,8.100000381,-916.500061,3.030597526,-0.729940569,0.07135861,ST
4.6,-6.772174835,-0.610105813,7.115508556,-2.035073996,2.698187828,-0.419209987,-953.1000366,8.100000381,-906.9000244,3.034834477,-0.763426233,0.090137458,ST
4.633333333,-6.925897598,-0.694444001,7.316484928,-2.19513607,2.36281991,-0.655492008,-953.1000366,10.5,-904.500061,3.03352804,-0.759744348,0.0998987,ST
4.666666667,-6.149507999,-0.782969177,6.297847271,-0.922261953,0.861285985,-0.464941978,-950.7000122,9.300000191,-914.1000366,3.049483296,-0.771027756,0.126233959,ST
4.7,-6.674079418,-1.376925111,6.102254391,-1.189031959,1.150921941,-1.387203932,-953.1000366,6.300000191,-911.7000122,3.123775048,-0.819120068,0.226892496,ST
4.733333333,-7.351775169,-1.504329562,6.123189449,-1.219519973,2.042695999,-2.111294031,-962.7000122,4.5,-906.9000244,-3.136646478,-0.864365466,0.24818768,ST
4.766666667,-6.572394848,-1.76272738,6.065767765,-0.769822001,2.06556201,-2.096050024,-955.500061,6.900000095,-914.1000366,-3.095051875,-0.807730603,0.288834083,ST
4.8,-6.639387131,-2.129389048,6.511982441,-0.365855992,0.945127964,-2.400929928,-941.1000366,12.30000019,-906.9000244,-3.057696543,-0.770004331,0.320983715,ST
4.833333333,-6.624433517,-2.123407602,6.065169811,0.678357959,-0.83079797,-2.812517881,-943.500061,8.700000763,-909.3000488,-3.024545872,-0.797545554,0.339800852,ST
4.866666667,-6.387568951,-2.69224143,5.936569214,1.074702024,-1.417691946,-2.591480017,-953.1000366,15.90000057,-906.9000244,-2.944246041,-0.771177112,0.426757798,ST
4.9,-6.212312698,-2.952433825,6.379194736,0.594515979,-1.867389917,-3.079288006,-943.500061,12.90000057,-899.7000122,-2.920897196,-0.718643413,0.43548525,ST
4.933333333,-6.037056923,-3.074454784,6.444392204,0.785066009,-2.957335949,-3.064043999,-957.9000244,11.10000038,-928.500061,-2.898913114,-0.694953087,0.445924172,ST
4.966666667,-6.647162914,-2.890825033,6.395344734,0.907018006,-2.339953899,-1.653973937,-953.1000366,15.90000057,-904.500061,-2.904281144,-0.75323591,0.423876022,ST
5.0,-6.23623848,-2.997294426,6.45097208,1.089946032,-1.44817996,-0.388722003,-969.9000244,18.90000153,-916.500061,-2.893497121,-0.717275438,0.432642879,ST
5.033333333,-6.856513023,-2.778972149,7.158575058,0.693601966,-0.716467977,0.022865999,-953.1000366,12.90000057,-916.500061,-2.933479645,-0.727703337,0.368754071,ST
5.066666667,-6.599311352,-2.455376863,7.108929157,1.227141976,-0.800309956,0.350611985,-960.3000488,9.900000572,-906.9000244,-2.956064771,-0.719108636,0.329581909,ST
5.1,-6.671686649,-2.500237703,6.947430611,0.929883957,-0.685979962,0.525918007,-962.7000122,16.5,-902.1000366,-2.946599572,-0.733951996,0.342663843,ST
5.133333333,-6.046029091,-2.325579882,6.856513023,0.907018006,-0.91463995,0.670735955,-962.7000122,7.500000477,-909.3000488,-2.959909364,-0.694687225,0.324097371,ST
5.166666667,-6.348091125,-2.180829287,7.690324306,1.189031959,-0.907018006,0.693601966,-969.9000244,14.70000076,-909.3000488,-2.991851604,-0.670010282,0.273068699,ST
5.2,-6.028084755,-2.054023027,6.854120255,1.85214591,-1.204275966,0.785066009,-967.500061,10.5,-916.500061,-2.980317681,-0.698434166,0.2862965,ST
5.233333333,-5.967672348,-1.94635725,6.385176182,-0.282013983,0.525918007,1.173787951,-953.1000366,12.90000057,-911.7000122,-3.009637485,-0.730964521,0.294851645,ST
5.266666667,-6.303828716,-2.108453989,6.443196297,0.0,1.051836014,1.509155989,-955.500061,10.5,-911.7000122,-3.016846444,-0.75162495,0.314447814,ST
5.3,-6.720734596,-2.201764345,6.473701477,-0.586893976,1.387203932,1.890255928,-948.3000488,6.300000191,-914.1000366,-3.021155548,-0.780062967,0.32652192,ST
5.333333333,-6.810455799,-1.917048216,6.550263882,-1.371959925,1.539644003,1.501533985,-957.9000244,11.70000076,-914.1000366,-3.065589837,-0.787634558,0.285410818,ST
5.366666667,-6.889410973,-2.003180742,6.973748684,-1.23476398,1.402447939,1.76830399,-960.3000488,9.300000191,-906.9000244,-3.088200268,-0.762724832,0.279683804,ST
5.4,-6.541291714,-2.010956764,7.049713135,-1.173787951,0.350611985,1.775925994,-960.3000488,12.30000019,-914.1000366,-3.108014509,-0.730028746,0.27740677,ST
5.433333333,-5.553159237,-1.761530995,6.837970257,-0.091463998,-1.615863919,1.95885396,-950.7000122,15.30000019,-904.500061,3.139979129,-0.664632652,0.24918369,ST
5.466666667,-6.190181732,-1.860224605,7.31887722,0.060975999,-1.74543798,2.309465885,-948.3000488,8.700000763,-897.3000488,3.118630418,-0.684642537,0.244997051,ST
5.5,-6.355268955,-1.507918477,6.599909782,0.396344006,-1.63872993,2.157026052,-945.9000244,13.50000095,-902.1000366,3.08774756,-0.751737517,0.219948233,ST
5.533333333,-6.614862919,-1.540218115,7.01083374,0.358233988,-0.53354001,2.660078049,-955.500061,9.900000572,-906.9000244,3.065733237,-0.744671545,0.211280531,ST
5.566666667,-6.252986431,-1.684370637,7.527629375,0.060975999,-0.144817993,2.050318003,-957.9000244,9.900000572,-906.9000244,3.055507808,-0.681816463,0.21713548,ST
5.6,-6.543684006,-1.486385226,7.816532135,0.121951997,-1.333850026,1.570132017,-950.7000122,6.300000191,-906.9000244,3.022114763,-0.686478873,0.185165723,ST
5.633333333,-5.836678982,-1.245333672,7.079021931,0.625003994,-2.157026052,1.85214591,-969.9000244,8.100000381,-906.9000244,3.000428887,-0.678889104,0.169975898,ST
5.666666667,-5.272630215,-1.170565844,6.585554123,0.373477995,-1.440557957,1.821658015,-955.500061,12.30000019,-923.7000122,2.989336215,-0.665646726,0.172450532,ST
5.7,-5.589047909,-0.86371845,6.918121815,0.365855992,-1.570132017,1.966475964,-957.9000244,11.70000076,-911.7000122,2.943755084,-0.673438166,0.120665502,ST
5.733333333,-5.982028008,-0.551487803,7.517460823,0.29725799,-2.027451992,2.103672028,-969.9000244,7.500000477,-918.9000244,2.897462008,-0.667578089,0.0697036,ST
5.766666667,-6.224275589,-0.823044717,7.261455536,0.0,-1.501533985,2.416173935,-962.7000122,8.100000381,-906.9000244,2.90266248,-0.703315739,0.109027821,ST
5.8,-6.008346081,-0.68008858,7.03655386,-0.243903995,-0.884151995,1.303362012,-974.7000122,12.90000057,-918.9000244,2.880893141,-0.703124778,0.094740899,ST
5.833333333,-6.531721115,-0.771604419,6.565217018,-0.525918007,-0.152439997,1.509155989,-981.9000244,9.300000191,-914.1000366,2.88132223,-0.779323987,0.115261449,ST
5.866666667,-6.763202667,-0.450401664,7.769279003,-0.655492008,0.472563982,1.532021999,-969.9000244,13.50000095,-916.500061,2.825965232,-0.716474675,0.056810397,ST
5.9,-6.34928751,-0.221312895,7.004852295,0.198172003,-0.312501997,1.791170001,-967.500061,15.30000019,-926.1000366,2.795656193,-0.735620343,0.028432137,ST
5.933333333,-6.353474617,-0.061010584,6.553254604,0.327746004,-0.190549999,1.623485923,-977.1000366,0.900000036,-914.1000366,2.771594756,-0.769530595,0.006028762,ST
5.966666667,-6.380989075,-0.058019869,6.989300728,-0.175305992,0.731711984,0.792688012,-967.500061,11.10000038,-914.1000366,2.765688739,-0.741231194,0.00734875,ST
6.0,-6.59691906,-0.007775859,7.03655386,0.099086002,0.670735955,0.266770005,-962.7000122,11.70000076,-909.3000488,2.759834929,-0.75431633,0.000504845,ST
6.033333333,-6.700995922,0.035888579,7.034161568,0.274392009,0.42683199,-0.106707998,-969.9000244,11.70000076,-911.7000122,2.758365447,-0.761878283,-0.005400836,ST
6.066666667,-6.793109894,0.10946016,7.309905052,0.40396598,0.632625997,-0.777444005,-974.7000122,11.10000038,-909.3000488,2.760599336,-0.7498474,-0.014422761,ST
6.1,-6.706977367,-0.026916433,7.674772263,0.304879993,0.670735955,-1.318606019,-969.9000244,9.300000191,-921.3000488,2.785563942,-0.719387052,0.004980172,ST
6.133333333,-6.608881474,0.047851436,7.181902885,0.693601966,0.289635986,-0.876529992,-953.1000366,9.900000572,-906.9000244,2.788193714,-0.744333784,-0.006448635,ST
6.166666667,-5.784042358,0.094506592,7.276409149,0.571649969,-0.091463998,-1.44817996,-960.3000488,3.300000191,-909.3000488,2.798283844,-0.671575178,-0.011963621,ST
6.2,-6.440803528,0.016748004,7.334429264,0.670735955,-0.167683989,-1.55488801,-960.3000488,6.900000095,-911.7000122,2.820617561,-0.720262945,-0.001088448,ST
6.233333333,-5.6506567,-0.430064797,6.690228939,0.076219998,1.013725996,-2.423795938,-960.3000488,11.70000076,-914.1000366,2.88438722,-0.701845279,0.067658195,ST
6.266666667,-6.221883297,-0.813474417,7.699296474,-0.548784018,1.608241916,-3.048799992,-962.7000122,11.70000076,-906.9000244,2.932032463,-0.679194661,0.110679379,ST
6.3,-5.950924397,-0.727341831,7.722623825,0.007622,0.129574001,-2.850627899,-953.1000366,14.70000076,-906.9000244,2.94671501,-0.654172992,0.097718248,ST
6.333333333,-4.960997581,-0.432457358,7.149004936,0.335367978,-0.541162014,-2.271355867,-962.7000122,10.5,-899.7000122,2.944596923,-0.604684905,0.062586148,ST
6.366666667,-5.55674839,-0.792539418,6.564021111,0.739333987,-0.259148002,-1.791170001,-972.3000488,14.70000076,-902.1000366,2.997143498,-0.697940745,0.12131635,ST
6.4,-6.449177742,-1.341036558,6.864288807,-0.015244,2.096050024,-2.309465885,-955.500061,10.5,-904.500061,3.065351469,-0.747612998,0.197145125,ST
6.433333333,-6.561030388,-1.585078835,6.636396408,-0.754577994,3.071666002,-3.147886038,-948.3000488,8.100000381,-906.9000244,3.116533825,-0.769689834,0.24207917,ST
6.466666667,-7.37091589,-1.958918214,7.412786007,-1.158543944,2.98020196,-3.338435888,-941.1000366,12.30000019,-899.7000122,-3.128471088,-0.769193535,0.267098364,ST
6.5,-6.317585945,-2.324383497,7.355364323,-0.693601966,0.769822001,-3.719535828,-933.9000244,5.700000286,-911.7000122,-3.073664712,-0.685571218,0.312654811,ST
6.533333333,-6.043636799,-2.168268204,7.129864216,-0.167683989,-1.211897969,-3.445143938,-941.1000366,20.10000038,-902.1000366,-3.061816878,-0.677620708,0.299672017,ST
6.566666667,-5.910848618,-2.359673977,6.574787617,1.173787951,-3.216483831,-2.080806017,-943.500061,16.5,-914.1000366,-3.020534997,-0.695729422,0.343726389,ST
6.6,-6.339717388,-2.627043962,6.719538212,1.875011921,-2.111294031,-1.310984015,-953.1000366,15.90000057,-906.9000244,-2.987965266,-0.716644,0.370072444,ST
6.633333333,-6.316987991,-2.66412878,7.050311089,2.134160042,-0.342989981,-1.288118005,-943.500061,13.50000095,-911.7000122,-2.974131966,-0.696246764,0.359158454,ST
6.666666667,-5.950924397,-2.682671309,6.920514107,2.339953899,-0.335367978,-0.93750596,-965.1000366,9.300000191,-926.1000366,-2.949790719,-0.674712864,0.366764424,ST
6.7,-5.824716091,-2.649175167,6.985113621,1.196653962,-0.640248001,-0.29725799,-957.9000244,15.30000019,-899.7000122,-2.946080402,-0.661016339,0.36048732,ST
6.733333333,-5.529233456,-2.598931313,6.298445702,1.478667974,-0.464941978,0.167683989,-962.7000122,15.90000057,-911.7000122,-2.922248933,-0.681057137,0.388267266,ST
6.766666667,-6.610077858,-2.567229748,6.389363289,0.053353999,1.592997909,0.259148002,-953.1000366,16.5,-916.500061,-2.923194399,-0.767628987,0.382563607,ST
6.8,-6.415681362,-2.869291782,6.491645813,-1.074702024,2.134160042,0.785066009,-957.9000244,14.70000076,-902.1000366,-2.905092042,-0.738970291,0.418257311,ST
6.833333333,-6.658527374,-2.849553108,6.883429527,-1.562510014,1.692083955,0.716467977,-950.7000122,11.10000038,-906.9000244,-2.931089921,-0.732576327,0.395215416,ST
6.866666667,-6.508991718,-2.892021179,5.995785236,-0.396344006,1.059458017,1.737815976,-929.1000366,21.30000114,-902.1000366,-2.91577367,-0.777151432,0.448216343,ST
6.9,-6.567609787,-2.431451082,6.855316639,-0.640248001,1.189031959,2.202757835,-936.3000488,15.30000019,-897.3000488,-3.006106249,-0.737720598,0.339427525,ST
6.933333333,-6.314595222,-2.356683254,5.992794514,0.099086002,-0.754577994,3.551851988,-943.500061,8.700000763,-902.1000366,-3.010773724,-0.776575292,0.368331771,ST
6.966666667,-5.931783676,-2.232269526,6.382783413,0.038109999,-1.501533985,3.772889853,-936.3000488,9.900000572,-890.1000366,-3.066863481,-0.719807098,0.33018768,ST
7.0,-6.373811722,-2.038471222,6.699201107,-0.160062,-1.859767914,4.649419785,-945.9000244,14.10000038,-899.7000122,-3.130203186,-0.737611113,0.287821196,ST
7.033333333,-6.750043392,-2.410516262,6.230855465,-0.091463998,-1.867389917,4.733262062,-943.500061,17.10000038,-916.500061,-3.113995581,-0.790338695,0.36020173,ST
7.066666667,-6.904364109,-1.824336052,7.565910339,-0.472563982,-0.129574001,3.544229984,-936.3000488,12.90000057,-897.3000488,3.054641844,-0.726986627,0.232230696,ST
7.1,-6.577778339,-1.404439688,7.824308395,0.594515979,-0.739333987,4.085391998,-948.3000488,11.10000038,-914.1000366,2.98878244,-0.691275425,0.170667576,ST
7.133333333,-5.610580921,-1.056918621,7.127471447,0.998481989,-3.048799992,3.567095995,-950.7000122,8.700000763,-904.500061,2.946583371,-0.657263534,0.1401643,ST
7.166666667,-5.886324883,-0.867905438,6.63460207,0.884151995,-3.300325871,3.574717999,-967.500061,9.300000191,-916.500061,2.910829759,-0.71650945,0.122510986,ST
7.2,-5.702694893,-0.64958328,7.20582819,0.320124,-1.806414008,2.721053839,-953.1000366,9.300000191,-918.9000244,2.866654175,-0.664816826,0.085442384,ST
7.233333333,-5.764902115,-0.451597929,7.437907696,0.503051996,-1.349093914,1.966475964,-965.1000366,13.50000095,-897.3000488,2.836780185,-0.656322965,0.057051044,ST
7.266666667,-5.7631073,-0.386998504,7.414580345,0.53354001,-1.227141976,1.577754021,-955.500061,6.900000095,-911.7000122,2.822933624,-0.658060967,0.04901703,ST
7.3,-5.562131405,-0.162694886,7.004852295,0.754577994,-1.432935953,1.227141976,-967.500061,9.900000572,-904.500061,2.80034392,-0.668493176,0.020215935,ST
7.333333333,-5.941354275,-0.358287632,7.652641296,-0.022865999,-0.129574001,0.42683199,-967.500061,5.700000286,-911.7000122,2.813083446,-0.659464784,0.046196806,ST
7.366666667,-5.986813068,-0.43066293,7.187883854,0.365855992,-0.038109999,0.236281991,-955.500061,2.100000143,-906.9000244,2.821446199,-0.693505513,0.05883792,ST
7.4,-6.299043655,-0.272155046,8.068350792,-0.464941978,0.068598002,-0.091463998,-965.1000366,6.900000095,-909.3000488,2.804330504,-0.662757392,0.034696149,ST
7.433333333,-6.175826073,-0.407335371,6.663312912,-0.121951997,-0.091463998,-0.121951997,-962.7000122,8.100000381,-923.7000122,2.82172473,-0.746207799,0.061407465,ST
7.466666667,-6.337324619,-0.809885561,6.836175919,-0.899396002,1.410069942,-0.29725799,-977.1000366,7.500000477,-918.9000244,2.859014962,-0.746458337,0.120137988,ST
7.5,-6.630414963,-0.589768946,7.204632282,-1.272873998,1.737815976,-0.861285985,-960.3000488,3.900000095,-904.500061,2.83448749,-0.745153807,0.085566707,ST
7.533333333,-6.915131092,-0.922934592,6.936065674,-0.922261953,1.8292799,-0.61738199,-960.3000488,7.500000477,-902.1000366,2.868498325,-0.782459179,0.135290991,ST
7.566666667,-6.621442795,-0.468944103,6.681855202,-0.259148002,1.509155989,-0.739333987,-962.7000122,12.90000057,-902.1000366,2.828098755,-0.782165229,0.072045511,ST
7.6,-6.252388477,-0.784763575,6.421662807,-0.419209987,1.714949965,-0.282013983,-957.9000244,12.30000019,-904.500061,2.86429934,-0.771268685,0.123078926,ST
7.633333333,-6.732099056,-0.908579171,6.785932064,-0.434453994,1.699705958,-0.899396002,-957.9000244,5.100000381,-909.3000488,2.877705349,-0.779688969,0.135764453,ST
7.666666667,-7.34519577,-0.736313999,6.696808815,0.160062,1.257629991,-0.945127964,-941.1000366,5.700000286,-911.7000122,2.86796559,-0.830463,0.111329561,ST
7.7,-7.01801157,-1.11075151,6.736884117,-0.495429993,1.798792005,-1.158543944,-941.1000366,8.100000381,-897.3000488,2.914129377,-0.801944423,0.166772583,ST
7.733333333,-6.412092686,-1.271053791,6.549067497,-0.579271972,1.265251994,-1.74543798,-945.9000244,12.30000019,-904.500061,2.943881488,-0.76722638,0.195953214,ST
7.766666667,-6.163863182,-1.326681137,6.773969173,-0.388722003,0.442075998,-2.157026052,-953.1000366,14.10000038,-902.1000366,2.957563412,-0.729001859,0.197511115,ST
7.8,-6.96118784,-1.576106787,7.489946365,-0.266770005,0.083841994,-2.157026052,-943.500061,4.5,-914.1000366,2.979623896,-0.737374964,0.211219646,ST
7.833333333,-6.797894955,-1.702314854,6.364839554,0.205793992,0.160062,-1.775925994,-941.1000366,12.30000019,-899.7000122,3.029978969,-0.800434562,0.264081213,ST
7.866666667,-6.290071487,-1.550386548,6.70996809,0.785066009,-0.266770005,-1.608241916,-938.7000122,11.70000076,-899.7000122,3.020020636,-0.739158886,0.228157711,ST
7.9,-6.523945332,-1.683772445,8.210708618,0.381099999,-1.006103992,-1.272873998,-936.3000488,15.30000019,-897.3000488,3.013509838,-0.659374243,0.203055114,ST
7.933333333,-6.108834267,-1.612593412,6.044234753,1.600619912,-2.568614006,-0.731711984,-945.9000244,17.70000076,-894.9000244,3.060115297,-0.768686746,0.257903324,ST
7.966666667,-6.132760048,-2.216717958,6.385176182,0.320124,0.160062,-1.432935953,-945.9000244,11.70000076,-902.1000366,3.124859238,-0.736356262,0.335690544,ST
8.0,-6.580769062,-2.303448677,6.960589886,-0.381099999,0.640248001,-2.057940006,-953.1000366,11.70000076,-911.7000122,3.129206887,-0.731395479,0.323643686,ST
8.033333333,-6.342110157,-2.301055908,6.302034378,-0.457319975,-0.274392009,-2.17227006,-943.500061,17.10000038,-904.500061,-3.122834154,-0.755504298,0.354045774,ST
8.066666667,-6.800885677,-2.683867455,7.332634449,-0.472563982,-0.259148002,-1.478667974,-945.9000244,13.50000095,-897.3000488,-3.116455003,-0.715260637,0.353667539,ST
8.1,-6.226668358,-2.674297333,6.675873756,-0.053353999,-0.884151995,-0.701223969,-945.9000244,15.90000057,-906.9000244,-3.096115908,-0.711725791,0.3815659,ST
8.133333333,-6.023299694,-2.691643476,7.179510117,0.144817993,-1.585376024,-0.282013983,-950.7000122,17.10000038,-916.500061,-3.112351531,-0.663192849,0.358074199,ST
8.166666667,-6.150105953,-2.700017452,6.609479904,0.373477995,-1.692083955,0.335367978,-948.3000488,12.90000057,-904.500061,-3.099261688,-0.708482932,0.385698099,ST
8.2,-6.200349808,-2.680876732,6.357661724,0.259148002,-1.12805593,0.670735955,-950.7000122,18.90000153,-904.500061,-3.097529369,-0.730658908,0.396929196,ST
8.233333333,-6.185994625,-2.543902159,6.784137726,-0.266770005,-0.701223969,1.006103992,-948.3000488,15.90000057,-897.3000488,-3.133691038,-0.706186139,0.357497468,ST
8.266666667,-6.959991455,-2.40034771,6.666303635,-0.259148002,-0.396344006,2.210379839,-957.9000244,12.90000057,-923.7000122,3.122784059,-0.777006722,0.34230169,ST
8.3,-6.838568687,-2.426666021,7.132256985,-0.434453994,0.53354001,2.728675842,-955.500061,19.5,-906.9000244,3.091789404,-0.739531399,0.324896456,ST
8.333333333,-6.598713398,-2.363861084,7.419365406,-0.243903995,-0.038109999,2.301843882,-941.1000366,9.900000572,-916.500061,3.060648126,-0.704168855,0.305609388,ST
8.366666667,-6.045431137,-2.100080013,6.789520741,0.327746004,-1.036592007,1.996963978,-948.3000488,9.300000191,-914.1000366,3.040927335,-0.704157668,0.296138817,ST
8.4,-6.02210331,-1.938581347,6.670490265,0.678357959,-0.907018006,2.25611186,-965.1000366,12.30000019,-911.7000122,3.016333255,-0.713789062,0.278018338,ST
8.433333333,-6.263753414,-1.726838708,6.718341827,0.358233988,0.350611985,2.332331896,-955.500061,12.90000057,-906.9000244,2.982689788,-0.736034316,0.247560738,ST
8.466666667,-5.999972343,-1.54141438,6.813446522,0.320124,0.602137983,2.240867853,-955.500061,15.30000019,-911.7000122,2.951002663,-0.711550123,0.218873815,ST
8.5,-5.729611397,-1.504927754,6.663312912,0.678357959,-0.221037999,1.981719971,-948.3000488,3.900000095,-904.500061,2.939924784,-0.698314387,0.218039266,ST
8.533333333,-6.028084755,-1.47322619,6.549067497,0.503051996,-0.243903995,2.118916035,-953.1000366,8.100000381,-928.500061,2.926688294,-0.732071893,0.2170657,ST
8.566666667,-6.887018204,-1.1532197,7.431328297,0.106707998,-0.038109999,2.157026052,-955.500061,12.30000019,-902.1000366,2.867612428,-0.741963641,0.150437038,ST
8.6,-6.805072784,-0.942673326,8.174221992,0.144817993,-0.091463998,2.728675842,-950.7000122,13.50000095,-909.3000488,2.823219109,-0.691458589,0.110691507,ST
8.633333333,-5.749948502,-0.466551512,6.969562054,1.067080021,-1.798792005,2.728675842,-957.9000244,9.300000191,-911.7000122,2.777579149,-0.685884113,0.060999811,ST
8.666666667,-6.354671001,-0.600535572,7.028180122,0.510674,-0.365855992,2.637212038,-962.7000122,6.300000191,-899.7000122,2.774374087,-0.732981823,0.080146018,ST
8.7,-5.952120781,-0.351109922,7.380486012,0.503051996,-0.381099999,1.631107926,-957.9000244,11.10000038,-899.7000122,2.742423199,-0.677676275,0.044399805,ST
8.733333333,-5.820529461,-0.292491913,6.951019287,0.518296003,-0.983237982,1.471045971,-957.9000244,9.300000191,-911.7000122,2.731309934,-0.695035528,0.03895989,ST
8.766666667,-5.498130322,-0.266173631,7.321269989,0.396344006,-1.516777992,0.785066009,-957.9000244,8.100000381,-914.1000366,2.724177866,-0.641246701,0.034556848,ST
8.8,-6.132760048,0.165087461,6.767987728,1.051836014,-2.004585981,0.929883957,-965.1000366,3.900000095,-923.7000122,2.684851845,-0.732439202,-0.02755258,ST
8.833333333,-6.639985085,-0.468944103,6.73568821,1.04421401,-0.647870004,1.013725996,-967.500061,4.5,-906.9000244,2.748591371,-0.775984406,0.065777399,ST
8.866666667,-7.015618801,-0.023327576,7.934964657,0.327746004,0.053353999,-0.731711984,-965.1000366,6.300000191,-911.7000122,2.713242891,-0.724156425,0.00359594,ST
8.9,-6.411494732,-0.115441591,7.129864216,0.304879993,-0.335367978,-0.693601966,-986.7000122,10.5,-911.7000122,2.728574468,-0.731714889,0.016714242,ST
8.933333333,-6.284687996,-0.146545023,6.975543499,0.251525998,-0.228659987,-0.632625997,-955.500061,6.300000191,-921.3000488,2.737654531,-0.732811173,0.021544283,ST
8.966666667,-6.748847008,-0.394774348,7.123882771,-0.579271972,0.93750596,-0.640248001,-974.7000122,10.5,-906.9000244,2.763070773,-0.759149458,0.057477023,ST
9.0,-6.188985348,-0.650181413,6.723725319,-0.571649969,1.120433927,-1.028970003,-969.9000244,6.900000095,-909.3000488,2.795954657,-0.743474458,0.099181775,ST
9.033333333,-6.200948238,-0.381615222,7.325457096,-0.487807989,0.853663981,-1.692083955,-962.7000122,10.5,-909.3000488,2.777132189,-0.70314507,0.055498274,ST
9.066666667,-5.974850178,-0.409727931,7.76628828,-0.350611985,-0.160062,-1.173787951,-957.9000244,14.10000038,-914.1000366,2.783196712,-0.654777057,0.054881362,ST
9.1,-5.737985611,-0.716575265,6.357661724,0.282013983,-0.792688012,-0.861285985,-960.3000488,7.500000477,-904.500061,2.827367821,-0.729408106,0.112837186,ST
9.133333333,-6.742865562,-1.189108253,6.087301254,-0.091463998,1.631107926,-1.486289978,-938.7000122,6.300000191,-916.500061,2.896730224,-0.829255886,0.196291844,ST
9.166666667,-6.994085789,-1.304549813,7.774064064,-1.707327962,3.666181803,-2.278977871,-957.9000244,10.5,-906.9000244,2.890173477,-0.731461808,0.173732109,ST
9.2,-6.072347641,-1.182528615,7.244707584,-0.625003994,1.173787951,-1.333850026,-938.7000122,12.90000057,-906.9000244,2.891453242,-0.692829795,0.165086092,ST
9.233333333,-6.479682922,-1.556966186,7.09277916,0.221037999,0.83079797,-0.922261953,-943.500061,15.90000057,-911.7000122,2.934330561,-0.729563223,0.217294729,ST
9.266666667,-6.959991455,-1.896711349,6.887018204,0.754577994,1.013725996,-1.120433927,-941.1000366,9.300000191,-911.7000122,2.984708714,-0.773533511,0.269667538,ST
9.3,-6.573591232,-1.693940878,8.0103302,0.007622,1.402447939,-2.080806017,-941.1000366,14.10000038,-899.7000122,2.962803231,-0.678286241,0.21174885,ST
9.333333333,-5.858810425,-1.595845461,6.848138809,0.564027965,-0.503051996,-1.63872993,-943.500061,11.70000076,-899.7000122,2.989113627,-0.693142823,0.230091935,ST
9.366666667,-5.729013443,-1.704109311,5.024401188,1.059458017,-1.814036012,-0.945127964,-953.1000366,11.10000038,-923.7000122,3.064460213,-0.820069894,0.325582036,ST
9.4,-6.599909782,-1.937983274,6.205733299,-0.007622,0.693601966,-0.91463995,-938.7000122,5.100000381,-904.500061,3.056254834,-0.793645245,0.304656079,ST
9.433333333,-6.671088696,-2.006171465,7.143621445,-0.579271972,1.577754021,-0.929883957,-948.3000488,16.5,-899.7000122,3.042449386,-0.734606992,0.276920665,ST
9.466666667,-6.327156544,-2.172455311,7.472002029,0.114329994,-0.274392009,-0.602137983,-936.3000488,14.10000038,-904.500061,3.050915078,-0.68201815,0.283447238,ST
9.5,-5.980233192,-2.447002888,6.742865562,0.846041977,-2.317087889,-0.198172003,-938.7000122,16.5,-906.9000244,3.091269784,-0.691019381,0.345670287,ST
9.533333333,-6.817633629,-2.815459013,6.934869766,0.487807989,-1.882633924,-0.61738199,-941.1000366,11.10000038,-902.1000366,3.118871396,-0.735276118,0.384522458,ST
9.566666667,-6.700397491,-2.628838301,6.925299168,0.350611985,-0.464941978,-0.884151995,-936.3000488,12.30000019,-906.9000244,3.111684804,-0.734015689,0.363248144,ST
9.6,-6.432429314,-2.467339754,6.742865562,0.480185986,-0.586893976,0.137196004,-955.500061,14.10000038,-890.1000366,3.103147284,-0.729654602,0.349453932,ST
9.633333333,-5.245713711,-2.505022764,6.13515234,0.762199998,-2.06556201,1.493911982,-953.1000366,15.30000019,-911.7000122,3.113886633,-0.667327163,0.383286418,ST
9.666666667,-5.844454765,-2.347711086,6.472505093,-0.152439997,-1.478667974,1.608241916,-974.7000122,12.30000019,-918.9000244,3.073265845,-0.702322843,0.345281866,ST
9.7,-6.671088696,-2.321990967,6.681256771,-0.106707998,0.106707998,2.118916035,-955.500061,12.90000057,-904.500061,3.050041569,-0.757437392,0.331446804,ST
9.733333333,-6.717145443,-2.187408924,7.196856022,0.175305992,1.227141976,1.95885396,-957.9000244,11.70000076,-897.3000488,3.014398536,-0.73201973,0.292443659,ST
9.766666667,-6.524543762,-2.080939293,7.324858665,0.022865999,0.929883957,1.951231956,-953.1000366,12.30000019,-914.1000366,2.991304616,-0.710969419,0.274349274,ST
9.8,-6.939056396,-1.973871827,7.98760128,-0.464941978,0.739333987,2.057940006,-960.3000488,13.50000095,-904.500061,2.953764932,-0.702750042,0.240438703,ST
9.833333333,-5.850436211,-1.530647874,6.92828989,0.739333987,-0.762199998,2.080806017,-941.1000366,13.50000095,-906.9000244,2.924954624,-0.689024488,0.213031061,ST
9.866666667,-5.30493021,-1.120919943,6.31220293,0.868907988,-0.564027965,2.301843882,-945.9000244,10.5,-914.1000366,2.88569941,-0.690990791,0.170860421,ST
9.9,-5.950924397,-1.108957052,7.148406506,0.320124,-0.053353999,2.698187828,-948.3000488,11.10000038,-906.9000244,2.853935362,-0.689011768,0.149524596,ST
9.933333333,-5.991000175,-1.078451753,7.436711788,0.243903995,-0.137196004,2.202757835,-943.500061,9.900000572,-904.500061,2.83255706,-0.673383485,0.140531591,ST
9.966666667,-6.121395111,-0.568833947,7.821317673,0.015244,-0.998481989,1.303362012,-950.7000122,7.500000477,-906.9000244,2.77883643,-0.66123289,0.070780399,ST
10.0,-6.905560493,-0.888840437,6.786530018,0.541162014,-0.838419974,2.042695999,-950.7000122,5.100000381,-911.7000122,2.804542285,-0.788628984,0.125436454,ST
10.03333333,-5.78942585,-0.61429286,6.66510725,0.701223969,-0.739333987,1.478667974,-953.1000366,3.900000095,-902.1000366,2.772777652,-0.712155729,0.088404837,ST
10.06666667,-5.855221748,-0.36486721,7.047320366,0.396344006,-0.099086002,0.647870004,-957.9000244,6.300000191,-904.500061,2.745799485,-0.692527169,0.050153655,ST
10.1,-6.193770409,-0.759641588,7.77346611,-0.236281991,-0.312501997,0.29725799,-943.500061,9.300000191,-899.7000122,2.771796738,-0.670007346,0.097297751,ST
10.13333333,-5.457456589,-0.559861839,7.018609524,0.373477995,-2.59910202,0.213415995,-965.1000366,12.30000019,-916.500061,2.75918733,-0.654909446,0.078416393,ST
10.16666667,-6.808661461,-0.933701158,7.322466373,0.129574001,-1.798792005,0.525918007,-948.3000488,7.500000477,-918.9000244,2.784818011,-0.741965726,0.125362528,ST
10.2,-6.517963886,-0.334960073,7.361345768,0.777444005,-0.846041977,0.381099999,-962.7000122,6.900000095,-914.1000366,2.731937136,-0.722783424,0.043601586,ST
10.23333333,-6.007149696,-0.669322014,6.410298347,0.457319975,-0.114329994,0.701223969,-965.1000366,11.10000038,-914.1000366,2.769232859,-0.750122113,0.101985707,ST
10.26666667,-6.270930767,-0.80031532,7.084405422,-0.449698001,1.23476398,-0.137196004,-957.9000244,6.300000191,-914.1000366,2.776143996,-0.723553063,0.11369134,ST
10.3,-6.510786057,-0.912168026,6.760211945,-0.388722003,1.242385983,-0.442075998,-957.9000244,11.10000038,-923.7000122,2.792678823,-0.76407685,0.135772729,ST
10.33333333,-6.685443878,-0.652574003,7.678361416,-0.503051996,0.762199998,-0.838419974,-962.7000122,6.300000191,-909.3000488,2.763058068,-0.715879649,0.087106061,ST
10.36666667,-6.540095329,-0.454588652,6.266744137,0.350611985,0.175305992,0.060975999,-962.7000122,13.50000095,-899.7000122,2.754433662,-0.805592752,0.071740733,ST
10.4,-6.208126068,-1.102975607,5.236741543,0.152439997,1.42531395,0.129574001,-953.1000366,11.10000038,-906.9000244,2.857224335,-0.861796134,0.207546352,ST
10.43333333,-7.231548309,-0.966000915,7.377495289,-1.402447939,2.759163857,-1.310984015,-938.7000122,18.30000114,-914.1000366,2.806503505,-0.775773545,0.135592262,ST
10.46666667,-6.519160271,-1.196285963,8.054593086,-0.678357959,1.76830399,-0.815553963,-943.500061,11.70000076,-914.1000366,2.819674518,-0.678102779,0.150106495,ST
10.5,-5.227769375,-0.761435986,7.565910339,0.625003994,-1.455801964,-1.143299937,-950.7000122,9.300000191,-909.3000488,2.80139406,-0.599632733,0.100443966,ST
10.53333333,-5.592038631,-1.503133297,6.180611134,0.358233988,-2.08842802,-0.61738199,-941.1000366,9.900000572,-902.1000366,2.889163594,-0.717191752,0.237853219,ST
10.56666667,-6.516169548,-1.390682459,6.638190746,-0.586893976,-0.388722003,-1.181409955,-945.9000244,12.30000019,-899.7000122,2.873410556,-0.764221227,0.209385114,ST
10.6,-7.037750244,-1.741792321,6.703986645,-0.80793196,2.218001842,-1.135677934,-955.500061,6.300000191,-902.1000366,2.91336288,-0.796548783,0.258477196,ST
10.63333333,-5.017223358,-1.358382702,7.555741787,-0.213415995,1.074702024,-1.714949965,-950.7000122,9.300000191,-892.500061,2.877365346,-0.580398075,0.18047451,ST
10.66666667,-6.257771969,-1.768110633,8.40390873,-0.365855992,-1.059458017,-0.647870004,-950.7000122,8.100000381,-899.7000122,2.89456874,-0.627621444,0.208502613,ST
10.7,-5.776865005,-1.640107989,6.796100616,0.731711984,-3.140264034,-0.327746004,-948.3000488,12.30000019,-902.1000366,2.912132335,-0.685055093,0.234901156,ST
10.73333333,-5.914437771,-1.865009785,5.668601036,0.708845973,-1.379581928,0.068598002,-948.3000488,3.300000191,-906.9000244,2.96778783,-0.778623641,0.315705161,ST
10.76666667,-6.261360645,-1.943366528,8.154482841,-0.243903995,0.632625997,-0.304879993,-967.500061,12.30000019,-906.9000244,2.917111564,-0.642589484,0.235016734,ST
10.8,-6.344502449,-1.90388906,8.256167412,0.358233988,-1.112811923,-0.274392009,-957.9000244,14.10000038,-918.9000244,2.913839225,-0.640738414,0.226052205,ST
10.83333333,-5.051915646,-2.121613026,4.856322765,1.95885396,-2.76678586,0.236281991,-948.3000488,11.10000038,-918.9000244,3.034153869,-0.7570777,0.406021352,ST
10.86666667,-5.85761404,-2.499639511,6.46233654,-0.060975999,1.082324028,-0.29725799,-960.3000488,9.300000191,-916.500061,3.014599005,-0.703471645,0.370228406,ST
10.9,-7.847635746,-2.973966837,6.81105423,-0.861285985,2.743919849,-0.060975999,-950.7000122,10.5,-899.7000122,3.047548373,-0.816864622,0.415304096,ST
10.93333333,-8.304616928,-2.72992444,7.720231533,-0.846041977,3.521363974,-0.388722003,-948.3000488,6.900000095,-906.9000244,3.000832852,-0.79802166,0.344233207,ST
10.96666667,-6.70219183,-2.21432519,7.967264175,0.335367978,2.027451992,0.823175967,-945.9000244,14.10000038,-899.7000122,2.951240024,-0.685091052,0.270254512,ST
11.0,-6.309810162,-2.232867718,7.236931801,0.701223969,-0.663114011,1.875011921,-933.9000244,8.700000763,-914.1000366,2.957104534,-0.694454863,0.295117472,ST
11.03333333,-6.09806776,-1.834504485,6.120797157,0.91463995,-2.301843882,1.943609953,-948.3000488,12.30000019,-916.500061,2.939351988,-0.759042839,0.285442309,ST
11.06666667,-5.254685879,-1.184921265,7.5210495,-0.358233988,-1.257629991,2.675322056,-945.9000244,9.900000572,-899.7000122,2.833060828,-0.602902202,0.153659485,ST
11.1,-4.652954102,-1.300961018,6.52155304,0.495429993,-4.283564091,3.711913824,-945.9000244,11.10000038,-902.1000366,2.822060402,-0.60440688,0.190590694,ST
11.13333333,-4.699011326,-1.260287285,6.316389561,0.282013983,-3.795755863,3.445143938,-960.3000488,7.500000477,-918.9000244,2.793193204,-0.624901271,0.191259431,ST
11.16666667,-6.511982441,-1.155014038,7.126873493,-0.708845973,0.198172003,2.515259981,-957.9000244,3.300000191,-904.500061,2.750913176,-0.734747486,0.158106297,ST
11.2,-7.811747074,-1.272250056,7.126873493,-0.663114011,2.675322056,2.728675842,-969.9000244,8.100000381,-921.3000488,2.74319332,-0.828664833,0.173569659,ST
11.23333333,-7.792606831,-1.127499461,8.850721359,-1.722571969,3.849109888,2.25611186,-953.1000366,10.5,-909.3000488,2.68752139,-0.725215782,0.127053713,ST
11.26666667,-5.562729836,-0.346324772,7.336223602,0.259148002,-0.495429993,2.446661949,-948.3000488,11.70000076,-914.1000366,2.618131795,-0.64768585,0.043587627,ST
11.3,-5.876754761,-0.655564725,8.250185966,0.335367978,-2.347575903,2.698187828,-943.500061,9.300000191,-914.1000366,2.617120229,-0.613785354,0.075120256,ST
11.33333333,-5.292368889,-0.073571585,5.617160797,1.577754021,-4.176856041,1.730193973,-957.9000244,8.100000381,-904.500061,2.571489763,-0.748113163,0.007577613,ST
11.36666667,-5.253489494,-0.116039738,6.57060051,-0.525918007,0.480185986,1.105189919,-955.500061,11.10000038,-904.500061,2.566792442,-0.675377946,0.017026654,ST
11.4,-6.176424503,-0.495262384,6.750641346,-0.556405962,0.449698001,0.221037999,-960.3000488,9.300000191,-911.7000122,2.599037219,-0.740375979,0.073806955,ST
11.43333333,-6.694416046,-0.364269078,8.048013687,-0.42683199,0.251525998,-0.434453994,-965.1000366,17.10000038,-914.1000366,2.581809567,-0.693816265,0.046665454,ST
11.46666667,-6.63460207,-0.556272984,8.403310776,0.076219998,-1.661595941,-0.213415995,-957.9000244,8.700000763,-914.1000366,2.595225102,-0.664386939,0.066077286,ST
11.5,-6.451570034,-0.601133704,8.214297295,0.251525998,-2.614346027,-0.42683199,-953.1000366,9.300000191,-911.7000122,2.602589503,-0.659885031,0.072919038,ST
11.53333333,-5.004064083,0.025720147,7.163360119,0.990859985,-3.414655924,-0.541162014,-965.1000366,11.70000076,-909.3000488,2.565928488,-0.603897187,-0.004529898,ST
11.56666667,-6.247004986,-0.223705471,5.032774925,1.516777992,-1.371959925,0.289635986,-965.1000366,12.30000019,-916.500061,2.605853715,-0.88930366,0.040902191,ST
11.6,-5.536411285,-0.517393649,7.545573711,-0.449698001,2.317087889,-1.288118005,-962.7000122,9.300000191,-921.3000488,2.634611264,-0.636187173,0.071071325,ST
11.63333333,-6.202742577,-0.399559498,7.638285637,0.335367978,1.34147191,-1.539644003,-965.1000366,12.30000019,-916.500061,2.638089107,-0.683514258,0.053984278,ST
11.66666667,-6.650153637,-0.942075193,7.046722412,0.175305992,1.272873998,-1.021348,-967.500061,3.900000095,-906.9000244,2.700146342,-0.753883856,0.134386955,ST
11.7,-6.427644253,-0.90140146,6.349885941,0.007622,1.966475964,-1.013725996,-960.3000488,3.900000095,-921.3000488,2.714743474,-0.78958272,0.143237011,DLR
11.73333333,-7.524040222,-1.371541858,7.537199497,-0.625003994,3.254593849,-0.983237982,-943.500061,14.70000076,-914.1000366,2.749932139,-0.781662302,0.183744401,DLR
11.76666667,-6.979730129,-1.303353548,7.806364059,-0.350611985,2.461905956,-1.12805593,-945.9000244,12.30000019,-902.1000366,2.748469572,-0.726676525,0.168413828,DLR
11.8,-4.518970013,-0.945664048,6.991095066,0.525918007,-0.167683989,-1.227141976,-943.500061,12.30000019,-904.500061,2.740013486,-0.569389834,0.13491998,DLR
11.83333333,-5.873165607,-1.547395825,7.383476734,1.04421401,-1.867389917,-1.135677934,-945.9000244,13.50000095,-906.9000244,2.793260474,-0.65785007,0.205683595,DLR
11.86666667,-5.778060913,-1.326082945,5.919820786,1.387203932,-1.42531395,-1.600619912,-953.1000366,9.900000572,-911.7000122,2.819753118,-0.757845643,0.219982535,DLR
11.9,-6.606489182,-1.622761846,7.851822853,-0.167683989,1.23476398,-1.036592007,-950.7000122,6.300000191,-921.3000488,2.819085898,-0.690987544,0.205933662,DLR
11.93333333,-5.677573204,-1.764521718,7.479777813,0.846041977,-0.419209987,-1.150921941,-945.9000244,8.700000763,-906.9000244,2.847041332,-0.635199899,0.231472208,DLR
11.96666667,-5.848641872,-1.856037617,7.43910408,0.929883957,-1.181409955,-0.952749968,-950.7000122,11.10000038,-911.7000122,2.864262271,-0.649229405,0.243707511,DLR
12.0,-5.934774399,-1.909870505,7.424150467,0.754577994,-0.929883957,-1.112811923,-950.7000122,8.100000381,-906.9000244,2.879491589,-0.656730458,0.251599388,DLR
12.03333333,-6.014925957,-1.851252437,7.065863132,1.181409955,-0.800309956,-1.082324028,-967.500061,12.30000019,-914.1000366,2.895150547,-0.687021799,0.255380677,DLR
12.06666667,-5.655441761,-1.970881104,6.986310005,1.379581928,-1.158543944,-0.503051996,-955.500061,8.700000763,-902.1000366,2.915101277,-0.65972618,0.272755125,DLR
12.1,-5.702694893,-2.088715315,6.734491825,1.463423967,-0.205793992,-0.853663981,-938.7000122,11.70000076,-909.3000488,2.946683306,-0.679275739,0.299231276,DLR
12.13333333,-5.766098022,-2.15331459,7.733988762,2.378063917,0.564027965,-1.692083955,-943.500061,8.700000763,-911.7000122,2.955741409,-0.623092975,0.269668257,DLR
12.16666667,-6.976739407,-2.228680611,7.528227329,2.713431835,1.204275966,-2.515259981,-941.1000366,9.900000572,-899.7000122,3.004494552,-0.727156894,0.287335853,DLR
12.2,-5.681760311,-2.019928932,7.139434338,4.039659977,0.541162014,-2.87349391,-943.500061,5.700000286,-904.500061,3.039169197,-0.653196683,0.272589298,DLR
12.23333333,-5.873165607,-2.206549406,6.861298084,4.954299927,0.670735955,-3.902463913,-945.9000244,0.300000012,-904.500061,3.124849069,-0.682779823,0.308037626,DLR
12.26666667,-6.124385834,-1.911066771,8.024087906,5.769854069,1.410069942,-4.641798019,-936.3000488,2.700000048,-899.7000122,-3.13850717,-0.639281722,0.230151567,DLR
12.3,-4.743871689,-1.929011106,7.38287878,8.208893776,0.40396598,-5.373509884,-945.9000244,2.100000143,-904.500061,-3.047071335,-0.554747556,0.246960889,DLR
12.33333333,-5.351585388,-2.227484465,7.798588276,9.702805519,1.120433927,-7.599133968,-945.9000244,2.700000048,-902.1000366,-2.926976099,-0.581565706,0.269963157,DLR
12.36666667,-5.312107563,-1.515096188,7.555143833,13.36898804,1.288118005,-11.19671822,-926.7000122,7.500000477,-904.500061,-2.817712661,-0.602052956,0.188155355,DLR
12.4,-5.545383453,-1.8685987,6.08610487,15.56412411,2.134160042,-12.30190754,-917.1000366,-2.100000143,-897.3000488,-2.55905334,-0.713915606,0.289284765,DLR
12.43333333,-7.694511414,-1.460067034,7.552751064,12.82782555,5.061007977,-14.37509155,-929.1000366,-6.300000191,-882.9000244,-2.440921908,-0.789129413,0.195153647,DLR
12.46666667,-6.759613514,-0.328380495,6.479084492,14.84003353,2.637212038,-10.83848381,-897.9000244,-9.300000191,-878.1000366,-2.379598546,-0.809589414,0.045018836,DLR
12.5,-7.574284554,0.049645867,6.304427147,9.497012138,0.815553963,-6.166197777,-902.7000122,-7.500000477,-868.500061,-2.21449501,-0.878136763,-0.011524392,DLR
12.53333333,-7.068853855,0.646592557,6.513178825,6.051867962,-0.274392009,-2.987823963,-893.1000366,-11.10000038,-873.3000488,-2.223945693,-0.823992069,-0.10370646,DLR
12.56666667,-6.537104607,1.049142718,7.685539246,0.93750596,-0.967993975,0.754577994,-883.500061,-16.5,-858.9000244,-2.24512045,-0.698420291,-0.138210077,DLR
12.6,-6.101058483,-0.181835458,6.77337122,1.806414008,-1.44817996,1.623485923,-897.9000244,-9.900000572,-858.9000244,-2.140663933,-0.730561411,0.020921597,DLR
12.63333333,-6.232051849,0.315221339,6.52155304,0.221037999,-1.006103992,0.685979962,-890.7000122,-14.70000076,-854.1000366,-2.191595199,-0.760270449,-0.049645329,DLR
12.66666667,-5.952120781,0.729734421,8.11859417,-0.40396598,-0.838419974,0.701223969,-900.3000488,-10.5,-870.9000244,-2.224172815,-0.629360742,-0.0896729,DLR
12.7,-6.314595222,0.597544849,7.059283257,1.04421401,-1.478667974,0.571649969,-900.3000488,-14.70000076,-866.1000366,-2.216027261,-0.725343693,-0.086956307,DLR
12.73333333,-5.925204277,-0.072973445,6.3116045,0.762199998,-0.640248001,0.541162014,-902.7000122,-5.700000286,-861.3000488,-2.149880259,-0.752671658,0.009256051,DLR
12.76666667,-6.835577965,0.425279647,7.771671772,-1.143299937,0.076219998,-0.861285985,-900.3000488,-13.50000095,-870.9000244,-2.191638227,-0.72092715,-0.051262391,DLR
12.8,-6.77337122,-0.007177716,7.913431644,-1.897877932,0.739333987,-1.55488801,-890.7000122,-14.10000038,-858.9000244,-2.154373766,-0.709229767,0.006455194,DLR
12.83333333,-5.935970783,-0.034094151,6.495234489,0.373477995,-0.091463998,-0.564027965,-890.7000122,-6.300000191,-856.500061,-2.148293349,-0.740243236,0.005496226,DLR
12.86666667,-6.312800884,0.045458864,7.61555624,-0.022865999,0.53354001,-1.669217944,-902.7000122,-8.100000381,-856.500061,-2.141555941,-0.693108059,-0.003506662,DLR
12.9,-6.261360645,0.174657747,7.506096363,0.495429993,0.030487999,-1.463423967,-885.9000244,-4.5,-854.1000366,-2.140089694,-0.695204525,-0.021970106,DLR
12.93333333,-6.0340662,-0.321202785,7.298540592,0.289635986,0.304879993,-2.004585981,-907.500061,-12.30000019,-861.3000488,-2.080467577,-0.690747,0.046271832,DLR
12.96666667,-6.425849915,-0.448009074,6.675873756,0.625003994,0.525918007,-2.096050024,-890.7000122,-8.100000381,-858.9000244,-2.046803859,-0.765734542,0.069441185,DLR
13.0,-6.60828352,-0.443223953,7.774064064,-0.998481989,1.143299937,-2.408551931,-883.500061,-5.700000286,-856.500061,-2.040408133,-0.705553731,0.06237851,DLR
13.03333333,-6.342110157,-0.615489125,8.6180439,-1.173787951,0.564027965,-1.44817996,-888.3000488,-11.70000076,-856.500061,-2.028056341,-0.63412217,0.07523288,DLR
13.06666667,-4.846154213,-0.827829897,6.243416309,0.815553963,-0.487807989,-1.562510014,-900.3000488,-9.900000572,-863.7000122,-1.961805937,-0.654640192,0.132388574,DLR
13.1,-5.280405998,-1.321297765,6.665705204,1.288118005,-1.173787951,2.035073996,-890.7000122,-9.300000191,-849.3000488,-2.160254543,-0.485264845,-0.262380496,DLR
13.13333333,-5.435325146,-0.624461234,6.915729046,-0.754577994,-0.663114011,1.966475964,-888.3000488,-6.900000095,-858.9000244,-1.986964951,-0.66313031,0.088213717,DLR
13.16666667,-5.654843807,-1.037179947,6.770380497,-1.516777992,-0.243903995,2.820139885,-888.3000488,-4.5,-863.7000122,-1.97782896,-0.690437826,0.150504307,DLR
13.2,-6.494038105,-0.486290246,7.897281647,-1.653973937,0.205793992,3.445143938,-888.3000488,-8.100000381,-873.3000488,-2.069601693,-0.687999754,0.05961958,DLR
13.23333333,-6.177620411,-0.750071287,7.946329594,-1.318606019,-0.022865999,3.978683949,-888.3000488,-10.5,-861.3000488,-2.08956072,-0.659285149,0.091026689,DLR
13.26666667,-6.684247494,-0.260790348,7.858402252,-1.181409955,-0.160062,3.38416791,-890.7000122,-11.10000038,-868.500061,-2.158768541,-0.704392999,0.030318631,DLR
13.3,-6.653742313,0.021533147,8.245999336,-0.853663981,-0.594515979,4.314052105,-900.3000488,-14.10000038,-856.500061,-2.218409142,-0.677894166,-0.007124808,DLR
13.33333333,-5.267845154,-0.426475942,6.596320629,-0.022865999,-0.556405962,4.32167387,-905.1000366,-9.900000572,-856.500061,-2.208817854,-0.672358914,0.058451947,DLR
13.36666667,-5.514279842,1.015048623,6.995282173,-0.106707998,-0.846041977,3.940573931,-905.1000366,-8.700000763,-870.9000244,-2.367130284,-0.660053447,-0.148822634,DLR
13.4,-5.345005512,0.513804793,6.708173275,-0.685979962,0.228659987,3.704291821,-909.9000244,-3.900000095,-856.500061,-2.35565163,-0.671216357,-0.08050527,DLR
13.43333333,-6.484467983,0.394774348,6.903766155,-2.073184013,2.240867853,2.149404049,-907.500061,-17.70000076,-866.1000366,-2.369734757,-0.756851715,-0.057277638,DLR
13.46666667,-7.525835037,0.201574177,8.141921997,-1.653973937,2.096050024,1.859767914,-900.3000488,-12.30000019,-863.7000122,-2.371031548,-0.749530262,-0.025024026,DLR
13.5,-7.146612167,0.39058736,7.37091589,-0.602137983,0.815553963,2.164648056,-895.500061,-12.90000057,-887.7000122,-2.412246448,-0.770444601,-0.055599455,DLR
13.53333333,-6.496430874,0.686668158,7.067657471,0.038109999,-0.053353999,2.004585981,-895.500061,-7.500000477,-873.3000488,-2.457159104,-0.74055461,-0.10006027,DLR
13.56666667,-6.266744137,0.659153581,7.550956726,-0.556405962,0.0,0.792688012,-897.9000244,-9.900000572,-861.3000488,-2.457635044,-0.690821428,-0.087262944,DLR
13.6,-5.880343437,0.697434723,5.724228382,1.516777992,-0.716467977,0.42683199,-900.3000488,-9.900000572,-880.500061,-2.475309863,-0.793666509,-0.124421089,DLR
13.63333333,-6.209321976,0.404942781,6.547273159,-0.556405962,0.358233988,-0.838419974,-895.500061,-17.70000076,-856.500061,-2.428032715,-0.75873123,-0.059554189,DLR
13.66666667,-6.73987484,1.020431876,7.405608177,-0.282013983,-0.442075998,-1.006103992,-895.500061,-5.100000381,-858.9000244,-2.473577053,-0.733206966,-0.134654215,DLR
13.7,-7.345793724,1.064694524,8.030667305,-0.022865999,-0.609759986,-0.53354001,-897.9000244,-9.900000572,-878.1000366,-2.466982656,-0.73561268,-0.130814278,DLR
13.73333333,-5.714657784,0.410326064,6.155489445,1.318606019,-1.021348,-0.167683989,-909.9000244,-13.50000095,-858.9000244,-2.414745789,-0.745404095,-0.068565834,DLR
13.76666667,-6.461140156,0.014953574,6.051412582,-0.038109999,0.198172003,-2.461905956,-900.3000488,-8.700000763,-870.9000244,-2.349433547,-0.818355553,0.00205569,DLR
13.8,-7.824906349,0.32479164,8.134744644,-2.743919849,0.647870004,-4.093013763,-888.3000488,-3.900000095,-870.9000244,-2.361942148,-0.767039473,-0.028230945,DLR
13.83333333,-6.83438158,-0.188415036,7.372710228,-1.44817996,0.632625997,-2.644834042,-897.9000244,-6.900000095,-870.9000244,-2.311566931,-0.748361037,0.032291194,DLR
13.86666667,-5.516074657,-0.668125689,6.07174921,-0.40396598,1.013725996,-2.073184013,-890.7000122,-11.70000076,-866.1000366,-2.24394481,-0.735858589,0.113630852,DLR
13.9,-7.171734333,-0.829624295,8.295046806,-0.929883957,1.653973937,-3.254593849,-881.1000366,-9.900000572,-868.500061,-2.229526224,-0.712737774,0.106446781,DLR
13.93333333,-6.585554123,-0.878073871,8.165249825,0.998481989,1.051836014,-2.522881985,-893.1000366,-11.70000076,-887.7000122,-2.20107774,-0.677278686,0.109060511,DLR
13.96666667,-5.374912739,-0.82842803,6.213509083,3.102154016,-0.342989981,-2.141782045,-883.500061,-4.5,-868.500061,-2.154456434,-0.707675043,0.130193173,DLR
14.0,-6.285286427,-0.817661464,7.644267082,1.387203932,0.167683989,-2.87349391,-893.1000366,-8.100000381,-861.3000488,-2.139946534,-0.685141025,0.108274337,DLR
14.03333333,-6.266744137,-1.059311152,7.047320366,2.339953899,0.373477995,-1.791170001,-883.500061,-8.700000763,-863.7000122,-2.087486777,-0.721419819,0.147846475,DLR
14.06666667,-5.59383297,-0.727341831,6.874457359,1.95885396,0.266770005,-1.387203932,-883.500061,-3.900000095,-861.3000488,-2.092973901,-0.68057562,0.104025384,DLR
14.1,-7.169939995,-1.636519194,7.970853329,-2.903981924,1.493911982,-2.621968031,-881.1000366,-5.100000381,-846.9000244,-2.018505874,-0.723905428,0.211993705,DLR
14.13333333,-5.555552006,-1.50133884,8.232241631,-1.882633924,-2.073184013,1.592997909,-883.500061,-3.300000191,-863.7000122,-2.094696329,-0.583028061,0.181442528,DLR
14.16666667,-5.571103573,-1.90388906,7.451066971,-1.105189919,-2.027451992,1.42531395,-864.3000488,-2.700000048,-863.7000122,-2.07586979,-0.624043144,0.249614176,DLR
14.2,-5.578879356,-1.046750188,7.573686123,0.457319975,-2.278977871,3.856731892,-883.500061,-9.300000191,-866.1000366,-2.202717854,-0.627311896,0.131309411,DLR
14.23333333,-4.945446014,-1.147238255,6.91692543,0.464941978,-2.278977871,4.176856041,-890.7000122,-0.300000012,-870.9000244,-2.218436995,-0.61155431,0.158006232,DLR
14.26666667,-5.730807781,-1.396065712,7.143023491,-0.312501997,-1.532021999,3.300325871,-895.500061,-0.900000036,-873.3000488,-2.227673607,-0.665375812,0.188667774,DLR
14.3,-7.49532938,-1.040768743,8.455348969,-2.614346027,0.480185986,1.783547997,-893.1000366,-7.500000477,-863.7000122,-2.296347106,-0.72268136,0.124518339,DLR
14.33333333,-5.49992466,-0.509019673,7.291362762,-0.739333987,-0.998481989,1.981719971,-900.3000488,-0.300000012,-866.1000366,-2.391019119,-0.643579733,0.0683083,DLR
14.36666667,-6.971954346,-0.370250493,7.905655861,-0.769822001,0.129574001,2.103672028,-902.7000122,-12.90000057,-880.500061,-2.46127049,-0.722567975,0.0449179,DLR
14.4,-6.46233654,-0.139367312,7.334429264,-0.472563982,0.274392009,2.347575903,-893.1000366,-7.500000477,-863.7000122,-2.499273781,-0.722730335,0.016266588,DLR
14.43333333,-4.644580364,0.632237136,7.238726139,1.722571969,-1.547266006,2.378063917,-907.500061,-11.70000076,-873.3000488,-2.581830454,-0.565676525,-0.092602338,DLR
14.46666667,-5.022606373,0.582591236,5.978438854,1.844523907,-0.29725799,1.326228023,-909.9000244,-14.70000076,-866.1000366,-2.586285752,-0.695442766,-0.102225301,DLR
14.5,-6.184798241,0.699229121,6.315791607,0.701223969,1.265251994,0.91463995,-919.500061,-12.90000057,-870.9000244,-2.596271983,-0.773761366,-0.113253592,DLR
14.53333333,-6.73987484,0.39537251,8.339309692,-2.560992002,2.926847935,-0.388722003,-912.3000488,-11.70000076,-868.500061,-2.56325311,-0.684430153,-0.042636948,DLR
14.56666667,-6.806268692,-0.240453482,7.071844578,-1.059458017,1.730193973,0.746955991,-924.3000488,-4.5,-866.1000366,-2.523365122,-0.768900088,0.034540703,DLR
14.6,-6.472505093,0.321202785,8.225064278,-0.625003994,0.967993975,0.464941978,-893.1000366,-12.30000019,-863.7000122,-2.578643143,-0.668173668,-0.038524512,DLR
14.63333333,-6.3116045,-0.050244011,6.94264555,0.929883957,0.365855992,0.625003994,-897.9000244,-8.100000381,-875.7000122,-2.549389424,-0.738340866,0.004549113,DLR
14.66666667,-6.89778471,-0.038879294,7.282989025,-0.030487999,0.929883957,-0.83079797,-909.9000244,-3.900000095,-866.1000366,-2.542456362,-0.759812006,0.006773363,DLR
14.7,-5.918624878,0.300865918,6.059188366,1.04421401,0.586893976,-1.242385983,-897.9000244,-6.900000095,-868.500061,-2.566168013,-0.774159047,-0.04929506,DLR
14.73333333,-6.492243767,-0.545506418,7.044329643,-0.213415995,1.074702024,-2.301843882,-895.500061,-12.90000057,-863.7000122,-2.461615242,-0.74475269,0.081275801,DLR
14.76666667,-6.583759785,-0.641807437,6.776361942,0.632625997,0.198172003,-2.690565825,-885.9000244,-3.900000095,-858.9000244,-2.425575432,-0.768624427,0.097867423,DLR
14.8,-6.884027481,-0.698032856,6.948626995,0.106707998,0.594515979,-2.461905956,-895.500061,-7.500000477,-854.1000366,-2.403931217,-0.778790123,0.104244232,DLR
14.83333333,-6.698005199,-0.509617805,7.272820473,-0.045731999,0.701223969,-1.737815976,-878.7000122,-1.5,-868.500061,-2.413769141,-0.744115799,0.072952199,DLR
14.86666667,-6.29306221,-1.088022113,7.057488918,0.72408998,0.884151995,-1.280496001,-890.7000122,-11.70000076,-866.1000366,-2.344737901,-0.723579068,0.153776635,DLR
14.9,-6.636994362,-0.870298028,6.631012917,2.835383892,-0.754577994,-0.091463998,-881.1000366,-6.300000191,-861.3000488,-2.345891201,-0.780164336,0.125584839,DLR
14.93333333,-6.147115231,-0.239855334,7.556938171,0.708845973,-0.335367978,-1.143299937,-878.7000122,-3.300000191,-858.9000244,-2.396170478,-0.682150496,0.03224112,DLR
14.96666667,-5.858810425,-0.753660142,7.053900242,0.335367978,0.068598002,-1.95885396,-900.3000488,-3.300000191,-856.500061,-2.330413647,-0.690066918,0.108609273,DLR
15.0,-6.288277149,-0.938486338,6.619050026,0.282013983,0.487807989,-1.562510014,-890.7000122,-1.5,-858.9000244,-2.294588297,-0.75518039,0.142959684,DLR
15.03333333,-6.718341827,-0.890634894,7.053900242,0.114329994,0.480185986,-0.472563982,-869.1000366,-5.700000286,-858.9000244,-2.301746961,-0.757812885,0.12629842,DLR
15.06666667,-5.04533577,-1.417000651,6.382185459,1.356715918,-1.006103992,0.846041977,-883.500061,-5.100000381,-844.500061,-2.243898733,-0.655873513,0.214710307,DLR
15.1,-7.255474091,-0.823044717,8.661109924,-3.033555984,0.983237982,-1.143299937,-878.7000122,-7.500000477,-851.7000122,-2.334537458,-0.696618696,0.101835048,DLR
15.13333333,-5.879147053,-1.309933066,6.9659729,-1.318606019,0.42683199,1.905499935,-895.500061,-11.70000076,-868.500061,-2.291398594,-0.122779901,-0.182163683,DLR
15.16666667,-5.918026447,-0.967795312,7.108331203,-0.53354001,-0.518296003,2.721053839,-897.9000244,-10.5,-861.3000488,-2.225091291,-0.689492474,0.132266129,DLR
15.2,-7.407402515,-0.333165646,7.939749718,-1.798792005,0.060975999,2.530503988,-883.500061,-9.900000572,-858.9000244,-2.316225762,-0.75052823,0.041044405,DLR
15.23333333,-6.066964149,-0.165087461,6.847540855,-1.135677934,-0.152439997,3.361301899,-893.1000366,-6.300000191,-866.1000366,-2.362579148,-0.724764105,0.020900755,DLR
15.26666667,-6.073543549,0.304454774,7.522844315,-1.532021999,-0.327746004,3.064043999,-897.9000244,-11.10000038,-866.1000366,-2.433822039,-0.678089825,-0.041964764,DLR
15.3,-5.851034641,-0.273949474,6.495234489,-0.373477995,-1.524399996,3.940573931,-900.3000488,-13.50000095,-870.9000244,-2.412800177,-0.730336816,0.036416714,DLR
15.33333333,-7.013824463,0.692649543,7.694511414,-2.835383892,-0.800309956,2.46952796,-885.9000244,-6.300000191,-875.7000122,-2.530325556,-0.735375556,-0.088390748,DLR
15.36666667,-6.969562054,0.349913627,6.816437244,-3.803377867,-0.91463995,4.794238091,-893.1000366,-10.5,-870.9000244,-2.56488509,-0.793742294,-0.053098487,DLR
15.4,-6.377998352,0.799118996,6.896588326,-5.053385735,-0.693601966,5.335400105,-907.500061,-9.900000572,-866.1000366,-2.674666567,-0.740845885,-0.114785158,DLR
15.43333333,-6.381587505,0.121423021,6.677668095,-5.975647926,-1.44817996,5.434485912,-912.3000488,-5.100000381,-870.9000244,-2.681702113,-0.759912191,-0.016884372,DLR
15.46666667,-6.99946928,0.01614986,5.88333416,-6.402479649,-1.699705958,6.059489727,-924.3000488,-5.100000381,-875.7000122,-2.753578156,-0.868613443,-0.004061304,DLR
15.5,-7.120294094,0.205163032,7.538395882,-8.338467598,-1.935987949,7.583889961,-931.500061,-10.5,-873.3000488,-2.872021451,-0.753163476,-0.024981453,DLR
15.53333333,-7.086797714,0.54131937,6.715351105,-8.429931641,-2.843005896,8.925361633,-938.7000122,-3.300000191,-873.3000488,-3.023299729,-0.80437644,-0.081320648,DLR
15.56666667,-5.639291763,-0.952841759,6.044832706,-9.001582146,-2.400929928,10.20585823,-926.7000122,-11.70000076,-902.1000366,-2.995912189,-0.743199827,0.155082842,DLR
15.6,-7.304522038,0.093908444,6.809259415,-9.931466103,-1.42531395,7.850659847,-933.9000244,-0.300000012,-899.7000122,3.053853214,-0.817686745,-0.01071523,DLR
15.63333333,-5.520261288,-0.797324598,7.522844315,-9.657073975,-0.548784018,8.117429733,-938.7000122,-1.5,-909.3000488,3.007885591,-0.631114153,0.111985472,DLR
15.66666667,-6.141732216,-0.440233231,6.971954346,-8.330845833,-0.236281991,6.745470047,-941.1000366,-1.5,-904.500061,2.88266937,-0.721413529,0.067347256,DLR
15.7,-6.011935234,-1.111349583,7.601799011,-7.591511726,0.91463995,4.778994083,-948.3000488,0.900000036,-897.3000488,2.852957472,-0.66688257,0.152030592,DLR
15.73333333,-7.551555157,-0.667527556,6.945636272,-5.381131649,1.219519973,3.833865881,-948.3000488,-5.700000286,-894.9000244,2.756942485,-0.827389483,0.098316877,DLR
15.76666667,-6.79669857,-0.627451956,7.708268642,-5.175337791,2.111294031,3.696669817,-933.9000244,5.700000286,-916.500061,2.6864278,-0.725293844,0.084819224,DLR
15.8,-6.362446785,-1.15561223,7.894290924,-3.795755863,0.243903995,4.687530041,-936.3000488,11.70000076,-906.9000244,2.670446134,-0.674869166,0.145447243,DLR
15.83333333,-5.911447048,-1.19808042,7.328447819,-1.996963978,-0.464941978,2.004585981,-924.3000488,11.70000076,-902.1000366,2.652532402,-0.672109904,0.162670078,DLR
15.86666667,-5.447288036,-0.704612434,7.008440971,-0.899396002,-0.746955991,0.144817993,-941.1000366,3.900000095,-899.7000122,2.608108245,-0.65703358,0.101575323,DLR
15.9,-4.877257824,-1.59345293,6.578376293,-0.899396002,-0.777444005,-1.493911982,-948.3000488,4.5,-911.7000122,2.695920131,-0.622528387,0.240584275,DLR
15.93333333,-5.653647423,-1.318307161,6.992291451,-0.030487999,-1.42531395,-3.963439941,-941.1000366,3.300000191,-914.1000366,2.692421254,-0.667583582,0.191480057,ST
15.96666667,-6.675275326,-1.58149004,7.799784184,-0.846041977,-0.739333987,-4.138745785,-955.500061,10.5,-892.500061,2.725098747,-0.695150486,0.207187957,ST
16.0,-5.294163227,-1.719660997,5.959298611,0.167683989,-1.814036012,-4.085391998,-960.3000488,15.30000019,-906.9000244,2.800821079,-0.701509743,0.285558506,ST
16.03333333,-6.37560606,-2.158698082,5.899484158,-0.800309956,-0.365855992,-3.780511856,-941.1000366,10.5,-894.9000244,2.867651763,-0.789751406,0.358071946,ST
16.06666667,-6.930084229,-2.591155291,6.826605797,-1.455801964,0.945127964,-3.597584009,-941.1000366,9.300000191,-902.1000366,2.892261547,-0.758612215,0.371408004,ST
16.1,-7.730399609,-2.615081072,7.424150467,-1.219519973,1.227141976,-2.538125992,-960.3000488,11.10000038,-911.7000122,2.885011049,-0.776866128,0.345647356,ST
16.13333333,-5.641684532,-2.581585169,7.094573975,0.510674,-1.333850026,-0.099086002,-936.3000488,14.70000076,-899.7000122,2.886517522,-0.639735113,0.347623304,ST
16.16666667,-6.398335457,-2.641997576,6.94264555,0.571649969,-2.431417942,0.72408998,-931.500061,10.5,-897.3000488,2.886955052,-0.707405488,0.36030511,ST
16.2,-6.578376293,-2.683269262,6.757221222,1.387203932,-2.751541853,1.920743942,-960.3000488,15.90000057,-911.7000122,2.883453603,-0.732174639,0.371168127,ST
16.23333333,-6.403718472,-2.017536163,6.955804825,0.579271972,-0.259148002,1.242385983,-953.1000366,9.900000572,-918.9000244,2.81727158,-0.724193078,0.279489587,ST
16.26666667,-5.879147053,-1.699922323,7.666398525,0.647870004,-1.410069942,2.652456045,-953.1000366,15.30000019,-906.9000244,2.758062643,-0.641381206,0.21340101,ST
16.3,-4.623046875,-1.868000507,6.877448082,1.539644003,-2.919225931,3.193617821,-950.7000122,8.700000763,-916.500061,2.760762832,-0.572038939,0.258158067,ST
16.33333333,-6.409699917,-1.629341483,6.986907959,0.289635986,-0.518296003,2.080806017,-965.1000366,10.5,-909.3000488,2.727290721,-0.728840312,0.225325724,ST
16.36666667,-5.64347887,-1.1227144,7.442692757,0.899396002,0.83079797,2.439039946,-943.500061,11.10000038,-894.9000244,2.664666461,-0.64552415,0.145236571,ST
16.4,-6.369624615,-1.388289809,7.238128185,0.121951997,1.74543798,2.477149963,-950.7000122,9.300000191,-909.3000488,2.676136879,-0.716391433,0.186021169,ST
16.43333333,-5.98501873,-0.89183116,7.335027218,0.739333987,2.393307924,1.516777992,-960.3000488,8.700000763,-916.500061,2.628052727,-0.685304375,0.118050274,ST
16.46666667,-6.77337122,-0.709995687,8.088088989,-0.29725799,2.25611186,1.676839948,-948.3000488,11.70000076,-918.9000244,2.593970851,-0.699440773,0.085934353,ST
16.5,-6.985113621,-0.792539418,7.120892048,1.158543944,0.609759986,2.027451992,-948.3000488,9.300000191,-902.1000366,2.601257778,-0.774036977,0.105469773,ST
16.53333333,-5.34679985,0.373241216,7.532414436,1.410069942,-0.442075998,0.899396002,-948.3000488,15.90000057,-902.1000366,2.500951307,-0.616000393,-0.052945757,ST
16.56666667,-6.700397491,-0.538328648,5.645871639,1.42531395,-1.699705958,1.204275966,-945.9000244,12.30000019,-902.1000366,2.599839719,-0.865208484,0.08947138,ST
16.6,-5.231956482,0.0765623,6.539496899,1.150921941,-1.097568035,-0.998481989,-943.500061,10.5,-909.3000488,2.543286901,-0.673099223,-0.012195259,ST
16.63333333,-5.975448132,-0.095104732,6.020906925,-0.221037999,-1.112811923,-0.716467977,-945.9000244,12.30000019,-909.3000488,2.566291877,-0.779407899,0.017329743,ST
16.66666667,-6.764997005,-0.500645638,7.691520691,-0.289635986,-0.282013983,-0.434453994,-948.3000488,1.5,-916.500061,2.600580963,-0.71990576,0.066063933,ST
16.7,-6.727911949,-0.221312895,7.497722149,0.175305992,-1.371959925,-0.685979962,-962.7000122,11.70000076,-916.500061,2.582618751,-0.728681848,0.030244551,ST
16.73333333,-6.997076511,-0.107067592,7.244109631,0.884151995,-1.814036012,0.282013983,-953.1000366,7.500000477,-909.3000488,2.574250431,-0.76478077,0.012748008,ST
16.76666667,-6.121395111,-0.065795727,7.41996336,-0.022865999,-1.097568035,0.42683199,-960.3000488,6.900000095,-902.1000366,2.568099866,-0.687992315,0.008286779,ST
16.8,-6.088497162,-0.307445496,6.315193653,0.487807989,-1.783547997,-0.038109999,-962.7000122,8.100000381,-911.7000122,2.597118464,-0.763296308,0.047641338,ST
16.83333333,-6.526936054,-0.303856641,6.98750639,-0.983237982,1.890255928,-1.227141976,-955.500061,9.300000191,-909.3000488,2.599662186,-0.754067514,0.047319087,ST
16.86666667,-5.091392994,-0.095104732,6.209920406,-0.678357959,0.114329994,-1.775925994,-945.9000244,8.100000381,-894.9000244,2.590076682,-0.686900775,0.019069757,ST
16.9,-6.907953262,-1.099386811,6.790119171,-1.280496001,1.562510014,-1.684461951,-950.7000122,2.100000143,-909.3000488,2.693446918,-0.789584448,0.165847482,ST
16.93333333,-7.189080238,-1.016843081,8.671278954,-1.440557957,1.74543798,-2.751541853,-943.500061,4.5,-904.500061,2.678029482,-0.691383184,0.123520062,ST
16.96666667,-6.40611124,-1.273446441,7.611967564,0.030487999,0.274392009,-1.836901903,-948.3000488,9.300000191,-911.7000122,2.720798055,-0.692732793,0.168351252,ST
17.0,-6.251192093,-1.158004761,7.147808552,0.556405962,-0.236281991,-1.608241916,-953.1000366,18.30000114,-906.9000244,2.730861685,-0.711277163,0.161982682,ST
17.03333333,-6.278706551,-1.708894491,6.909149647,0.678357959,0.289635986,-0.899396002,-948.3000488,9.900000572,-899.7000122,2.794523289,-0.722974534,0.242604064,ST
17.06666667,-5.155992508,-1.201669216,5.564524174,1.143299937,0.975615978,-1.349093914,-936.3000488,11.10000038,-909.3000488,2.79449465,-0.737114568,0.213124044,ST
17.1,-6.177022457,-1.697529793,7.580863953,-1.806414008,2.728675842,-1.760681987,-943.500061,15.30000019,-899.7000122,2.809256782,-0.675824124,0.226660071,ST
17.13333333,-6.043038368,-1.684370637,7.78064394,-0.40396598,-0.93750596,-1.623485923,-941.1000366,14.70000076,-918.9000244,2.810414266,-0.647138655,0.215746757,ST
17.16666667,-7.019805908,-2.046845198,6.484467983,-0.556405962,-0.762199998,-1.295740008,-938.7000122,9.900000572,-909.3000488,2.875201726,-0.79911349,0.308353015,ST
17.2,-6.646564484,-2.325579882,7.583256721,-1.402447939,1.493911982,-2.347575903,-936.3000488,17.70000076,-928.500061,2.882326548,-0.698899698,0.303958735,ST
17.23333333,-5.483774662,-2.128790855,7.053301811,-0.868907988,-0.846041977,-1.379581928,-948.3000488,12.30000019,-894.9000244,2.880429,-0.637840458,0.296042614,ST
17.26666667,-6.032869816,-2.739494801,6.025692463,-1.135677934,-1.676839948,0.503051996,-948.3000488,11.70000076,-904.500061,2.948897446,-0.736628573,0.426628768,ST
17.3,-5.961690903,-2.857328892,7.625724792,-0.518296003,0.388722003,0.739333987,-936.3000488,14.10000038,-890.1000366,2.898802289,-0.633160055,0.35877603,ST
17.33333333,-5.955111504,-2.451189995,7.025787354,1.097568035,-1.783547997,1.318606019,-938.7000122,11.70000076,-906.9000244,2.874376773,-0.67270208,0.331240126,ST
17.36666667,-6.765594959,-3.130680323,5.705685616,0.777444005,-0.114329994,2.919225931,-955.500061,16.5,-906.9000244,2.972924368,-0.806880253,0.495478878,ST
17.4,-6.04842186,-2.68027854,7.671183586,-0.236281991,1.364337921,1.890255928,-936.3000488,12.30000019,-902.1000366,2.855563568,-0.64348334,0.335026775,ST
17.43333333,-6.232649803,-2.446404696,6.790717125,0.670735955,-2.385685921,2.126538038,-938.7000122,10.5,-911.7000122,2.843086973,-0.709487601,0.340395531,ST
17.46666667,-6.033468246,-2.802299738,6.408504009,-0.060975999,-0.670735955,2.111294031,-953.1000366,10.5,-909.3000488,2.872039064,-0.712160313,0.408897556,ST
17.5,-6.087899208,-2.276532173,6.68364954,0.129574001,0.777444005,1.143299937,-953.1000366,12.90000057,-906.9000244,2.81336342,-0.713473794,0.32691103,ST
17.53333333,-7.391252518,-2.505620956,7.147808552,0.975615978,0.129574001,2.538125992,-953.1000366,12.90000057,-911.7000122,2.806636183,-0.774754397,0.331432092,ST
17.56666667,-5.68116188,-1.966095924,8.094070435,1.493911982,-0.038109999,2.218001842,-943.500061,14.10000038,-894.9000244,2.736277219,-0.599714198,0.233238205,ST
17.6,-4.571606636,-1.456478119,5.860006809,2.278977871,-2.446661949,3.00306797,-945.9000244,11.70000076,-909.3000488,2.723932659,-0.645041223,0.235027288,ST
17.63333333,-5.912643433,-1.714277744,7.413981915,-0.205793992,0.335367978,2.416173935,-950.7000122,13.50000095,-892.500061,2.699760831,-0.662040649,0.224506972,ST
17.66666667,-6.611872196,-1.626948833,6.455757141,0.243903995,0.396344006,1.882633924,-950.7000122,13.50000095,-911.7000122,2.702242459,-0.783216852,0.243412496,ST
17.7,-6.050216198,-1.137069821,7.890103817,-0.160062,-0.320124,1.890255928,-948.3000488,8.100000381,-906.9000244,2.620238417,-0.649356453,0.141012119,ST
17.73333333,-6.254781246,-0.963608325,6.788324356,0.777444005,-1.676839948,2.454283953,-948.3000488,8.700000763,-906.9000244,2.602971268,-0.73708723,0.135441103,ST
17.76666667,-7.023394585,-1.136471629,8.571389198,-0.236281991,-0.388722003,2.286599874,-945.9000244,5.100000381,-906.9000244,2.580926484,-0.682123318,0.128954642,ST
17.8,-6.390559673,-0.759641588,7.225566864,1.996963978,-0.777444005,2.286599874,-955.500061,13.50000095,-906.9000244,2.556379918,-0.720412065,0.097707204,ST
17.83333333,-4.891613007,-0.568833947,6.59691906,1.85214591,-0.053353999,2.553369999,-938.7000122,12.30000019,-904.500061,2.536678377,-0.636677362,0.079519567,ST
17.86666667,-5.580673695,-0.641209245,6.757221222,0.518296003,-1.42531395,2.179892063,-953.1000366,11.10000038,-911.7000122,2.529847396,-0.685913947,0.090394809,ST
17.9,-6.351680279,-0.43544808,6.881036758,-0.312501997,-0.40396598,1.524399996,-950.7000122,7.500000477,-904.500061,2.498228176,-0.743785308,0.061312071,ST
17.93333333,-5.558542728,-0.192003891,7.917618275,-0.510674,-0.579271972,1.021348,-953.1000366,13.50000095,-914.1000366,2.463685237,-0.611127882,0.02390219,ST
17.96666667,-5.86479187,-0.532347262,6.124385834,-0.091463998,-1.539644003,1.905499935,-948.3000488,9.900000572,-909.3000488,2.487203086,-0.759225631,0.083390623,ST
18.0,-6.843353748,-0.692051411,6.086702824,-1.135677934,1.592997909,1.257629991,-955.500061,10.5,-899.7000122,2.494117146,-0.843530119,0.113046918,ST
18.03333333,-7.498918533,-0.75306201,8.186184883,-2.118916035,4.336917877,0.83079797,-945.9000244,11.70000076,-894.9000244,2.464885287,-0.747345317,0.094758627,ST
18.06666667,-6.528730392,0.104076877,7.790812016,-1.364337921,1.631107926,0.586893976,-943.500061,5.100000381,-914.1000366,2.382123922,-0.700364192,-0.011706397,ST
18.1,-6.552656174,-0.410326064,5.712265491,-0.137196004,0.449698001,1.189031959,-938.7000122,5.100000381,-916.500061,2.431202361,-0.853213112,0.069484088,ST
18.13333333,-5.65005827,-0.298473328,6.343306065,0.213415995,1.730193973,-0.945127964,-929.1000366,10.5,-902.1000366,2.425461922,-0.730123538,0.048260474,ST
18.16666667,-7.265044689,-0.236266479,6.443196297,0.175305992,1.532021999,-1.95885396,-943.500061,8.700000763,-902.1000366,2.433718898,-0.847288257,0.040335824,ST
18.2,-7.11191988,-0.43066293,6.979730129,0.274392009,0.907018006,-2.530503988,-929.1000366,9.900000572,-892.500061,2.472281636,-0.795163722,0.0657221,ST
18.23333333,-6.192574024,-0.644199967,6.660322189,0.602137983,-0.769822001,-2.59910202,-926.7000122,8.700000763,-914.1000366,2.517019057,-0.74498121,0.099376992,ST
18.26666667,-7.413383961,-1.098788619,6.392951965,0.449698001,-3.079288006,-2.934469938,-936.3000488,4.5,-899.7000122,2.589669812,-0.845690923,0.174007207,ST
18.3,-6.448579311,-1.152621508,7.355364323,-1.181409955,-0.251525998,-3.78813386,-941.1000366,7.500000477,-890.1000366,2.602146478,-0.712383607,0.163093858,ST
18.33333333,-5.804379463,-1.546797752,6.614264965,-0.327746004,-1.76830399,-3.727157831,-941.1000366,11.10000038,-902.1000366,2.669690813,-0.702611539,0.23495253,ST
18.36666667,-5.602805138,-1.552779198,7.211211681,-0.190549999,-2.278977871,-3.68142581,-931.500061,8.100000381,-914.1000366,2.679744692,-0.644418497,0.21654548,ST
18.4,-6.282893658,-1.975666285,7.48396492,0.503051996,-1.181409955,-2.141782045,-950.7000122,10.5,-911.7000122,2.722451079,-0.678843018,0.259652902,ST
18.43333333,-5.22956419,-1.905683517,6.459345818,1.227141976,-0.274392009,-2.057940006,-936.3000488,9.300000191,-904.500061,2.762221743,-0.658799247,0.287287675,ST
18.46666667,-5.884530544,-2.185016155,6.843951702,-0.304879993,1.242385983,-1.806414008,-941.1000366,14.10000038,-906.9000244,2.7924175,-0.687343742,0.312551467,ST
18.5,-6.766791344,-2.662334442,7.552153111,-0.708845973,0.739333987,-1.349093914,-941.1000366,16.5,-904.500061,2.818604857,-0.702022285,0.342377889,ST
18.53333333,-6.823016644,-2.992509365,8.003152847,-0.602137983,0.40396598,-1.539644003,-943.500061,17.70000076,-909.3000488,2.839052517,-0.673587557,0.361062889,ST
18.56666667,-5.769088745,-2.927909851,6.779352665,-0.076219998,-1.669217944,-0.579271972,-948.3000488,17.70000076,-904.500061,2.866457684,-0.660127939,0.407609276,ST
18.6,-5.373716354,-3.197074175,6.115413666,0.068598002,-2.06556201,-0.365855992,-948.3000488,10.5,-899.7000122,2.906851392,-0.658141716,0.480681085,ST
18.63333333,-6.168050289,-2.807085037,6.760211945,0.068598002,0.434453994,-0.266770005,-943.500061,16.5,-899.7000122,2.856001295,-0.700690119,0.394151056,ST
18.66666667,-6.231453419,-3.158792973,6.578974724,0.731711984,0.647870004,1.714949965,-945.9000244,8.700000763,-909.3000488,2.883579518,-0.709033084,0.444417193,ST
18.7,-7.443889141,-3.075651169,6.718939781,0.442075998,0.861285985,1.85214591,-948.3000488,18.90000153,-899.7000122,2.865232971,-0.791640529,0.426207002,ST
18.73333333,-6.520356655,-2.499041319,7.394841671,0.472563982,1.326228023,2.431417942,-943.500061,16.5,-909.3000488,2.784849078,-0.699618575,0.322464077,ST
18.76666667,-6.983917236,-2.83101058,6.663312912,0.815553963,0.259148002,2.477149963,-938.7000122,10.5,-911.7000122,2.824960066,-0.769391659,0.39652082,ST
18.8,-6.412690639,-2.204755068,7.229753971,1.272873998,-0.022865999,1.996963978,-926.7000122,11.70000076,-899.7000122,2.747789248,-0.704581833,0.290992019,ST
18.83333333,-5.282798767,-1.592256546,6.284090042,2.271355867,-2.286599874,2.713431835,-936.3000488,11.70000076,-904.500061,2.704649798,-0.681051261,0.239716697,ST
18.86666667,-5.449680805,-1.540218115,5.814548016,1.227141976,-1.120433927,2.896359921,-943.500061,5.700000286,-906.9000244,2.697999154,-0.735444171,0.251915196,ST
18.9,-5.810360909,-1.559358716,6.171638966,0.464941978,-0.060975999,2.926847935,-938.7000122,8.700000763,-914.1000366,2.673867149,-0.740952001,0.24212936,ST
18.93333333,-7.160369396,-1.222006083,7.752531052,-0.236281991,0.967993975,2.355197906,-945.9000244,12.30000019,-897.3000488,2.597801168,-0.741901603,0.153418346,ST
18.96666667,-6.515571594,-0.918149471,7.22496891,0.868907988,-0.022865999,2.942091942,-943.500061,8.700000763,-899.7000122,2.56095328,-0.730439579,0.120372289,ST
19.0,-6.843951702,-0.775193274,7.177715778,0.792688012,-0.708845973,3.125020027,-953.1000366,9.300000191,-904.500061,2.531395778,-0.757988314,0.100974395,ST
19.03333333,-5.909054279,-0.110058308,7.177117348,1.272873998,-1.34147191,2.111294031,-936.3000488,5.700000286,-909.3000488,2.463812791,-0.686566535,0.010201283,ST
19.06666667,-5.493943214,-0.058019869,6.400129795,1.623485923,-1.974097967,2.370441914,-941.1000366,9.900000572,-899.7000122,2.451925674,-0.7058805,0.002691395,ST
19.1,-5.219993591,-0.285314202,6.463532925,1.23476398,-2.736297846,0.960371971,-950.7000122,9.900000572,-904.500061,2.475546431,-0.674238478,0.04039132,ST
19.13333333,-5.642880917,0.160302311,7.094573975,0.411587983,-1.699705958,-0.129574001,-955.500061,5.700000286,-911.7000122,2.439534887,-0.668842966,-0.022973774,ST
19.16666667,-6.760809898,-0.001794429,6.892401695,0.289635986,-1.112811923,0.663114011,-957.9000244,3.900000095,-904.500061,2.451265816,-0.773643698,-0.001415843,ST
19.2,-7.13823843,-0.814670742,8.073734283,-0.541162014,0.609759986,0.152439997,-950.7000122,0.300000012,-911.7000122,2.516855865,-0.72260589,0.101268931,ST
19.23333333,-6.602900028,-0.314025074,8.714942932,-0.815553963,-0.076219998,-1.074702024,-950.7000122,10.5,-911.7000122,2.48066371,-0.647962812,0.038932001,ST
19.26666667,-7.028778076,-0.369054228,6.864886761,-0.61738199,-0.213415995,-0.716467977,-948.3000488,9.900000572,-928.500061,2.492787298,-0.795786745,0.056006554,ST
19.3,-5.44369936,-0.25181818,6.617853642,-0.907018006,0.373477995,-0.708845973,-957.9000244,13.50000095,-892.500061,2.482084737,-0.688781903,0.040676092,ST
19.33333333,-4.98911047,-0.730930686,6.499421597,-1.417691946,1.669217944,-1.143299937,-960.3000488,5.100000381,-909.3000488,2.530645961,-0.654355905,0.116160936,ST
19.36666667,-6.284687996,-0.818857729,5.491550446,-0.259148002,1.8292799,-1.532021999,-945.9000244,6.900000095,-918.9000244,2.564896189,-0.849626487,0.151939614,ST
19.4,-7.171734333,-1.531245947,7.299138546,-2.080806017,4.794238091,-1.989341974,-948.3000488,11.70000076,-899.7000122,2.616245763,-0.773410961,0.215316548,ST
19.43333333,-6.877448082,-1.359578967,6.752436161,-0.030487999,2.644834042,-2.461905956,-941.1000366,11.10000038,-892.500061,2.627248158,-0.788266934,0.203914592,ST
19.46666667,-7.714848042,-2.061798811,7.544377327,-0.525918007,2.621968031,-2.439039946,-933.9000244,4.5,-904.500061,2.692356073,-0.781846074,0.272855302,ST
19.5,-7.55933094,-2.19817543,8.162857056,0.350611985,1.318606019,-3.178373814,-931.500061,13.50000095,-916.500061,2.714268731,-0.730447159,0.267783094,ST
19.53333333,-5.774472237,-2.109650373,6.087301254,1.631107926,-2.012207985,-2.324709892,-938.7000122,12.90000057,-894.9000244,2.779162768,-0.726134567,0.333063769,ST
19.56666667,-5.717050552,-2.126996517,5.392857075,0.998481989,-2.157026052,-1.989341974,-941.1000366,15.90000057,-892.500061,2.822629964,-0.77361741,0.375694091,ST
19.6,-5.275620937,-2.152118444,5.780453682,0.342989981,-0.983237982,-1.417691946,-926.7000122,5.100000381,-904.500061,2.819096435,-0.705208393,0.35730563,ST
19.63333333,-6.28588438,-2.368047953,6.535908222,0.335367978,-0.891773999,-0.411587983,-941.1000366,11.10000038,-916.500061,2.815028184,-0.733390645,0.347164686,ST
19.66666667,-6.146517277,-2.354888916,7.231548309,-0.099086002,-1.089946032,0.411587983,-941.1000366,15.30000019,-897.3000488,2.78718319,-0.678170085,0.313984267,ST
19.7,-5.904867649,-2.880058289,7.378691673,0.320124,-3.201239824,0.625003994,-945.9000244,15.90000057,-904.500061,2.809108135,-0.63582347,0.369283472,ST
19.73333333,-6.992889404,-2.84775877,6.976739407,-0.243903995,-0.632625997,0.175305992,-950.7000122,13.50000095,-899.7000122,2.815934805,-0.747068242,0.387299467,ST
19.76666667,-6.377400398,-2.832805157,7.146612167,-0.61738199,0.160062,0.861285985,-929.1000366,8.100000381,-894.9000244,2.8002433,-0.69339776,0.377398478,ST
19.8,-5.769687176,-2.412908792,6.175228119,-1.493911982,-0.945127964,0.922261953,-953.1000366,14.70000076,-897.3000488,2.778597986,-0.715168218,0.373285656,ST
19.83333333,-6.114217281,-2.805888653,5.420371532,-1.471045971,-0.754577994,3.224105835,-938.7000122,14.70000076,-909.3000488,2.81701413,-0.787550895,0.474438371,ST
19.86666667,-6.095674992,-2.668315887,7.663407803,-2.027451992,1.227141976,2.888737917,-938.7000122,14.10000038,-904.500061,2.696713537,-0.64813793,0.335676345,ST
19.9,-7.105938435,-2.634221554,7.775260448,-1.371959925,0.685979962,3.010689974,-938.7000122,18.30000114,-897.3000488,2.663317171,-0.71617507,0.325078911,ST
19.93333333,-5.584860802,-2.62405324,5.559739113,0.670735955,-1.143299937,3.391789913,-948.3000488,11.70000076,-897.3000488,2.714379223,-0.738117677,0.434048351,ST
19.96666667,-7.783634663,-2.420086384,7.927786827,-1.471045971,1.478667974,3.224105835,-957.9000244,10.5,-899.7000122,2.592790277,-0.758054566,0.294701148,ST
20.0,-6.151302338,-2.187408924,5.664413929,1.402447939,-2.25611186,3.910085917,-936.3000488,14.10000038,-904.500061,2.61730617,-0.790554828,0.358103858,ST
20.03333333,-5.886923313,-1.662239313,7.875748634,0.045731999,-0.213415995,3.894841909,-953.1000366,8.700000763,-911.7000122,2.488300717,-0.632754614,0.20320149,ST
20.06666667,-5.757126331,-1.231576324,6.057991982,0.884151995,-1.547266006,4.169233799,-957.9000244,12.90000057,-921.3000488,2.456242909,-0.748397646,0.191926926,ST
20.1,-7.278203487,-1.339840293,6.848138809,-0.106707998,0.282013983,4.718018055,-948.3000488,12.90000057,-902.1000366,2.421163894,-0.808369672,0.185050105,ST
20.13333333,-6.642975807,-0.883457184,6.226668358,0.213415995,1.158543944,3.803377867,-941.1000366,12.90000057,-904.500061,2.36274949,-0.81565371,0.133974097,ST
20.16666667,-4.983727455,-0.426475942,7.439702511,-0.983237982,1.356715918,3.117398024,-953.1000366,5.700000286,-899.7000122,2.284105549,-0.592508325,0.055501697,ST
20.2,-7.581462383,-0.602928102,6.572394848,-0.625003994,-0.975615978,2.652456045,-943.500061,8.700000763,-887.7000122,2.283254672,-0.852863634,0.087070698,ST
20.23333333,-6.689033031,-0.554478526,7.903263092,-1.516777992,0.068598002,2.210379839,-943.500061,9.900000572,-899.7000122,2.246570579,-0.701804848,0.069458707,ST
20.26666667,-5.780453682,-0.350511789,7.166350842,0.503051996,-1.478667974,1.85214591,-955.500061,9.300000191,-902.1000366,2.220387294,-0.675789835,0.045342476,ST
20.3,-6.16147089,-0.228490621,5.917428493,1.303362012,-3.155508041,1.379581928,-953.1000366,3.300000191,-921.3000488,2.211168655,-0.799604666,0.033645353,ST
20.33333333,-6.787726402,-0.39776507,7.061676025,-0.510674,-1.432935953,1.074702024,-957.9000244,7.500000477,-897.3000488,2.215485788,-0.762496367,0.055200647,ST
20.36666667,-5.237937927,-0.271556914,7.049114704,-0.800309956,-2.926847935,0.388722003,-950.7000122,6.300000191,-916.500061,2.196829085,-0.633781318,0.039273967,ST
20.4,-5.839071751,-0.473729223,7.355364323,-1.836901903,-2.332331896,0.388722003,-957.9000244,11.10000038,-914.1000366,2.199209492,-0.665904736,0.06674049,ST
20.43333333,-5.985616684,-0.692051411,6.233846188,-2.347575903,-1.623485923,0.388722003,-962.7000122,8.700000763,-906.9000244,2.211569654,-0.759136361,0.113643558,ST
20.46666667,-7.50310564,-1.091012836,7.395439625,-2.843005896,0.990859985,0.373477995,-955.500061,17.10000038,-918.9000244,2.217699794,-0.789004792,0.150973839,ST
20.5,-6.477290154,-1.001291275,8.317177773,-1.402447939,3.452765942,-0.342989981,-960.3000488,12.30000019,-902.1000366,2.196582053,-0.664222638,0.123312375,ST
20.53333333,-6.200948238,-0.681882977,7.135247707,0.022865999,1.410069942,-0.647870004,-957.9000244,10.5,-904.500061,2.185312085,-0.715479578,0.096453825,ST
20.56666667,-5.913241386,-0.820652127,5.871371269,2.461905956,0.846041977,-1.112811923,-950.7000122,18.90000153,-906.9000244,2.238807856,-0.785258124,0.136665786,ST
20.6,-5.816940308,-0.996506214,6.445588589,2.309465885,2.804895878,-3.056421995,-948.3000488,12.90000057,-894.9000244,2.289002671,-0.732408009,0.154748701,ST
20.63333333,-6.93546772,-1.227987528,6.73987484,2.096050024,2.080806017,-4.61893177,-941.1000366,9.900000572,-909.3000488,2.355850621,-0.793525741,0.18522445,ST
20.66666667,-6.903766155,-0.982150733,6.960589886,2.080806017,1.547266006,-5.434485912,-945.9000244,14.10000038,-892.500061,2.378456139,-0.777689818,0.146231493,ST
20.7,-6.188985348,-1.670015216,6.389363289,2.698187828,1.265251994,-5.495461941,-931.500061,12.90000057,-892.500061,2.512033112,-0.752691958,0.259980829,ST
20.73333333,-6.354072571,-2.061798811,7.145415783,3.445143938,0.907018006,-7.157057762,-936.3000488,8.100000381,-911.7000122,2.607895939,-0.705065944,0.285479641,ST
20.76666667,-6.534711838,-1.863813519,7.096966267,3.582340002,-0.312501997,-6.768335819,-924.3000488,11.10000038,-897.3000488,2.658006947,-0.723974821,0.26058612,ST
20.8,-5.879745483,-1.896711349,7.627519131,2.23324585,-2.339953899,-3.902463913,-936.3000488,14.10000038,-906.9000244,2.687912147,-0.636712097,0.243997468,ST
20.83333333,-5.005858421,-2.377618313,5.308518887,2.865871906,-2.87349391,-3.048799992,-943.500061,13.50000095,-914.1000366,2.826712749,-0.703807702,0.418229783,ST
20.86666667,-6.614264965,-2.597734928,7.424150467,0.457319975,1.516777992,-3.147886038,-929.1000366,13.50000095,-904.500061,2.806512994,-0.699862664,0.340954233,ST
20.9,-5.973653793,-2.403338432,7.493535042,0.800309956,-0.144817993,-2.355197906,-931.500061,9.900000572,-916.500061,2.808875661,-0.647875837,0.311913099,ST
20.93333333,-6.194966793,-2.941068888,7.550358772,-0.434453994,-0.685979962,-0.853663981,-953.1000366,18.30000114,-885.3000488,2.847386433,-0.65107643,0.372829445,ST
20.96666667,-6.705182552,-2.97695756,6.334932327,-0.373477995,-0.40396598,-0.419209987,-950.7000122,15.30000019,-909.3000488,2.890337686,-0.762829176,0.4402031,ST
21.0,-6.032271862,-2.951835632,7.051507473,-0.899396002,0.556405962,0.579271972,-950.7000122,14.10000038,-902.1000366,2.854873658,-0.669506891,0.397637755,ST
21.03333333,-7.118499279,-2.569622278,8.70537281,-1.143299937,1.951231956,0.701223969,-941.1000366,10.5,-892.500061,2.780420311,-0.668692155,0.289034403,ST
21.06666667,-4.620056152,-2.157501698,5.874361992,2.057940006,-2.202757835,3.140264034,-943.500061,7.500000477,-911.7000122,2.795628411,-0.634209296,0.34359552,ST
21.1,-6.857110977,-2.707195044,6.353474617,-0.72408998,0.53354001,2.06556201,-943.500061,14.10000038,-909.3000488,2.815643932,-0.783977516,0.401071175,ST
21.13333333,-6.796100616,-2.114435434,7.173528671,0.007622,0.960371971,1.661595941,-945.9000244,12.30000019,-894.9000244,2.726605013,-0.740122885,0.284699439,ST
21.16666667,-6.084908485,-1.91345942,6.926495552,0.442075998,0.899396002,2.629590034,-941.1000366,15.90000057,-897.3000488,2.700471081,-0.705402163,0.265376887,ST
21.2,-6.073543549,-1.899702072,6.489851475,1.150921941,0.42683199,2.964957952,-941.1000366,8.100000381,-914.1000366,2.697327271,-0.733900862,0.278442404,ST
21.23333333,-7.494133472,-1.977460623,7.777054787,0.419209987,0.975615978,2.858249903,-929.1000366,8.100000381,-892.500061,2.659705215,-0.754065801,0.244171889,ST
21.26666667,-6.760809898,-0.692649543,7.744156837,0.022865999,1.112811923,2.25611186,-948.3000488,11.10000038,-897.3000488,2.539064931,-0.718084948,0.086138315,ST
21.3,-4.672094822,-0.47313109,6.123189449,1.775925994,-1.760681987,3.780511856,-936.3000488,10.5,-906.9000244,2.509891409,-0.647865597,0.068881692,ST
21.33333333,-5.706882,-0.995309889,7.102349758,1.364337921,-2.858249903,3.894841909,-943.500061,9.300000191,-902.1000366,2.524373831,-0.668071413,0.130910236,ST
21.36666667,-6.863092422,-0.476121813,7.86737442,-0.045731999,-0.91463995,1.181409955,-948.3000488,9.300000191,-904.500061,2.469313371,-0.714875303,0.05877942,ST
21.4,-5.089000225,0.32957679,7.041937351,1.089946032,-2.560992002,2.271355867,-955.500061,8.100000381,-897.3000488,2.390952963,-0.620760537,-0.051187485,ST
21.43333333,-5.960494518,-0.423485219,6.858905315,0.076219998,-1.707327962,2.126538038,-957.9000244,8.100000381,-911.7000122,2.442712196,-0.711641222,0.058059359,ST
21.46666667,-7.297942162,-0.211144462,6.831988811,0.266770005,0.373477995,1.04421401,-948.3000488,3.300000191,-904.500061,2.417392632,-0.818652855,0.028559449,ST
21.5,-6.254182816,0.062805012,8.419460297,-0.282013983,1.85214591,0.678357959,-943.500061,8.100000381,-914.1000366,2.38664978,-0.64239581,-0.007824791,ST
21.53333333,-5.66202116,0.224303618,6.486262321,0.548784018,-0.83079797,0.693601966,-953.1000366,7.500000477,-892.500061,2.367210842,-0.715744387,-0.03648354,ST
21.56666667,-6.383381844,-0.557469249,5.837277412,-0.053353999,0.541162014,0.091463998,-943.500061,11.70000076,-909.3000488,2.458596122,-0.828571212,0.094983771,ST
21.6,-7.389458179,-0.408531636,7.405009747,-1.608241916,3.262215853,-1.219519973,-950.7000122,11.70000076,-890.1000366,2.432250295,-0.789214685,0.060432318,ST
21.63333333,-6.564619064,-0.46595338,7.777653217,-1.074702024,2.454283953,-1.410069942,-933.9000244,7.500000477,-909.3000488,2.439414701,-0.704327639,0.064016137,ST
21.66666667,-6.820624352,-0.887644172,6.762006283,0.228659987,0.998481989,-1.097568035,-941.1000366,5.700000286,-909.3000488,2.495190102,-0.786784961,0.132131079,ST
21.7,-7.075433254,-0.857737005,6.260762691,0.716467977,0.243903995,-1.394825935,-941.1000366,9.300000191,-906.9000244,2.514550264,-0.841846433,0.137664842,ST
21.73333333,-6.608881474,-0.920542061,5.989803791,-0.060975999,0.975615978,-1.585376024,-933.9000244,5.700000286,-899.7000122,2.538256889,-0.82996106,0.155841885,ST
21.76666667,-5.802585125,-0.561656237,6.441999912,0.114329994,-0.198172003,-1.814036012,-929.1000366,12.90000057,-897.3000488,2.504458979,-0.73088105,0.089669304,ST
21.8,-6.59691906,-1.625752568,6.872662544,0.114329994,-0.358233988,-1.242385983,-926.7000122,6.300000191,-897.3000488,2.61046249,-0.750212393,0.23372512,ST
21.83333333,-6.45097208,-1.421785831,7.64606142,-0.708845973,0.121951997,-3.239349842,-931.500061,2.100000143,-902.1000366,2.600297939,-0.691686052,0.189779147,ST
21.86666667,-6.164461613,-1.696931601,5.636301041,-0.236281991,0.503051996,-2.59910202,-926.7000122,5.700000286,-897.3000488,2.690606524,-0.807886409,0.297533571,ST
21.9,-6.598114967,-2.254400969,6.955804825,-0.945127964,1.105189919,-2.698187828,-941.1000366,5.100000381,-887.7000122,2.719685681,-0.734603623,0.319622387,ST
21.93333333,-6.425849915,-1.908076048,7.4085989,-0.990859985,0.815553963,-2.87349391,-931.500061,14.70000076,-902.1000366,2.694422622,-0.698788627,0.258278303,ST
21.96666667,-6.416877747,-2.621062517,7.294353485,-0.266770005,-0.61738199,-1.371959925,-924.3000488,15.30000019,-902.1000366,2.757937624,-0.68969448,0.346914183,ST
22.0,-5.529831886,-2.46614337,6.267940044,0.72408998,-0.815553963,-1.844523907,-919.500061,12.30000019,-914.1000366,2.790496903,-0.684907082,0.37556056,ST
22.03333333,-6.745258331,-2.881852865,5.806771755,0.716467977,-0.350611985,-1.082324028,-941.1000366,11.70000076,-902.1000366,2.858443136,-0.803674226,0.460737118,ST
22.06666667,-7.128069878,-2.70898962,7.5144701,-0.198172003,0.907018006,-1.356715918,-931.500061,14.70000076,-894.9000244,2.790743478,-0.729359433,0.348953465,ST
22.1,-6.20334053,-3.05950141,7.108331203,1.608241916,-3.429899931,0.388722003,-924.3000488,12.30000019,-890.1000366,2.821520676,-0.670517745,0.401227051,ST
22.13333333,-5.755331516,-2.844768047,7.199846745,1.471045971,-4.413137913,0.716467977,-941.1000366,11.70000076,-892.500061,2.794272743,-0.63263459,0.370840764,ST
22.16666667,-5.609385014,-2.782561064,5.253489494,2.073184013,-3.605206013,1.12805593,-943.500061,8.100000381,-902.1000366,2.858306445,-0.751515225,0.478897568,ST
22.2,-6.81105423,-2.572014809,7.65323925,0.411587983,0.228659987,1.737815976,-938.7000122,8.100000381,-902.1000366,2.74496688,-0.702175672,0.321360892,ST
22.23333333,-5.469419479,-2.471526861,6.418074131,0.990859985,-0.556405962,2.23324585,-945.9000244,12.30000019,-914.1000366,2.759488718,-0.672349289,0.362650734,ST
22.26666667,-7.265642643,-2.560051918,7.485759258,-1.692083955,1.547266006,2.202757835,-936.3000488,13.50000095,-897.3000488,2.695526551,-0.746673251,0.329916005,ST
22.3,-5.929989338,-1.960114479,6.875055313,-0.358233988,-1.074702024,4.001549721,-945.9000244,14.10000038,-911.7000122,2.581549621,-0.692536573,0.272362525,ST
22.33333333,-6.105843544,-1.294979572,7.04851675,-0.632625997,0.708845973,3.224105835,-941.1000366,7.500000477,-887.7000122,2.467622561,-0.707869455,0.178256572,ST
22.36666667,-5.639890194,-0.850559294,7.487553596,0.282013983,-1.204275966,3.582340002,-941.1000366,9.300000191,-911.7000122,2.398202142,-0.641194385,0.107910695,ST
22.4,-7.070049763,-1.210043192,7.568901062,0.175305992,-1.882633924,3.437521935,-938.7000122,12.90000057,-887.7000122,2.402266629,-0.742545033,0.152234829,ST
22.43333333,-6.059188366,-0.466551512,7.120294094,0.259148002,-0.746955991,2.25611186,-950.7000122,8.100000381,-906.9000244,2.327813129,-0.703018055,0.061718381,ST
22.46666667,-5.675778866,-0.308641762,6.956402779,0.152439997,-0.068598002,1.905499935,-943.500061,8.100000381,-902.1000366,2.302134264,-0.683935777,0.041392585,ST
22.5,-5.896493435,-0.493467957,7.038946629,-0.083841994,-0.548784018,1.150921941,-948.3000488,5.700000286,-916.500061,2.310414628,-0.695264105,0.068364951,ST
22.53333333,-6.205135345,-0.704612434,6.957599163,-0.251525998,-0.487807989,0.274392009,-945.9000244,-2.100000143,-899.7000122,2.327839652,-0.72491294,0.100814315,ST
22.56666667,-6.322371006,-0.657957256,7.643070698,-0.868907988,-0.358233988,-0.556405962,-957.9000244,7.500000477,-899.7000122,2.31819082,-0.6886499,0.088162387,ST
22.6,-6.553254604,-0.591563404,7.018609524,0.076219998,-0.876529992,0.304879993,-955.500061,3.900000095,-916.500061,2.312926387,-0.747780219,0.083350804,ST
22.63333333,-6.280501366,-0.57660985,6.501215935,0.152439997,0.129574001,0.282013983,-950.7000122,8.100000381,-914.1000366,2.315113713,-0.766412057,0.087734932,ST
22.66666667,-6.587946892,-1.08024621,7.170537949,-0.602137983,1.996963978,-0.160062,-938.7000122,2.100000143,-890.1000366,2.357726753,-0.740939854,0.151202401,ST
22.7,-6.185396671,-0.711192012,6.392951965,0.625003994,-0.015244,-0.952749968,-936.3000488,7.500000477,-911.7000122,2.340731011,-0.765573842,0.111352315,ST
22.73333333,-6.628022194,-1.107760787,6.956402779,-0.091463998,0.381099999,-0.960371971,-957.9000244,11.70000076,-909.3000488,2.380379601,-0.755383714,0.159672336,ST
22.76666667,-6.099263668,-0.896018147,6.414485455,-0.213415995,0.251525998,-1.585376024,-945.9000244,16.5,-906.9000244,2.377564918,-0.755435148,0.141828751,ST
22.8,-6.531721115,-1.096396089,7.518657207,-0.701223969,1.730193973,-1.783547997,-948.3000488,12.90000057,-892.500061,2.392117519,-0.712665028,0.149054536,ST
22.83333333,-6.138143063,-1.382308364,6.656733036,-0.030487999,1.12805593,-1.524399996,-943.500061,3.300000191,-899.7000122,2.442379002,-0.735724146,0.207420304,ST
22.86666667,-6.374409676,-1.644893169,7.710660934,0.518296003,-0.472563982,-1.85214591,-955.500061,6.300000191,-909.3000488,2.462202532,-0.678457492,0.211680373,ST
22.9,-5.849838257,-1.561751246,6.206331253,0.998481989,-0.449698001,-1.85214591,-933.9000244,6.900000095,-904.500061,2.504339791,-0.738917432,0.247418561,ST
22.93333333,-6.5329175,-1.933198094,7.650248528,-0.175305992,1.471045971,-2.149404049,-945.9000244,17.70000076,-897.3000488,2.52309673,-0.693169714,0.251361054,ST
22.96666667,-5.351585388,-2.058209896,6.055001259,1.310984015,-0.083841994,-2.103672028,-933.9000244,14.70000076,-904.500061,2.596611622,-0.695462036,0.328191801,ST
23.0,-7.094573975,-2.573210955,6.319380283,-0.190549999,1.12805593,-2.179892063,-938.7000122,14.10000038,-897.3000488,2.65449605,-0.805089878,0.391341835,ST
23.03333333,-6.510786057,-2.290887594,7.820719242,-1.211897969,1.227141976,-1.85214591,-938.7000122,9.900000572,-904.500061,2.594053769,-0.675442268,0.290186435,ST
23.06666667,-5.106346607,-2.513994932,7.058685303,0.388722003,-2.179892063,-0.701223969,-926.7000122,9.300000191,-894.9000244,2.626047073,-0.59432991,0.341307968,ST
23.1,-6.553254604,-2.945255995,6.953412056,0.350611985,-1.859767914,-0.762199998,-936.3000488,11.10000038,-911.7000122,2.663870874,-0.711086971,0.39992688,ST
23.13333333,-5.89051199,-2.427264214,7.577275276,0.777444005,-2.248489857,-0.312501997,-938.7000122,12.90000057,-902.1000366,2.608029995,-0.633514158,0.308293898,ST
23.16666667,-6.088497162,-3.011649847,6.300837994,1.189031959,-1.966475964,0.952749968,-945.9000244,13.50000095,-914.1000366,2.686428941,-0.714515925,0.440977606,ST
23.2,-5.829501629,-2.382403374,6.928888321,1.067080021,-1.105189919,1.196653962,-953.1000366,9.300000191,-897.3000488,2.609323453,-0.670989316,0.327424648,ST
23.23333333,-6.035262585,-2.542107582,6.667499542,1.082324028,-1.166165948,2.294221878,-941.1000366,9.900000572,-911.7000122,2.615981557,-0.701531299,0.35857263,ST
23.26666667,-6.639985085,-2.388384819,6.463532925,0.236281991,1.242385983,1.76830399,-943.500061,11.70000076,-904.500061,2.604450505,-0.769858599,0.351478481,ST
23.3,-6.40132618,-2.068976641,6.408504009,0.007622,1.85214591,2.035073996,-945.9000244,7.500000477,-902.1000366,2.566748108,-0.764235237,0.31005128,ST
23.33333333,-7.220781803,-1.966694117,8.729896545,-0.929883957,1.318606019,2.240867853,-945.9000244,12.30000019,-899.7000122,2.488877458,-0.682182576,0.220650241,ST
23.36666667,-6.348689556,-1.706501842,6.788324356,-0.40396598,-0.838419974,2.957335949,-950.7000122,12.30000019,-899.7000122,2.479208264,-0.736407813,0.242094107,ST
23.4,-5.521457672,-1.678987265,6.895990372,0.152439997,-1.219519973,2.797273874,-943.500061,11.10000038,-902.1000366,2.452949686,-0.660317455,0.234491242,ST
23.43333333,-6.072347641,-0.993515491,6.743463993,-0.304879993,-0.556405962,2.614346027,-950.7000122,8.100000381,-909.3000488,2.372496786,-0.727370534,0.142766652,ST
23.46666667,-6.169246674,-1.662837505,5.997579575,-0.137196004,0.381099999,2.721053839,-945.9000244,8.700000763,-902.1000366,2.439471942,-0.782801675,0.266107606,ST
23.5,-6.412092686,-0.842783451,8.650343895,-1.730193973,1.166165948,1.211897969,-933.9000244,6.900000095,-894.9000244,2.312729698,-0.638111455,0.098959648,ST
23.53333333,-6.066366196,-0.702219844,6.749445438,0.365855992,-2.545747995,2.553369999,-955.500061,6.300000191,-902.1000366,2.295234291,-0.72535227,0.098695849,ST
23.56666667,-6.678864479,-0.963010192,7.900272369,-1.585376024,0.29725799,1.272873998,-950.7000122,13.50000095,-904.500061,2.292520178,-0.699010416,0.122224424,ST
23.6,-5.616562366,-0.631040812,7.053900242,-0.434453994,-0.335367978,1.539644003,-955.500061,15.30000019,-899.7000122,2.257046278,-0.670201369,0.087872207,ST
23.63333333,-5.401230812,-0.577207983,6.24102354,0.564027965,-0.525918007,1.699705958,-955.500061,12.90000057,-909.3000488,2.248657932,-0.710567747,0.088624106,ST
23.66666667,-5.863595486,-0.946860313,7.132256985,-0.175305992,0.129574001,1.112811923,-948.3000488,10.5,-902.1000366,2.265858556,-0.684298262,0.130719689,ST
23.7,-6.392951965,-0.751267552,7.284184933,-0.251525998,-1.166165948,0.198172003,-941.1000366,6.300000191,-897.3000488,2.243726524,-0.715692165,0.102754695,ST
23.73333333,-6.766791344,-0.760837853,7.332634449,-0.571649969,-0.335367978,0.243903995,-962.7000122,4.5,-914.1000366,2.239086538,-0.742037865,0.103943038,ST
23.76666667,-6.228462696,-0.302660346,7.019207954,0.266770005,-0.632625997,0.419209987,-953.1000366,12.30000019,-904.500061,2.196112515,-0.724270889,0.042016624,ST
23.8,-7.670585632,-1.015048623,7.695707321,-0.746955991,1.432935953,0.701223969,-955.500061,9.300000191,-894.9000244,2.249009225,-0.781998561,0.131408596,ST
23.83333333,-5.909054279,-0.690257013,6.715351105,0.137196004,0.731711984,-0.541162014,-955.500061,5.700000286,-906.9000244,2.2349773,-0.720264819,0.103162797,ST
23.86666667,-6.156087399,-0.666929424,7.144817829,-0.571649969,0.144817993,-0.792688012,-943.500061,14.10000038,-899.7000122,2.232112312,-0.709187167,0.095282688,ST
23.9,-6.572993279,-1.022226334,6.635200024,-0.731711984,-0.381099999,-0.663114011,-948.3000488,9.900000572,-918.9000244,2.271908788,-0.77388474,0.155049805,ST
23.93333333,-6.424055576,-1.179537892,6.548469067,-0.396344006,0.960371971,-1.021348,-950.7000122,7.500000477,-894.9000244,2.295608295,-0.76916245,0.180870603,ST
23.96666667,-6.009542465,-1.310531259,7.399028778,-0.335367978,0.952749968,-1.669217944,-945.9000244,15.30000019,-904.500061,2.30487391,-0.67586968,0.178427856,ST
24.0,-6.028084755,-1.449300408,6.593928337,0.373477995,-0.289635986,-1.646351933,-936.3000488,11.10000038,-909.3000488,2.343496683,-0.727665539,0.218033757,ST
24.03333333,-6.171041012,-1.804597378,6.933673382,0.632625997,1.067080021,-2.240867853,-965.1000366,12.30000019,-899.7000122,2.391292773,-0.711851811,0.257144363,ST
24.06666667,-6.579572678,-2.048041582,7.550956726,-0.083841994,1.265251994,-2.378063917,-933.9000244,8.700000763,-899.7000122,2.417957306,-0.700271165,0.26885532,ST
24.1,-6.474897861,-2.026508331,7.300932884,0.754577994,-0.792688012,-2.400929928,-931.500061,14.70000076,-894.9000244,2.439593007,-0.704662536,0.272547777,ST
24.13333333,-5.892904758,-2.172455311,6.834979534,1.42531395,-1.227141976,-1.623485923,-941.1000366,11.70000076,-911.7000122,2.479382793,-0.684934125,0.306900171,ST
24.16666667,-5.538205624,-2.305841208,6.421662807,1.196653962,-1.326228023,-1.402447939,-938.7000122,15.30000019,-914.1000366,2.515921382,-0.678832502,0.343812361,ST
24.2,-5.295359612,-2.007367849,6.870868206,0.899396002,-1.440557957,-1.150921941,-948.3000488,12.30000019,-909.3000488,2.489228545,-0.6340216,0.283671772,ST
24.23333333,-6.13515234,-2.323187351,7.0748353,0.678357959,-1.440557957,0.053353999,-941.1000366,14.70000076,-892.500061,2.509088438,-0.686714503,0.315337185,ST
24.26666667,-6.788324356,-2.516387463,8.053397179,0.503051996,-0.381099999,-0.022865999,-943.500061,11.10000038,-916.500061,2.502847801,-0.676880825,0.30186637,ST
24.3,-6.362446785,-2.550481558,7.515666485,0.868907988,-0.350611985,0.007622,-953.1000366,10.5,-906.9000244,2.522016437,-0.675176588,0.325452508,ST
24.33333333,-6.513776779,-2.650969744,7.616752625,0.80793196,0.320124,0.152439997,-938.7000122,8.100000381,-902.1000366,2.531423955,-0.68000805,0.333453629,ST
24.36666667,-5.571702003,-2.030097246,6.485664368,1.42531395,-1.23476398,0.815553963,-945.9000244,12.30000019,-902.1000366,2.509962821,-0.685087241,0.299285111,ST
24.4,-6.144722939,-2.098285437,6.433027744,0.792688012,-0.251525998,1.676839948,-941.1000366,14.10000038,-899.7000122,2.511109827,-0.737666791,0.311237245,ST
24.43333333,-5.188292027,-1.62156558,5.73738718,0.823175967,0.365855992,2.149404049,-950.7000122,8.100000381,-897.3000488,2.475809081,-0.717767162,0.271074619,ST
24.46666667,-6.372615337,-1.784260511,6.730902672,-0.464941978,2.057940006,1.935987949,-948.3000488,9.300000191,-918.9000244,2.454913593,-0.745418165,0.257794547,ST
24.5,-7.232744694,-1.595247269,7.978031158,-1.295740008,1.676839948,2.187514067,-936.3000488,10.5,-899.7000122,2.373138551,-0.730311259,0.196775401,ST
24.53333333,-6.320576668,-1.018637538,6.864886761,-0.701223969,-0.975615978,2.111294031,-941.1000366,8.700000763,-899.7000122,2.318880854,-0.737556117,0.145079999,ST
24.56666667,-6.386372566,-1.702913046,5.355174065,-0.42683199,-1.379581928,2.789651871,-933.9000244,6.900000095,-902.1000366,2.409367808,-0.84817549,0.302247919,ST
24.6,-5.146421909,-0.984543324,7.603593349,-1.486289978,-1.699705958,1.859767914,-945.9000244,2.700000048,-918.9000244,2.268885663,-0.588850775,0.129055786,ST
24.63333333,-5.800192356,-1.086825728,7.576078892,-1.143299937,-3.78813386,2.507637978,-938.7000122,13.50000095,-906.9000244,2.246061941,-0.642492836,0.140521091,ST
24.66666667,-4.734899998,-0.864914715,6.653742313,0.434453994,-4.596065998,2.309465885,-955.500061,10.5,-904.500061,2.217641863,-0.607132298,0.125034463,ST
24.7,-6.646564484,-1.199276686,6.894196033,-1.371959925,0.289635986,2.278977871,-948.3000488,12.90000057,-909.3000488,2.222550822,-0.760640408,0.170917616,ST
24.73333333,-6.811652184,-1.296773911,8.707765579,-1.471045971,0.571649969,1.471045971,-945.9000244,11.70000076,-911.7000122,2.189696225,-0.660041543,0.148574097,ST
