seconds,sensor_accX_m_s_,sensor_accY_m_s_,sensor_accZ_m_s_,sensor_gyroX___s_,sensor_gyroY___s_,sensor_gyroZ___s_,sensor_magX__T_,sensor_magY__T_,sensor_magZ__T_,sensor_yaw___,sensor_pitch___,sensor_roll___,label5
0.0,-3.40821862220764,-1.13527536392212,9.01222038269043,0.388722002506256,-0.0990860015153885,0.259148001670837,-3170.7001953125,86.7000045776367,-2130.90014648438,2.53815696210619,-0.358840867794311,0.124456481252075,ST
0.0333333333333333,-3.19767236709595,-1.2297819852829,8.69998931884766,0.282013982534409,-0.121951997280121,0.198172003030777,-3168.30004882812,92.7000045776367,-2123.7001953125,2.54228097061967,-0.348872115329869,0.139791382115154,ST
0.0666666666666667,-3.29158067703247,-1.20346367359161,8.91831207275391,0.129574000835419,-0.320124000310898,0.0457319989800453,-3175.50024414062,85.5,-2121.30004882812,2.5397493502122,-0.35010738996419,0.133850995563005,ST
0.1,-3.28201055526733,-1.19808042049408,8.82619762420654,0.221037998795509,-0.289635986089706,0.0304879993200302,-3173.10009765625,87.9000015258789,-2138.10009765625,2.54010002254385,-0.352538530080635,0.134486374894055,ST
0.133333333333333,-3.23236465454102,-1.24353921413422,8.91113376617432,0.0990860015153885,-0.25152599811554,0.0076219998300075,-3165.90014648438,89.7000045776367,-2128.5,2.54138051746832,-0.34446185229397,0.138453369696786,ST
0.166666666666667,-3.31789898872375,-1.18432307243347,9.06306266784668,0.0076219998300075,-0.403965979814529,0.0457319989800453,-3175.50024414062,96.3000030517578,-2128.5,2.5374350105911,-0.347522610711936,0.129867322805761,ST
0.2,-3.25389766693115,-1.19927668571472,8.81722545623779,0.167683988809586,-0.396344006061554,0.213415995240211,-3161.10009765625,92.1000061035156,-2135.7001953125,2.53689361288033,-0.349931271287149,0.134722624145368,ST
0.233333333333333,-3.21980357170105,-1.24952065944672,8.86746978759766,0.0685980021953583,-0.167683988809586,0.388722002506256,-3163.50024414062,89.7000045776367,-2128.5,2.53440213663167,-0.344964122843715,0.139611509056647,ST
0.266666666666667,-3.1827187538147,-1.33266258239746,8.89618015289307,0.0990860015153885,-0.137196004390717,0.37347799539566,-3170.7001953125,95.7000045776367,-2133.30004882812,2.53346481986117,-0.339930172675497,0.14827961550791,ST
0.3,-3.18929839134216,-1.314120054245,8.92848014831543,0.137196004390717,-0.129574000835419,0.221037998795509,-3161.10009765625,92.7000045776367,-2130.90014648438,2.53056773403684,-0.339531018420566,0.145748701584942,ST
0.333333333333333,-3.24552369117737,-1.29617583751678,8.86866569519043,0.160062000155449,-0.114329993724823,0.0533539988100529,-3180.30004882812,93.9000015258789,-2128.5,2.53012331992981,-0.347233065105769,0.144801968570883,ST
0.366666666666667,-3.25150513648987,-1.3398402929306,8.84473991394043,0.144817993044853,-0.0762199983000755,0.0076219998300075,-3185.10009765625,91.5,-2128.5,2.53228585244913,-0.348497161850727,0.150074858663091,ST
0.4,-3.32567501068115,-1.29797029495239,8.93386363983154,0.182927995920181,-0.0762199983000755,0.0152439996600151,-3177.90014648438,90.3000030517578,-2121.30004882812,2.53062416452309,-0.352831380585578,0.143943099277737,ST
0.433333333333333,-3.30174922943115,-1.25490391254425,8.91233062744141,0.198172003030777,-0.228659987449646,0.121951997280121,-3161.10009765625,95.7000045776367,-2128.5,2.5282073332465,-0.351242217274949,0.139443726257189,ST
0.466666666666667,-3.36634874343872,-1.30215728282928,8.96317195892334,0.434453994035721,-0.198172003030777,0.182927995920181,-3163.50024414062,89.1000061035156,-2121.30004882812,2.52903071266106,-0.355553757963605,0.143374273194869,ST
0.5,-3.2527015209198,-1.28600740432739,8.89558219909668,0.129574000835419,-0.0762199983000755,0.190549999475479,-3170.7001953125,89.7000045776367,-2126.10009765625,2.5273275343014,-0.347147621506858,0.143220209473066,ST
0.533333333333333,-3.21800923347473,-1.33445692062378,8.99367809295654,0.266770005226135,-0.121951997280121,0.259148001670837,-3173.10009765625,90.3000030517578,-2128.5,2.52636314772218,-0.340030905711017,0.146667105642504,ST
0.566666666666667,-3.15819478034973,-1.38230836391449,8.86388111114502,0.243903994560242,-0.25152599811554,0.190549999475479,-3182.7001953125,87.9000015258789,-2130.90014648438,2.52731687701327,-0.338112714197152,0.154134847763171,ST
0.6,-3.2227942943573,-1.30215728282928,8.88661003112793,0.243903994560242,-0.160062000155449,0.0609759986400604,-3173.10009765625,96.9000015258789,-2128.5,2.52430496951615,-0.344252481841677,0.145019913696841,ST
0.633333333333333,-3.30533814430237,-1.23995041847229,8.99965953826904,0.25152599811554,-0.114329993724823,0.144817993044853,-3170.7001953125,95.7000045776367,-2138.10009765625,2.52061263698563,-0.348783482266414,0.136377660553309,ST
0.666666666666667,-3.2186074256897,-1.28361487388611,8.83875846862793,0.358233988285065,-0.137196004390717,0.3125019967556,-3168.30004882812,92.7000045776367,-2130.90014648438,2.52076857890299,-0.345721949569582,0.143383695826228,ST
0.7,-3.24911260604858,-1.27404451370239,8.88302135467529,0.182927995920181,-0.190549999475479,0.37347799539566,-3161.10009765625,92.7000045776367,-2135.7001953125,2.51667824781426,-0.347142011231294,0.141883903625059,ST
0.733333333333333,-3.22638320922852,-1.27225005626678,8.9057502746582,0.221037998795509,-0.114329993724823,0.37347799539566,-3180.30004882812,92.7000045776367,-2140.5,2.51314717568731,-0.344246151046258,0.141270003016295,ST
0.766666666666667,-3.17972803115845,-1.33445692062378,8.87703990936279,0.236281991004944,-0.129574000835419,0.396344006061554,-3177.90014648438,96.9000015258789,-2135.7001953125,2.51203455239945,-0.340306671748348,0.148540603617013,ST
0.8,-3.21023321151733,-1.31950342655182,8.95778942108154,0.228659987449646,-0.167683988809586,0.213415995240211,-3170.7001953125,101.700004577637,-2130.90014648438,2.50941027343133,-0.340484821087649,0.145706809757352,ST
0.833333333333333,-3.23116827011108,-1.3099330663681,8.9057502746582,0.236281991004944,-0.198172003030777,0.0914639979600906,-3175.50024414062,97.5000076293945,-2135.7001953125,2.50898303929921,-0.344310725112389,0.145554241067135,ST
0.866666666666667,-3.21621465682983,-1.27643704414368,8.87345123291016,0.175305992364883,-0.175305992364883,0.106707997620106,-3177.90014648438,89.1000061035156,-2128.5,2.50721162695342,-0.344181775170577,0.142482295401241,ST
0.9,-3.25808477401733,-1.29139065742493,8.91891002655029,0.0838419944047928,-0.0685980021953583,0.144817993044853,-3168.30004882812,90.3000030517578,-2126.10009765625,2.5061612870635,-0.346827207935697,0.143549982074887,ST
0.933333333333333,-3.28260850906372,-1.32488667964935,8.98829460144043,0.381099998950958,-0.0685980021953583,0.106707997620106,-3161.10009765625,94.5,-2130.90014648438,2.50710091029545,-0.346619355598232,0.145608820995398,ST
0.966666666666667,-3.23296284675598,-1.3039516210556,8.86268424987793,0.167683988809586,-0.175305992364883,0.0533539988100529,-3182.7001953125,92.1000061035156,-2130.90014648438,2.50695234787971,-0.346061759155678,0.145738273019339,ST
1.0,-3.22937393188477,-1.3398402929306,8.86627292633057,0.228659987449646,-0.175305992364883,0.0762199983000755,-3161.10009765625,87.9000015258789,-2104.5,2.50802621622967,-0.345399110955222,0.149517594634135,ST
1.03333333333333,-3.18092441558838,-1.35957896709442,8.8878059387207,0.213415995240211,-0.213415995240211,0.0381099991500378,-3173.10009765625,91.5,-2123.7001953125,2.50871440538123,-0.339684058240973,0.151378324978761,ST
1.06666666666667,-3.24552369117737,-1.34821426868439,8.92548942565918,0.266770005226135,-0.243903994560242,-0.0076219998300075,-3161.10009765625,84.9000015258789,-2111.7001953125,2.50878595499415,-0.344728576500757,0.149435711872395,ST
1.1,-3.2766273021698,-1.29139065742493,8.93505954742432,0.221037998795509,-0.381099998950958,0.0381099991500378,-3168.30004882812,92.1000061035156,-2133.30004882812,2.50649147793855,-0.34751053540491,0.143093841444902,ST
1.13333333333333,-3.25808477401733,-1.29258692264557,8.91831207275391,0.221037998795509,-0.457319974899292,0.106707997620106,-3161.10009765625,93.9000015258789,-2133.30004882812,2.50559128585403,-0.346161943025634,0.143440363570305,ST
1.16666666666667,-3.2186074256897,-1.29976463317871,8.89857292175293,0.198172003030777,-0.510673999786377,0.236281991004944,-3168.30004882812,91.5,-2133.30004882812,2.50338497789561,-0.342875157035171,0.144500852230643,ST
1.2,-3.19647598266602,-1.33625137805939,8.83457183837891,0.221037998795509,-0.419209986925125,0.274392008781433,-3175.50024414062,95.7000045776367,-2126.10009765625,2.50205926708069,-0.342906183917213,0.149520126732476,ST
1.23333333333333,-3.1988685131073,-1.33086812496185,8.91950798034668,0.320124000310898,-0.243903994560242,0.274392008781433,-3175.50024414062,86.7000045776367,-2116.5,2.49923471617594,-0.340515254685805,0.14736786848469,ST
1.26666666666667,-3.21202778816223,-1.30933499336243,8.97274303436279,0.396344006061554,-0.335367977619171,0.274392008781433,-3168.30004882812,96.9000015258789,-2126.10009765625,2.49616446446188,-0.339923211136434,0.144012769961454,ST
1.3,-3.19527983665466,-1.30155909061432,8.84533786773682,0.342989981174469,-0.533540010452271,0.259148001670837,-3192.30004882812,90.9000015258789,-2126.10009765625,2.49422782181398,-0.342387110206391,0.14529116455389,ST
1.33333333333333,-3.21561670303345,-1.32608294487,8.89797496795654,0.381099998950958,-0.708845973014832,0.3125019967556,-3163.50024414062,90.9000015258789,-2114.10009765625,2.49180168467309,-0.342143559148979,0.147020307748821,ST
1.36666666666667,-3.22339248657227,-1.275838971138,8.89917087554932,0.228659987449646,-0.891773998737335,0.205793991684914,-3175.50024414062,90.3000030517578,-2128.5,2.48734624609205,-0.342778179174297,0.141792691060469,ST
1.4,-3.26765513420105,-1.23815596103668,8.96676158905029,0.403965979814529,-0.92988395690918,0.243903994560242,-3192.30004882812,91.5,-2133.30004882812,2.48306223807137,-0.34488408983883,0.136280689121222,ST
1.43333333333333,-3.27004766464233,-1.18731379508972,8.9296760559082,0.198172003030777,-1.02134799957275,0.320124000310898,-3175.50024414062,95.7000045776367,-2116.5,2.4773385958845,-0.346519145136951,0.131558220622971,ST
1.46666666666667,-3.29995489120483,-1.14604198932648,8.92788219451904,0.403965979814529,-0.967993974685669,0.495429992675781,-3182.7001953125,88.5,-2138.10009765625,2.4705810212741,-0.349831785900677,0.126573654423517,ST
1.5,-3.26406621932983,-1.14544379711151,8.84414196014404,0.411587983369827,-0.92988395690918,0.6250039935112,-3177.90014648438,87.9000015258789,-2142.90014648438,2.46456984733439,-0.349393817319683,0.127608652449732,ST
1.53333333333333,-3.26944947242737,-1.17295837402344,8.98530387878418,0.274392008781433,-1.14329993724823,0.685979962348938,-3177.90014648438,89.7000045776367,-2133.30004882812,2.45660459433578,-0.344443970150312,0.1288101368371,ST
1.56666666666667,-3.35737657546997,-1.18791198730469,8.8997688293457,0.144817993044853,-1.37958192825317,0.67835795879364,-3180.30004882812,93.9000015258789,-2130.90014648438,2.44849251450398,-0.355596325413308,0.131884977807195,ST
1.6,-3.36874127388,-1.33744764328003,8.78253364562988,-0.0,-1.30336201190948,0.655492007732391,-3201.90014648438,90.9000015258789,-2138.10009765625,2.44597750375647,-0.360369597788125,0.150562412796842,ST
1.63333333333333,-3.34541368484497,-1.58448076248169,8.66888618469238,-0.0152439996600151,-1.20427596569061,0.518296003341675,-3192.30004882812,95.1000061035156,-2123.7001953125,2.44864719843881,-0.360910359289358,0.180320543024359,ST
1.66666666666667,-3.40582609176636,-1.70829629898071,8.63778305053711,-0.0304879993200302,-1.10518991947174,0.259148001670837,-3180.30004882812,90.9000015258789,-2126.10009765625,2.44873083473909,-0.367270447715983,0.194984283172912,ST
1.7,-3.61039090156555,-1.65805232524872,8.83337497711182,0.137196004390717,-1.06708002090454,0.0381099991500378,-3201.90014648438,93.3000030517578,-2121.30004882812,2.44320082741692,-0.380153862483827,0.18514462761746,ST
1.73333333333333,-3.6594386100769,-1.5964435338974,8.65931606292725,0.365855991840363,-1.28049600124359,0.0838419944047928,-3201.90014648438,92.7000045776367,-2135.7001953125,2.44006383759745,-0.391704239182738,0.181450111179436,ST
1.76666666666667,-3.865797996521,-1.38769173622131,8.728102684021,0.335367977619171,-1.49391198158264,0.25152599811554,-3199.50024414062,93.3000030517578,-2135.7001953125,2.42679384402684,-0.4098304508965,0.156728287557044,ST
1.8,-4.0117449760437,-1.28600740432739,8.36562728881836,0.304879993200302,-1.95123195648193,0.861285984516144,-3199.50024414062,87.3000030517578,-2128.5,2.41395569567513,-0.43946839785276,0.151059288006814,ST
1.83333333333333,-4.07096099853516,-1.28540921211243,7.9194130897522,0.137196004390717,-1.78354799747467,1.14329993724823,-3204.30004882812,92.1000061035156,-2126.10009765625,2.40336819392005,-0.466793296108015,0.15942261053009,ST
1.86666666666667,-4.18700075149536,-1.30873680114746,7.9397497177124,0.175305992364883,-1.13567793369293,1.15092194080353,-3199.50024414062,94.5,-2138.10009765625,2.39152541929553,-0.478140440252865,0.161863784257903,ST
1.9,-3.94893980026245,-1.1095552444458,8.13354778289795,0.320124000310898,-0.952749967575073,1.08232402801514,-3211.50024414062,98.1000061035156,-2138.10009765625,2.36824449331458,-0.446994107956874,0.134025509519714,ST
1.93333333333333,-4.17204713821411,-0.769211888313293,8.73049449920654,1.02897000312805,-2.10367202758789,1.20427596569061,-3204.30004882812,90.9000015258789,-2116.5,2.33772754515953,-0.440809600842275,0.084959920422028,ST
1.96666666666667,-3.57809114456177,-0.92173832654953,8.1431188583374,1.53202199935913,-3.17837381362915,1.37195992469788,-3197.10009765625,86.7000045776367,-2121.30004882812,2.33663666663837,-0.406424655960342,0.108738120936443,ST
2.0,-2.8740770816803,-1.0276095867157,7.9313759803772,0.609759986400604,-3.66618180274963,0.46494197845459,-3218.7001953125,93.3000030517578,-2123.7001953125,2.33584264918173,-0.338771491458296,0.127201127685584,ST
2.03333333333333,-2.77777600288391,-1.00129127502441,8.19515705108643,0.205793991684914,-3.08691000938416,-0.243903994560242,-3211.50024414062,91.5,-2133.30004882812,2.33317545677964,-0.319161038413979,0.121144779996333,ST
2.06666666666667,-2.40752553939819,-1.1376678943634,8.13414669036865,0.175305992364883,-2.81251788139343,-1.04421401023865,-3223.50024414062,90.3000030517578,-2109.30004882812,2.34668069823287,-0.280030314151821,0.138976234336724,ST
2.1,-2.54091143608093,-0.631639003753662,9.26822566986084,0.937505960464478,-2.90398192405701,-0.975615978240967,-3218.7001953125,92.1000061035156,-2130.90014648438,2.33849008890592,-0.261823698419396,0.0667964004152872,ST
2.13333333333333,-1.66523003578186,-0.881064593791962,8.53490161895752,1.6615959405899,-2.65245604515076,-0.586893975734711,-3213.90014648438,92.7000045776367,-2114.10009765625,2.35341847922409,-0.187011033225462,0.100058572529009,ST
2.16666666666667,-1.13587355613708,-0.648985147476196,9.08339881896973,0.861285984516144,-2.28659987449646,-0.716467976570129,-3221.10009765625,92.7000045776367,-2121.30004882812,2.35631638376671,-0.120044351123428,0.0699492305742757,ST
2.2,-1.01564681529999,-0.309838056564331,10.4453706741333,0.67835795879364,-3.64331603050232,-0.518296003341675,-3237.90014648438,88.5,-2128.5,2.35768767182158,-0.0905089964172962,0.0285405131587882,ST
2.23333333333333,-0.15312460064888,-0.75246387720108,9.89148998260498,0.129574000835419,-4.68753004074097,-0.213415995240211,-3233.10009765625,93.3000030517578,-2116.5,2.35867867755805,-0.0072636016090205,0.0756890870495265,ST
2.26666666666667,-0.0592161528766155,-0.676499724388123,9.66778469085693,-0.594515979290009,-4.24545383453369,-0.655492007732391,-3240.30004882812,87.9000015258789,-2118.90014648438,2.36294344065278,0.0013605743894953,0.0708984451116799,ST
2.3,-0.0490477234125137,-0.477318078279495,10.2300395965576,-0.46494197845459,-3.23934984207153,-0.861285984516144,-3249.90014648438,90.9000015258789,-2118.90014648438,2.37147522562907,0.0009295867884218,0.0474392536451618,ST
2.33333333333333,0.111852735280991,-0.549693405628204,10.4627170562744,0.0533539988100529,-3.08691000938416,-0.990859985351562,-3252.30004882812,90.9000015258789,-2111.7001953125,2.38185233824209,0.0161442859510014,0.0523729649480066,ST
2.36666666666667,0.0963010191917419,-0.155517175793648,10.5978975296021,-0.121951997280121,-2.88873791694641,-1.34147191047668,-3252.30004882812,78.3000030517578,-2106.90014648438,2.39811103934394,0.0141621393294817,0.0148608241677787,ST
2.4,-0.126806303858757,0.178844749927521,10.4926242828369,0.198172003030777,-2.0579400062561,-0.952749967575073,-3259.50024414062,86.7000045776367,-2102.10009765625,2.40948286098191,-0.0085128536358591,-0.0173637423494919,ST
2.43333333333333,-0.394774347543716,0.401353925466537,10.163046836853,0.25152599811554,-0.884151995182037,-0.449698001146317,-3247.50024414062,88.5,-2121.30004882812,2.41460786311298,-0.0372741212162917,-0.0398710413813161,ST
2.46666666666667,-0.331969350576401,0.57361912727356,10.0613632202148,-0.327746003866196,0.342989981174469,0.0381099991500378,-3252.30004882812,89.1000061035156,-2109.30004882812,2.41322032372349,-0.0335239369861354,-0.0563777035375576,ST
2.5,-0.806296706199646,0.524571359157562,10.5093717575073,-0.78506600856781,0.0838419944047928,0.121951997280121,-3266.7001953125,90.3000030517578,-2102.10009765625,2.41137781638337,-0.0766070154317375,-0.0485209419369517,ST
2.53333333333333,-0.844577848911285,0.438438802957535,10.5632047653198,-1.33385002613068,0.411587983369827,0.350611984729767,-3266.7001953125,88.5,-2121.30004882812,2.40666809413986,-0.0804093629239614,-0.0392091601742715,ST
2.56666666666667,-1.0395724773407,0.319408357143402,10.8473224639893,-1.06708002090454,0.297257989645004,0.327746003866196,-3252.30004882812,97.5000076293945,-2114.10009765625,2.40268076433709,-0.0960015918612758,-0.027635256839552,ST
2.6,-0.623264968395233,-0.179442897439003,10.230637550354,-1.38720393180847,0.769822001457214,0.381099998950958,-3254.7001953125,92.1000061035156,-2102.10009765625,2.40109631563761,-0.0622047789392369,0.0199032963313665,ST
2.63333333333333,-1.64070618152618,-0.193798318505287,10.2814798355103,-1.89787793159485,2.44666194915771,0.144817993044853,-3264.30004882812,95.1000061035156,-2111.7001953125,2.39709539779999,-0.162459192425981,0.022130714610683,ST
2.66666666666667,-2.18800687789917,-0.290697485208511,10.5961027145386,-1.34909391403198,3.92532992362976,1.06708002090454,-3261.90014648438,92.7000045776367,-2116.5,2.384529289613,-0.210442426388811,0.0294224928103658,ST
2.7,-2.06957459449768,-0.622666835784912,11.1386184692383,-1.20427596569061,3.83386588096619,1.16616594791412,-3247.50024414062,89.1000061035156,-2121.30004882812,2.3766220591551,-0.190231199977654,0.0576165611709095,ST
2.73333333333333,-2.2191104888916,-0.512010395526886,10.4328098297119,-1.00610399246216,3.17075204849243,0.960371971130371,-3245.10009765625,88.5,-2114.10009765625,2.36379506893241,-0.2149404405934,0.0504898507599069,ST
2.76666666666667,-2.17006278038025,-0.719565987586975,9.47398662567139,0.0152439996600151,3.33081388473511,1.6692179441452,-3240.30004882812,95.1000061035156,-2118.90014648438,2.35327681179743,-0.230555885589858,0.0751929460707028,ST
2.8,-1.85424315929413,-1.31531643867493,9.2407112121582,0.0990860015153885,3.08691000938416,2.39330792427063,-3230.7001953125,89.7000045776367,-2121.30004882812,2.34531072961171,-0.202033240856601,0.140503178430213,ST
2.83333333333333,-2.32797241210938,-2.45896577835083,8.94642448425293,-0.685979962348938,1.88263392448425,2.57623600959778,-3223.50024414062,94.5,-2116.5,2.34797532043113,-0.250184352897576,0.26851950042726,ST
2.86666666666667,-2.93807816505432,-3.40821862220764,8.86926364898682,-1.21189796924591,2.04269599914551,2.40855193138123,-3223.50024414062,91.5,-2109.30004882812,2.35284456444776,-0.304723179839898,0.368140511318132,ST
2.9,-3.49315500259399,-3.78205800056458,9.497314453125,-2.01220798492432,2.90398192405701,2.32470989227295,-3218.7001953125,94.5,-2118.90014648438,2.3378186774233,-0.335473598461625,0.38182146118668,ST
2.93333333333333,-4.42147302627563,-4.37601375579834,10.2342262268066,-0.449698001146317,2.78202986717224,3.41465592384338,-3216.30004882812,98.1000061035156,-2130.90014648438,2.32142647279835,-0.384911428248719,0.40339042117522,ST
2.96666666666667,-4.20315074920654,-4.59553241729736,10.1929540634155,-0.259148001670837,2.22562384605408,3.37654590606689,-3221.10009765625,108.300003051758,-2128.5,2.30398391908967,-0.365541110505227,0.42256409035489,ST
3.0,-4.11283111572266,-4.19358015060425,9.59660625457764,0.78506600856781,1.11281192302704,2.75154185295105,-3216.30004882812,105.900001525879,-2126.10009765625,2.28017852062097,-0.37789831123392,0.409174751666065,ST
3.03333333333333,-3.38788175582886,-4.44539833068848,9.18448543548584,1.60061991214752,0.868907988071442,3.17837381362915,-3204.30004882812,102.900001525879,-2126.10009765625,2.2704847351435,-0.324346519529797,0.446517895053814,ST
3.06666666666667,-2.46674156188965,-4.46513748168945,8.40271282196045,0.0990860015153885,0.350611984729767,2.0655620098114,-3199.50024414062,99.9000015258789,-2114.10009765625,2.26396375834795,-0.255904583970458,0.487500225645917,ST
3.1,-2.45059180259705,-3.18810200691223,7.96128273010254,-0.0609759986400604,0.403965979814529,1.55488801002502,-3197.10009765625,99.9000015258789,-2097.30004882812,2.22123589124359,-0.27999126649996,0.380388157271585,ST
3.13333333333333,-1.66463184356689,-3.51588439941406,6.72432327270508,0.411587983369827,0.746955990791321,1.94360995292664,-3192.30004882812,100.500007629395,-2116.5,2.23132441819949,-0.218699944503589,0.480482958845285,ST
3.16666666666667,-2.39556264877319,-2.71796154975891,7.39185094833374,0.0838419944047928,0.907018005847931,1.2347639799118,-3180.30004882812,97.5000076293945,-2111.7001953125,2.18958641119368,-0.297483129145119,0.351797883112183,ST
3.2,-2.46255469322205,-1.91704821586609,6.70458459854126,1.16616594791412,1.43293595314026,0.868907988071442,-3189.90014648438,103.500007629395,-2123.7001953125,2.16557786244852,-0.342277173602139,0.276215578046215,ST
3.23333333333333,-2.31600952148438,-1.72803509235382,7.65383768081665,1.2500079870224,1.33385002613068,1.00610399246216,-3192.30004882812,102.900001525879,-2114.10009765625,2.14471260631319,-0.289688457924544,0.219529709172576,ST
3.26666666666667,-2.63182902336121,-0.86192399263382,8.83935642242432,0.396344006061554,-0.617381989955902,0.556405961513519,-3192.30004882812,98.1000061035156,-2126.10009765625,2.10400572047399,-0.287113354925881,0.0962353905347916,ST
3.3,-1.64489316940308,-0.592161536216736,9.03315544128418,0.846041977405548,-1.74543797969818,1.89787793159485,-3182.7001953125,106.500007629395,-2123.7001953125,2.075566899026,-0.17695064850184,0.0633668778878481,ST
3.33333333333333,-1.80280292034149,-0.447410941123962,8.49961185455322,0.952749967575073,-1.44817996025085,1.47866797447205,-3197.10009765625,98.7000045776367,-2114.10009765625,2.05776740510702,-0.206322312260611,0.050364911688555,ST
3.36666666666667,-1.81835460662842,-0.212340757250786,8.09945392608643,1.28811800479889,-0.365855991840363,1.2347639799118,-3201.90014648438,102.900001525879,-2104.5,2.04129144330635,-0.220176817165126,0.0234856105863901,ST
3.4,-1.54739582538605,-1.03119850158691,7.58624744415283,1.36433792114258,0.411587983369827,1.05183601379395,-3189.90014648438,102.900001525879,-2126.10009765625,2.0559604979567,-0.200390242947158,0.132334724008068,ST
3.43333333333333,-2.43922710418701,-0.87089616060257,8.29743957519531,1.11281192302704,0.144817993044853,0.25152599811554,-3192.30004882812,97.5000076293945,-2121.30004882812,2.04962995017917,-0.284708728681794,0.102524552367709,ST
3.46666666666667,-2.52595782279968,-1.07725548744202,8.33213138580322,1.49391198158264,0.213415995240211,0.533540010452271,-3209.10009765625,100.500007629395,-2126.10009765625,2.055613708336,-0.292543583654417,0.12569719301084,ST
3.5,-2.1832218170166,-1.08503139019012,8.35545921325684,1.21951997280121,-0.137196004390717,0.823175966739655,-3197.10009765625,96.9000015258789,-2114.10009765625,2.04983470335129,-0.253492710013546,0.126630541178301,ST
3.53333333333333,-2.47033047676086,-0.56464695930481,8.87285327911377,0.899396002292633,0.137196004390717,0.800309956073761,-3197.10009765625,103.500007629395,-2126.10009765625,2.02640307069188,-0.271339379662096,0.0616072706575847,ST
3.56666666666667,-1.66283750534058,-1.62156558036804,9.1569709777832,0.457319974899292,0.304879993200302,0.67835795879364,-3201.90014648438,98.7000045776367,-2126.10009765625,2.04549463908769,-0.177701409971846,0.174240446716886,ST
3.6,-2.07196736335754,-1.28241848945618,9.10553073883057,-0.0990860015153885,0.388722002506256,-0.754577994346619,-3187.50024414062,101.100006103516,-2128.5,2.04756649212231,-0.222097915056916,0.140419227170786,ST
3.63333333333333,-2.64917516708374,-1.04794645309448,9.94711780548096,0.685979962348938,1.57013201713562,-0.365855991840363,-3206.7001953125,99.9000015258789,-2123.7001953125,2.04681105332913,-0.261561210743425,0.10402626763236,ST
3.66666666666667,-1.84586918354034,-1.24832439422607,9.60797023773193,0.640248000621796,0.952749967575073,0.746955990791321,-3182.7001953125,90.9000015258789,-2133.30004882812,2.04659165419843,-0.19010053352732,0.127869203493735,ST
3.7,-1.38769173622131,-1.87458002567291,8.18020343780518,0.83841997385025,1.57013201713562,0.0838419944047928,-3187.50024414062,101.700004577637,-2106.90014648438,2.06804530676329,-0.166584297457534,0.223854775424721,ST
3.73333333333333,-3.38907814025879,-1.34641981124878,9.44766807556152,0.525918006896973,3.40703392028809,-1.2500079870224,-3185.10009765625,99.9000015258789,-2126.10009765625,2.06821670842292,-0.346757972929793,0.141753461855628,ST
3.76666666666667,-3.2048499584198,-1.73880159854889,9.44766807556152,0.815553963184357,2.42379593849182,-0.304879993200302,-3187.50024414062,93.9000015258789,-2116.5,2.09309049487316,-0.326075133850187,0.18101609974566,ST
3.8,-2.83160877227783,-2.03906941413879,8.38297367095947,0.0152439996600151,1.08994603157043,-0.632625997066498,-3187.50024414062,96.9000015258789,-2118.90014648438,2.12128765979484,-0.318722344518201,0.239067187828103,ST
3.83333333333333,-4.93109083175659,-0.934299349784851,9.26164531707764,-0.67835795879364,1.27287399768829,-0.579271972179413,-3189.90014648438,102.300003051758,-2133.30004882812,2.07144234795367,-0.48922630168499,0.102403363810011,ST
3.86666666666667,-4.38498592376709,-1.68377244472504,9.50209903717041,-0.663114011287689,1.85976791381836,0.884151995182037,-3170.7001953125,99.3000030517578,-2130.90014648438,2.09498371048212,-0.429990110919984,0.176075762461618,ST
3.9,-4.14273834228516,-1.24832439422607,9.5804557800293,-1.42531394958496,0.0381099991500378,0.510673999786377,-3180.30004882812,97.5000076293945,-2123.7001953125,2.06515990350804,-0.405269461780449,0.131695658819792,ST
3.93333333333333,-4.56861591339111,-0.57062840461731,8.512770652771,0.137196004390717,-0.190549999475479,1.53964400291443,-3175.50024414062,96.9000015258789,-2128.5,2.02118152529662,-0.491440103954567,0.0652692143293301,ST
3.96666666666667,-5.07524299621582,-0.297875195741653,9.32803916931152,0.37347799539566,1.17378795146942,1.69970595836639,-3180.30004882812,101.700004577637,-2133.30004882812,1.9895414253263,-0.50021054596234,0.0296977403674816,ST
4.0,-4.46513748168945,-0.939084470272064,8.5785665512085,-0.0914639979600906,0.92988395690918,1.21951997280121,-3170.7001953125,94.5,-2133.30004882812,2.01449698708086,-0.479327473170617,0.108160373442849,ST
4.03333333333333,-4.92092227935791,-1.14245307445526,8.0653600692749,-1.36433792114258,0.0228659994900227,0.0228659994900227,-3170.7001953125,96.3000030517578,-2128.5,2.02341366158196,-0.543453860206693,0.143062147940924,ST
4.06666666666667,-5.34380912780762,-0.901401460170746,8.31957054138184,-0.663114011287689,0.320124000310898,0.472563982009888,-3173.10009765625,101.100006103516,-2128.5,1.99690883744018,-0.568942257695566,0.108609353470609,ST
4.1,-4.76480674743652,-1.17714536190033,8.18917560577393,0.304879993200302,0.274392008781433,1.2576299905777,-3175.50024414062,96.3000030517578,-2126.10009765625,2.00350527455033,-0.523325647516008,0.141009089224524,ST
4.13333333333333,-4.33534002304077,-1.12690138816833,7.40381383895874,0.396344006061554,0.121951997280121,0.182927995920181,-3180.30004882812,94.5,-2133.30004882812,2.00876288397783,-0.525009102667111,0.150187160132554,ST
4.16666666666667,-4.96099758148193,-0.814072608947754,7.97504043579102,0.952749967575073,0.807931959629059,-0.160062000155449,-3158.7001953125,96.9000015258789,-2142.90014648438,1.99151470037349,-0.555532350076314,0.100336182977166,ST
4.2,-4.47949266433716,-0.66932201385498,8.50439643859863,1.13567793369293,0.67835795879364,0.457319974899292,-3177.90014648438,97.5000076293945,-2128.5,1.9816737068747,-0.484793635306969,0.0761965755469145,ST
4.23333333333333,-4.39993953704834,-0.769211888313293,8.09167766571045,0.442075997591019,-0.823175966739655,-0.137196004390717,-3177.90014648438,100.500007629395,-2126.10009765625,1.99329436871052,-0.494700702587915,0.0940577026182707,ST
4.26666666666667,-5.01901769638062,-0.699229121208191,8.47269535064697,-0.0457319989800453,-0.754577994346619,-0.602137982845306,-3163.50024414062,100.500007629395,-2145.30004882812,1.99292997545892,-0.531895569691671,0.0829768589396243,ST
4.3,-4.94185733795166,-0.806296706199646,9.20183181762695,0.0457319989800453,-0.655492007732391,0.37347799539566,-3173.10009765625,99.9000015258789,-2130.90014648438,1.9905237325185,-0.490179664883117,0.0869199135389685,ST
4.33333333333333,-4.62603759765625,-0.82364284992218,7.97384405136108,0.899396002292633,-0.92988395690918,0.739333987236023,-3170.7001953125,97.5000076293945,-2135.7001953125,1.99377242223198,-0.521907092253005,0.100521735336413,ST
4.36666666666667,-4.81325626373291,-0.821250319480896,8.77356147766113,0.510673999786377,0.182927995920181,0.0914639979600906,-3165.90014648438,102.900001525879,-2140.5,1.99206835243511,-0.500273256276827,0.0923723321453904,ST
4.4,-4.16965484619141,-0.92472904920578,8.21669006347656,0.716467976570129,-0.0533539988100529,0.0381099991500378,-3161.10009765625,104.100006103516,-2135.7001953125,2.00393110292805,-0.466990483410418,0.110776194242981,ST
4.43333333333333,-4.3161997795105,-0.550291538238525,8.27231693267822,0.891773998737335,-0.0914639979600906,-0.952749967575073,-3163.50024414062,99.9000015258789,-2126.10009765625,1.99776923271775,-0.479729342237013,0.0657405352748459,ST
4.46666666666667,-4.48547410964966,-0.39836323261261,9.1629524230957,1.73019397258759,0.121951997280121,-0.853663980960846,-3177.90014648438,96.3000030517578,-2138.10009765625,2.0054542276884,-0.455014625350024,0.0411657355594526,ST
4.5,-4.28330183029175,-0.148937597870827,8.02707862854004,1.82165801525116,0.617381989955902,-1.45580196380615,-3161.10009765625,98.7000045776367,-2138.10009765625,2.01982759935762,-0.49112458804459,0.0167483372422398,ST
4.53333333333333,-3.96628594398499,-0.134582161903381,8.39493656158447,2.02745199203491,2.11891603469849,-0.571649968624115,-3161.10009765625,100.500007629395,-2130.90014648438,2.03455696179207,-0.445027535967572,0.0129971164549303,ST
4.56666666666667,-4.65714120864868,-0.0430662930011749,8.95420074462891,2.32470989227295,2.30946588516235,-0.823175966739655,-3161.10009765625,88.5,-2135.7001953125,2.05275775695781,-0.483625404771589,0.0015181559585372,ST
4.6,-4.14692544937134,-0.206957474350929,8.55344486236572,1.82927989959717,1.82927989959717,-0.640248000621796,-3153.90014648438,92.7000045776367,-2133.30004882812,2.07811693159965,-0.454498242164722,0.0215757018763623,ST
4.63333333333333,-4.23066520690918,-0.263182908296585,8.47568607330322,1.45580196380615,2.0579400062561,-0.83841997385025,-3163.50024414062,90.3000030517578,-2135.7001953125,2.10031658762916,-0.46632402699023,0.0292923225382032,ST
4.66666666666667,-4.77557325363159,-0.236266478896141,8.92668533325195,1.22714197635651,1.97409796714783,-1.2576299905777,-3149.10009765625,92.1000061035156,-2135.7001953125,2.11975300964154,-0.494473666748316,0.0255523304479403,ST
4.7,-4.50102567672729,-0.672312676906586,8.429030418396,1.09756803512573,1.2576299905777,-0.891773998737335,-3153.90014648438,94.5,-2133.30004882812,2.16074115217722,-0.491220446061732,0.0785832627414351,ST
4.73333333333333,-4.37541580200195,-0.784165441989899,8.70537281036377,0.449698001146317,0.708845973014832,-0.358233988285065,-3149.10009765625,93.3000030517578,-2142.90014648438,2.17237312910915,-0.46529989168463,0.0894159123738785,ST
4.76666666666667,-3.83050751686096,-0.662144243717194,8.89677810668945,0.228659987449646,-0.556405961513519,-0.0685980021953583,-3149.10009765625,96.9000015258789,-2135.7001953125,2.16717948507826,-0.404602794266343,0.0739144074953136,ST
4.8,-3.68575692176819,-0.751267552375793,8.88122653961182,0.716467976570129,-1.33385002613068,-0.274392008781433,-3151.50024414062,92.1000061035156,-2138.10009765625,2.17569387919277,-0.389759619846572,0.0832515109495838,ST
4.83333333333333,-3.36575055122375,-0.227892473340034,8.44876956939697,0.602137982845306,-1.21189796924591,-0.236281991004944,-3158.7001953125,94.5,-2121.30004882812,2.1589468687211,-0.376856193330692,0.0260754864671729,ST
4.86666666666667,-3.75155282020569,-0.0185424312949181,8.40390872955322,0.640248000621796,-0.571649968624115,0.0533539988100529,-3151.50024414062,93.3000030517578,-2130.90014648438,2.15183344034399,-0.41885702870531,0.0010498876721218,ST
4.9,-3.73839354515076,-0.256603330373764,8.25317668914795,0.236281991004944,0.221037998795509,0.87652999162674,-3156.30004882812,92.1000061035156,-2133.30004882812,2.15518524691226,-0.425565086961322,0.0299761832164934,ST
4.93333333333333,-3.6594386100769,-0.770408153533936,8.59172534942627,-0.243903994560242,-0.0304879993200302,0.731711983680725,-3149.10009765625,90.9000015258789,-2128.5,2.17016361227854,-0.401282029361092,0.0892938274416492,ST
4.96666666666667,-3.92501425743103,-0.825437307357788,8.31957054138184,-0.617381989955902,-0.602137982845306,0.388722002506256,-3144.30004882812,92.1000061035156,-2118.90014648438,2.16672272697275,-0.437941038519649,0.0996021457984082,ST
5.0,-3.93219184875488,-0.931906759738922,7.15678071975708,0.167683988809586,0.0838419944047928,0.434453994035721,-3151.50024414062,94.5,-2138.10009765625,2.17645141733494,-0.499097660729059,0.128784936601453,ST
5.03333333333333,-4.10146617889404,-1.54141438007355,8.56540775299072,-0.0685980021953583,0.716467976570129,-0.144817993044853,-3161.10009765625,97.5000076293945,-2130.90014648438,2.20132861096676,-0.441606193284244,0.178378417345455,ST
5.06666666666667,-4.02849292755127,-1.08742392063141,8.66888618469238,-0.0381099991500378,-1.90549993515015,-0.602137982845306,-3156.30004882812,97.5000076293945,-2135.7001953125,2.18230825576743,-0.42861451543751,0.125159507668068,ST
5.1,-4.10565328598022,-0.968991637229919,7.85600996017456,0.434453994035721,-2.11891603469849,-0.335367977619171,-3163.50024414062,94.5,-2130.90014648438,2.18396179723988,-0.474724349352996,0.122032738548626,ST
5.13333333333333,-4.190589427948,-1.24054849147797,8.80586051940918,0.426831990480423,-1.39482593536377,-0.396344006061554,-3146.7001953125,96.3000030517578,-2135.7001953125,2.19581492290877,-0.437875939602281,0.13936772593323,ST
5.16666666666667,-4.58476591110229,-1.62156558036804,9.17790603637695,-0.137196004390717,-1.11281192302704,-1.22714197635651,-3168.30004882812,88.5,-2133.30004882812,2.22150360046671,-0.454874126690828,0.175970005905865,ST
5.2,-4.60151386260986,-0.925925314426422,9.43391132354736,0.426831990480423,-1.08994603157043,-0.861285984516144,-3158.7001953125,97.5000076293945,-2133.30004882812,2.197078556749,-0.449886134059998,0.09774899403751,ST
5.23333333333333,-4.91972589492798,-0.506627082824707,8.92668533325195,2.14940404891968,-0.769822001457214,0.0457319989800453,-3168.30004882812,93.3000030517578,-2123.7001953125,2.18831391565974,-0.501686227229507,0.0528625634600479,ST
5.26666666666667,-4.74207735061646,-0.113647162914276,8.92728424072266,1.59299790859222,0.0457319989800453,0.503051996231079,-3153.90014648438,92.7000045776367,-2128.5,2.1714577561734,-0.488345778649664,0.0094912671717936,ST
5.3,-4.38139724731445,0.109460160136223,8.02468585968018,0.434453994035721,-0.769822001457214,0.807931959629059,-3156.30004882812,95.7000045776367,-2126.10009765625,2.1540797830013,-0.498352518092656,-0.0151468714506855,ST
5.33333333333333,-3.84306859970093,-0.46236452460289,7.02698373794556,-0.388722002506256,-0.388722002506256,0.594515979290009,-3170.7001953125,91.5,-2135.7001953125,2.18442643868454,-0.498943716614975,0.0657667576805087,ST
5.36666666666667,-4.28330183029175,-0.653172135353088,7.33263444900513,-0.769822001457214,0.891773998737335,-0.426831990480423,-3165.90014648438,96.9000015258789,-2121.30004882812,2.19725632782788,-0.528431947809053,0.0906919016439835,ST
5.4,-4.79650831222534,-0.913364291191101,9.21738338470459,0.0609759986400604,0.442075997591019,-0.800309956073761,-3163.50024414062,95.1000061035156,-2123.7001953125,2.21143098308689,-0.478451687020117,0.0994222789533087,ST
5.43333333333333,-5.00645685195923,-1.04316139221191,8.86926364898682,1.28811800479889,-1.36433792114258,-0.754577994346619,-3151.50024414062,89.7000045776367,-2135.7001953125,2.2321784299097,-0.508424929102198,0.115397585133692,ST
5.46666666666667,-4.15888786315918,-0.130395174026489,8.76458930969238,1.44817996025085,-3.51374197006226,0.129574000835419,-3165.90014648438,93.9000015258789,-2133.30004882812,2.19580083903583,-0.436877718071019,0.0122006227784212,ST
5.5,-3.49913644790649,-0.948654770851135,8.08749103546143,0.228659987449646,-0.0990860015153885,0.0609759986400604,-3177.90014648438,95.1000061035156,-2135.7001953125,2.23931374035882,-0.405697438153175,0.11631230193288,ST
5.53333333333333,-4.23186159133911,-0.593955993652344,8.76817798614502,0.78506600856781,1.21189796924591,-0.0609759986400604,-3177.90014648438,92.1000061035156,-2142.90014648438,2.22434468504248,-0.450862445096486,0.0663962278678629,ST
5.56666666666667,-4.12000894546509,-0.568833947181702,9.43510723114014,1.31098401546478,0.6250039935112,0.510673999786377,-3163.50024414062,88.5,-2133.30004882812,2.22180687428463,-0.412201418603603,0.0575706852425594,ST
5.6,-3.26765513420105,-0.75246387720108,8.87105846405029,0.823175966739655,-0.579271972179413,0.708845973014832,-3180.30004882812,90.9000015258789,-2138.10009765625,2.22639738768113,-0.350882451905403,0.0826922992621502,ST
5.63333333333333,-2.57081842422485,-1.0276095867157,8.90694713592529,-0.137196004390717,-0.792688012123108,-0.182927995920181,-3175.50024414062,94.5,-2138.10009765625,2.23702786123464,-0.277850659548774,0.115138024382564,ST
5.66666666666667,-3.07744550704956,-0.789548695087433,9.57148361206055,-0.137196004390717,-1.28049600124359,-0.762199997901917,-3168.30004882812,96.3000030517578,-2138.10009765625,2.23476876367246,-0.307753738956225,0.0829116632351729,ST
5.7,-3.03079032897949,-0.479710668325424,8.66350269317627,0.419209986925125,-0.83841997385025,-0.266770005226135,-3187.50024414062,83.7000045776367,-2133.30004882812,2.22979890976402,-0.33455492420898,0.0547261975719077,ST
5.73333333333333,-3.3286657333374,-0.628648281097412,8.26872825622559,0.144817993044853,0.815553963184357,0.381099998950958,-3180.30004882812,89.1000061035156,-2135.7001953125,2.23398455588913,-0.383177777667792,0.0754018348229149,ST
5.76666666666667,-3.41001296043396,-0.522178828716278,9.47159385681152,-0.952749967575073,0.670735955238342,0.564027965068817,-3182.7001953125,86.7000045776367,-2133.30004882812,2.21691273952399,-0.346324057192242,0.0564091229267259,ST
5.8,-2.71257829666138,-1.12630319595337,8.72870063781738,-0.769822001457214,-1.06708002090454,0.37347799539566,-3170.7001953125,88.5,-2135.7001953125,2.23187566920539,-0.297225720968363,0.129373925590058,ST
5.83333333333333,-3.33644151687622,-1.05093717575073,8.77176666259766,-0.83841997385025,-0.37347799539566,-0.304879993200302,-3165.90014648438,92.1000061035156,-2130.90014648438,2.22859162380937,-0.36036936628151,0.120876811625239,ST
5.86666666666667,-3.11034345626831,-1.03538548946381,9.39144325256348,-0.320124000310898,0.167683988809586,-0.190549999475479,-3180.30004882812,90.9000015258789,-2147.7001953125,2.22629717674496,-0.318282913922356,0.110484377876172,ST
5.9,-3.64747595787048,-0.677097856998444,9.04451942443848,0.304879993200302,-0.259148001670837,0.228659987449646,-3173.10009765625,96.3000030517578,-2128.5,2.21239074446033,-0.381920143435224,0.074030338277135,ST
5.93333333333333,-3.52904343605042,-0.696836590766907,8.87345123291016,0.228659987449646,1.17378795146942,1.2347639799118,-3189.90014648438,97.5000076293945,-2130.90014648438,2.200967363795,-0.379683691569402,0.0771769601924639,ST
5.96666666666667,-3.62055945396423,-0.297875195741653,8.34349632263184,0.0152439996600151,0.769822001457214,1.12805593013763,-3185.10009765625,88.5,-2135.7001953125,2.17172885532509,-0.410592688527363,0.0348282896528674,ST
6.0,-4.19238424301147,-0.308641761541367,8.1311559677124,0.510673999786377,1.50915598869324,1.2576299905777,-3168.30004882812,83.7000045776367,-2126.10009765625,2.16193116036227,-0.478452179078509,0.0359625984539845,ST
6.03333333333333,-4.44001531600952,-0.409727931022644,8.82859039306641,0.46494197845459,1.85214591026306,0.503051996231079,-3173.10009765625,89.1000061035156,-2126.10009765625,2.16418353629446,-0.468815480894789,0.045193886486324,ST
6.06666666666667,-4.67030048370361,-0.100488021969795,8.29026126861572,0.518296003341675,0.891773998737335,0.0381099991500378,-3170.7001953125,93.9000015258789,-2135.7001953125,2.15079404686339,-0.514543954870988,0.0112006160800511,ST
6.1,-4.59493446350098,-0.265575468540192,8.452956199646,0.46494197845459,1.51677799224854,0.190549999475479,-3156.30004882812,93.3000030517578,-2140.5,2.16122793080916,-0.500362019362649,0.030453608545101,ST
6.13333333333333,-4.54169940948486,-0.470140367746353,8.64316558837891,0.434453994035721,1.37195992469788,-0.121951997280121,-3156.30004882812,91.5,-2128.5,2.17680408074848,-0.485587527507545,0.0537592740182948,ST
6.16666666666667,-4.88383722305298,-0.450999796390533,8.66589546203613,0.510673999786377,0.891773998737335,-0.266770005226135,-3170.7001953125,87.9000015258789,-2145.30004882812,2.18169503306028,-0.514144521411589,0.0514138893901262,ST
6.2,-4.11163473129272,-0.579002380371094,8.20173645019531,0.685979962348938,0.632625997066498,0.0762199983000755,-3168.30004882812,94.5,-2133.30004882812,2.19332940971543,-0.464829586468045,0.06924766188067,ST
6.23333333333333,-4.21212291717529,-0.593955993652344,8.21609210968018,0.693601965904236,0.335367977619171,-0.525918006896973,-3153.90014648438,90.9000015258789,-2138.10009765625,2.20358126834959,-0.473188463660655,0.0714452682977014,ST
6.26666666666667,-4.57938241958618,-0.757248997688293,9.27001953125,0.571649968624115,0.655492007732391,-0.640248000621796,-3158.7001953125,100.500007629395,-2130.90014648438,2.21796822105197,-0.458570945890055,0.0811019751952469,ST
6.3,-3.47102355957031,-1.0455539226532,8.71554088592529,0.25152599811554,-0.846041977405548,-0.807931959629059,-3163.50024414062,96.9000015258789,-2135.7001953125,2.24211844665215,-0.374947216595576,0.11942459622767,ST
6.33333333333333,-3.66302752494812,-0.809885561466217,8.51994895935059,0.266770005226135,-1.58537602424622,-1.2347639799118,-3151.50024414062,86.7000045776367,-2138.10009765625,2.24549302639608,-0.401445856698123,0.0951148140359214,ST
6.36666666666667,-3.61577415466309,-0.675901532173157,8.67726039886475,0.975615978240967,-0.335367977619171,-0.335367977619171,-3158.7001953125,90.3000030517578,-2123.7001953125,2.24579052988399,-0.393117727794976,0.0762631267956792,ST
6.4,-3.69233655929565,-0.763230443000793,8.72152233123779,0.731711983680725,-0.137196004390717,-0.0076219998300075,-3168.30004882812,95.7000045776367,-2142.90014648438,2.25277282028538,-0.398871084001368,0.0860052293397221,ST
6.43333333333333,-3.57809114456177,-0.643003702163696,9.17670917510986,-0.350611984729767,-0.129574000835419,0.83841997385025,-3146.7001953125,88.5,-2140.5,2.23622094814988,-0.370835999556143,0.0699980911478357,ST
6.46666666666667,-3.23236465454102,-0.736912131309509,8.48465824127197,-0.541162014007568,-0.228659987449646,1.35671591758728,-3161.10009765625,100.500007629395,-2135.7001953125,2.2241876539397,-0.362551013169578,0.0866684865772389,ST
6.5,-3.62654089927673,-0.811680018901825,8.89857292175293,-0.701223969459534,-0.0533539988100529,1.11281192302704,-3163.50024414062,95.1000061035156,-2133.30004882812,2.2091956689092,-0.385627431873259,0.0913977871006521,ST
6.53333333333333,-3.64029812812805,-1.22320234775543,8.56002426147461,-0.0838419944047928,0.221037998795509,0.739333987236023,-3158.7001953125,86.1000061035156,-2140.5,2.22053265208521,-0.399029417449555,0.141550172410028,ST
6.56666666666667,-4.52734422683716,-0.978561878204346,8.48406028747559,0.579271972179413,0.396344006061554,0.342989981174469,-3158.7001953125,92.7000045776367,-2138.10009765625,2.20854628469659,-0.488191868711062,0.113552923777019,ST
6.6,-4.40173435211182,-1.20107114315033,8.74664497375488,0.403965979814529,1.00610399246216,0.320124000310898,-3151.50024414062,89.7000045776367,-2142.90014648438,2.21885130568661,-0.464326236520623,0.135594589634132,ST
6.63333333333333,-4.18520641326904,-0.977365612983704,9.21977615356445,-0.144817993044853,-0.510673999786377,0.266770005226135,-3175.50024414062,97.5000076293945,-2145.30004882812,2.20192731518925,-0.423201286965068,0.105624636916647,ST
6.66666666666667,-3.62295198440552,-0.982748925685883,8.33332824707031,0.236281991004944,-1.65397393703461,0.609759986400604,-3144.30004882812,95.1000061035156,-2130.90014648438,2.19892179227073,-0.404847165599938,0.116373988290573,ST
6.7,-3.96628594398499,-1.36077523231506,8.52832221984863,0.586893975734711,-1.05183601379395,0.0076219998300075,-3165.90014648438,95.7000045776367,-2142.90014648438,2.21644543775681,-0.428711404640662,0.157049518309543,ST
6.73333333333333,-3.88553667068481,-1.43075799942017,8.83277702331543,0.114329993724823,0.137196004390717,-0.449698001146317,-3165.90014648438,95.1000061035156,-2138.10009765625,2.22339074747531,-0.409787756349293,0.160740439856203,ST
6.76666666666667,-4.09488677978516,-0.992319166660309,8.10603332519531,0.144817993044853,0.6250039935112,-0.731711983680725,-3170.7001953125,95.1000061035156,-2138.10009765625,2.21613462747539,-0.465692944795579,0.122275138113726,ST
6.8,-4.00157642364502,-1.11912548542023,8.04083633422852,0.685979962348938,0.792688012123108,-0.0533539988100529,-3151.50024414062,98.1000061035156,-2130.90014648438,2.22796265733179,-0.459316104562375,0.137229590815454,ST
6.83333333333333,-4.09428882598877,-0.952243626117706,7.73757743835449,0.297257989645004,0.403965979814529,-0.533540010452271,-3163.50024414062,87.9000015258789,-2138.10009765625,2.22898396035982,-0.484168994636212,0.122467864588852,ST
6.86666666666667,-4.33234977722168,-0.512010395526886,8.40091800689697,0.891773998737335,1.07470202445984,0.0457319989800453,-3151.50024414062,92.1000061035156,-2142.90014648438,2.2049535410318,-0.477252910329101,0.0593485069600186,ST
6.9,-5.11890745162964,-0.180041030049324,8.4948263168335,2.01220798492432,1.95885396003723,0.724089980125427,-3153.90014648438,93.3000030517578,-2128.5,2.18930517940361,-0.545644389878607,0.0169703587371074,ST
6.93333333333333,-5.7421727180481,-0.259594053030014,9.41776084899902,1.50153398513794,2.98020195960999,0.99848198890686,-3156.30004882812,90.9000015258789,-2145.30004882812,2.19288676814913,-0.552607560499689,0.0239483472175313,ST
6.96666666666667,-4.66551494598389,-0.260192185640335,9.55712795257568,0.975615978240967,2.17227005958557,1.50153398513794,-3149.10009765625,92.7000045776367,-2150.10009765625,2.18301612836066,-0.457872645094621,0.0242748555381058,ST
7.0,-4.03746509552002,-0.350511789321899,9.86457347869873,-0.114329993724823,-0.846041977405548,1.36433792114258,-3149.10009765625,92.7000045776367,-2140.5,2.17155400787192,-0.386891898309513,0.0347232346908142,ST
7.03333333333333,-3.64388704299927,-0.470738530158997,7.72322225570679,0.121951997280121,-1.2423859834671,0.617381989955902,-3144.30004882812,90.9000015258789,-2128.5,2.17433608831232,-0.438021976432663,0.0600948960702537,ST
7.06666666666667,-3.51289367675781,-0.682481110095978,7.34519577026367,0.0990860015153885,0.182927995920181,0.0304879993200302,-3153.90014648438,93.3000030517578,-2138.10009765625,2.18852450571307,-0.44475362836883,0.0924592889734527,ST
7.1,-4.21690797805786,-0.583787560462952,7.73398876190186,0.342989981174469,1.18140995502472,-0.541162014007568,-3149.10009765625,96.3000030517578,-2138.10009765625,2.18951504384521,-0.499966002224479,0.0753442156573995,ST
7.13333333333333,-5.09199094772339,-0.591563403606415,8.36921691894531,0.365855991840363,1.54726600646973,-0.983237981796265,-3151.50024414062,92.7000045776367,-2140.5,2.20034083247682,-0.548036806337619,0.0710896652744633,ST
7.16666666666667,-5.1213002204895,-0.739902853965759,9.0911750793457,-0.0990860015153885,1.29574000835419,-1.00610399246216,-3146.7001953125,93.9000015258789,-2150.10009765625,2.21661108926124,-0.513727616178815,0.082468459826356,ST
7.2,-4.33354568481445,-1.00488018989563,9.62292385101318,-0.365855991840363,-0.289635986089706,-1.2576299905777,-3137.10009765625,90.9000015258789,-2133.30004882812,2.23871384813259,-0.420389610188726,0.105635827772294,ST
7.23333333333333,-3.92621040344238,-0.766819298267365,8.48106956481934,0.0609759986400604,-1.62348592281342,-2.24848985671997,-3151.50024414062,92.7000045776367,-2147.7001953125,2.25649082655491,-0.428828506125092,0.0917366737559427,ST
7.26666666666667,-3.56433391571045,-1.05332982540131,7.24111890792847,0.259148001670837,-1.33385002613068,-3.02593398094177,-3149.10009765625,91.5,-2133.30004882812,2.31300414016237,-0.450205552992935,0.146356102000791,ST
7.3,-3.75633788108826,-0.797324597835541,8.2621488571167,-0.67835795879364,-0.708845973014832,-3.90246391296387,-3149.10009765625,94.5,-2145.30004882812,2.332432422112,-0.423058980943282,0.10039707543079,ST
7.33333333333333,-3.97705268859863,-0.355296939611435,8.68802642822266,0.304879993200302,-2.42379593849182,-2.69056582450867,-3149.10009765625,89.7000045776367,-2142.90014648438,2.3369236587304,-0.424547721763729,0.0424024642377091,ST
7.36666666666667,-3.54280090332031,-0.851157426834106,7.89369297027588,0.609759986400604,-3.05642199516296,-1.82165801525116,-3151.50024414062,98.7000045776367,-2145.30004882812,2.38221024660371,-0.414071606487442,0.107464749185749,ST
7.4,-4.59613037109375,-0.665134966373444,9.12347507476807,-0.228659987449646,-2.54574799537659,-0.87652999162674,-3146.7001953125,92.7000045776367,-2135.7001953125,2.37409631333356,-0.461042507504254,0.0737776761882627,ST
7.43333333333333,-4.45377254486084,-0.751267552375793,9.23114013671875,-0.190549999475479,-2.56099200248718,0.556405961513519,-3165.90014648438,85.5,-2130.90014648438,2.36837886812512,-0.443866120618582,0.0809025853660173,ST
7.46666666666667,-4.09608316421509,-0.717771589756012,8.381178855896,0.335367977619171,-1.60824191570282,1.05945801734924,-3158.7001953125,95.1000061035156,-2140.5,2.35833666668438,-0.450503366984148,0.0838396511075208,ST
7.5,-3.94654726982117,-0.866709172725677,9.81791877746582,0.381099998950958,-0.632625997066498,0.701223969459534,-3170.7001953125,92.1000061035156,-2133.30004882812,2.35320815463782,-0.379895426141276,0.0868581650532779,ST
7.53333333333333,-3.44949054718018,-0.987534046173096,9.20063495635986,0.861285984516144,-1.265251994133,0.243903994560242,-3170.7001953125,93.9000015258789,-2138.10009765625,2.35925183607911,-0.354678367161831,0.105170612382048,ST
7.56666666666667,-3.61218547821045,-0.701023578643799,8.64196968078613,0.899396002292633,-1.27287399768829,-0.213415995240211,-3165.90014648438,93.9000015258789,-2138.10009765625,2.35491005846281,-0.392489274725487,0.0794594516845302,ST
7.6,-3.62295198440552,-0.902597725391388,7.83148574829102,1.29574000835419,0.533540010452271,-0.0990860015153885,-3187.50024414062,98.1000061035156,-2147.7001953125,2.37695456173277,-0.431687890890603,0.11260957734281,ST
7.63333333333333,-3.85084438323975,-0.913962483406067,9.12227821350098,0.304879993200302,1.04421401023865,-0.205793991684914,-3170.7001953125,98.1000061035156,-2133.30004882812,2.37649639554437,-0.399442052785755,0.0995555882417583,ST
7.66666666666667,-4.31500339508057,-0.922336459159851,9.74673938751221,0.236281991004944,0.419209986925125,-0.365855991840363,-3163.50024414062,94.5,-2126.10009765625,2.37974800839551,-0.415792462131395,0.0942497660370226,ST
7.7,-3.69592547416687,-0.878672003746033,9.05708122253418,0.419209986925125,0.0228659994900227,0.114329993724823,-3168.30004882812,97.5000076293945,-2140.5,2.38104128008653,-0.385877185388023,0.0959009516907751,ST
7.73333333333333,-3.46324777603149,-0.968991637229919,8.68862438201904,0.655492007732391,0.769822001457214,0.541162014007568,-3165.90014648438,88.5,-2140.5,2.38407827127783,-0.378615758971591,0.109602452484698,ST
7.76666666666667,-3.91006064414978,-0.853550016880035,8.50320053100586,0.815553963184357,1.04421401023865,0.647870004177094,-3170.7001953125,92.1000061035156,-2150.10009765625,2.37776168039245,-0.431009897049476,0.0981915663950833,ST
7.8,-3.91544389724731,-0.885251581668854,8.64615631103516,0.6250039935112,1.27287399768829,1.08232402801514,-3170.7001953125,96.3000030517578,-2128.5,2.37075977108728,-0.425668957901647,0.100190728905518,ST
7.83333333333333,-3.76650619506836,-0.933103024959564,8.28547668457031,0.655492007732391,0.78506600856781,1.29574000835419,-3180.30004882812,89.7000045776367,-2138.10009765625,2.36475574180211,-0.425907381197749,0.110050778506761,ST
7.86666666666667,-4.10804605484009,-0.968393445014954,8.72870063781738,0.548784017562866,0.0762199983000755,0.78506600856781,-3161.10009765625,93.3000030517578,-2140.5,2.35888293446658,-0.437807737752637,0.108903730976515,ST
7.9,-3.04095888137817,-1.42597281932831,7.92659044265747,0.807931959629059,-0.190549999475479,0.472563982009888,-3149.10009765625,93.3000030517578,-2145.30004882812,2.38312261201662,-0.3608734309078,0.176233127006292,ST
7.93333333333333,-4.10684967041016,-1.34522354602814,8.79210376739502,0.3125019967556,0.0,-0.3125019967556,-3158.7001953125,96.3000030517578,-2140.5,2.37885757031443,-0.432479055083215,0.151532044706651,ST
7.96666666666667,-3.72882318496704,-1.25251138210297,9.27719783782959,0.602137982845306,-0.167683988809586,0.46494197845459,-3158.7001953125,99.9000015258789,-2140.5,2.36893588562919,-0.378893150167788,0.132817541553972,ST
8.0,-3.81854462623596,-1.38948607444763,8.79150581359863,0.525918006896973,-1.18903195858002,0.632625997066498,-3168.30004882812,92.1000061035156,-2138.10009765625,2.37129376719213,-0.403382902602655,0.155223000349625,ST
8.03333333333333,-3.43692946434021,-1.7124832868576,9.01222038269043,0.0228659994900227,-0.632625997066498,0.419209986925125,-3165.90014648438,96.3000030517578,-2133.30004882812,2.37714746952709,-0.357529557379489,0.187389541218679,ST
8.06666666666667,-3.58885788917542,-1.51090919971466,8.25317668914795,0.274392008781433,-0.419209986925125,-0.259148001670837,-3153.90014648438,92.1000061035156,-2138.10009765625,2.37798322577065,-0.403377267973536,0.180720944925602,ST
8.1,-4.24262809753418,-0.911569893360138,8.0952672958374,0.632625997066498,0.762199997901917,-0.129574000835419,-3161.10009765625,96.9000015258789,-2147.7001953125,2.35375677464122,-0.481417061361117,0.111247825080805,ST
8.13333333333333,-4.56323289871216,-0.890634894371033,8.05997657775879,0.92988395690918,1.96647596359253,0.46494197845459,-3151.50024414062,93.9000015258789,-2126.10009765625,2.35502966063873,-0.516056416063412,0.108188717646884,ST
8.16666666666667,-4.04105377197266,-1.32309222221375,8.52951908111572,0.419209986925125,1.34909391403198,0.0609759986400604,-3158.7001953125,93.3000030517578,-2140.5,2.37930182434814,-0.440232730495071,0.153267256691258,ST
8.2,-5.11053371429443,-1.0796480178833,9.13065242767334,1.13567793369293,1.52439999580383,-0.525918006896973,-3144.30004882812,93.3000030517578,-2145.30004882812,2.37584853861035,-0.509828351415097,0.116412375423335,ST
8.23333333333333,-4.49085760116577,-0.925925314426422,9.79638576507568,2.17227005958557,0.0685980021953583,0.106707997620106,-3146.7001953125,90.9000015258789,-2140.5,2.37371260057826,-0.428317557366364,0.0903749203403299,ST
8.26666666666667,-4.09847545623779,-0.709397554397583,8.69580268859863,3.12502002716064,-1.16616594791412,0.182927995920181,-3149.10009765625,96.9000015258789,-2135.7001953125,2.37991147807925,-0.437158682195048,0.0757236509064097,ST
8.3,-3.99499678611755,-0.346922934055328,8.17481994628906,3.14788603782654,-0.0533539988100529,-0.304879993200302,-3153.90014648438,96.3000030517578,-2142.90014648438,2.38397995763083,-0.454098202640373,0.0371812092939797,ST
8.33333333333333,-4.16965484619141,-0.269762486219406,8.2023344039917,2.42379593849182,0.37347799539566,-0.693601965904236,-3163.50024414062,99.3000030517578,-2138.10009765625,2.4008971558159,-0.470701082152497,0.0292748354253543,ST
8.36666666666667,-3.87656450271606,-0.623264968395233,8.53191089630127,1.73019397258759,0.792688012123108,-0.617381989955902,-3158.7001953125,84.9000015258789,-2150.10009765625,2.43408808350107,-0.42679322700094,0.0704232615844587,ST
8.4,-3.65106463432312,-0.0717771574854851,8.21609210968018,1.38720393180847,-0.175305992364883,-0.304879993200302,-3158.7001953125,81.9000015258789,-2152.5,2.41758986810705,-0.417850497789956,0.0065710791348724,ST
8.43333333333333,-4.25758171081543,-0.544908225536346,9.02298641204834,0.853663980960846,-0.586893975734711,-0.967993974685669,-3158.7001953125,89.1000061035156,-2138.10009765625,2.45523613294523,-0.439055697079484,0.0595856884198422,ST
8.46666666666667,-4.57220506668091,-0.496458679437637,9.5146598815918,0.449698001146317,-0.175305992364883,-0.792688012123108,-3158.7001953125,84.3000030517578,-2142.90014648438,2.46297673999581,-0.447051855864169,0.0520022614356127,ST
8.5,-3.68456077575684,-0.45937380194664,9.64804649353027,0.396344006061554,-1.03659200668335,-0.46494197845459,-3151.50024414062,85.5,-2147.7001953125,2.46719318119268,-0.362609127166427,0.0471621007710818,ST
8.53333333333333,-3.32148790359497,-0.675901532173157,7.59641551971436,1.63110792636871,-0.990859985351562,0.0457319989800453,-3163.50024414062,89.1000061035156,-2140.5,2.48777043185725,-0.409020440554243,0.085781667606281,ST
8.56666666666667,-3.43633127212524,-0.0753660127520561,8.91891002655029,0.762199997901917,-0.0762199983000755,0.236281991004944,-3156.30004882812,88.5,-2145.30004882812,2.45858033764559,-0.367630319273743,0.0069861061098926,ST
8.6,-3.50272512435913,0.142956167459488,8.84593677520752,1.2500079870224,-1.79117000102997,0.647870004177094,-3153.90014648438,83.7000045776367,-2138.10009765625,2.44779342296489,-0.37383549883166,-0.0187582921817674,ST
8.63333333333333,-3.4853789806366,0.566441416740417,7.47738552093506,0.381099998950958,-1.76068198680878,2.18751406669617,-3163.50024414062,87.3000030517578,-2145.30004882812,2.4047256648222,-0.431707236913974,-0.077900770419898,ST
8.66666666666667,-3.79521703720093,0.264977335929871,8.26872825622559,-0.533540010452271,-0.861285984516144,2.53812599182129,-3177.90014648438,87.3000030517578,-2157.30004882812,2.39463134391308,-0.42845693870663,-0.0331184791447074,ST
8.7,-4.71695566177368,0.361876487731934,9.85679817199707,-1.34909391403198,-0.571649968624115,3.02593398094177,-3165.90014648438,85.5,-2133.30004882812,2.35512640390989,-0.444879501629893,-0.036838929992044,ST
8.73333333333333,-4.70379638671875,0.269164323806763,9.72700119018555,-1.16616594791412,-1.17378795146942,3.05642199516296,-3182.7001953125,90.9000015258789,-2145.30004882812,2.31829661053914,-0.448077135754033,-0.0281659984655058,ST
8.76666666666667,-3.10914707183838,0.253014475107193,9.13962459564209,-1.44055795669556,-1.99696397781372,3.32319188117981,-3177.90014648438,87.9000015258789,-2142.90014648438,2.2776966109514,-0.324185077504654,-0.0270801022799161,ST
8.8,-3.68695330619812,-0.322997212409973,7.83447647094727,-1.03659200668335,-2.19513607025146,1.44055795669556,-3180.30004882812,93.3000030517578,-2145.30004882812,2.28130548237595,-0.435786603599513,0.0417578709475995,ST
8.83333333333333,-3.84247040748596,-0.468345940113068,8.76997184753418,-1.61586391925812,0.586893975734711,1.44055795669556,-3175.50024414062,93.9000015258789,-2135.7001953125,2.26308425605828,-0.41358923608228,0.0550925135319141,ST
8.86666666666667,-3.44051837921143,-0.583189368247986,9.05409049987793,-0.990859985351562,-0.144817993044853,0.701223969459534,-3170.7001953125,86.1000061035156,-2133.30004882812,2.25460444289557,-0.362294109912277,0.0655811390136589,ST
8.9,-3.66601824760437,-0.288903057575226,8.36622619628906,-0.282013982534409,-1.15092194080353,0.983237981796265,-3173.10009765625,92.1000061035156,-2133.30004882812,2.23061792604852,-0.410807821224254,0.0342442320853565,ST
8.93333333333333,-4.12120485305786,-0.398961365222931,9.06605339050293,-0.556405961513519,-0.541162014007568,0.899396002292633,-3173.10009765625,90.3000030517578,-2135.7001953125,2.22235343903665,-0.425408830821013,0.0442162575038285,ST
8.96666666666667,-4.33474206924438,-0.61249840259552,9.71623420715332,-0.724089980125427,0.731711983680725,0.739333987236023,-3173.10009765625,90.3000030517578,-2135.7001953125,2.21963630056173,-0.420255217116722,0.0636730909718473,ST
9.0,-3.32627296447754,-0.504234552383423,9.20542049407959,-1.05183601379395,0.442075997591019,0.983237981796265,-3177.90014648438,86.7000045776367,-2135.7001953125,2.20174739296742,-0.347145992512934,0.055953749611387,ST
9.03333333333333,-3.52186584472656,-0.593357801437378,9.10852146148682,-1.12805593013763,-1.41769194602966,0.160062000155449,-3185.10009765625,92.1000061035156,-2150.10009765625,2.19777415104107,-0.36578571388781,0.0668497514490303,ST
9.06666666666667,-3.38010597229004,-0.760239720344543,9.13962459564209,-0.670735955238342,-0.746955990791321,1.22714197635651,-3182.7001953125,91.5,-2150.10009765625,2.18701520571128,-0.351993555390954,0.083331099088384,ST
9.1,-3.55895066261292,-0.745884299278259,9.55294132232666,-0.6250039935112,-0.510673999786377,0.92988395690918,-3168.30004882812,92.1000061035156,-2142.90014648438,2.17196068225761,-0.354865976837696,0.0783877547563909,ST
9.13333333333333,-1.9989937543869,-0.364867210388184,6.77456712722778,0.137196004390717,-1.91312193870544,1.70732796192169,-3173.10009765625,93.9000015258789,-2135.7001953125,2.14436306714145,-0.283384265771061,0.052655847187297,ST
9.16666666666667,-3.96867871284485,-0.385204076766968,7.70228719711304,0.289635986089706,1.19665396213531,0.960371971130371,-3170.7001953125,87.9000015258789,-2133.30004882812,2.13477114748011,-0.477392288072054,0.0486539546560916,ST
9.2,-3.53023982048035,-1.15621042251587,9.83047962188721,-0.724089980125427,0.87652999162674,0.670735955238342,-3175.50024414062,88.5,-2140.5,2.15338604959307,-0.344291174521118,0.117965562134128,ST
9.23333333333333,-3.40283536911011,-1.11792922019958,9.52542686462402,-0.87652999162674,-1.46342396736145,0.449698001146317,-3175.50024414062,93.9000015258789,-2135.7001953125,2.14330665546303,-0.338504295947071,0.117978765368335,ST
9.26666666666667,-2.65096974372864,-1.35957896709442,8.90814304351807,-0.868907988071442,-3.08691000938416,0.0533539988100529,-3170.7001953125,92.1000061035156,-2133.30004882812,2.1454397216298,-0.280819980301966,0.152697288142119,ST
9.3,-3.99021172523499,-1.4020471572876,9.21558856964111,-0.0228659994900227,-0.846041977405548,-0.121951997280121,-3192.30004882812,90.3000030517578,-2138.10009765625,2.14468756530166,-0.402950996650574,0.151016041103099,ST
9.33333333333333,-4.33474206924438,-1.35359752178192,8.65094184875488,0.0609759986400604,1.09756803512573,-0.106707997620106,-3182.7001953125,89.1000061035156,-2140.5,2.14994264741577,-0.461534404958332,0.155341499898265,ST
9.36666666666667,-3.50990295410156,-1.52765715122223,8.75202751159668,-0.663114011287689,2.46190595626831,-0.289635986089706,-3177.90014648438,90.3000030517578,-2138.10009765625,2.16234546964446,-0.380416857153707,0.17445396742747,ST
9.4,-3.18690586090088,-1.21722090244293,8.74185943603516,-0.952749967575073,-0.365855991840363,-0.335367977619171,-3168.30004882812,90.9000015258789,-2145.30004882812,2.14942294381312,-0.345803699048826,0.140202167071508,ST
9.43333333333333,-4.48667049407959,-0.783567309379578,8.51037788391113,0.6250039935112,-0.640248000621796,0.137196004390717,-3180.30004882812,93.9000015258789,-2133.30004882812,2.13061445557721,-0.482315235214875,0.0905533755275166,ST
9.46666666666667,-4.04464292526245,-0.884055316448212,8.08629512786865,0.807931959629059,1.41769194602966,0.731711983680725,-3175.50024414062,92.1000061035156,-2130.90014648438,2.13632316910972,-0.464026298872448,0.106978819288097,ST
9.5,-3.99080991744995,-0.492271661758423,8.95778942108154,0.388722002506256,1.31098401546478,0.754577994346619,-3165.90014648438,95.1000061035156,-2130.90014648438,2.10831650544591,-0.420926306290131,0.053705614367724,ST
9.53333333333333,-4.75164794921875,-0.355296939611435,10.1373271942139,0.289635986089706,-0.0685980021953583,0.769822001457214,-3170.7001953125,96.3000030517578,-2133.30004882812,2.09341475906585,-0.438003100365876,0.0339043868824748,ST
9.56666666666667,-3.24851441383362,-0.698032855987549,8.632399559021,0.160062000155449,-0.78506600856781,1.13567793369293,-3182.7001953125,92.1000061035156,-2130.90014648438,2.09902790929584,-0.357669997014228,0.0796122783351797,ST
9.6,-3.28858995437622,-0.711192011833191,8.17781066894531,-0.0685980021953583,-1.18140995502472,0.0914639979600906,-3182.7001953125,97.5000076293945,-2140.5,2.09924239370998,-0.37899639358224,0.0867306891695241,ST
9.63333333333333,-3.36036729812622,-0.899607002735138,8.90754508972168,-0.0381099991500378,0.0228659994900227,-0.335367977619171,-3173.10009765625,94.5,-2142.90014648438,2.10793446624178,-0.359054567412644,0.100935687394021,ST
9.66666666666667,-3.52485656738281,-0.747678697109222,9.7658805847168,-0.236281991004944,-1.36433792114258,-0.914639949798584,-3170.7001953125,98.7000045776367,-2135.7001953125,2.10782075431209,-0.342958321229464,0.0773328880701319,ST
9.7,-2.93269491195679,-0.488084673881531,8.72511196136475,0.0990860015153885,-2.83538389205933,-0.289635986089706,-3175.50024414062,96.3000030517578,-2142.90014648438,2.10267753105374,-0.318820040504994,0.0557872489721413,ST
9.73333333333333,-2.58936095237732,-0.725547432899475,8.6981954574585,0.221037998795509,-1.82165801525116,0.487807989120483,-3170.7001953125,96.3000030517578,-2128.5,2.10441018430764,-0.285301745534476,0.082499881451965,ST
9.76666666666667,-2.60132384300232,-0.803305983543396,8.80645942687988,0.0533539988100529,-1.69970595836639,0.0914639979600906,-3163.50024414062,97.5000076293945,-2142.90014648438,2.10420663363467,-0.283157566756129,0.090745539243393,ST
9.8,-3.03079032897949,-0.947458446025848,9.11569881439209,-0.0304879993200302,-1.02134799957275,-0.25152599811554,-3180.30004882812,96.9000015258789,-2140.5,2.10953874846958,-0.317547773286417,0.103696910106713,ST
9.83333333333333,-2.4416196346283,-1.20166921615601,9.92857551574707,-0.769822001457214,-1.35671591758728,-0.548784017562866,-3185.10009765625,92.7000045776367,-2133.30004882812,2.11689474388894,-0.236994027465378,0.121948378277664,ST
9.86666666666667,-3.17613911628723,-1.07366669178009,9.13842868804932,0.144817993044853,-1.98171997070312,-0.586893975734711,-3170.7001953125,90.3000030517578,-2138.10009765625,2.11984087321125,-0.328793018629998,0.116911219687712,ST
9.9,-3.60261511802673,-0.355296939611435,10.0846900939941,-0.922261953353882,-1.35671591758728,-0.403965979814529,-3192.30004882812,94.5,-2142.90014648438,2.09372449254203,-0.340514773607678,0.0370731720095237,ST
9.93333333333333,-2.81844973564148,-0.931308627128601,8.06595802307129,0.297257989645004,0.983237981796265,0.449698001146317,-3199.50024414062,93.9000015258789,-2142.90014648438,2.1166867922113,-0.335902316886469,0.114204647964794,ST
9.96666666666667,-3.11572670936584,-0.678892254829407,8.40749740600586,-0.121951997280121,2.28659987449646,0.266770005226135,-3180.30004882812,83.7000045776367,-2138.10009765625,2.10393876999919,-0.357852985178406,0.0807375261015177,ST
10.0,-3.39505958557129,-1.40982294082642,9.22635555267334,-0.0762199983000755,2.63721203804016,-0.388722002506256,-3180.30004882812,92.1000061035156,-2135.7001953125,2.13670811054434,-0.353321861954583,0.152244011724042,ST
10.0333333333333,-3.58347463607788,-0.723154842853546,9.94293022155762,-0.304879993200302,0.114329993724823,-0.411587983369827,-3170.7001953125,96.3000030517578,-2130.90014648438,2.11307516971456,-0.345222269201355,0.0734238130529547,ST
10.0666666666667,-4.20614147186279,-0.209350034594536,7.22138023376465,0.891773998737335,1.31098401546478,0.472563982009888,-3185.10009765625,90.9000015258789,-2145.30004882812,2.09402432875506,-0.529514317010518,0.0269911910671167,ST
10.1,-3.9477436542511,-1.12510693073273,8.79808521270752,-0.0228659994900227,4.05490398406982,0.647870004177094,-3170.7001953125,95.7000045776367,-2130.90014648438,2.13800455564269,-0.425944722767275,0.127105376262107,ST
10.1333333333333,-3.50751042366028,-1.23396897315979,9.44288349151611,-0.480185985565186,3.04117798805237,0.213415995240211,-3182.7001953125,98.7000045776367,-2130.90014648438,2.13943810931004,-0.358229375074493,0.130896894661246,ST
10.1666666666667,-2.64199757575989,-1.17654716968536,9.67496299743652,-0.853663980960846,-0.663114011287689,-0.274392008781433,-3163.50024414062,96.9000015258789,-2142.90014648438,2.13631312255227,-0.263541540319746,0.122596339224462,ST
10.2,-3.24552369117737,-1.07546103000641,7.86019659042358,0.0762199983000755,-0.716467976570129,-0.213415995240211,-3170.7001953125,92.7000045776367,-2126.10009765625,2.1421994908456,-0.387002053785879,0.135924081476981,ST
10.2333333333333,-3.87536835670471,-0.650181412696838,8.02169513702393,0.952749967575073,1.71494996547699,0.708845973014832,-3170.7001953125,96.3000030517578,-2123.7001953125,2.1177920190473,-0.451824975570855,0.0787517242126123,ST
10.2666666666667,-3.14443755149841,-1.39905643463135,8.80286979675293,1.06708002090454,3.73477983474731,0.952749967575073,-3173.10009765625,90.9000015258789,-2135.7001953125,2.14762003039353,-0.345881569513878,0.155503600556204,ST
10.3,-3.10795092582703,-1.36615860462189,9.77485275268555,0.480185985565186,2.20275783538818,0.564027965068817,-3151.50024414062,94.5,-2130.90014648438,2.14092952026261,-0.309019366987262,0.137889384018087,ST
10.3333333333333,-3.20365381240845,-1.38051402568817,9.61873722076416,0.899396002292633,-1.29574000835419,0.67835795879364,-3153.90014648438,96.9000015258789,-2135.7001953125,2.13560405046703,-0.316388720925392,0.140490481504076,ST
10.3666666666667,-2.72155046463013,-1.41999137401581,7.99896574020386,0.99848198890686,-2.4923939704895,0.594515979290009,-3158.7001953125,93.3000030517578,-2135.7001953125,2.13849541108099,-0.319143870884205,0.173349077886404,ST
10.4,-4.4083137512207,-1.56653642654419,9.09057712554932,0.914639949798584,0.724089980125427,0.167683988809586,-3151.50024414062,90.9000015258789,-2154.90014648438,2.14079581561529,-0.447055261541717,0.169018783520744,ST
10.4333333333333,-3.83947968482971,-1.38649535179138,9.44467735290527,-0.129574000835419,-0.167683988809586,-0.449698001146317,-3158.7001953125,95.7000045776367,-2142.90014648438,2.13601771522614,-0.382014421981308,0.146283862575908,ST
10.4666666666667,-3.69054222106934,-1.34881234169006,6.97913217544556,1.51677799224854,0.853663980960846,0.594515979290009,-3163.50024414062,87.3000030517578,-2135.7001953125,2.15685832594818,-0.48050786202351,0.187864160610051,ST
10.5,-4.29526472091675,-1.05392789840698,7.67656707763672,1.21951997280121,2.69818782806396,0.472563982009888,-3168.30004882812,87.9000015258789,-2140.5,2.13728958732594,-0.510929405943586,0.134229161732409,ST
10.5333333333333,-5.52564477920532,-0.933701157569885,8.87763786315918,1.28049600124359,2.55336999893188,-0.0076219998300075,-3139.50024414062,94.5,-2133.30004882812,2.13179188515761,-0.558695694552842,0.102864537705112,ST
10.5666666666667,-5.84804391860962,-1.13467717170715,10.4968109130859,0.823175966739655,2.56861400604248,0.800309956073761,-3158.7001953125,93.3000030517578,-2135.7001953125,2.13264927838151,-0.510446793375502,0.105734141508209,ST
10.6,-4.37481784820557,-1.13527536392212,10.9537925720215,0.106707997620106,-0.579271972179413,0.891773998737335,-3144.30004882812,90.3000030517578,-2121.30004882812,2.12138563796586,-0.377328766850703,0.102432653027303,ST
10.6333333333333,-3.44829416275024,-0.931906759738922,6.97614145278931,0.853663980960846,-2.40092992782593,0.548784017562866,-3146.7001953125,92.7000045776367,-2135.7001953125,2.12769158169596,-0.451533143678038,0.130575392809551,ST
10.6666666666667,-3.56373572349548,-1.09938681125641,7.58146238327026,0.327746003866196,0.503051996231079,-0.121951997280121,-3161.10009765625,96.3000030517578,-2130.90014648438,2.13699105216749,-0.436259129766358,0.143587848287721,ST
10.7,-2.01514363288879,-1.00846910476685,8.35127258300781,0.0228659994900227,-1.02897000312805,0.564027965068817,-3146.7001953125,92.7000045776367,-2138.10009765625,2.12162168976093,-0.233528996843028,0.11985748698307,ST
10.7333333333333,-3.77667474746704,-0.51440292596817,7.8859167098999,1.61586391925812,-0.983237981796265,1.28049600124359,-3161.10009765625,95.1000061035156,-2140.5,2.09523534631733,-0.444167058879165,0.0612254441005147,ST
10.7666666666667,-4.15828990936279,-0.689060688018799,8.62582015991211,1.19665396213531,0.114329993724823,1.63872992992401,-3144.30004882812,90.3000030517578,-2154.90014648438,2.09014882969229,-0.448380254283627,0.0762590979147923,ST
10.8,-5.33184623718262,-0.719565987586975,9.2939453125,0.556405961513519,2.19513607025146,1.00610399246216,-3165.90014648438,87.3000030517578,-2138.10009765625,2.08404741135683,-0.523504024689454,0.075458137458912,ST
10.8333333333333,-5.33364105224609,-0.568235814571381,9.82928371429443,-0.121951997280121,1.77592599391937,0.67835795879364,-3156.30004882812,90.3000030517578,-2133.30004882812,2.06878279877334,-0.499636837315008,0.0574173936997032,ST
10.8666666666667,-4.0715594291687,-0.920542061328888,9.66000938415527,-0.6250039935112,0.533540010452271,0.67835795879364,-3144.30004882812,86.7000045776367,-2130.90014648438,2.07588339282693,-0.398349038234302,0.0956266568225695,ST
10.9,-2.86390852928162,-0.767417430877686,8.15029621124268,-0.396344006061554,-2.74391984939575,-0.304879993200302,-3156.30004882812,89.1000061035156,-2140.5,2.07446796611467,-0.33173628657017,0.0946013160856637,ST
10.9333333333333,-3.07804369926453,-0.186022460460663,7.28777408599854,-0.0,-2.52288198471069,-0.388722002506256,-3141.90014648438,96.3000030517578,-2135.7001953125,2.05324019790514,-0.395078576453682,0.0257730412768371,ST
10.9666666666667,-3.54160451889038,-0.0137572884559631,8.23882102966309,0.266770005226135,-0.457319974899292,0.259148001670837,-3161.10009765625,86.1000061035156,-2135.7001953125,2.04198634242815,-0.405185961381923,0.0010157596636597,ST
11.0,-3.80837631225586,-0.359483927488327,8.97035026550293,0.419209986925125,-0.0381099991500378,1.13567793369293,-3153.90014648438,95.7000045776367,-2142.90014648438,2.04652287709656,-0.401213656822349,0.0384678516676231,ST
11.0333333333333,-4.65235614776611,-0.0484495796263218,9.21379470825195,0.106707997620106,-0.487807989120483,1.2500079870224,-3161.10009765625,92.1000061035156,-2140.5,2.01920670821031,-0.466722884526106,0.0039797009873434,ST
11.0666666666667,-4.07574605941772,-0.141759887337685,10.2073097229004,-0.442075997591019,-0.426831990480423,1.19665396213531,-3163.50024414062,92.1000061035156,-2135.7001953125,2.00852274364083,-0.379179665071268,0.0138187937737438,ST
11.1,-3.83290004730225,-0.364269077777863,8.17661476135254,0.525918006896973,-1.73019397258759,1.08232402801514,-3153.90014648438,88.5,-2142.90014648438,2.01042302679671,-0.435012429228667,0.0426537320728548,ST
11.1333333333333,-3.16058754920959,-0.714780867099762,8.69520473480225,-0.685979962348938,-0.0304879993200302,0.78506600856781,-3151.50024414062,92.1000061035156,-2142.90014648438,2.01345420701158,-0.347630428660134,0.0827151546942078,ST
11.1666666666667,-3.58825969696045,-0.52337509393692,8.44996547698975,-0.411587983369827,-0.632625997066498,-0.320124000310898,-3163.50024414062,90.3000030517578,-2128.5,2.00732548542241,-0.399729828571044,0.062790971881262,ST
11.2,-4.47889471054077,-0.278136491775513,7.82849502563477,0.670735955238342,1.59299790859222,0.617381989955902,-3170.7001953125,92.7000045776367,-2138.10009765625,1.99232503760703,-0.522204625913553,0.0337832314956765,ST
11.2333333333333,-4.6409912109375,-0.62147057056427,8.70955944061279,0.815553963184357,2.30184388160706,0.37347799539566,-3173.10009765625,88.5,-2142.90014648438,2.01193312328464,-0.492600621528162,0.0696036558274089,ST
11.2666666666667,-5.12488889694214,-0.772800743579865,9.68513107299805,0.533540010452271,1.79879200458527,-0.0457319989800453,-3163.50024414062,96.9000015258789,-2138.10009765625,2.02135312236903,-0.488508518226153,0.0788659272094107,ST
11.3,-4.01473569869995,-0.492271661758423,8.47508811950684,0.152439996600151,-0.602137982845306,0.160062000155449,-3156.30004882812,94.5,-2140.5,2.01039441861317,-0.440715821679156,0.0575950104694191,ST
11.3333333333333,-3.56194138526917,-0.82364284992218,8.66290473937988,-0.213415995240211,-1.17378795146942,-0.0152439996600151,-3168.30004882812,92.1000061035156,-2140.5,2.02339176798648,-0.386485247706915,0.0950914999609805,ST
11.3666666666667,-3.00925731658936,-0.90977543592453,8.05638790130615,0.609759986400604,-2.39330792427063,0.25152599811554,-3151.50024414062,93.3000030517578,-2126.10009765625,2.02609799261492,-0.351313743955486,0.111048393665172,ST
11.4,-3.56433391571045,-0.980954468250275,8.20532512664795,0.823175966739655,-1.11281192302704,0.0914639979600906,-3163.50024414062,87.3000030517578,-2135.7001953125,2.02977105524903,-0.405285061280759,0.117380380801902,ST
11.4333333333333,-3.15400791168213,-0.864316582679749,8.55344486236572,0.236281991004944,-1.55488801002502,0.175305992364883,-3170.7001953125,95.7000045776367,-2130.90014648438,2.02075837502412,-0.348975782577951,0.100090201257218,ST
11.4666666666667,-3.6253445148468,-1.00188946723938,8.2741117477417,0.0533539988100529,-0.960371971130371,0.480185985565186,-3168.30004882812,96.3000030517578,-2138.10009765625,2.02210379979247,-0.408707872615149,0.119953249158808,ST
11.5,-4.09548473358154,-1.27225005626678,9.34837627410889,-0.304879993200302,0.396344006061554,0.137196004390717,-3165.90014648438,92.1000061035156,-2128.5,2.02589872631934,-0.41026591502977,0.135729558490457,ST
11.5333333333333,-3.45487380027771,-1.30873680114746,9.54157638549805,-0.46494197845459,-1.2347639799118,-0.0076219998300075,-3158.7001953125,87.9000015258789,-2142.90014648438,2.02257515945249,-0.342304382765872,0.137022435446472,ST
11.5666666666667,-3.71985125541687,-1.15800476074219,8.27530765533447,1.01372599601746,-0.777444005012512,0.0990860015153885,-3163.50024414062,92.7000045776367,-2130.90014648438,2.02506019411646,-0.417489018831423,0.137103321329067,ST
11.6,-3.59424114227295,-1.04375946521759,8.48585414886475,0.487807989120483,-0.350611984729767,-0.221037998795509,-3168.30004882812,89.7000045776367,-2138.10009765625,2.02300206778959,-0.397310911672388,0.121668275277138,ST
11.6333333333333,-4.51538133621216,-0.82663357257843,9.10254001617432,0.0990860015153885,0.937505960464478,0.304879993200302,-3175.50024414062,95.1000061035156,-2128.5,2.00796668476896,-0.460527120866592,0.0902058246517144,ST
11.6666666666667,-4.10027027130127,-0.907382905483246,8.96436882019043,-0.0,0.594515979290009,0.685979962348938,-3163.50024414062,83.7000045776367,-2133.30004882812,2.00581738980835,-0.42822616194067,0.100378018379385,ST
11.7,-3.91843461990356,-1.11673295497894,9.15039157867432,0.205793991684914,0.541162014007568,0.655492007732391,-3163.50024414062,95.1000061035156,-2138.10009765625,2.00808406779399,-0.403009517391055,0.120645021321934,ST
11.7333333333333,-4.02789497375488,-0.728538155555725,8.49542427062988,0.586893975734711,-0.403965979814529,0.0304879993200302,-3165.90014648438,93.3000030517578,-2135.7001953125,1.99555398542142,-0.440613172333879,0.0844761587617549,ST
11.7666666666667,-4.13316774368286,-0.708799421787262,8.381178855896,0.92988395690918,0.769822001457214,0.0228659994900227,-3158.7001953125,93.3000030517578,-2140.5,1.99995545159328,-0.458076583685825,0.0827834043182391,ST
11.8,-3.35199332237244,-0.444420218467712,7.96905899047852,0.495429992675781,-0.609759986400604,-0.114329993724823,-3151.50024414062,86.7000045776367,-2135.7001953125,1.99148895955266,-0.396552396581182,0.0549134922543384,ST
11.8333333333333,-4.55426073074341,-0.573020994663239,8.19216632843018,0.586893975734711,0.0762199983000755,-0.335367977619171,-3158.7001953125,89.1000061035156,-2130.90014648438,2.00436620722124,-0.506403673310742,0.0691329009555206,ST
11.8666666666667,-4.07813882827759,-0.512608528137207,9.10612869262695,0.0762199983000755,1.05945801734924,0.289635986089706,-3151.50024414062,87.3000030517578,-2140.5,1.99645135120482,-0.422373444224542,0.055924267712277,ST
11.9,-3.76471185684204,-0.565245091915131,9.08280086517334,-0.3125019967556,-0.800309956073761,-0.365855991840363,-3146.7001953125,92.7000045776367,-2138.10009765625,2.00118823812054,-0.390826534223077,0.0629222967012372,ST
11.9333333333333,-3.97047305107117,-0.745286166667938,7.89847803115845,-0.0990860015153885,-0.739333987236023,-0.388722002506256,-3158.7001953125,91.5,-2140.5,2.01711842967825,-0.462647397681328,0.0945179696712355,ST
11.9666666666667,-3.40941500663757,-0.662742435932159,8.70537281036377,-0.78506600856781,-0.274392008781433,-0.304879993200302,-3161.10009765625,86.1000061035156,-2133.30004882812,2.00984548869616,-0.371801105799507,0.0775495245141523,ST
12.0,-3.7192530632019,-0.793137550354004,8.87345123291016,-0.167683988809586,-0.663114011287689,-0.46494197845459,-3158.7001953125,89.7000045776367,-2135.7001953125,2.0179755733147,-0.39425073934684,0.0897282374050824,ST
12.0333333333333,-3.13426923751831,-0.792539417743683,9.75092697143555,-0.556405961513519,-1.6692179441452,0.167683988809586,-3158.7001953125,96.9000015258789,-2135.7001953125,2.00993559588434,-0.307193798809406,0.081906071906128,ST
12.0666666666667,-3.5673246383667,-0.407933503389359,7.95290899276733,0.327746003866196,-2.37044191360474,-0.0914639979600906,-3158.7001953125,98.1000061035156,-2123.7001953125,1.99989923793202,-0.416985531423967,0.0506642115652495,ST
12.1,-3.75514149665833,-0.70162171125412,8.7101583480835,0.297257989645004,0.83841997385025,0.457319974899292,-3177.90014648438,95.7000045776367,-2140.5,2.00868102534433,-0.407395747849738,0.0795575532040438,ST
12.1333333333333,-4.250403881073,-0.56763768196106,9.61455059051514,0.358233988285065,0.830797970294952,0.289635986089706,-3156.30004882812,96.3000030517578,-2133.30004882812,1.99926617127336,-0.417079337611927,0.0581671661508357,ST
12.1666666666667,-4.00695991516113,-0.41451308131218,8.97274303436279,0.381099998950958,-0.640248000621796,0.556405961513519,-3163.50024414062,91.5,-2145.30004882812,1.98955877787177,-0.418528532985085,0.0450488829678743,ST
12.2,-3.84605932235718,-0.446214646100998,8.69101715087891,0.0609759986400604,-1.17378795146942,1.02897000312805,-3163.50024414062,86.1000061035156,-2126.10009765625,1.98053931121463,-0.414185764484889,0.050354198826046,ST
12.2333333333333,-3.97466015815735,-0.605918824672699,8.65752124786377,0.175305992364883,-0.0076219998300075,1.15092194080353,-3163.50024414062,89.1000061035156,-2135.7001953125,1.97580440930073,-0.429591910531398,0.0686468482096197,ST
12.2666666666667,-3.43513512611389,-0.69863098859787,8.47807884216309,-0.342989981174469,0.182927995920181,0.320124000310898,-3173.10009765625,94.5,-2128.5,1.97658145847169,-0.384165711093412,0.0825981167667835,ST
12.3,-3.74437499046326,-1.00906717777252,8.55404281616211,0.0457319989800453,0.78506600856781,-0.167683988809586,-3158.7001953125,89.7000045776367,-2128.5,1.99301721534653,-0.411390009947056,0.117526333340949,ST
12.3333333333333,-4.00935220718384,-0.977963745594025,9.21140193939209,0.0990860015153885,-0.0381099991500378,-0.434453994035721,-3163.50024414062,95.1000061035156,-2130.90014648438,1.99382235950943,-0.408335691338799,0.105924405618515,ST
12.3666666666667,-4.17204713821411,-0.793137550354004,8.38476848602295,0.792688012123108,0.160062000155449,0.0,-3158.7001953125,89.7000045776367,-2135.7001953125,1.99251043415638,-0.460192586661167,0.0929458840970966,ST
12.4,-4.25758171081543,-0.855942606925964,8.48346138000488,0.907018005847931,1.03659200668335,0.388722002506256,-3170.7001953125,91.5,-2140.5,1.9968250650654,-0.464980463327314,0.0987226477454101,ST
12.4333333333333,-4.08651256561279,-1.0054783821106,8.53490161895752,0.823175966739655,1.12043392658234,0.556405961513519,-3161.10009765625,88.5,-2138.10009765625,2.00388018374077,-0.445927231296658,0.115473432262706,ST
12.4666666666667,-4.34790134429932,-1.18133234977722,9.71503829956055,-0.182927995920181,0.602137982845306,0.396344006061554,-3161.10009765625,87.9000015258789,-2128.5,2.00198853259506,-0.419215068787492,0.121072161095865,ST
12.5,-2.91056370735168,-1.04435765743256,8.97035026550293,-0.701223969459534,-2.01220798492432,0.640248000621796,-3153.90014648438,91.5,-2126.10009765625,1.9883326934362,-0.308455826537438,0.116643101543712,ST
12.5333333333333,-3.58646535873413,-0.941477060317993,7.25726890563965,0.510673999786377,-2.05031800270081,0.0228659994900227,-3156.30004882812,89.1000061035156,-2130.90014648438,1.99205218317524,-0.452090418750084,0.127870163306655,ST
12.5666666666667,-3.41479825973511,-1.22798752784729,8.20711994171143,0.449698001146317,1.265251994133,0.548784017562866,-3156.30004882812,96.9000015258789,-2130.90014648438,1.99829354495141,-0.392722985270629,0.147474549456778,ST
12.6,-3.5332305431366,-1.1316864490509,9.0373420715332,0.190549999475479,0.457319974899292,0.0609759986400604,-3158.7001953125,88.5,-2128.5,1.99041863231497,-0.370870032027851,0.124247503862162,ST
12.6333333333333,-3.76411366462708,-0.945065915584564,8.72570991516113,0.381099998950958,-1.6920839548111,0.236281991004944,-3168.30004882812,90.9000015258789,-2126.10009765625,1.98112284725772,-0.402244597144893,0.106918649422288,ST
12.6666666666667,-3.98482847213745,-1.34163463115692,8.9775276184082,0.46494197845459,-0.777444005012512,0.228659987449646,-3158.7001953125,89.1000061035156,-2133.30004882812,1.9956997494239,-0.412375343739558,0.147260448099667,ST
12.7,-3.82392811775208,-1.18910825252533,8.75681304931641,-0.0,-0.342989981174469,-0.0228659994900227,-3170.7001953125,94.5,-2135.7001953125,1.99050677819706,-0.40778403877144,0.134950294380387,ST
12.7333333333333,-3.73301029205322,-1.08204066753387,6.84933519363403,0.236281991004944,0.320124000310898,-0.0228659994900227,-3173.10009765625,94.5,-2138.10009765625,2.0018434070565,-0.494365333807588,0.156330861942607,ST
12.7666666666667,-3.9196310043335,-1.34163463115692,8.51097679138184,-0.106707997620106,1.85976791381836,0.525918006896973,-3149.10009765625,96.3000030517578,-2133.30004882812,1.99893885501445,-0.430309090165446,0.156351176723436,ST
12.8,-3.90527534484863,-1.27823150157928,9.20542049407959,0.121951997280121,-0.0914639979600906,0.426831990480423,-3144.30004882812,92.1000061035156,-2126.10009765625,1.98702380998643,-0.397752004269757,0.137445390812753,ST
12.8333333333333,-3.91903281211853,-0.95463615655899,8.26753234863281,0.67835795879364,-0.0457319989800453,0.419209986925125,-3153.90014648438,96.3000030517578,-2145.30004882812,1.9760622535717,-0.440092542999367,0.11343289871314,ST
12.8666666666667,-4.33892917633057,-0.981552600860596,9.64565372467041,0.670735955238342,1.47104597091675,0.388722002506256,-3153.90014648438,92.7000045776367,-2135.7001953125,1.97117448005229,-0.423419113580512,0.100058742404924,ST
12.9,-4.05301666259766,-0.718369722366333,8.65393257141113,0.579271972179413,1.19665396213531,0.46494197845459,-3151.50024414062,98.1000061035156,-2133.30004882812,1.96246183192405,-0.438829144578964,0.0815176165924835,ST
12.9333333333333,-3.27184200286865,-1.02461886405945,8.03485488891602,0.259148001670837,1.73019397258759,0.663114011287689,-3146.7001953125,100.500007629395,-2133.30004882812,1.97668096642373,-0.387052714451515,0.126058070369857,ST
12.9666666666667,-3.29696416854858,-0.726145565509796,7.94453477859497,0.0609759986400604,-0.533540010452271,0.0609759986400604,-3158.7001953125,93.3000030517578,-2126.10009765625,1.96244609579052,-0.390978851764298,0.0909752611007566,ST
13.0,-4.85572481155396,-0.332567483186722,8.55344486236572,0.503051996231079,0.708845973014832,-0.121951997280121,-3146.7001953125,98.1000061035156,-2135.7001953125,1.94356769405565,-0.517187051027294,0.0381503694301445,ST
13.0333333333333,-4.09608316421509,-0.733921408653259,8.97513484954834,0.594515979290009,2.11891603469849,0.724089980125427,-3153.90014648438,97.5000076293945,-2135.7001953125,1.95979661942783,-0.430707363319501,0.0800998384336976,ST
13.0666666666667,-4.91195011138916,-0.956430613994598,9.55294132232666,0.46494197845459,0.868907988071442,-0.0457319989800453,-3149.10009765625,90.3000030517578,-2142.90014648438,1.97196362857576,-0.474394185375267,0.0990884648861969,ST
13.1,-4.52435350418091,-0.617283523082733,10.2671241760254,0.0228659994900227,-0.0076219998300075,0.243903994560242,-3139.50024414062,90.3000030517578,-2135.7001953125,1.95263580033268,-0.41443009102354,0.0598354182655234,ST
13.1333333333333,-3.2808141708374,-0.556871116161346,9.77425384521484,0.0152439996600151,-2.59148001670837,0.152439996600151,-3144.30004882812,99.3000030517578,-2135.7001953125,1.94831696598202,-0.318884608948806,0.0567133084975914,ST
13.1666666666667,-3.59962439537048,-0.78177285194397,7.08619976043701,0.579271972179413,-2.05031800270081,0.0762199983000755,-3165.90014648438,90.9000015258789,-2130.90014648438,1.96814034724123,-0.463979529219405,0.108586646037259,ST
13.2,-3.14204502105713,-0.952841758728027,8.4230489730835,-0.129574000835419,0.708845973014832,0.777444005012512,-3158.7001953125,90.3000030517578,-2128.5,1.96097741657865,-0.356360813041686,0.112419606836451,ST
13.2333333333333,-4.29167604446411,-0.531749129295349,8.43262004852295,0.342989981174469,-0.129574000835419,0.129574000835419,-3153.90014648438,92.1000061035156,-2130.90014648438,1.94113323194335,-0.469743751545475,0.0622618036753147,ST
13.2666666666667,-4.59672880172729,-0.215331465005875,7.64426708221436,0.579271972179413,0.503051996231079,0.960371971130371,-3158.7001953125,96.3000030517578,-2142.90014648438,1.91763523159994,-0.542120403751084,0.0261689429400559,ST
13.3,-6.14831161499023,-0.491673529148102,9.32684326171875,1.04421401023865,2.02745199203491,0.78506600856781,-3146.7001953125,87.3000030517578,-2147.7001953125,1.93034250091857,-0.585772135337597,0.050052244255409,ST
13.3333333333333,-4.64757108688354,-0.872092425823212,9.41835880279541,-0.350611984729767,1.03659200668335,0.891773998737335,-3151.50024414062,96.9000015258789,-2150.10009765625,1.94142918414707,-0.458696209343084,0.0922469380457316,ST
13.3666666666667,-3.7013087272644,-0.928916037082672,8.08390235900879,-0.754577994346619,-1.20427596569061,0.221037998795509,-3146.7001953125,89.7000045776367,-2135.7001953125,1.94334644765154,-0.424856318913509,0.115439540855322,ST
13.4,-4.7486572265625,-0.573020994663239,9.05409049987793,-0.586893975734711,-1.08232402801514,0.0533539988100529,-3151.50024414062,90.3000030517578,-2138.10009765625,1.91646898523214,-0.480317668140109,0.0641357454666063,ST
13.4333333333333,-3.82751679420471,-0.845176041126251,7.74056816101074,0.297257989645004,-0.403965979814529,0.533540010452271,-3144.30004882812,96.3000030517578,-2133.30004882812,1.93176640907992,-0.456274988009561,0.107731939591152,ST
13.4666666666667,-3.77966547012329,-0.964206457138062,9.41656494140625,-0.198172003030777,0.663114011287689,0.480185985565186,-3146.7001953125,96.3000030517578,-2130.90014648438,1.92425302138467,-0.381161848055345,0.102099690152202,ST
13.5,-3.45786452293396,-0.754258275032043,9.09835243225098,-0.106707997620106,-1.78354799747467,0.0381099991500378,-3149.10009765625,94.5,-2135.7001953125,1.9147040540101,-0.358967114098611,0.0827809565206356,ST
13.5333333333333,-4.17144918441772,-0.848166704177856,7.72382020950317,0.952749967575073,-0.571649968624115,0.137196004390717,-3132.30004882812,97.5000076293945,-2138.10009765625,1.92795220337762,-0.491680455700071,0.107515739834607,ST
13.5666666666667,-2.81366443634033,-1.12391066551208,8.20113849639893,0.236281991004944,0.518296003341675,0.46494197845459,-3158.7001953125,91.5,-2135.7001953125,1.93588490660795,-0.328713848524684,0.135541097966385,ST
13.6,-4.35627508163452,-0.982748925685883,9.69051456451416,0.198172003030777,-1.2576299905777,-0.289635986089706,-3153.90014648438,92.1000061035156,-2152.5,1.92575016128554,-0.41829691902027,0.100859074693026,ST
13.6333333333333,-3.24911260604858,-0.97557121515274,8.17601585388184,0.259148001670837,-2.28659987449646,0.952749967575073,-3158.7001953125,93.9000015258789,-2128.5,1.92031751739688,-0.372086503840405,0.117472757607018,ST
13.6666666666667,-3.8998920917511,-1.06947958469391,7.95829200744629,0.228659987449646,0.640248000621796,0.640248000621796,-3151.50024414062,101.700004577637,-2138.10009765625,1.9215525006596,-0.453363290651962,0.132716290327811,ST
13.7,-4.8916130065918,-1.07665729522705,8.88541412353516,-0.0533539988100529,1.82927989959717,-0.282013982534409,-3141.90014648438,89.7000045776367,-2138.10009765625,1.92133951441468,-0.503271468143343,0.121159131582597,ST
13.7333333333333,-4.28569459915161,-1.27045571804047,9.85919094085693,-0.304879993200302,1.37958192825317,-0.106707997620106,-3161.10009765625,92.1000061035156,-2140.5,1.92627926052403,-0.40944288178185,0.128897200866431,ST
13.7666666666667,-3.2867956161499,-1.08622765541077,8.01272296905518,0.228659987449646,-2.40855193138123,-0.503051996231079,-3163.50024414062,91.5,-2140.5,1.93131210620149,-0.381805015874938,0.134463183821052,ST
13.8,-3.63192415237427,-1.26267981529236,7.50430154800415,0.640248000621796,-1.21951997280121,-0.846041977405548,-3163.50024414062,98.7000045776367,-2152.5,1.95378951326733,-0.442935309615199,0.166093962514553,ST
13.8333333333333,-5.36893129348755,-0.857138872146606,8.81303882598877,1.01372599601746,2.05031800270081,-0.815553963184357,-3163.50024414062,102.300003051758,-2138.10009765625,1.93667270733847,-0.548459607218955,0.0962850643392728,ST
13.8666666666667,-4.04524087905884,-0.695042133331299,8.40989017486572,0.823175966739655,0.533540010452271,0.609759986400604,-3151.50024414062,98.7000045776367,-2138.10009765625,1.92760261054613,-0.448060289105943,0.0805535656973234,ST
13.9,-4.18640279769897,-0.770408153533936,7.73578310012817,0.724089980125427,0.365855991840363,0.762199997901917,-3153.90014648438,101.100006103516,-2142.90014648438,1.93176124591923,-0.494728830431045,0.0973134424321039,ST
13.9333333333333,-4.86230421066284,-1.13826608657837,9.2108039855957,0.213415995240211,0.358233988285065,0.320124000310898,-3151.50024414062,94.5,-2138.10009765625,1.9416500757331,-0.483278972050701,0.122330405561147,ST
13.9666666666667,-4.79112529754639,-0.812278151512146,8.75382232666016,0.304879993200302,0.37347799539566,0.442075997591019,-3158.7001953125,90.3000030517578,-2130.90014648438,1.92465978173606,-0.499694459227536,0.0916152994803816,ST
14.0,-3.89809775352478,-0.988132178783417,8.59232425689697,0.556405961513519,0.769822001457214,0.46494197845459,-3141.90014648438,89.7000045776367,-2130.90014648438,1.93307600553999,-0.424889039206687,0.113225355021661,ST
14.0333333333333,-4.40113592147827,-0.718967854976654,7.49712419509888,1.08232402801514,0.846041977405548,-0.175305992364883,-3151.50024414062,90.9000015258789,-2128.5,1.93294224080569,-0.530248545682064,0.093985254717989,ST
14.0666666666667,-4.11103677749634,-0.973776757717133,9.04870700836182,0.144817993044853,1.38720393180847,-0.0228659994900227,-3149.10009765625,90.3000030517578,-2126.10009765625,1.94169258020085,-0.426695986604482,0.107083883697351,ST
14.1,-2.97037792205811,-0.901999592781067,8.09407043457031,-0.335367977619171,-2.66770005226135,-0.266770005226135,-3144.30004882812,96.3000030517578,-2140.5,1.94170495912338,-0.34507974646426,0.111546423866149,ST
14.1333333333333,-4.00636148452759,-0.369054228067398,8.25856018066406,-0.480185985565186,-2.4923939704895,-0.152439996600151,-3165.90014648438,96.3000030517578,-2128.5,1.91395446829706,-0.446895892829083,0.0455472814854454,ST
14.1666666666667,-4.2204966545105,-0.874485015869141,8.76219654083252,0.716467976570129,0.0228659994900227,0.83841997385025,-3151.50024414062,98.1000061035156,-2135.7001953125,1.93133355853056,-0.447125729015434,0.0975085658115153,ST
14.2,-3.94953799247742,-0.733323276042938,9.2939453125,1.12805593013763,-0.320124000310898,0.37347799539566,-3158.7001953125,88.5,-2133.30004882812,1.92368500665813,-0.400221547475689,0.0764815997711431,ST
14.2333333333333,-3.48478102684021,-0.604124426841736,8.47927474975586,0.724089980125427,-0.975615978240967,0.289635986089706,-3144.30004882812,87.9000015258789,-2138.10009765625,1.92040185875134,-0.387384626526364,0.0696103828093263,ST
14.2666666666667,-4.14273834228516,-0.444420218467712,8.49004173278809,0.0152439996600151,-1.09756803512573,0.228659987449646,-3161.10009765625,98.1000061035156,-2138.10009765625,1.91005254707845,-0.451523585928488,0.0520323355444731,ST
14.3,-4.12838268280029,-0.562852561473846,7.92120742797852,0.289635986089706,0.78506600856781,0.891773998737335,-3158.7001953125,96.3000030517578,-2150.10009765625,1.91094228386498,-0.480882871743632,0.0696664771018366,ST
14.3333333333333,-4.78394746780396,-0.463560789823532,8.99427604675293,0.434453994035721,1.47104597091675,0.67835795879364,-3144.30004882812,84.3000030517578,-2135.7001953125,1.89810043538295,-0.490902368113082,0.0501808265913669,ST
14.3666666666667,-4.3963508605957,-0.766221165657043,9.00205135345459,0.78506600856781,1.20427596569061,0.846041977405548,-3146.7001953125,90.9000015258789,-2133.30004882812,1.90895612231243,-0.455102918577613,0.0829043581262476,ST
14.4,-4.74985313415527,-0.613096535205841,8.1431188583374,0.609759986400604,1.33385002613068,0.480185985565186,-3151.50024414062,87.3000030517578,-2135.7001953125,1.9042950666325,-0.529183404861824,0.0736999176531982,ST
14.4333333333333,-4.19537496566772,-0.97557121515274,8.72152233123779,-0.403965979814529,1.28049600124359,0.182927995920181,-3146.7001953125,96.9000015258789,-2126.10009765625,1.91978092161984,-0.448222080586378,0.112054454658439,ST
14.4666666666667,-3.83888149261475,-0.689060688018799,9.04631423950195,-0.861285984516144,-0.67835795879364,0.198172003030777,-3141.90014648438,88.5,-2130.90014648438,1.89891076641441,-0.399151208196281,0.077354444769166,ST
14.5,-4.14034557342529,-0.862522184848785,7.22197818756104,0.167683988809586,-0.121951997280121,0.449698001146317,-3153.90014648438,96.9000015258789,-2140.5,1.91295658132425,-0.517369693071639,0.118110869123915,ST
14.5333333333333,-4.12180328369141,-0.70760315656662,8.01990127563477,0.304879993200302,1.51677799224854,0.716467976570129,-3149.10009765625,96.3000030517578,-2135.7001953125,1.89387803841596,-0.475928182694212,0.0869587808024154,ST
14.5666666666667,-4.68405771255493,-1.03598368167877,9.1151008605957,0.274392008781433,1.46342396736145,0.25152599811554,-3141.90014648438,93.3000030517578,-2130.90014648438,1.90612456925811,-0.474672820101174,0.112606772295092,ST
14.6,-4.25279664993286,-0.922934591770172,8.66110992431641,0.0609759986400604,-0.274392008781433,0.670735955238342,-3141.90014648438,90.9000015258789,-2133.30004882812,1.89604097031939,-0.453863803871051,0.105463411037845,ST
14.6333333333333,-3.99439883232117,-0.971384167671204,7.93436670303345,-0.0457319989800453,-0.556405961513519,0.510673999786377,-3134.7001953125,87.3000030517578,-2130.90014648438,1.89694244174874,-0.462547969909567,0.121395770604057,ST
14.6666666666667,-4.57758808135986,-1.05632042884827,8.70477485656738,0.182927995920181,0.304879993200302,0.564027965068817,-3139.50024414062,99.3000030517578,-2138.10009765625,1.89191069794806,-0.481764575860895,0.11996290441725,ST
14.7,-3.87058305740356,-1.29856836795807,8.13833332061768,0.121951997280121,-0.205793991684914,0.449698001146317,-3134.7001953125,97.5000076293945,-2133.30004882812,1.90377124859139,-0.438853282588466,0.157621308848901,ST
14.7333333333333,-4.32517194747925,-1.01923561096191,8.1365385055542,-0.0762199983000755,-0.754577994346619,0.160062000155449,-3156.30004882812,93.9000015258789,-2133.30004882812,1.88600116029223,-0.484080060896295,0.124529905923324,ST
14.7666666666667,-4.51777362823486,-1.11912548542023,8.37041282653809,-0.121951997280121,-0.381099998950958,-0.160062000155449,-3129.90014648438,92.7000045776367,-2130.90014648438,1.89051468828406,-0.490532951860931,0.133222679611003,ST
14.8,-5.16735696792603,-1.06170380115509,8.48944282531738,0.548784017562866,0.434453994035721,0.0609759986400604,-3146.7001953125,90.3000030517578,-2133.30004882812,1.88885237615376,-0.544085470663527,0.123454186780595,ST
14.8333333333333,-4.02011871337891,-1.38290655612946,7.83268213272095,0.403965979814529,0.342989981174469,0.411587983369827,-3129.90014648438,92.1000061035156,-2135.7001953125,1.91183458033968,-0.46872308988201,0.173728331234778,ST
14.8666666666667,-4.58416795730591,-0.75545459985733,8.70716762542725,-0.0304879993200302,-0.975615978240967,-0.442075997591019,-3144.30004882812,93.3000030517578,-2138.10009765625,1.87554811285411,-0.481298024106187,0.0869449118457084,ST
14.9,-4.64338397979736,-0.57062840461731,8.15149211883545,0.78506600856781,-0.419209986925125,0.160062000155449,-3146.7001953125,89.1000061035156,-2138.10009765625,1.86924256509885,-0.51602433863388,0.0683362794541121,ST
14.9333333333333,-4.44838905334473,-0.620872378349304,8.620436668396,0.510673999786377,-0.144817993044853,0.556405961513519,-3149.10009765625,95.1000061035156,-2126.10009765625,1.86722828018651,-0.475164655950378,0.0704994338948457,ST
14.9666666666667,-4.38139724731445,-0.681882977485657,8.57079029083252,-0.137196004390717,-0.297257989645004,0.160062000155449,-3141.90014648438,93.3000030517578,-2121.30004882812,1.86871911635365,-0.470797274707116,0.0794655097354482,ST
15.0,-4.65833759307861,-0.550291538238525,8.36263656616211,0.121951997280121,0.198172003030777,0.129574000835419,-3139.50024414062,98.1000061035156,-2133.30004882812,1.86160925553988,-0.507663232114082,0.0653878909262842,ST
15.0333333333333,-4.50282049179077,-0.800315320491791,9.11151218414307,0.457319974899292,0.0838419944047928,0.221037998795509,-3139.50024414062,90.9000015258789,-2130.90014648438,1.87163841076494,-0.45766051575087,0.0866227457509565,ST
15.0666666666667,-4.19956159591675,-0.456981241703033,7.58385467529297,0.213415995240211,-1.2500079870224,-0.3125019967556,-3151.50024414062,93.3000030517578,-2135.7001953125,1.86287669133776,-0.502724854899031,0.0600480507649006,ST
15.1,-3.90527534484863,-0.74349170923233,7.55933094024658,-0.0,0.259148001670837,0.0838419944047928,-3144.30004882812,93.9000015258789,-2126.10009765625,1.88008444762811,-0.475365804989108,0.0979742458001059,ST
15.1333333333333,-5.21640491485596,-0.885251581668854,9.92857551574707,-0.396344006061554,0.152439996600151,-0.617381989955902,-3144.30004882812,96.9000015258789,-2128.5,1.88106651898294,-0.482293753527156,0.0901942689323425,ST
15.1666666666667,-4.3520884513855,-0.714780867099762,9.37469482421875,0.198172003030777,-1.33385002613068,-0.0838419944047928,-3141.90014648438,91.5,-2126.10009765625,1.8754574096931,-0.431209562709977,0.0757430382142896,ST
15.2,-4.00636148452759,-0.860727727413177,8.3040189743042,0.945127964019775,-1.265251994133,-0.121951997280121,-3144.30004882812,95.1000061035156,-2128.5,1.89108377824738,-0.445207663451714,0.101617234667551,ST
15.2333333333333,-3.66781258583069,-0.979160070419312,8.88481616973877,0.37347799539566,-1.54726600646973,-0.525918006896973,-3141.90014648438,96.9000015258789,-2138.10009765625,1.89965481559761,-0.386617895944597,0.109359850228233,ST
15.2666666666667,-3.6731960773468,-0.457579374313354,8.393141746521,0.25152599811554,-1.48628997802734,-0.442075997591019,-3146.7001953125,96.3000030517578,-2128.5,1.8831384544486,-0.409345744754656,0.0543167592872178,ST
15.3,-3.09598803520203,-0.742295444011688,7.89488887786865,0.106707997620106,-0.92988395690918,0.167683988809586,-3144.30004882812,92.7000045776367,-2135.7001953125,1.8957817427287,-0.370652733636174,0.0933753505311237,ST
15.3333333333333,-4.50880193710327,-0.878073871135712,8.72511196136475,-0.137196004390717,0.426831990480423,-0.0381099991500378,-3149.10009765625,99.9000015258789,-2140.5,1.8989206639195,-0.475639089449488,0.100611044394121,ST
15.3666666666667,-5.29356527328491,-0.718967854976654,8.94403171539307,0.0152439996600151,1.34147191047668,0.198172003030777,-3149.10009765625,96.9000015258789,-2133.30004882812,1.88819471574638,-0.535344928640614,0.0800981432498936,ST
15.4,-4.27971315383911,-0.946262180805206,9.10373592376709,0.121951997280121,-0.182927995920181,0.472563982009888,-3139.50024414062,98.7000045776367,-2138.10009765625,1.89404961356369,-0.437162147732963,0.102955628084817,ST
15.4333333333333,-4.86948204040527,-0.692051410675049,8.12756633758545,0.846041977405548,0.358233988285065,0.320124000310898,-3151.50024414062,96.9000015258789,-2128.5,1.88697004319878,-0.538846253958606,0.0831687345530187,ST
15.4666666666667,-4.55306434631348,-0.766221165657043,8.77894401550293,0.487807989120483,1.20427596569061,0.37347799539566,-3139.50024414062,98.7000045776367,-2138.10009765625,1.88823742806603,-0.479065021766766,0.085964127244576,ST
15.5,-3.9638934135437,-0.436046212911606,8.18738079071045,0.152439996600151,-0.457319974899292,0.403965979814529,-3151.50024414062,95.7000045776367,-2133.30004882812,1.86961514136102,-0.449579491498723,0.0525926368423434,ST
15.5333333333333,-4.53332567214966,-0.66034984588623,8.26513957977295,0.152439996600151,0.693601965904236,0.457319974899292,-3144.30004882812,90.3000030517578,-2121.30004882812,1.87848413989249,-0.501593547358368,0.0790679183886137,ST
15.5666666666667,-4.55485868453979,-0.738108456134796,9.38067626953125,0.167683988809586,0.83841997385025,0.716467976570129,-3144.30004882812,100.500007629395,-2140.5,1.87183147435681,-0.452383831234301,0.0776796432142909,ST
15.6,-4.27373170852661,-0.748875021934509,8.89797496795654,0.137196004390717,-0.320124000310898,0.503051996231079,-3144.30004882812,89.1000061035156,-2135.7001953125,1.8694653665658,-0.445909561206347,0.0832826024496172,ST
15.6333333333333,-4.23066520690918,-1.10596632957458,8.85610485076904,0.266770005226135,-0.198172003030777,0.182927995920181,-3141.90014648438,99.3000030517578,-2140.5,1.88592029073706,-0.4423532506332,0.123595346986075,ST
15.6666666666667,-4.03327798843384,-0.955832481384277,9.58344650268555,-0.289635986089706,-1.89025592803955,0.0152439996600151,-3134.7001953125,98.7000045776367,-2130.90014648438,1.87230904641536,-0.393316077007144,0.0997699973079708,ST
15.7,-2.88903045654297,-1.13467717170715,6.55205821990967,0.198172003030777,-2.21037983894348,0.403965979814529,-3144.30004882812,93.9000015258789,-2138.10009765625,1.8928068969912,-0.406176393195445,0.170526517759225,ST
15.7333333333333,-4.01832437515259,-0.897214472293854,7.71903514862061,0.0533539988100529,0.495429992675781,0.167683988809586,-3161.10009765625,98.1000061035156,-2135.7001953125,1.86844355673785,-0.478096580010273,0.115541720723749,ST
15.7666666666667,-4.26296472549438,-0.967197179794312,8.21788597106934,0.365855991840363,0.670735955238342,0.327746003866196,-3161.10009765625,95.1000061035156,-2135.7001953125,1.8681889188571,-0.476952417137007,0.116293556334428,ST
15.8,-4.89041709899902,-1.16996765136719,8.42185306549072,0.472563982009888,0.434453994035721,0.198172003030777,-3139.50024414062,93.3000030517578,-2140.5,1.87945469936116,-0.522736733641837,0.137067771258557,ST
15.8333333333333,-4.67807626724243,-1.24473547935486,9.51884746551514,-0.0228659994900227,-0.282013982534409,-0.205793991684914,-3153.90014648438,92.1000061035156,-2133.30004882812,1.87800307160044,-0.452915031264552,0.130210622694643,ST
15.8666666666667,-5.21760129928589,-0.912168025970459,8.12876319885254,1.18140995502472,-0.0762199983000755,-0.228659987449646,-3153.90014648438,97.5000076293945,-2142.90014648438,1.87737027503375,-0.567583832428147,0.109935465517,ST
15.9,-4.50581121444702,-1.22260427474976,9.77844142913818,0.708845973014832,1.03659200668335,0.0304879993200302,-3151.50024414062,92.7000045776367,-2140.5,1.88832856254427,-0.430698253098503,0.123222890116072,ST
15.9333333333333,-2.551677942276,-1.11374223232269,9.31248760223389,-0.533540010452271,-3.39941191673279,-0.0381099991500378,-3141.90014648438,89.7000045776367,-2142.90014648438,1.88137201333245,-0.259796009183745,0.119793299943337,ST
15.9666666666667,-3.5152862071991,-0.68965882062912,7.19865083694458,0.571649968624115,-3.08691000938416,-0.152439996600151,-3146.7001953125,96.9000015258789,-2126.10009765625,1.87364230089291,-0.447014656412673,0.0944042552718888,ST
16.0,-3.30593609809875,-1.00787091255188,7.19745445251465,1.09756803512573,1.49391198158264,0.87652999162674,-3144.30004882812,89.7000045776367,-2133.30004882812,1.88981907173857,-0.429704855433085,0.136668741416488,ST
16.0333333333333,-4.81206035614014,-0.851157426834106,9.01042556762695,0.716467976570129,2.0731840133667,0.160062000155449,-3153.90014648438,94.5,-2130.90014648438,1.8746829216785,-0.492283551553731,0.0929818808405628,ST
16.0666666666667,-4.59134531021118,-0.592759668827057,9.61514854431152,-0.0457319989800453,0.442075997591019,0.853663980960846,-3149.10009765625,91.5,-2130.90014648438,1.85119535425727,-0.445631073533522,0.0609702713952172,ST
16.1,-5.46283960342407,-0.796128273010254,9.28437519073486,0.449698001146317,-0.228659987449646,-0.0304879993200302,-3153.90014648438,93.9000015258789,-2140.5,1.86530893106248,-0.52982666329483,0.0847628037651338,ST
16.1333333333333,-4.0177264213562,-1.18910825252533,8.84832859039307,0.381099998950958,1.53202199935913,0.381099998950958,-3161.10009765625,89.1000061035156,-2145.30004882812,1.88735889522478,-0.425644448336453,0.13276980344165,ST
16.1666666666667,-3.23535537719727,-1.17654716968536,7.24530601501465,0.213415995240211,-0.472563982009888,-0.518296003341675,-3149.10009765625,102.900001525879,-2135.7001953125,1.90445001642903,-0.414197749659057,0.160934959848622,ST
16.2,-2.88364720344543,-0.279332756996155,9.0014533996582,-0.907018005847931,-2.4847719669342,-0.121951997280121,-3151.50024414062,95.1000061035156,-2128.5,1.85579836224131,-0.305580065653684,0.0326703329106933,ST
16.2333333333333,-3.08402514457703,-0.738108456134796,6.60290002822876,0.92988395690918,-2.37806391716003,0.114329993724823,-3149.10009765625,93.3000030517578,-2135.7001953125,1.88414444157327,-0.430438806465644,0.109370325497816,ST
16.2666666666667,-4.72532939910889,-0.508421540260315,7.9935827255249,1.45580196380615,2.09605002403259,0.602137982845306,-3151.50024414062,91.5,-2128.5,1.86527934654556,-0.536686751270996,0.0605040182801896,ST
16.3,-4.49743700027466,-0.978561878204346,9.66000938415527,0.579271972179413,1.00610399246216,0.259148001670837,-3151.50024414062,98.1000061035156,-2130.90014648438,1.88496488036596,-0.43558943178911,0.0998110774674225,ST
16.3333333333333,-4.74207735061646,-0.644798099994659,9.21857929229736,0.160062000155449,-0.960371971130371,0.297257989645004,-3139.50024414062,89.1000061035156,-2145.30004882812,1.8686007778362,-0.47246433176745,0.0692385259374566,ST
16.3666666666667,-3.21023321151733,-0.525169551372528,8.61624908447266,-0.617381989955902,-1.98934197425842,0.922261953353882,-3151.50024414062,95.1000061035156,-2130.90014648438,1.85122510904476,-0.352702699240419,0.0612853872855524,ST
16.4,-5.83189392089844,-0.251818180084229,8.47508811950684,0.0152439996600151,-1.02897000312805,-0.266770005226135,-3158.7001953125,94.5,-2133.30004882812,1.83928839624707,-0.600632604948329,0.0299681168457642,ST
16.4333333333333,-2.61926817893982,-1.5623494386673,8.07014465332031,0.114329993724823,1.85214591026306,1.69970595836639,-3146.7001953125,89.1000061035156,-2128.5,1.89654488832543,-0.312307844923039,0.190239740725649,ST
16.4666666666667,-3.94355654716492,-0.777585864067078,9.19644832611084,0.3125019967556,-0.754577994346619,-0.381099998950958,-3151.50024414062,93.3000030517578,-2128.5,1.86390523807635,-0.402409654966655,0.0840781553327735,ST
16.5,-4.10924243927002,-0.530552804470062,7.97982549667358,0.87652999162674,-0.3125019967556,0.167683988809586,-3158.7001953125,94.5,-2135.7001953125,1.85825151499967,-0.474093349500765,0.0646973696056261,ST
16.5333333333333,-5.0136342048645,-0.52337509393692,8.76040172576904,0.868907988071442,1.50153398513794,0.388722002506256,-3144.30004882812,93.9000015258789,-2123.7001953125,1.85691035085635,-0.521680378222495,0.0578586305052518,ST
16.5666666666667,-4.32277917861938,-0.721958577632904,8.52413558959961,0.320124000310898,1.28049600124359,0.792688012123108,-3151.50024414062,92.1000061035156,-2135.7001953125,1.86369071606496,-0.470248697652754,0.0833222588964981,ST
16.6,-5.13864612579346,-0.70760315656662,9.05109977722168,0.0838419944047928,0.403965979814529,0.190549999475479,-3149.10009765625,96.9000015258789,-2145.30004882812,1.85992069298998,-0.515765547483106,0.0777187649013998,ST
16.6333333333333,-4.7486572265625,-0.87986832857132,9.29514217376709,0.274392008781433,1.05945801734924,0.769822001457214,-3146.7001953125,90.3000030517578,-2150.10009765625,1.86126443759505,-0.472475851521302,0.0933027431703819,ST
16.6666666666667,-3.82392811775208,-0.885251581668854,7.75013828277588,-0.0762199983000755,-0.899396002292633,0.403965979814529,-3144.30004882812,93.3000030517578,-2130.90014648438,1.86436036996196,-0.454311393415328,0.113431343566014,ST
16.7,-4.08172750473022,-1.04316139221191,8.74843883514404,-0.213415995240211,0.228659987449646,0.3125019967556,-3151.50024414062,95.7000045776367,-2126.10009765625,1.86267895493064,-0.434313792756411,0.118820748627153,ST
16.7333333333333,-3.75753402709961,-1.27284824848175,8.70716762542725,0.236281991004944,-0.960371971130371,0.25152599811554,-3146.7001953125,93.3000030517578,-2126.10009765625,1.8699213776622,-0.401979408464243,0.144451074377692,ST
16.7666666666667,-2.60909962654114,-1.13407909870148,7.49114274978638,-0.327746003866196,-2.03507399559021,0.525918006896973,-3158.7001953125,93.3000030517578,-2145.30004882812,1.86152008755939,-0.328291804148873,0.150328573703957,ST
16.8,-4.05182027816772,-0.860727727413177,7.30691432952881,0.365855991840363,-0.868907988071442,-0.0304879993200302,-3149.10009765625,93.9000015258789,-2130.90014648438,1.84902234889312,-0.501818611052454,0.116561158864045,ST
16.8333333333333,-4.62723398208618,-0.948654770851135,10.1253643035889,-0.221037998795509,0.716467976570129,0.411587983369827,-3151.50024414062,93.3000030517578,-2138.10009765625,1.83407297190449,-0.428342106407342,0.0935378505754234,ST
16.8666666666667,-4.42506170272827,-1.01863753795624,7.92359972000122,0.442075997591019,-0.594515979290009,0.228659987449646,-3151.50024414062,95.1000061035156,-2116.5,1.84838838535475,-0.504849594447652,0.126788068173411,ST
16.9,-4.50461483001709,-1.251913189888,8.29265403747559,0.190549999475479,0.327746003866196,-0.228659987449646,-3141.90014648438,92.1000061035156,-2142.90014648438,1.86319919372384,-0.493410128594321,0.149753070318193,NLL
16.9333333333333,-5.07464504241943,-0.776987731456757,9.77006721496582,-0.106707997620106,0.129574000835419,-0.480185985565186,-3151.50024414062,99.3000030517578,-2138.10009765625,1.83506504056572,-0.477928331129948,0.0800115974604312,NLL
16.9666666666667,-4.47291326522827,-0.668723821640015,8.42783451080322,0.503051996231079,-0.746955990791321,0.663114011287689,-3144.30004882812,91.5,-2135.7001953125,1.82933143279631,-0.485418801301039,0.0776409663359414,NLL
17.0,-3.34481549263,-1.2058562040329,10.0577735900879,-0.602137982845306,-2.09605002403259,0.754577994346619,-3149.10009765625,92.1000061035156,-2133.30004882812,1.83202373644336,-0.315479903341851,0.119797651723462,NLL
17.0333333333333,-3.6271390914917,-0.361876487731934,7.36493444442749,0.259148001670837,-3.94819593429565,0.0685980021953583,-3146.7001953125,96.3000030517578,-2128.5,1.80321117281902,-0.450247132965884,0.0484321338321184,NLL
17.0666666666667,-2.94645237922668,-0.584385693073273,6.82660579681396,1.08232402801514,1.34909391403198,1.2347639799118,-3173.10009765625,90.9000015258789,-2130.90014648438,1.81061513475756,-0.408671703472939,0.082652774098398,NLL
17.1,-4.46035194396973,-0.672312676906586,8.19874572753906,0.510673999786377,2.12653803825378,0.46494197845459,-3163.50024414062,88.5,-2135.7001953125,1.80953672448918,-0.500576179422191,0.0806516566574217,NLL
17.1333333333333,-5.58545923233032,-0.209948182106018,9.7539176940918,-0.304879993200302,0.937505960464478,0.67835795879364,-3161.10009765625,92.1000061035156,-2140.5,1.77230085558844,-0.521611802241988,0.0214132728929262,NLL
17.1666666666667,-5.16616106033325,-0.842783451080322,10.1887674331665,-0.144817993044853,0.0838419944047928,2.05031800270081,-3146.7001953125,93.3000030517578,-2130.90014648438,1.77634202916404,-0.468334297892529,0.0809782073538958,NLL
17.2,-4.66850566864014,-0.696836590766907,9.92977142333984,-1.11281192302704,-2.75154185295105,2.39330792427063,-3141.90014648438,89.1000061035156,-2130.90014648438,1.73912065329917,-0.434052767280026,0.0699199883236381,NLL
17.2333333333333,-4.01353931427002,-0.297875195741653,7.87036514282227,-1.53964400291443,-1.75305998325348,5.00765371322632,-3153.90014648438,96.9000015258789,-2135.7001953125,1.66405838734985,-0.468536631916453,0.0360517029429877,NLL
17.2666666666667,-3.2108314037323,-0.592161536216736,8.06117248535156,-3.03355598449707,-1.32622802257538,6.57016372680664,-3165.90014648438,97.5000076293945,-2135.7001953125,1.59550300491266,-0.376688700152402,0.0740170791594511,NLL
17.3,-2.91774129867554,-0.338548928499222,7.31289577484131,-3.69666981697083,-2.75154185295105,8.94060611724854,-3161.10009765625,95.7000045776367,-2126.10009765625,1.46215516106787,-0.375187347831583,0.0464951903585255,NLL
17.3333333333333,-4.03925943374634,-0.964804589748383,8.44278812408447,-3.39178991317749,-0.922261953353882,9.02444744110107,-3153.90014648438,92.7000045776367,-2126.10009765625,1.37022310449409,-0.443865325579936,0.112168084474663,NLL
17.3666666666667,-4.59613037109375,-0.703416109085083,8.77057075500488,-3.49087595939636,-0.0685980021953583,8.58999347686768,-3163.50024414062,96.9000015258789,-2123.7001953125,1.24882507733151,-0.482416053823338,0.078309758344471,NLL
17.4,-4.9873161315918,-0.79672646522522,9.37050819396973,-2.39330792427063,1.58537602424622,8.63572597503662,-3165.90014648438,104.100006103516,-2128.5,1.14785260026186,-0.491585898803334,0.0810861379412543,NLL
17.4333333333333,-4.75822734832764,-1.39726197719574,10.5506439208984,-3.39178991317749,0.266770005226135,7.157057762146,-3158.7001953125,101.100006103516,-2118.90014648438,1.07998199247332,-0.422552491160795,0.132030543284149,NLL
17.4666666666667,-3.74796390533447,-0.717771589756012,8.00674152374268,-3.55185198783875,-3.47563195228577,6.32626008987427,-3158.7001953125,99.9000015258789,-2128.5,0.976113978882123,-0.431220923929019,0.090313411989655,NLL
17.5,-3.66242933273315,-0.895420014858246,7.68135213851929,-1.53202199935913,-0.434453994035721,6.18906402587891,-3163.50024414062,110.100006103516,-2114.10009765625,0.913811013763238,-0.442762192681166,0.113585910759403,NLL
17.5333333333333,-3.33046007156372,-0.647788822650909,7.81593418121338,-2.0579400062561,0.350611984729767,4.93143367767334,-3151.50024414062,99.3000030517578,-2118.90014648438,0.83633401929192,-0.402906167375294,0.0826548250919271,NLL
17.5666666666667,-2.98892045021057,-1.10118126869202,8.54447269439697,-0.868907988071442,0.510673999786377,4.80185985565186,-3156.30004882812,110.100006103516,-2130.90014648438,0.7962304372526,-0.335904177546874,0.126813173067981,NLL
