seconds,sensor_accX_m_s_,sensor_accY_m_s_,sensor_accZ_m_s_,sensor_gyroX___s_,sensor_gyroY___s_,sensor_gyroZ___s_,sensor_magX__T_,sensor_magY__T_,sensor_magZ__T_,sensor_yaw___,sensor_pitch___,sensor_roll___,label2
0.0,-2.64797902107239,-0.613694667816162,9.19585037231445,0.259148001670837,-0.221037998795509,0.259148001670837,-1097.10009765625,18.3000011444092,-933.300048828125,2.12507359837105,-0.279350342250334,0.0658944091254448,ST
0.0333333333333333,-2.66113805770874,-0.531749129295349,9.25506591796875,0.160062000155449,-0.282013982534409,0.342989981174469,-1101.90002441406,15.9000005722046,-923.700012207031,2.12131551018561,-0.279097711375165,0.0572968544900598,ST
0.0666666666666667,-2.60909962654114,-0.587376415729523,9.18388748168945,0.205793991684914,-0.320124000310898,0.426831990480423,-1094.70007324219,3.30000019073486,-916.500061035156,2.12117518561936,-0.27589104966686,0.06304717461825,ST
0.1,-2.5977349281311,-0.593955993652344,9.18269062042236,0.175305992364883,-0.243903994560242,0.403965979814529,-1089.90002441406,14.7000007629395,-918.900024414062,2.11980748670484,-0.274810658133007,0.0640380692686713,ST
0.133333333333333,-2.66532516479492,-0.543711960315704,9.2347297668457,0.25152599811554,-0.190549999475479,0.320124000310898,-1099.5,12.3000001907349,-928.500061035156,2.11712634092625,-0.280004451969626,0.0584414554300437,ST
0.166666666666667,-2.63721227645874,-0.542515695095062,9.17252254486084,0.274392008781433,-0.236281991004944,0.342989981174469,-1097.10009765625,11.7000007629395,-930.900024414062,2.11589167209827,-0.279156950677098,0.0584205854778896,ST
0.2,-2.59713673591614,-0.510215938091278,9.22994422912598,0.243903994560242,-0.182927995920181,0.358233988285065,-1094.70007324219,16.5,-935.700012207031,2.11356974707584,-0.273832985672948,0.0547700287331127,ST
0.233333333333333,-2.58517384529114,-0.577207982540131,9.21379470825195,0.228659987449646,-0.228659987449646,0.274392008781433,-1089.90002441406,14.1000003814697,-926.100036621094,2.11445677035526,-0.272712926800835,0.0617300314966103,ST
0.266666666666667,-2.68027853965759,-0.415709376335144,9.31069374084473,0.442075997591019,-0.121951997280121,0.236281991004944,-1092.30004882812,17.1000003814697,-933.300048828125,2.10923208106939,-0.279546727149655,0.0444589307826734,ST
0.3,-2.51997637748718,-0.550889670848846,9.23293495178223,0.0762199983000755,0.0533539988100529,0.228659987449646,-1099.5,9.30000019073486,-928.500061035156,2.11215934124368,-0.266538130386582,0.0588814582341234,ST
0.333333333333333,-2.53732252120972,-0.571226537227631,9.30052471160889,0.167683988809586,0.0152439996600151,0.190549999475479,-1092.30004882812,12.3000001907349,-928.500061035156,2.11202865788654,-0.265925716044806,0.0608842542409249,ST
0.366666666666667,-2.55466866493225,-0.622666835784912,9.22097206115723,0.198172003030777,0.0457319989800453,0.137196004390717,-1097.10009765625,4.5,-926.100036621094,2.11323177459397,-0.269625389477691,0.0667652835486045,ST
0.4,-2.61747360229492,-0.547300815582275,9.18508338928223,0.342989981174469,0.411587983369827,0.152439996600151,-1094.70007324219,12.3000001907349,-914.100036621094,2.11103374704905,-0.27758085122327,0.0591388448152009,ST
0.433333333333333,-2.71377468109131,-0.480308800935745,9.18927001953125,0.213415995240211,0.434453994035721,0.243903994560242,-1089.90002441406,12.3000001907349,-935.700012207031,2.10835733736413,-0.287161782053937,0.0520363522041935,ST
0.466666666666667,-2.7502613067627,-0.539524972438812,9.23293495178223,0.320124000310898,0.434453994035721,0.480185985565186,-1087.5,8.10000038146973,-930.900024414062,2.10827763323802,-0.289736260087479,0.0573486344604363,ST
0.5,-2.74248552322388,-0.523973226547241,9.17132663726807,0.167683988809586,0.419209986925125,0.46494197845459,-1087.5,13.5000009536743,-933.300048828125,2.10628131559984,-0.290852854564866,0.0565758979457657,ST
0.533333333333333,-2.77179455757141,-0.486888378858566,9.10373592376709,0.182927995920181,0.388722002506256,0.46494197845459,-1097.10009765625,17.1000003814697,-942.900024414062,2.10343198791018,-0.295713799782085,0.0529946225295413,ST
0.566666666666667,-2.82502913475037,-0.522178828716278,9.18927001953125,0.121951997280121,0.297257989645004,0.518296003341675,-1087.5,15.3000001907349,-923.700012207031,2.1023119328321,-0.298264674489319,0.056148973725311,ST
0.6,-2.83041262626648,-0.554478526115417,9.20721435546875,0.0914639979600906,0.0685980021953583,0.480185985565186,-1097.10009765625,14.7000007629395,-926.100036621094,2.10118642644434,-0.297914710584453,0.0596343059718952,ST
0.633333333333333,-2.88005828857422,-0.482701390981674,9.12467098236084,0.114329993724823,-0.0228659994900227,0.480185985565186,-1085.10009765625,11.7000007629395,-928.500061035156,2.09702711620842,-0.305105255007969,0.0526195830079086,ST
0.666666666666667,-2.87108635902405,-0.513206660747528,9.17850399017334,0.175305992364883,0.0076219998300075,0.533540010452271,-1092.30004882812,17.1000003814697,-928.500061035156,2.09556561341223,-0.30285722505569,0.0551753479544273,ST
0.7,-2.81486082077026,-0.509019672870636,9.11809158325195,0.167683988809586,0.0838419944047928,0.46494197845459,-1092.30004882812,15.9000005722046,-935.700012207031,2.09367745880938,-0.29929958903005,0.0552253099882156,ST
0.733333333333333,-2.81725335121155,-0.562254369258881,9.11988544464111,0.426831990480423,0.0914639979600906,0.46494197845459,-1097.10009765625,6.90000009536743,-933.300048828125,2.09375254089119,-0.299288227349482,0.060364204072619,ST
0.766666666666667,-2.82263660430908,-0.577806115150452,9.20960712432861,0.0914639979600906,-0.0076219998300075,0.228659987449646,-1092.30004882812,13.5000009536743,-940.500061035156,2.09336253166206,-0.296928660312885,0.0623189707680838,ST
0.8,-2.82084226608276,-0.53533798456192,9.22635555267334,0.304879993200302,-0.0914639979600906,0.205793991684914,-1097.10009765625,14.1000003814697,-923.700012207031,2.0914403950271,-0.29613766170478,0.05751653363654,ST
0.833333333333333,-2.90398406982422,-0.469542235136032,9.12227821350098,0.442075997591019,-0.167683988809586,0.182927995920181,-1082.70007324219,12.9000005722046,-923.700012207031,2.0891743491544,-0.307217386349554,0.0507459764351398,ST
0.866666666666667,-2.93927454948425,-0.429466664791107,9.11270809173584,0.358233988285065,0.0,0.297257989645004,-1089.90002441406,14.7000007629395,-933.300048828125,2.0870769055549,-0.31152944592297,0.0464822035835969,ST
0.9,-2.94166707992554,-0.358287632465363,9.22037410736084,0.327746003866196,0.0,0.457319974899292,-1097.10009765625,13.5000009536743,-938.100036621094,2.08282341154567,-0.308716224938379,0.038222087665107,ST
0.933333333333333,-2.8740770816803,-0.427074074745178,9.14799880981445,0.282013982534409,-0.0762199983000755,0.442075997591019,-1087.5,15.9000005722046,-918.900024414062,2.08348599202377,-0.304193163292449,0.0456028071546905,ST
0.966666666666667,-2.87168431282043,-0.485093951225281,9.12048435211182,0.198172003030777,-0.0914639979600906,0.289635986089706,-1089.90002441406,14.7000007629395,-930.900024414062,2.08448821301687,-0.304484741072756,0.0523446817090888,ST
1.0,-2.8782639503479,-0.521580696105957,9.14082050323486,0.190549999475479,0.0228659994900227,0.198172003030777,-1092.30004882812,10.5,-928.500061035156,2.08509955090789,-0.304639441520389,0.0563872470794444,ST
1.03333333333333,-2.89082503318787,-0.509019672870636,9.07562351226807,0.144817993044853,-0.0228659994900227,0.129574000835419,-1075.5,20.1000003814697,-935.700012207031,2.08448078361501,-0.307803993325912,0.0557195617131743,ST
1.06666666666667,-2.8902268409729,-0.546104550361633,9.13663387298584,0.0685980021953583,-0.137196004390717,0.228659987449646,-1092.30004882812,13.5000009536743,-918.900024414062,2.08459563325923,-0.3057237395287,0.0593155895113533,ST
1.1,-2.89561009407043,-0.562254369258881,9.10433387756348,0.121951997280121,-0.114329993724823,0.297257989645004,-1094.70007324219,9.30000019073486,-930.900024414062,2.08400506273068,-0.307153459498869,0.0612170131806471,ST
1.13333333333333,-2.9303023815155,-0.516197383403778,9.20003700256348,0.213415995240211,-0.0838419944047928,0.289635986089706,-1094.70007324219,11.1000003814697,-933.300048828125,2.08135578654345,-0.307753588696581,0.0557455191042603,ST
1.16666666666667,-3.06548261642456,-0.445018380880356,9.14022254943848,0.365855991840363,-0.152439996600151,0.403965979814529,-1092.30004882812,13.5000009536743,-930.900024414062,2.0777117506993,-0.322387794259999,0.0480974615589482,ST
1.2,-3.05292177200317,-0.416307508945465,9.03255653381348,0.579271972179413,-0.266770005226135,0.731711983680725,-1080.30004882812,14.1000003814697,-930.900024414062,2.07425112524224,-0.325092978061957,0.044750858009272,ST
1.23333333333333,-2.96320033073425,-0.444420218467712,9.19644832611084,0.0990860015153885,-0.342989981174469,0.716467976570129,-1080.30004882812,12.3000001907349,-926.100036621094,2.0720747137305,-0.311407586688804,0.04758213260689,ST
1.26666666666667,-2.87766575813293,-0.520982503890991,9.0792121887207,0.160062000155449,-0.640248000621796,0.708845973014832,-1085.10009765625,9.30000019073486,-914.100036621094,2.07167548591686,-0.305658349161362,0.0562623753772864,ST
1.3,-2.89740467071533,-0.448009073734283,9.09177303314209,0.167683988809586,-0.586893975734711,0.617381989955902,-1092.30004882812,17.7000007629395,-930.900024414062,2.06684633977031,-0.307126972869116,0.0488984015836158,ST
1.33333333333333,-2.8561327457428,-0.500645637512207,9.13842868804932,0.297257989645004,-0.525918006896973,0.632625997066498,-1092.30004882812,11.1000003814697,-926.100036621094,2.06578251941306,-0.301860986194021,0.0536508856796344,ST
1.36666666666667,-3.04275321960449,-0.39836323261261,9.19943904876709,0.327746003866196,-0.685979962348938,0.487807989120483,-1092.30004882812,14.1000003814697,-926.100036621094,2.06068351539551,-0.31733554181843,0.0428675282575846,ST
1.4,-3.13666176795959,-0.380418926477432,9.01521110534668,0.335367977619171,-0.640248000621796,0.533540010452271,-1094.70007324219,11.7000007629395,-921.300048828125,2.05824278954119,-0.332820344671025,0.0413163763097262,ST
1.43333333333333,-3.16656899452209,-0.302660346031189,9.10373592376709,0.297257989645004,-0.807931959629059,0.891773998737335,-1089.90002441406,8.10000038146973,-935.700012207031,2.05145282879347,-0.333202221590458,0.032417728884888,ST
1.46666666666667,-3.05770683288574,-0.471336662769318,8.82918834686279,0.182927995920181,-0.952749967575073,0.990859985351562,-1099.5,14.7000007629395,-923.700012207031,2.05347958465161,-0.331453338220033,0.051578474312279,ST
1.5,-3.14324140548706,-0.548497080802917,8.92788219451904,-0.160062000155449,-0.83841997385025,0.739333987236023,-1094.70007324219,12.3000001907349,-935.700012207031,2.05282633932946,-0.33633854167155,0.0607682039342874,ST
1.53333333333333,-3.09239912033081,-0.532945394515991,9.06066989898682,-0.0533539988100529,-0.937505960464478,0.617381989955902,-1099.5,10.5,-911.700012207031,2.04880992903479,-0.327073071456926,0.0585115437027886,ST
1.56666666666667,-3.03916454315186,-0.693845868110657,8.99188327789307,0.167683988809586,-1.09756803512573,0.342989981174469,-1099.5,12.3000001907349,-935.700012207031,2.05273169524423,-0.323331002354513,0.0757403434063609,ST
1.6,-3.25150513648987,-0.700425446033478,8.99128532409668,0.205793991684914,-1.02134799957275,-0.487807989120483,-1109.10009765625,5.70000028610229,-921.300048828125,2.05548046184544,-0.343435871376981,0.0775673608755963,ST
1.63333333333333,-3.37890958786011,-0.652574002742767,8.60368824005127,0.564027965068817,-0.990859985351562,-0.685979962348938,-1087.5,12.9000005722046,-935.700012207031,2.05820613971137,-0.370294429887015,0.0752263677484006,ST
1.66666666666667,-3.87297582626343,-0.288903057575226,8.95719146728516,0.792688012123108,-0.381099998950958,-0.6250039935112,-1104.30004882812,12.3000001907349,-930.900024414062,2.04625041897563,-0.405728307404628,0.0331221773314368,ST
1.7,-3.48059391975403,-0.422288924455643,8.90156364440918,1.15092194080353,-0.617381989955902,-0.0685980021953583,-1097.10009765625,14.1000003814697,-942.900024414062,2.0529032282147,-0.372671557366957,0.0449335448414037,ST
1.73333333333333,-3.34960055351257,-0.473131090402603,8.86866569519043,1.45580196380615,-1.18903195858002,-0.365855991840363,-1099.5,9.30000019073486,-935.700012207031,2.05915913622404,-0.35890424713666,0.0508083757118963,ST
1.76666666666667,-3.81555390357971,-0.282323479652405,8.44398403167725,2.01220798492432,-0.746955990791321,-1.2576299905777,-1097.10009765625,14.7000007629395,-916.500061035156,2.06071503066861,-0.420218125602255,0.0316731218881183,ST
1.8,-4.13675689697266,0.0693845823407173,9.00265026092529,2.37044191360474,-0.0533539988100529,-1.22714197635651,-1094.70007324219,9.30000019073486,-921.300048828125,2.05354780644491,-0.430219884036569,-0.0091298333925548,ST
1.83333333333333,-3.61996126174927,0.0927121639251709,8.75681304931641,3.20886182785034,-0.685979962348938,-1.09756803512573,-1104.30004882812,12.9000005722046,-933.300048828125,2.06166505594756,-0.392408928056124,-0.0151187661582135,ST
1.86666666666667,-3.67618680000305,0.350511789321899,8.63598823547363,3.50611996650696,-1.22714197635651,-1.61586391925812,-1099.5,8.70000076293945,-930.900024414062,2.06372469437046,-0.399815529712757,-0.0442247171255704,ST
1.9,-3.8358907699585,0.922934591770172,8.70357799530029,3.45276594161987,-1.08232402801514,-1.54726600646973,-1118.70007324219,11.7000007629395,-928.500061035156,2.05189295831131,-0.410993438363467,-0.107718907465012,ST
1.93333333333333,-3.9597065448761,1.58089184761047,8.38656234741211,4.28356409072876,0.221037998795509,-0.342989981174469,-1099.5,5.10000038146973,-921.300048828125,2.02796441543351,-0.434253986403634,-0.191118567082336,ST
1.96666666666667,-2.76401877403259,1.36615860462189,8.02109718322754,3.53660798072815,1.53202199935913,0.259148001670837,-1106.70007324219,3.90000009536743,-918.900024414062,2.03743451953536,-0.333787751295412,-0.175727959629586,ST
2.0,-3.02301454544067,1.59584546089172,8.28786945343018,3.14788603782654,1.59299790859222,-0.0990860015153885,-1094.70007324219,4.5,-930.900024414062,2.03498980427135,-0.346175845381176,-0.195028719249861,ST
2.03333333333333,-2.43204927444458,1.42836546897888,8.60009956359863,1.6692179441452,0.137196004390717,0.0457319989800453,-1101.90002441406,3.90000009536743,-909.300048828125,2.04504012138314,-0.275284681867587,-0.168621247531919,ST
2.06666666666667,-2.75803732872009,1.85962653160095,9.23652362823486,0.495429992675781,-1.29574000835419,0.289635986089706,-1097.10009765625,3.90000009536743,-928.500061035156,2.03729431316518,-0.282200269293796,-0.198440958046676,ST
2.1,-2.45657324790955,1.68317437171936,8.95479869842529,-0.0685980021953583,-1.64635193347931,0.746955990791321,-1109.10009765625,-3.30000019073486,-921.300048828125,2.03857251331976,-0.261171286740479,-0.186385818118056,ST
2.13333333333333,-2.18082928657532,1.63113594055176,8.81782341003418,-1.17378795146942,-0.411587983369827,0.6250039935112,-1104.30004882812,6.30000019073486,-911.700012207031,2.03609762372484,-0.238613728814637,-0.181312875673185,ST
2.16666666666667,-2.21671795845032,1.02282452583313,10.1654396057129,-1.34147191047668,0.0381099991500378,-0.0304879993200302,-1109.10009765625,2.10000014305115,-923.700012207031,2.05283723351213,-0.214765088711304,-0.101301635518156,ST
2.2,-2.8782639503479,1.4821982383728,9.40041446685791,-0.967993974685669,-1.47866797447205,-0.952749967575073,-1118.70007324219,2.10000014305115,-918.900024414062,2.04439029593322,-0.289498172112253,-0.152758331878456,ST
2.23333333333333,-2.89680647850037,1.6263507604599,9.5505485534668,-0.739333987236023,-0.541162014007568,-0.182927995920181,-1099.5,4.5,-930.900024414062,2.04062021003419,-0.289664004057363,-0.16671794799988,ST
2.26666666666667,-1.97566628456116,1.00727272033691,10.02308177948,-1.30336201190948,-1.14329993724823,-0.167683988809586,-1106.70007324219,5.10000038146973,-914.100036621094,2.05669869576658,-0.194846120060411,-0.0999450762850091,ST
2.3,-2.36804795265198,1.27882969379425,9.7658805847168,-1.2576299905777,-2.14178204536438,-1.12805593013763,-1121.10009765625,-2.70000004768372,-933.300048828125,2.05603561134932,-0.230958236400339,-0.126320544537282,ST
2.33333333333333,-3.30593609809875,1.65984678268433,9.18269062042236,-0.891773998737335,-1.34147191047668,-1.12805593013763,-1116.30004882812,5.70000028610229,-928.500061035156,2.04732079399328,-0.334629028987531,-0.174607312616236,ST
2.36666666666667,-2.79751467704773,1.31531643867493,8.80945014953613,-1.14329993724823,0.304879993200302,0.0685980021953583,-1116.30004882812,2.10000014305115,-921.300048828125,2.05374343069918,-0.306040945184511,-0.1474227586165,ST
2.4,-2.73291516304016,1.11972367763519,8.58036136627197,-1.43293595314026,0.914639949798584,-0.327746003866196,-1101.90002441406,6.30000019073486,-928.500061035156,2.05850906523593,-0.307512124227027,-0.127973275747677,ST
2.43333333333333,-3.29696416854858,0.869699895381927,9.29753398895264,-1.70732796192169,1.56251001358032,-0.807931959629059,-1104.30004882812,5.70000028610229,-928.500061035156,2.07046255544747,-0.341005521336156,-0.0912719335701023,ST
2.46666666666667,-4.82282686233521,0.482701390981674,10.4686985015869,-1.15854394435883,1.60061991214752,-0.99848198890686,-1099.5,4.5,-926.100036621094,2.08978924170558,-0.431214757862383,-0.0449223691923792,ST
2.5,-5.64706802368164,0.783567309379578,11.0925617218018,-0.693601965904236,1.57013201713562,0.0381099991500378,-1089.90002441406,12.3000001907349,-935.700012207031,2.07758140133873,-0.470939345156613,-0.0684235029413337,ST
2.53333333333333,-5.51727056503296,0.273949474096298,12.0956468582153,-0.388722002506256,-0.388722002506256,1.79879200458527,-1089.90002441406,5.10000038146973,-923.700012207031,2.08070594242644,-0.427104306909771,-0.0233955975668608,ST
2.56666666666667,-4.86170625686646,-0.448607236146927,12.2942304611206,0.205793991684914,-0.182927995920181,2.0731840133667,-1099.5,11.1000003814697,-916.500061035156,2.0940957202266,-0.378222432757887,0.0323441890902332,ST
2.6,-4.09727954864502,-0.12441373616457,9.88730335235596,0.891773998737335,-1.18903195858002,2.5000159740448,-1101.90002441406,8.70000076293945,-916.500061035156,2.0765654554316,-0.390300848808581,0.0101679414293622,ST
2.63333333333333,-4.46095037460327,-0.364269077777863,9.0134162902832,-1.57013201713562,1.03659200668335,2.88111591339111,-1094.70007324219,5.70000028610229,-923.700012207031,2.07367727611474,-0.458367830864365,0.0394532394603594,ST
2.66666666666667,-3.52665090560913,-1.5503865480423,7.96068477630615,-0.213415995240211,1.27287399768829,3.7728898525238,-1097.10009765625,8.70000076293945,-918.900024414062,2.11896429044783,-0.414913496281578,0.185866740731794,ST
2.7,-3.78504872322083,-2.05820989608765,8.11560344696045,-0.0990860015153885,1.50153398513794,3.16313004493713,-1101.90002441406,17.7000007629395,-921.300048828125,2.13075229816552,-0.427976888032682,0.244211323610048,ST
2.73333333333333,-3.55775427818298,-2.04744338989258,7.75312900543213,0.746955990791321,0.533540010452271,2.9192259311676,-1085.10009765625,8.70000076293945,-923.700012207031,2.12501149485658,-0.420093343230605,0.254356765649334,ST
2.76666666666667,-3.5691192150116,-2.20296049118042,9.49851036071777,0.274392008781433,-0.777444005012512,2.4923939704895,-1099.5,11.1000003814697,-928.500061035156,2.10283665805841,-0.352516006502316,0.226501047631883,ST
2.8,-3.332852602005,-1.37513065338135,8.21310138702393,0.541162014007568,-1.16616594791412,1.16616594791412,-1094.70007324219,12.3000001907349,-928.500061035156,2.0759637122642,-0.378221829491367,0.166031396020388,ST
2.83333333333333,-3.5553617477417,-0.884653449058533,8.45235824584961,0.983237981796265,0.853663980960846,2.22562384605408,-1099.5,0.900000035762787,-928.500061035156,2.04415471633098,-0.397586717473058,0.102857498056135,ST
2.86666666666667,-3.01643490791321,-0.351708054542542,8.13474464416504,1.12805593013763,-0.167683988809586,2.47714996337891,-1092.30004882812,8.70000076293945,-914.100036621094,2.0130022969904,-0.356468536714575,0.0421280761070349,ST
2.9,-3.04514575004578,-0.362474650144577,8.2800931930542,0.358233988285065,-0.579271972179413,2.15702605247498,-1097.10009765625,8.10000038146973,-933.300048828125,2.00293916221946,-0.351381159386558,0.0417369588239253,ST
2.93333333333333,-2.4715268611908,0.547300815582275,9.06066989898682,-0.533540010452271,-1.95123195648193,2.45428395271301,-1104.30004882812,9.30000019073486,-940.500061035156,1.9608024722686,-0.265123059952824,-0.0573892359375763,ST
2.96666666666667,-2.77059817314148,0.453392386436462,8.13893127441406,-0.228659987449646,-0.807931959629059,2.56099200248718,-1106.70007324219,14.7000007629395,-930.900024414062,1.94861198714899,-0.324261957586868,-0.0567204590266985,ST
3.0,-3.68216824531555,0.794932007789612,9.79100227355957,-0.0838419944047928,1.18903195858002,2.38568592071533,-1097.10009765625,5.10000038146973,-923.700012207031,1.92951746659044,-0.358913020041308,-0.0814107122341809,ST
3.03333333333333,-3.43752765655518,0.550291538238525,7.61854696273804,0.472563982009888,0.78506600856781,1.85976791381836,-1097.10009765625,9.30000019073486,-923.700012207031,1.9245954595659,-0.421659117653892,-0.0746720732628724,ST
3.06666666666667,-3.77009510993958,1.11493849754333,7.70767021179199,0.0304879993200302,1.77592599391937,2.89635992050171,-1101.90002441406,10.5,-926.100036621094,1.88268542074616,-0.451985684967046,-0.143387317991984,ST
3.1,-3.332852602005,1.07785367965698,8.91113376617432,0.160062000155449,1.62348592281342,3.87197589874268,-1094.70007324219,6.30000019073486,-930.900024414062,1.87285017410509,-0.360884339163081,-0.124078728907128,ST
3.13333333333333,-2.17245531082153,0.244640469551086,7.78961610794067,0.777444005012512,0.87652999162674,2.78202986717224,-1097.10009765625,8.70000076293945,-923.700012207031,1.88834249950414,-0.276362445117344,-0.0373388930487173,ST
3.16666666666667,-2.24542880058289,0.150133892893791,8.35366439819336,-0.685979962348938,1.2500079870224,0.198172003030777,-1092.30004882812,8.10000038146973,-928.500061035156,1.89173905030463,-0.265196962672139,-0.0177068940705332,ST
3.2,-3.76112294197083,1.30514800548553,9.61574649810791,-0.403965979814529,0.899396002292633,0.266770005226135,-1099.5,14.7000007629395,-923.700012207031,1.85450351621388,-0.367510384278916,-0.130080365071207,ST
3.23333333333333,-3.44590163230896,0.985739588737488,9.20781326293945,0.823175966739655,1.16616594791412,1.34147191047668,-1075.5,5.10000038146973,-933.300048828125,1.85644847312408,-0.358304678193412,-0.109707509131693,ST
3.26666666666667,-1.73999786376953,-0.55567479133606,9.74315071105957,-0.426831990480423,1.58537602424622,0.327746003866196,-1097.10009765625,9.30000019073486,-916.500061035156,1.89825450353812,-0.184400965651926,0.0530715608612414,ST
3.3,-2.24901747703552,0.117834165692329,10.4082860946655,-1.01372599601746,0.846041977405548,-1.85976791381836,-1082.70007324219,17.1000003814697,-935.700012207031,1.89402244178447,-0.21307590879245,-0.0063284832716801,ST
3.33333333333333,-2.91774129867554,-0.675303399562836,8.64615631103516,0.952749967575073,1.34909391403198,-1.40244793891907,-1080.30004882812,6.30000019073486,-938.100036621094,1.92432098088785,-0.323918011427052,0.0749669673411684,ST
3.36666666666667,-3.10974526405334,-0.11484345048666,8.04322814941406,1.10518991947174,3.49087595939636,-0.975615978240967,-1070.70007324219,4.5,-926.100036621094,1.91056556524324,-0.372894030174293,0.0155973305426201,ST
3.4,-2.34771108627319,-0.247631192207336,8.06894874572754,0.221037998795509,3.49087595939636,-0.792688012123108,-1073.10009765625,13.5000009536743,-933.300048828125,1.91951027131295,-0.292473143498881,0.0301779857544271,ST
3.43333333333333,-4.0117449760437,-0.0364867225289345,9.00025749206543,-0.823175966739655,2.40855193138123,-1.2347639799118,-1065.90002441406,8.10000038146973,-930.900024414062,1.91566666184724,-0.418146274238095,0.007444488994136,ST
3.46666666666667,-4.72832012176514,0.283519774675369,9.66539192199707,-0.289635986089706,1.6692179441452,-0.960371971130371,-1063.5,6.90000009536743,-918.900024414062,1.90458087551785,-0.456155052066376,-0.0265762600629974,ST
3.5,-2.81665515899658,0.099889874458313,8.51217269897461,0.724089980125427,2.11129403114319,-0.0990860015153885,-1061.10009765625,5.10000038146973,-942.900024414062,1.91110087524515,-0.328629410741563,-0.0134860528563144,ST
3.53333333333333,-3.39386320114136,-0.0101684303954244,8.49662113189697,-1.2576299905777,2.05031800270081,-1.82165801525116,-1065.90002441406,6.30000019073486,-933.300048828125,1.92291659492577,-0.381358665001478,0.0038997584889446,ST
3.56666666666667,-4.23664665222168,-0.186620607972145,8.63598823547363,-1.02897000312805,2.11891603469849,-1.265251994133,-1058.70007324219,9.30000019073486,-940.500061035156,1.93443039369169,-0.456457160965537,0.0236400339215099,ST
3.6,-4.61886024475098,0.1214230209589,9.53978252410889,-1.08232402801514,2.5152599811554,-0.0152439996600151,-1058.70007324219,8.10000038146973,-940.500061035156,1.91723194731529,-0.455300285535359,-0.0099982758488977,ST
3.63333333333333,-4.72532939910889,-0.0119628589600325,9.03674411773682,-0.0609759986400604,1.93598794937134,0.0,-1056.30004882812,12.9000005722046,-933.300048828125,1.92204398999454,-0.483966379744481,0.0009598541137577,ST
3.66666666666667,-5.69910621643066,1.01385235786438,8.69161510467529,-0.724089980125427,1.75305998325348,0.335367977619171,-1041.90002441406,12.3000001907349,-928.500061035156,1.86203440505927,-0.576479112400119,-0.110438889622104,ST
3.7,-5.63331031799316,0.205761179327965,9.98599720001221,-1.65397393703461,0.419209986925125,1.52439999580383,-1046.70007324219,11.1000003814697,-930.900024414062,1.8972433172454,-0.515980202811226,-0.021734505384805,ST
3.73333333333333,-4.95501613616943,0.151928320527077,8.96795749664307,-0.579271972179413,-0.37347799539566,0.403965979814529,-1044.30004882812,11.1000003814697,-940.500061035156,1.89673456240732,-0.504434682895102,-0.0164849231862946,ST
3.76666666666667,-5.19546985626221,0.430662930011749,8.88840484619141,0.335367977619171,-0.442075997591019,0.945127964019775,-1049.10009765625,14.7000007629395,-940.500061035156,1.87797143522012,-0.526672422265657,-0.0485579873266345,ST
3.8,-5.05789709091187,0.141161739826202,7.79559755325317,0.640248000621796,-0.945127964019775,1.12805593013763,-1037.10009765625,9.30000019073486,-933.300048828125,1.88924471651498,-0.572453408620853,-0.0212889893172293,ST
3.83333333333333,-5.34141683578491,0.511412262916565,7.77765321731567,0.0685980021953583,0.434453994035721,0.975615978240967,-1039.5,5.10000038146973,-930.900024414062,1.86136437234147,-0.600276399679334,-0.0650823332977103,ST
3.86666666666667,-5.25528430938721,-0.0508421510457993,7.4331226348877,0.487807989120483,0.442075997591019,1.46342396736145,-1046.70007324219,14.7000007629395,-938.100036621094,1.89503433251294,-0.61557734311295,0.0013368294700862,ST
3.9,-5.73499488830566,-0.278136491775513,7.74056816101074,0.571649968624115,0.571649968624115,1.83690190315247,-1046.70007324219,3.30000019073486,-945.300048828125,1.90712389739958,-0.637805617991741,0.0316783825910377,ST
3.93333333333333,-6.59033918380737,0.666929423809052,8.36622619628906,0.78506600856781,0.586893975734711,2.09605002403259,-1039.5,18.9000015258789,-928.500061035156,1.83433628081329,-0.665403683016247,-0.0790565802319502,ST
3.96666666666667,-6.03765535354614,0.665733098983765,8.44637680053711,1.60824191570282,-0.472563982009888,3.95581793785095,-1046.70007324219,10.5,-918.900024414062,1.8200659951386,-0.619671668114219,-0.0860615359139068,ST
4.0,-5.54837417602539,1.09280717372894,8.69161510467529,0.46494197845459,-0.221037998795509,4.85521411895752,-1039.5,6.90000009536743,-930.900024414062,1.77852761831668,-0.565459106009888,-0.12947854306433,ST
4.03333333333333,-5.80796813964844,1.20406174659729,8.09107971191406,0.632625997066498,-0.609759986400604,5.64027976989746,-1046.70007324219,6.90000009536743,-923.700012207031,1.74535442515124,-0.612870810757489,-0.154441865178107,ST
4.06666666666667,-5.79301452636719,1.35898077487946,8.91891002655029,0.617381989955902,0.25152599811554,7.89639186859131,-1041.90002441406,7.50000047683716,-933.300048828125,1.71321351397621,-0.570830271523347,-0.16086643823904,ST
4.1,-5.44848442077637,1.79383075237274,7.12507915496826,0.663114011287689,-0.419209986925125,10.1753702163696,-1044.30004882812,7.50000047683716,-933.300048828125,1.62399303994996,-0.630577198744189,-0.255953922118694,ST
4.13333333333333,-4.83000469207764,1.88833737373352,6.8959903717041,-1.83690190315247,1.28049600124359,11.4863538742065,-1051.5,6.90000009536743,-923.700012207031,1.56392412776323,-0.592449307536998,-0.276713762246769,ST
4.16666666666667,-4.99808263778687,2.72454118728638,7.56232166290283,-2.79727387428284,1.92074394226074,12.2637977600098,-1044.30004882812,11.7000007629395,-933.300048828125,1.46889617904485,-0.553901835036905,-0.351126499240378,ST
4.2,-5.02380275726318,2.66233444213867,8.01870441436768,-3.20123982429504,1.97409796714783,12.6830081939697,-1046.70007324219,13.5000009536743,-921.300048828125,1.42110155677377,-0.533281415298266,-0.328867092788176,ST
4.23333333333333,-3.77129149436951,2.21372723579407,7.85062646865845,-2.56099200248718,2.24848985671997,11.989405632019,-1025.10009765625,19.5,-926.100036621094,1.38752783204588,-0.435052824949449,-0.282332698195238,ST
4.26666666666667,-1.95832014083862,1.4881796836853,9.75331974029541,-2.27897787094116,2.69056582450867,6.18144178390503,-1037.10009765625,14.7000007629395,-926.100036621094,1.39590666933676,-0.20839281290881,-0.155248956829818,ST
4.3,-3.36156344413757,1.94755351543427,8.48106956481934,0.746955990791321,1.50153398513794,-4.18447780609131,-1020.30004882812,17.7000007629395,-933.300048828125,1.39480499517703,-0.366029883340221,-0.221675971391598,ST
4.33333333333333,-3.5451934337616,1.57610678672791,8.12098693847656,0.960371971130371,1.57775402069092,-8.13267421722412,-1027.5,4.5,-938.100036621094,1.44134323036345,-0.408494518953476,-0.189046095008105,ST
4.36666666666667,-5.45027875900269,2.19219398498535,8.22446632385254,1.22714197635651,0.830797970294952,-9.72567176818848,-1017.90002441406,9.30000019073486,-935.700012207031,1.45281444677332,-0.568236158918329,-0.249855440236308,ST
4.4,-5.41558647155762,1.25909090042114,8.15209102630615,0.708845973014832,2.62196803092957,-7.78206205368042,-1022.70001220703,11.1000003814697,-916.500061035156,1.53650463996856,-0.586932392495305,-0.150324225084702,ST
4.43333333333333,-4.85153770446777,0.45638307929039,8.10364055633545,0.800309956073761,1.28049600124359,-6.80644607543945,-1025.10009765625,12.9000005722046,-926.100036621094,1.61585720140008,-0.54365983712894,-0.0544602134868929,ST
4.46666666666667,-5.16496467590332,0.672312676906586,7.78363466262817,1.60824191570282,1.73019397258759,-6.59302997589111,-1015.50006103516,14.1000003814697,-926.100036621094,1.63094445466321,-0.58624903036791,-0.0804478699330182,ST
4.5,-5.44310092926025,0.958225011825562,9.22157001495361,2.88873791694641,1.83690190315247,-5.29728984832764,-1013.10003662109,8.10000038146973,-938.100036621094,1.6462621289239,-0.537078617498456,-0.102339970424842,ST
4.53333333333333,-5.15659046173096,1.12450873851776,7.59342479705811,3.30032587051392,0.411587983369827,-4.5655779838562,-1010.70001220703,13.5000009536743,-921.300048828125,1.64862819562258,-0.591065828471901,-0.145723787963108,ST
4.56666666666667,-5.39405345916748,0.831418752670288,8.56480884552002,1.61586391925812,0.754577994346619,-4.16923379898071,-1010.70001220703,12.9000005722046,-923.700012207031,1.69632164826343,-0.562915820915082,-0.0966632621682638,ST
4.6,-5.34859466552734,0.683079302310944,8.57437992095947,-0.114329993724823,-1.22714197635651,-4.93905591964722,-1003.50006103516,6.90000009536743,-940.500061035156,1.7272695005074,-0.55516923356811,-0.0747776249764647,ST
4.63333333333333,-5.72901344299316,0.712388277053833,7.02040386199951,0.6250039935112,-2.08842802047729,-3.55947399139404,-1003.50006103516,10.5,-926.100036621094,1.73058455884437,-0.673841999064198,-0.0961074331605878,ST
4.66666666666667,-5.22537708282471,-0.236864611506462,8.11739826202393,0.67835795879364,-0.350611984729767,-1.69970595836639,-1022.70001220703,12.3000001907349,-930.900024414062,1.80985378954307,-0.575435034133635,0.0251521105148224,ST
4.7,-4.18401002883911,-0.473131090402603,8.84653472900391,0.144817993044853,-3.48325395584106,-2.96495795249939,-1015.50006103516,14.7000007629395,-923.700012207031,1.83587564316131,-0.440609808902243,0.0543694281479363,ST
4.73333333333333,-5.15479612350464,0.107067592442036,6.98511362075806,1.70732796192169,-2.53812599182129,-3.38416790962219,-1013.10003662109,11.1000003814697,-916.500061035156,1.8199167897959,-0.623500397124241,-0.0110511997722685,ST
4.76666666666667,-5.83009958267212,0.179442897439003,7.41816902160645,0.434453994035721,-0.6250039935112,-3.58996200561523,-1017.90002441406,16.5,-930.900024414062,1.82957385093924,-0.663490073575088,-0.0197178494506646,ST
4.8,-6.72073459625244,0.51739364862442,8.80227184295654,0.487807989120483,0.198172003030777,-1.79117000102997,-1020.30004882812,9.30000019073486,-928.500061035156,1.81588663931091,-0.652122224275796,-0.056147715792965,ST
4.83333333333333,-6.64058303833008,0.757248997688293,9.5146598815918,1.43293595314026,-1.6844619512558,-1.07470202445984,-1010.70001220703,12.9000005722046,-928.500061035156,1.81084783296219,-0.606572213050397,-0.0796996894301154,ST
4.86666666666667,-5.39106273651123,0.420494496822357,7.34878444671631,1.57013201713562,-2.9344699382782,-1.78354799747467,-1017.90002441406,12.3000001907349,-940.500061035156,1.83477474206474,-0.626384837815764,-0.058369430608343,ST
4.9,-4.92451095581055,0.649583280086517,7.19805240631104,-0.114329993724823,-1.47104597091675,-2.18751406669617,-1022.70001220703,10.5,-923.700012207031,1.82811609055816,-0.596647425964537,-0.0863581445548578,ST
4.93333333333333,-5.40840864181519,0.811081886291504,8.96975231170654,-0.0609759986400604,-1.2347639799118,-0.99848198890686,-1041.90002441406,4.5,-933.300048828125,1.83120993685178,-0.540644880810267,-0.0888318400436406,ST
4.96666666666667,-4.62125253677368,0.512010395526886,7.83926200866699,1.21951997280121,-2.81251788139343,-0.899396002292633,-1029.90002441406,12.9000005722046,-921.300048828125,1.85027208363008,-0.527334737623265,-0.0668778494105965,ST
5.0,-4.39934158325195,0.450401663780212,8.3997220993042,0.792688012123108,-1.59299790859222,-0.777444005012512,-1027.5,8.10000038146973,-930.900024414062,1.86180926328661,-0.480710926594204,-0.0545550661722105,ST
5.03333333333333,-5.19786262512207,0.585581958293915,8.78492546081543,0.960371971130371,-1.40244793891907,-0.693601965904236,-1034.70007324219,13.5000009536743,-928.500061035156,1.86127499453369,-0.529132764111646,-0.0669719172795872,ST
5.06666666666667,-5.27382659912109,0.355895072221756,8.73228931427002,0.525918006896973,-1.40244793891907,-0.0685980021953583,-1041.90002441406,12.9000005722046,-926.100036621094,1.87550194213881,-0.540054183732537,-0.0425633066304615,ST
5.1,-4.69003915786743,0.0209350045770407,8.50439643859863,-0.228659987449646,-1.69970595836639,-0.419209986925125,-1029.90002441406,8.10000038146973,-933.300048828125,1.89634190197432,-0.502618069313155,-0.0032814402684194,ST
5.13333333333333,-4.10027027130127,0.294286340475082,6.99647855758667,0.708845973014832,-1.63110792636871,-1.05945801734924,-1046.70007324219,8.10000038146973,-918.900024414062,1.88448039940619,-0.526341144534047,-0.0411585018444808,ST
5.16666666666667,-5.12907600402832,0.760239720344543,7.10294771194458,0.67835795879364,0.716467976570129,-0.99848198890686,-1039.5,12.3000001907349,-926.100036621094,1.85578160583416,-0.620171746139128,-0.103860072416212,ST
5.2,-5.30433177947998,0.931308627128601,8.80586051940918,-0.0457319989800453,1.6920839548111,0.228659987449646,-1037.10009765625,14.1000003814697,-928.500061035156,1.85291303035717,-0.54451745998755,-0.105686074518902,ST
5.23333333333333,-4.00456714630127,0.269762486219406,7.8978796005249,-0.350611984729767,-0.907018005847931,0.0685980021953583,-1034.70007324219,10.5,-935.700012207031,1.88580825688964,-0.470615202644404,-0.0363858438255656,ST
5.26666666666667,-4.84316349029541,0.343932211399078,8.39792728424072,-0.274392008781433,0.899396002292633,-0.175305992364883,-1037.10009765625,8.10000038146973,-935.700012207031,1.88397645101112,-0.522151654701249,-0.0401521289000415,ST
5.3,-4.99987697601318,0.202770471572876,8.86388111114502,-0.0,1.99696397781372,0.0762199983000755,-1037.10009765625,10.5,-928.500061035156,1.89167382524232,-0.51710107804668,-0.0234747898943294,ST
5.33333333333333,-5.23076009750366,-0.0466551519930363,9.521240234375,0.114329993724823,1.06708002090454,0.129574000835419,-1037.10009765625,14.1000003814697,-935.700012207031,1.90454973940656,-0.504753784170324,0.0034489205368495,ST
5.36666666666667,-4.41549158096313,-0.337352633476257,9.29693603515625,0.137196004390717,-0.167683988809586,-0.228659987449646,-1029.90002441406,12.3000001907349,-926.100036621094,1.92016571766011,-0.445363239458641,0.0349267166709799,ST
5.4,-3.76112294197083,-0.0556272976100445,8.4236478805542,-0.274392008781433,-2.14178204536438,-1.28811800479889,-1029.90002441406,3.30000019073486,-935.700012207031,1.91410729299303,-0.417357150602661,0.0091486717418965,ST
5.43333333333333,-4.26356315612793,-0.222509190440178,7.73159599304199,-0.434453994035721,-1.53202199935913,-1.44055795669556,-1037.10009765625,16.5,-930.900024414062,1.92816875011098,-0.497630026936725,0.0299062996232848,ST
5.46666666666667,-3.98722100257874,-0.0251220054924488,8.38297367095947,-1.37195992469788,-0.236281991004944,-1.73781597614288,-1039.5,8.70000076293945,-938.100036621094,1.92243100823408,-0.445729400317957,0.007754398451651,ST
5.5,-4.56682157516479,0.410924226045609,8.85431003570557,-0.754577994346619,-0.846041977405548,-0.899396002292633,-1032.30004882812,13.5000009536743,-933.300048828125,1.90255658922942,-0.47319866770671,-0.0420820131425283,ST
5.53333333333333,-4.17324352264404,-0.174657747149467,7.81713056564331,-0.518296003341675,-0.716467976570129,-0.0304879993200302,-1041.90002441406,9.30000019073486,-918.900024414062,1.93084387417062,-0.488591518519242,0.0213983206072232,ST
5.56666666666667,-4.44001531600952,0.175854027271271,9.12467098236084,-0.754577994346619,-0.175305992364883,0.137196004390717,-1051.5,17.7000007629395,-918.900024414062,1.91150979225282,-0.453966336725826,-0.0165022594934245,ST
5.6,-4.23485231399536,0.127404451370239,8.71793365478516,0.144817993044853,-1.79879200458527,0.289635986089706,-1041.90002441406,12.3000001907349,-928.500061035156,1.91122113423713,-0.449127911490914,-0.0151224406873326,ST
5.63333333333333,-3.8717794418335,-0.0125610027462244,8.27889728546143,-0.0076219998300075,-1.32622802257538,0.342989981174469,-1051.5,14.7000007629395,-918.900024414062,1.9165288828076,-0.435704213916448,0.0005887946329967,ST
5.66666666666667,-4.60091590881348,-0.157311603426933,8.04980850219727,0.289635986089706,0.685979962348938,0.510673999786377,-1049.10009765625,14.1000003814697,-935.700012207031,1.92301988641953,-0.517670144608165,0.0179352464428096,ST
5.7,-4.73370361328125,-0.20097604393959,8.9835090637207,0.632625997066498,1.08994603157043,0.388722002506256,-1034.70007324219,11.7000007629395,-945.300048828125,1.92431295023976,-0.488028372217842,0.0208066199950703,ST
5.73333333333333,-4.87247276306152,-0.0041870009154081,9.30291748046875,0.640248000621796,0.640248000621796,-0.175305992364883,-1044.30004882812,9.30000019073486,-916.500061035156,1.91687163793567,-0.48377240768034,0.0003572655703039,ST
5.76666666666667,-4.17264556884766,0.0269164331257343,7.21180963516235,0.533540010452271,-1.16616594791412,-0.114329993724823,-1056.30004882812,11.7000007629395,-930.900024414062,1.9162805535398,-0.52091291734912,-0.0043466139909226,ST
5.8,-4.41070604324341,-0.0035888578277081,7.92599248886108,0.282013982534409,0.830797970294952,0.0685980021953583,-1039.5,9.30000019073486,-930.900024414062,1.91864400442008,-0.509732847068148,-0.0002768352421122,ST
5.83333333333333,-4.58596229553223,0.130395174026489,8.49721908569336,0.807931959629059,1.265251994133,-0.25152599811554,-1039.5,8.10000038146973,-930.900024414062,1.9138666544406,-0.497583093390719,-0.0158774381857699,ST
5.86666666666667,-5.85761404037476,0.754258275032043,8.60129547119141,1.35671591758728,1.73781597614288,-0.350611984729767,-1022.70001220703,11.1000003814697,-926.100036621094,1.88144999424451,-0.595060933091158,-0.0864427225281063,ST
5.9,-5.81095886230469,0.279332756996155,9.44228458404541,1.05945801734924,1.90549993515015,0.106707997620106,-1029.90002441406,10.5,-914.100036621094,1.91197582521136,-0.556472146932841,-0.0337688651586438,ST
5.93333333333333,-4.51538133621216,0.104076877236366,9.01820182800293,0.137196004390717,-0.6250039935112,-0.609759986400604,-1034.70007324219,15.3000001907349,-928.500061035156,1.92543422558576,-0.466897261578033,-0.0121050757863783,ST
5.96666666666667,-4.55605506896973,-0.126208171248436,9.36452674865723,0.0381099991500378,-1.18140995502472,-0.731711983680725,-1025.10009765625,11.1000003814697,-938.100036621094,1.93962357831954,-0.451360636307347,0.012964640155757,ST
6.0,-4.26117038726807,-0.211144462227821,8.16764259338379,0.846041977405548,-1.78354799747467,-0.815553963184357,-1034.70007324219,7.50000047683716,-928.500061035156,1.94977294035466,-0.476521040278818,0.0245560209671913,ST
6.03333333333333,-4.31380701065063,-0.0657957270741463,8.22566223144531,0.846041977405548,-1.00610399246216,-0.503051996231079,-1039.5,15.3000001907349,-928.500061035156,1.94580123902374,-0.481035454857186,0.0076878793612278,ST
6.06666666666667,-3.96748232841492,0.117834165692329,8.16943645477295,0.525918006896973,0.327746003866196,0.0914639979600906,-1046.70007324219,9.30000019073486,-926.100036621094,1.93647541284498,-0.453656211789881,-0.014602840799414,ST
6.1,-3.64508318901062,-0.0275145769119263,8.43022727966309,0.259148001670837,-0.701223969459534,0.0838419944047928,-1032.30004882812,5.70000028610229,-928.500061035156,1.94359239821053,-0.408782930423229,0.0020555350877057,ST
6.13333333333333,-4.20614147186279,0.0873288735747337,8.67307281494141,0.152439996600151,-0.731711983680725,-0.0304879993200302,-1041.90002441406,7.50000047683716,-933.300048828125,1.93911001492111,-0.448566896206698,-0.0097934392762744,ST
6.16666666666667,-4.18879508972168,-0.0263182912021875,8.76518726348877,0.25152599811554,-0.335367977619171,0.358233988285065,-1041.90002441406,10.5,-933.300048828125,1.94312469307799,-0.445354710370352,0.0017753060440176,ST
6.2,-4.37601375579834,-0.233275756239891,8.88302135467529,0.0381099991500378,-0.381099998950958,0.228659987449646,-1044.30004882812,12.9000005722046,-921.300048828125,1.95234634660391,-0.456473962519389,0.0249946544838347,ST
6.23333333333333,-4.68585205078125,-0.530552804470062,9.5272216796875,0.510673999786377,0.221037998795509,0.525918006896973,-1034.70007324219,13.5000009536743,-942.900024414062,1.96371088313535,-0.456911134147063,0.0534736759905948,ST
6.26666666666667,-3.93279004096985,-0.967795312404633,9.35136699676514,0.457319974899292,-1.15854394435883,0.221037998795509,-1041.90002441406,6.90000009536743,-933.300048828125,1.98255824413131,-0.396794859030345,0.100156335244655,ST
6.3,-4.04524087905884,-0.14355431497097,8.3219633102417,0.503051996231079,-2.14940404891968,-0.289635986089706,-1049.10009765625,10.5,-926.100036621094,1.95148173808607,-0.44658573127812,0.0200531767469941,ST
6.33333333333333,-4.28449821472168,-0.13398402929306,7.17711734771729,1.2500079870224,-0.472563982009888,0.67835795879364,-1046.70007324219,5.10000038146973,-930.900024414062,1.94957999646132,-0.533611038619509,0.0159434430609861,ST
6.36666666666667,-4.69063711166382,-0.48150509595871,8.43740463256836,0.114329993724823,1.20427596569061,0.358233988285065,-1032.30004882812,9.90000057220459,-935.700012207031,1.96818320820439,-0.509538408104239,0.0553970749165352,ST
6.4,-4.91254806518555,-0.110656447708607,8.33751487731934,0.121951997280121,0.304879993200302,0.274392008781433,-1039.5,9.90000057220459,-945.300048828125,1.94693968706234,-0.532122009924327,0.0143359127826586,ST
6.43333333333333,-4.55366230010986,-0.413914948701859,8.37400150299072,0.167683988809586,0.114329993724823,0.304879993200302,-1039.5,9.90000057220459,-940.500061035156,1.96243212316847,-0.499177421343612,0.0474360163635651,ST
6.46666666666667,-4.67388916015625,-0.386400371789932,8.3399076461792,0.182927995920181,0.190549999475479,0.160062000155449,-1049.10009765625,11.1000003814697,-935.700012207031,1.96148849336637,-0.51023151360911,0.0458969939187311,ST
6.5,-4.93527746200562,-0.187816888093948,9.13603591918945,-0.0609759986400604,0.182927995920181,0.0609759986400604,-1041.90002441406,7.50000047683716,-923.700012207031,1.9494240443006,-0.496124075731295,0.021624372570523,ST
6.53333333333333,-4.72174072265625,-0.24224790930748,9.5032958984375,0.160062000155449,-0.716467976570129,0.762199997901917,-1039.5,8.70000076293945,-930.900024414062,1.94785121995298,-0.46125447297267,0.0244079960495307,ST
6.56666666666667,-4.50760555267334,-0.0651975870132446,9.06545448303223,0.503051996231079,-1.6692179441452,1.05183601379395,-1046.70007324219,15.9000005722046,-933.300048828125,1.93635217938646,-0.45863280311555,0.0061669588872211,ST
6.6,-3.63910174369812,-0.330174922943115,7.97025489807129,0.99848198890686,-0.990859985351562,0.861285984516144,-1051.5,10.5,-933.300048828125,1.94809137413159,-0.42764230020444,0.0376294321214732,ST
6.63333333333333,-4.29406833648682,-0.130395174026489,8.80286979675293,0.0304879993200302,0.480185985565186,-0.0838419944047928,-1046.70007324219,5.70000028610229,-933.300048828125,1.93922379353317,-0.453542634352441,0.0157726628989413,ST
6.66666666666667,-4.250403881073,-0.230883181095123,8.04801368713379,0.960371971130371,0.945127964019775,0.160062000155449,-1039.5,10.5,-921.300048828125,1.94550318682666,-0.486011953598622,0.0264170334576895,ST
6.7,-4.56562519073486,-0.35709136724472,8.34230041503906,0.762199997901917,1.60061991214752,0.518296003341675,-1049.10009765625,9.30000019073486,-923.700012207031,1.95204911458581,-0.502775328174017,0.04065044670821,ST
6.73333333333333,-4.82581758499146,-0.30325847864151,8.22207355499268,0.746955990791321,1.58537602424622,0.25152599811554,-1037.10009765625,14.1000003814697,-940.500061035156,1.95049216786662,-0.532003659281345,0.0355800062341855,ST
6.76666666666667,-5.23674154281616,-0.680686712265015,9.63608360290527,0.342989981174469,1.6920839548111,0.548784017562866,-1037.10009765625,12.9000005722046,-928.500061035156,1.96554499354878,-0.501088999860493,0.0681590972387151,ST
6.8,-4.51956844329834,-0.275145769119263,8.13414669036865,0.846041977405548,0.0152439996600151,0.564027965068817,-1037.10009765625,15.9000005722046,-918.900024414062,1.94831040422478,-0.506745219383212,0.033271302431578,ST
6.83333333333333,-4.30722761154175,-0.26437920331955,9.09476375579834,0.160062000155449,1.33385002613068,0.426831990480423,-1044.30004882812,9.90000057220459,-933.300048828125,1.94493565042224,-0.447013299648439,0.0286393634183695,ST
6.86666666666667,-4.23066520690918,-0.0406737215816975,8.92668533325195,0.282013982534409,0.457319974899292,0.175305992364883,-1029.90002441406,9.90000057220459,-926.100036621094,1.93457356550395,-0.443527447142044,0.0049219376177568,ST
6.9,-4.51239061355591,-0.245238617062569,8.11680030822754,-0.388722002506256,0.37347799539566,-0.564027965068817,-1029.90002441406,5.70000028610229,-933.300048828125,1.94807827277557,-0.506220151125752,0.0307496570012194,ST
6.93333333333333,-4.27851676940918,-0.122021168470383,8.00614356994629,0.0533539988100529,0.449698001146317,0.0304879993200302,-1034.70007324219,7.50000047683716,-938.100036621094,1.94093136783645,-0.492126733741556,0.0157532689343029,ST
6.96666666666667,-4.09608316421509,-0.311632484197617,8.54148197174072,0.480185985565186,-0.647870004177094,1.01372599601746,-1032.30004882812,11.1000003814697,-923.700012207031,1.94593425469072,-0.447707102065163,0.0340001776313801,ST
7.0,-4.09548473358154,0.0885251611471176,8.7101583480835,-0.708845973014832,-1.65397393703461,0.617381989955902,-1022.70001220703,11.7000007629395,-926.100036621094,1.9236827445062,-0.436979218573402,-0.0080438033098063,ST
7.03333333333333,-4.81863975524902,0.422288924455643,8.29863548278809,-1.02897000312805,-1.05183601379395,0.533540010452271,-1034.70007324219,11.7000007629395,-926.100036621094,1.90046883279368,-0.521204976097648,-0.0482904503866244,ST
7.06666666666667,-4.67329120635986,0.220714762806892,9.07981014251709,-0.907018005847931,-0.426831990480423,1.21189796924591,-1044.30004882812,10.5,-923.700012207031,1.90488298226527,-0.476309680556682,-0.0247888090887957,ST
7.1,-5.01064348220825,-0.0723752975463867,8.94403171539307,-0.480185985565186,-0.891773998737335,1.12805593013763,-1041.90002441406,7.50000047683716,-926.100036621094,1.91395735075806,-0.507921769604976,0.0066365506554475,ST
7.13333333333333,-4.47111892700195,-0.243444189429283,8.99128532409668,-1.01372599601746,-0.731711983680725,0.983237981796265,-1041.90002441406,6.90000009536743,-921.300048828125,1.91698293939378,-0.461608342841383,0.0272909190219138,ST
7.16666666666667,-4.88443565368652,-0.202770471572876,8.0055456161499,-0.663114011287689,-0.975615978240967,0.327746003866196,-1034.70007324219,8.70000076293945,-933.300048828125,1.91353533778819,-0.542571201841986,0.0261659570999712,ST
7.2,-4.05062437057495,0.0245238617062569,8.4230489730835,-0.198172003030777,-0.792688012123108,0.449698001146317,-1041.90002441406,11.7000007629395,-933.300048828125,1.89746113533433,-0.44924161123741,-0.002274273256403,ST
7.23333333333333,-4.42745447158813,0.308641761541367,7.92001104354858,-0.0304879993200302,0.0152439996600151,1.01372599601746,-1039.5,12.3000001907349,-935.700012207031,1.87588472546038,-0.507895437683504,-0.0389109205048606,ST
7.26666666666667,-4.53212928771973,0.419298231601715,8.05459308624268,-0.228659987449646,1.18903195858002,1.05945801734924,-1037.10009765625,13.5000009536743,-930.900024414062,1.86441522432594,-0.513680951841107,-0.0521503022561133,ST
7.3,-4.74686241149902,0.21712589263916,8.9655647277832,-0.205793991684914,0.602137982845306,0.815553963184357,-1044.30004882812,9.90000057220459,-916.500061035156,1.87308781730946,-0.488555049812589,-0.0253914403574227,ST
7.33333333333333,-4.94006299972534,0.0819455906748772,8.96975231170654,-0.236281991004944,0.190549999475479,0.144817993044853,-1034.70007324219,9.30000019073486,-926.100036621094,1.87951211848616,-0.503114472741137,-0.0095405459220577,ST
7.36666666666667,-4.74626445770264,-0.0478514358401299,9.46082782745361,0.0609759986400604,-0.259148001670837,-0.449698001146317,-1046.70007324219,6.90000009536743,-930.900024414062,1.88823344010596,-0.465917497576238,0.0048214514684305,ST
7.4,-3.89211630821228,-0.0538328662514687,8.86029148101807,0.160062000155449,-1.37195992469788,-0.87652999162674,-1041.90002441406,20.1000003814697,-923.700012207031,1.8928557012887,-0.413699528737089,0.0064030872061063,ST
7.43333333333333,-4.03925943374634,-0.0484495796263218,8.37400150299072,0.342989981174469,-0.685979962348938,-0.87652999162674,-1044.30004882812,7.50000047683716,-923.700012207031,1.89697158095244,-0.446817369440818,0.0059287730759787,ST
7.46666666666667,-4.46633338928223,-0.486290246248245,8.55822944641113,0.381099998950958,0.92988395690918,-0.457319974899292,-1037.10009765625,9.90000057220459,-928.500061035156,1.92205838976159,-0.4809423516936,0.0550980318835678,ST
7.5,-3.6151762008667,-0.317015767097473,8.90814304351807,0.198172003030777,-0.106707997620106,-0.236281991004944,-1039.5,5.10000038146973,-914.100036621094,1.91543461479358,-0.388993762755248,0.0361554227276707,ST
7.53333333333333,-4.38737869262695,-0.359483927488327,8.91113376617432,-0.182927995920181,-0.121951997280121,-0.0304879993200302,-1032.30004882812,16.5,-930.900024414062,1.91696700675012,-0.455053492616479,0.0405266112667697,ST
7.56666666666667,-4.14572906494141,-0.431859225034714,8.65572738647461,-0.198172003030777,-0.594515979290009,0.0381099991500378,-1032.30004882812,11.7000007629395,-928.500061035156,1.92031298511342,-0.445557936545824,0.0497520526372723,ST
7.6,-4.21989870071411,-0.722556710243225,8.19336223602295,0.0076219998300075,-0.358233988285065,-0.0381099991500378,-1051.5,14.7000007629395,-933.300048828125,1.93660535069157,-0.472284083958311,0.0863760604968614,ST
7.63333333333333,-4.69422626495361,-0.502440094947815,8.30461692810059,0.434453994035721,0.792688012123108,0.0381099991500378,-1037.10009765625,18.9000015258789,-921.300048828125,1.92543544030256,-0.514022962229363,0.0603551871612634,ST
7.66666666666667,-4.07335376739502,-0.581394970417023,9.0193977355957,0.602137982845306,0.175305992364883,0.144817993044853,-1039.5,15.9000005722046,-930.900024414062,1.9273691125773,-0.427412214348013,0.0631006684742682,ST
7.7,-4.03387641906738,-0.73751026391983,9.08040809631348,0.3125019967556,-1.50153398513794,-0.396344006061554,-1044.30004882812,5.10000038146973,-921.300048828125,1.93605421375859,-0.414709115443246,0.0799969094383542,ST
7.73333333333333,-4.00875425338745,-0.619676113128662,7.48157215118408,1.10518991947174,-2.02745199203491,-0.381099998950958,-1037.10009765625,17.1000003814697,-923.700012207031,1.93959437680734,-0.483949731642408,0.0808482986984366,ST
7.76666666666667,-4.37661218643188,-0.491673529148102,8.19754981994629,0.533540010452271,0.0533539988100529,0.327746003866196,-1037.10009765625,12.9000005722046,-926.100036621094,1.92947818787334,-0.489542270122085,0.0595766457819024,ST
7.8,-4.76779747009277,-0.446214646100998,7.75552177429199,0.746955990791321,-0.396344006061554,0.724089980125427,-1044.30004882812,8.10000038146973,-926.100036621094,1.92608293875341,-0.548347690491513,0.0554794066713362,ST
7.83333333333333,-5.49573755264282,-0.35410064458847,9.06844520568848,-0.205793991684914,1.12043392658234,0.701223969459534,-1041.90002441406,11.7000007629395,-926.100036621094,1.91464333116567,-0.546584427738937,0.0393695196675127,ST
7.86666666666667,-4.96279239654541,-0.293688207864761,8.15687561035156,0.3125019967556,-0.67835795879364,0.297257989645004,-1034.70007324219,6.90000009536743,-933.300048828125,1.91199780131021,-0.545193182653856,0.0352767441770208,ST
7.9,-5.01542901992798,-0.421690791845322,8.62582015991211,0.37347799539566,0.0228659994900227,0.510673999786377,-1037.10009765625,13.5000009536743,-930.900024414062,1.91692599683717,-0.526910869111227,0.0472372321315852,ST
7.93333333333333,-4.4023323059082,-0.534739792346954,9.5445671081543,-0.0304879993200302,-1.77592599391937,0.403965979814529,-1039.5,11.1000003814697,-928.500061035156,1.91845227162402,-0.431643612363378,0.0553465347875639,ST
7.96666666666667,-3.90108847618103,-0.192003890872002,7.56471395492554,0.510673999786377,-1.79117000102997,0.510673999786377,-1046.70007324219,11.7000007629395,-926.100036621094,1.90371055494158,-0.47173623126117,0.0248915788718997,ST
8.0,-3.95073437690735,-0.142358019948006,8.61565113067627,-0.205793991684914,0.762199997901917,1.12043392658234,-1051.5,11.1000003814697,-940.500061035156,1.89479814320525,-0.432712278106927,0.0162916777834218,ST
8.03333333333333,-4.31440544128418,-0.260790348052979,8.33093547821045,0.586893975734711,1.36433792114258,1.08232402801514,-1029.90002441406,11.1000003814697,-938.100036621094,1.89718652539798,-0.478158070605752,0.0287890579566357,ST
8.06666666666667,-4.98312902450562,-0.205761179327965,9.85560131072998,0.152439996600151,0.449698001146317,0.78506600856781,-1032.30004882812,10.5,-918.900024414062,1.89023717754581,-0.469151054004374,0.0202023037894742,ST
8.1,-3.39266681671143,0.401952087879181,8.74365425109863,0.472563982009888,-0.411587983369827,0.78506600856781,-1037.10009765625,13.5000009536743,-928.500061035156,1.86126199833553,-0.373105363240263,-0.0446889727535341,ST
8.13333333333333,-4.21511363983154,-0.125011876225471,8.16225910186768,-0.0762199983000755,1.2423859834671,0.548784017562866,-1034.70007324219,9.30000019073486,-933.300048828125,1.88233079352236,-0.474543716763444,0.0124109035995108,ST
8.16666666666667,-3.87656450271606,-0.361278355121613,9.44647216796875,-0.320124000310898,1.33385002613068,0.335367977619171,-1029.90002441406,8.10000038146973,-928.500061035156,1.89104621361568,-0.393846243128064,0.0378593208020871,ST
8.2,-3.70190691947937,-0.164489313960075,8.83038425445557,-0.602137982845306,-0.609759986400604,-0.266770005226135,-1034.70007324219,15.9000005722046,-935.700012207031,1.88434238409065,-0.395771885348729,0.020436440835927,ST
8.23333333333333,-3.66063499450684,0.361278355121613,8.5426778793335,0.0914639979600906,-1.20427596569061,0.823175966739655,-1039.5,11.7000007629395,-935.700012207031,1.85686557888922,-0.402201991844648,-0.0412092525498791,ST
8.26666666666667,-2.84656238555908,0.184228032827377,7.63589334487915,0.106707997620106,-1.92836594581604,1.18140995502472,-1037.10009765625,17.1000003814697,-926.100036621094,1.85796969147549,-0.35529851170362,-0.0256981027840707,ST
8.3,-4.52196073532104,0.139367312192917,8.43321800231934,-0.365855991840363,0.495429992675781,0.449698001146317,-1037.10009765625,8.70000076293945,-935.700012207031,1.8589972152723,-0.48800409404019,-0.0166762593191914,ST
8.33333333333333,-5.01004552841187,0.390587359666824,9.73716926574707,0.167683988809586,1.38720393180847,0.297257989645004,-1058.70007324219,11.7000007629395,-935.700012207031,1.84725233519271,-0.477715561483902,-0.0397340763761749,ST
8.36666666666667,-4.46095037460327,0.571226537227631,7.97264766693115,0.510673999786377,-1.2423859834671,0.0533539988100529,-1039.5,10.5,-923.700012207031,1.83359529301338,-0.506055900190913,-0.0714511175577919,ST
8.4,-4.72532939910889,0.0179442893713713,9.04990291595459,0.0990860015153885,0.708845973014832,0.0762199983000755,-1032.30004882812,11.1000003814697,-926.100036621094,1.86535797017588,-0.483134892282304,-0.0041536836262961,ST
8.43333333333333,-4.44240808486938,-0.0723752975463867,9.30650615692139,0.327746003866196,-0.724089980125427,-0.358233988285065,-1053.90002441406,16.5,-933.300048828125,1.87251182933795,-0.445667132017678,0.0070371375729985,ST
8.46666666666667,-4.07395172119141,0.288304924964905,8.66410064697266,0.350611984729767,-1.63110792636871,-0.525918006896973,-1041.90002441406,8.10000038146973,-916.500061035156,1.85894270419781,-0.436885551270828,-0.0317676064781782,ST
8.5,-3.9638934135437,0.042468149214983,6.68245315551758,1.18140995502472,-0.419209986925125,-0.3125019967556,-1044.30004882812,8.70000076293945,-935.700012207031,1.8734044007872,-0.530678057147271,-0.009148513684442,ST
8.53333333333333,-4.06198883056641,0.167480036616325,7.79559755325317,0.937505960464478,0.129574000835419,0.175305992364883,-1049.10009765625,14.1000003814697,-945.300048828125,1.86817226889547,-0.482518246761676,-0.0227206173343812,ST
8.56666666666667,-5.10156154632568,0.394774347543716,9.27540302276611,0.472563982009888,0.907018005847931,0.480185985565186,-1046.70007324219,7.50000047683716,-918.900024414062,1.85754067215724,-0.503145725131072,-0.0429900360419021,ST
8.6,-4.33534002304077,-0.01914057508111,9.30830097198486,0.114329993724823,-0.457319974899292,0.121951997280121,-1046.70007324219,10.5,-930.900024414062,1.87705915941583,-0.436773881261166,0.0006800588663242,ST
8.63333333333333,-4.3784065246582,-0.200377896428108,9.37290000915527,-0.259148001670837,-1.61586391925812,-0.396344006061554,-1041.90002441406,8.10000038146973,-933.300048828125,1.8868638772676,-0.434190314419043,0.0213488982837828,ST
8.66666666666667,-4.72652578353882,-0.12441373616457,9.7658805847168,0.0457319989800453,-0.297257989645004,-0.182927995920181,-1027.5,13.5000009536743,-930.900024414062,1.88420161718239,-0.449621537325534,0.013119144241653,ST
8.7,-3.78265619277954,-0.43724250793457,8.47149848937988,0.952749967575073,-0.0762199983000755,-0.289635986089706,-1046.70007324219,11.7000007629395,-923.700012207031,1.90220770077417,-0.420548637352589,0.0486488499658835,ST
8.73333333333333,-2.69762468338013,-0.446812808513641,8.5905294418335,0.289635986089706,-1.30336201190948,0.0152439996600151,-1037.10009765625,8.10000038146973,-930.900024414062,1.90326942603525,-0.306448216693522,0.0512978609033967,ST
8.76666666666667,-3.39147067070007,-0.0687864422798157,7.45585203170776,0.792688012123108,-0.800309956073761,0.0990860015153885,-1039.5,15.9000005722046,-935.700012207031,1.88928331715691,-0.420648432436507,0.0096033405014793,ST
8.8,-4.19896364212036,-0.497056812047958,8.17541790008545,0.571649968624115,1.13567793369293,0.480185985565186,-1053.90002441406,11.7000007629395,-926.100036621094,1.90927935283957,-0.473533850721126,0.0572737923340365,ST
8.83333333333333,-4.52136278152466,-0.177648469805717,9.11988544464111,0.0381099991500378,1.2423859834671,0.518296003341675,-1049.10009765625,5.70000028610229,-923.700012207031,1.89080577361694,-0.462837509928755,0.020523216160554,ST
8.86666666666667,-4.47710037231445,-0.470738530158997,7.82909345626831,0.289635986089706,0.87652999162674,0.564027965068817,-1041.90002441406,14.1000003814697,-921.300048828125,1.90684196076477,-0.518663640609535,0.057916618019862,ST
8.9,-4.57639169692993,-0.742893576622009,9.90883636474609,-0.533540010452271,0.792688012123108,0.510673999786377,-1037.10009765625,10.5,-935.700012207031,1.91160238119548,-0.436521085562833,0.0746993449719333,ST
8.93333333333333,-4.44719314575195,-0.372643083333969,8.24480247497559,0.403965979814529,-1.95123195648193,-0.0152439996600151,-1039.5,5.70000028610229,-921.300048828125,1.89909918119493,-0.488633356322735,0.0456562179992467,ST
8.96666666666667,-4.16187858581543,-0.544310092926025,8.04681777954102,0.205793991684914,-0.0685980021953583,0.388722002506256,-1041.90002441406,11.1000003814697,-916.500061035156,1.90736603397722,-0.47681727860914,0.0659721195253736,ST
9.0,-3.92621040344238,-0.594554126262665,9.02179050445557,-0.434453994035721,-0.442075997591019,0.297257989645004,-1039.5,8.70000076293945,-933.300048828125,1.90530957171478,-0.411698490412436,0.0662920393739303,ST
9.03333333333333,-4.33892917633057,-0.123217448592186,7.45226335525513,0.426831990480423,-0.480185985565186,0.297257989645004,-1039.5,12.9000005722046,-926.100036621094,1.88279295626946,-0.522713006667595,0.0171981166396107,ST
9.06666666666667,-4.58117723464966,-0.318810194730759,8.95838737487793,-0.144817993044853,1.31098401546478,1.18903195858002,-1032.30004882812,8.10000038146973,-926.100036621094,1.88590376333061,-0.476757499991312,0.0340878561599144,ST
9.1,-4.37302303314209,-0.396568775177002,9.84064769744873,-0.282013982534409,-0.480185985565186,0.525918006896973,-1032.30004882812,10.5,-935.700012207031,1.88569130771135,-0.41949344147783,0.0400874864813285,ST
9.13333333333333,-3.92441606521606,-0.137572884559631,8.41347885131836,-0.0076219998300075,-1.70732796192169,0.0838419944047928,-1046.70007324219,14.7000007629395,-928.500061035156,1.87570261615824,-0.432855931793026,0.0172464929493221,ST
9.16666666666667,-5.21580648422241,-0.823044717311859,10.6714687347412,-0.739333987236023,2.02745199203491,0.190549999475479,-1039.5,17.1000003814697,-933.300048828125,1.89924502705229,-0.456341001423655,0.0764943522629623,ST
9.2,-3.78803944587708,0.167480036616325,7.37091588973999,0.777444005012512,-5.54881572723389,0.0304879993200302,-1041.90002441406,14.7000007629395,-930.900024414062,1.85714993730441,-0.464747349324095,-0.0211541011140062,ST
9.23333333333333,-3.11153984069824,-0.328978627920151,7.30571842193604,1.50153398513794,1.38720393180847,1.18140995502472,-1046.70007324219,11.1000003814697,-928.500061035156,1.88061169224204,-0.407240118280308,0.039053599723001,ST
9.26666666666667,-3.9357807636261,-0.453392386436462,8.74724292755127,-0.495429992675781,1.44055795669556,0.274392008781433,-1049.10009765625,18.9000015258789,-935.700012207031,1.88402532606827,-0.424128059283825,0.051944755703273,ST
9.3,-4.27133893966675,0.172863319516182,8.40749740600586,1.47104597091675,-0.182927995920181,0.533540010452271,-1046.70007324219,11.7000007629395,-940.500061035156,1.85326639415478,-0.468219150254588,-0.0211352700138626,ST
9.33333333333333,-5.23434925079346,0.134582161903381,8.68084907531738,1.04421401023865,1.13567793369293,1.12043392658234,-1034.70007324219,9.90000057220459,-928.500061035156,1.85218401250389,-0.542063217080401,-0.0186122135875392,ST
9.36666666666667,-2.43384385108948,-0.351708054542542,8.52892017364502,-0.350611984729767,-1.47104597091675,0.548784017562866,-1044.30004882812,11.7000007629395,-921.300048828125,1.8726731403729,-0.286145697919132,0.0392019792149461,ST
9.4,-6.67707014083862,1.01026344299316,9.1808967590332,0.106707997620106,-1.35671591758728,0.564027965068817,-1041.90002441406,12.9000005722046,-926.100036621094,1.80761675921484,-0.612609828785907,-0.104496783485688,ST
9.43333333333333,-2.45836758613586,-0.447410941123962,8.86208629608154,0.419209986925125,1.88263392448425,0.99848198890686,-1034.70007324219,10.5,-926.100036621094,1.86968986285512,-0.28774403978758,0.0435961841550757,ST
9.46666666666667,-2.69583034515381,-0.102880589663982,8.06775283813477,-0.0457319989800453,-1.88263392448425,0.274392008781433,-1039.5,13.5000009536743,-926.100036621094,1.85937305144492,-0.317911981873415,0.0139304746856027,ST
9.5,-3.86460185050964,0.195592746138573,8.26753234863281,0.175305992364883,-1.71494996547699,0.754577994346619,-1044.30004882812,9.90000057220459,-918.900024414062,1.84309393056013,-0.429412212500114,-0.0228835688677594,ST
9.53333333333333,-3.05351996421814,0.0233275759965181,7.76329755783081,0.358233988285065,-0.487807989120483,1.40244793891907,-1056.30004882812,9.30000019073486,-935.700012207031,1.84467052583649,-0.376127415521596,-0.0053354988738564,ST
9.56666666666667,-5.07225227355957,0.510215938091278,8.04263019561768,0.472563982009888,0.853663980960846,0.693601965904236,-1039.5,10.5,-926.100036621094,1.81711692898438,-0.555542873069623,-0.0623193678759627,ST
9.6,-5.63989019393921,0.584983825683594,9.89866828918457,0.0304879993200302,3.25459384918213,0.846041977405548,-1039.5,8.10000038146973,-928.500061035156,1.81413644671625,-0.524052433144598,-0.0602218282652757,DLL
9.63333333333333,-4.86230421066284,-0.0986935868859291,9.48176193237305,0.205793991684914,0.213415995240211,0.6250039935112,-1041.90002441406,11.1000003814697,-928.500061035156,1.84415362401846,-0.476260726723162,0.0067240115452092,DLL
9.66666666666667,-4.03447437286377,-0.455186814069748,9.56610012054443,-0.579271972179413,-1.40244793891907,-0.0228659994900227,-1037.10009765625,5.70000028610229,-930.900024414062,1.85999746145786,-0.399520135064201,0.0468785211180344,DLL
9.7,-3.44829416275024,-0.455784946680069,8.51336860656738,-0.442075997591019,-2.73629784584045,-0.160062000155449,-1034.70007324219,16.5,-921.300048828125,1.86200483500359,-0.380376340670754,0.0539688607279139,DLL
9.73333333333333,-3.93936967849731,0.0173461455851793,7.42594480514526,0.0076219998300075,-1.6615959405899,0.945127964019775,-1046.70007324219,11.1000003814697,-926.100036621094,1.83509759383624,-0.480617954494124,-0.0007496427301612,DLL
9.76666666666667,-4.95202589035034,0.233873903751373,8.2442045211792,-0.556405961513519,1.92836594581604,3.803377866745,-1039.5,12.3000001907349,-945.300048828125,1.80409702318026,-0.54135464967157,-0.0301029183154418,DLL
9.8,-4.58416795730591,0.101684302091599,8.45235824584961,-2.0731840133667,-0.0838419944047928,5.94515991210938,-1034.70007324219,6.30000019073486,-938.100036621094,1.77982834898722,-0.49771757695392,-0.0144773236421695,DLL
9.83333333333333,-5.18350696563721,0.39537250995636,7.15558433532715,-2.56099200248718,0.640248000621796,9.1311559677124,-1046.70007324219,11.1000003814697,-942.900024414062,1.71251354461754,-0.621801974971197,-0.0600946160193857,DLL
9.86666666666667,-5.31091165542603,-0.0526365824043751,8.72391510009766,-4.35216188430786,1.85214591026306,9.86286735534668,-1046.70007324219,17.1000003814697,-918.900024414062,1.69282973757663,-0.55203055021195,0.0012253362563534,DLL
9.9,-5.66860103607178,-0.684275567531586,9.7479362487793,-3.97868394851685,1.48628997802734,10.2439680099487,-1037.10009765625,18.9000015258789,-926.100036621094,1.67550387360141,-0.530224226201671,0.0640200517081281,DLL
9.93333333333333,-4.31201267242432,-1.07007777690887,10.7438440322876,-5.11436176300049,-0.647870004177094,9.45890140533447,-1032.30004882812,18.9000015258789,-928.500061035156,1.64178024991074,-0.386465128638242,0.0997114334653685,DLL
9.96666666666667,-3.05292177200317,-0.74050098657608,8.02648067474365,-5.38875389099121,-4.09301376342773,8.0640754699707,-1044.30004882812,16.5,-928.500061035156,1.59524025387742,-0.357511717421978,0.0960142464247148,DLL
10.0,-3.82990956306458,-0.46236452460289,7.21300601959229,-4.46649169921875,-1.80641400814056,9.18451023101807,-1037.10009765625,17.7000007629395,-938.100036621094,1.53500846993014,-0.48005072156408,0.0650464376478846,DLL
10.0333333333333,-3.59842801094055,-1.10297560691833,8.48465824127197,-4.48173570632935,0.228659987449646,8.73481178283691,-1044.30004882812,21.9000015258789,-930.900024414062,1.51701998446173,-0.403592397706755,0.127942986062789,DLL
10.0666666666667,-2.4757137298584,-1.1615936756134,7.97085332870483,-5.44972991943359,-2.20275783538818,6.95126390457153,-1037.10009765625,15.3000001907349,-926.100036621094,1.48479975955461,-0.300497837629254,0.149270558209681,DLL
10.1,-3.41719079017639,-0.861325860023499,7.66580009460449,-3.82624387741089,-1.81403601169586,7.157057762146,-1044.30004882812,30.3000011444092,-933.300048828125,1.43480482102564,-0.410694107012505,0.114734343758211,DLL
10.1333333333333,-5.99757957458496,-0.138769164681435,9.47697734832764,-3.89484190940857,-0.228659987449646,7.98785591125488,-1044.30004882812,25.5000019073486,-930.900024414062,1.34838665255188,-0.55802593681086,0.0175093760242332,DLL
10.1666666666667,-4.78813457489014,-1.18551933765411,9.57088565826416,-3.42989993095398,0.861285984516144,7.54577970504761,-1027.5,26.7000007629395,-926.100036621094,1.36033020685165,-0.467650398185987,0.118505248169571,DLL
10.2,-4.66132831573486,-0.712388277053833,9.31069374084473,-3.7957558631897,-0.289635986089706,5.71649980545044,-1037.10009765625,24.9000015258789,-926.100036621094,1.31143012070507,-0.463517893136505,0.0796263130216578,DLL
10.2333333333333,-4.36464929580688,-1.10058307647705,9.23054218292236,-1.79879200458527,0.0457319989800453,4.50460195541382,-1029.90002441406,25.5000019073486,-921.300048828125,1.3053912589708,-0.440899375721899,0.116567533367591,DLL
10.2666666666667,-4.00157642364502,-0.760837852954865,9.35196495056152,-1.54726600646973,-0.358233988285065,2.39330792427063,-1032.30004882812,29.1000003814697,-928.500061035156,1.27871653100357,-0.404412780688819,0.0834241418140949,DLL
10.3,-3.09359550476074,-0.436046212911606,7.40680456161499,0.434453994035721,-1.36433792114258,1.73019397258759,-1044.30004882812,32.7000007629395,-916.500061035156,1.26181730198581,-0.393309358787116,0.057809580089895,DLL
10.3333333333333,-3.75274896621704,-0.15312460064888,7.79200839996338,0.586893975734711,-0.221037998795509,1.83690190315247,-1041.90002441406,31.5000019073486,-921.300048828125,1.23930912047425,-0.446212242977084,0.0187942498731588,DLL
10.3666666666667,-4.94305372238159,0.544908225536346,9.17072772979736,0.556405961513519,-0.205793991684914,2.43903994560242,-1032.30004882812,33.9000015258789,-923.700012207031,1.19527033292562,-0.491190759021586,-0.0591854175839484,DLL
10.4,-3.92262148857117,-0.0005981429712846,8.58155727386475,0.0457319989800453,0.0762199983000755,1.39482593536377,-1032.30004882812,36.3000030517578,-930.900024414062,1.21441680036069,-0.431408516257253,-0.0034349066988882,DLL
10.4333333333333,-3.44111657142639,-0.643003702163696,8.66410064697266,-0.37347799539566,-0.487807989120483,0.884151995182037,-1032.30004882812,34.5,-928.500061035156,1.23925698699693,-0.378647853991672,0.0710015790855384,DLL
10.4666666666667,-3.19228911399841,-0.358287632465363,8.89498424530029,-2.05031800270081,-1.77592599391937,-0.213415995240211,-1032.30004882812,40.5,-930.900024414062,1.22730525391173,-0.3427285041097,0.0450002170284249,DLL
10.5,-3.51109933853149,-0.538328647613525,8.36742210388184,0.106707997620106,-0.807931959629059,0.67835795879364,-1037.10009765625,26.7000007629395,-926.100036621094,1.2307843175253,-0.393096966723404,0.0627678092008797,DLL
10.5333333333333,-3.00387406349182,0.0317015759646893,8.2501859664917,-0.426831990480423,-0.381099998950958,0.228659987449646,-1027.5,31.5000019073486,-926.100036621094,1.20602214258149,-0.350354650693716,-0.0006178784194848,DLL
10.5666666666667,-3.50152897834778,0.276342064142227,8.43142318725586,0.922261953353882,0.129574000835419,0.92988395690918,-1029.90002441406,30.3000011444092,-916.500061035156,1.19136676234106,-0.392231955210245,-0.0339290851505993,DLL
10.6,-3.86101293563843,0.0113647161051631,10.0338487625122,-0.221037998795509,-0.282013982534409,0.510673999786377,-1037.10009765625,36.9000015258789,-928.500061035156,1.20051412921201,-0.367873776471344,-0.0024133771071283,DLL
10.6333333333333,-3.25748658180237,-0.232079476118088,8.95420074462891,-0.6250039935112,-1.32622802257538,-0.396344006061554,-1044.30004882812,32.7000007629395,-918.900024414062,1.21109295490057,-0.34734584948386,0.0260373971782648,DLL
10.6666666666667,-4.06079244613647,-0.0526365824043751,9.60318565368652,-0.198172003030777,-0.304879993200302,0.266770005226135,-1039.5,31.5000019073486,-928.500061035156,1.20248149451459,-0.397403079339572,0.0064786697621775,DLL
10.7,-3.78325438499451,0.126806303858757,8.61744594573975,-0.358233988285065,-0.480185985565186,-0.213415995240211,-1051.5,24.9000015258789,-906.900024414062,1.19503813850444,-0.412191918560933,-0.0130867094335532,DLL
10.7333333333333,-3.08043622970581,-0.285314202308655,8.19874572753906,-0.182927995920181,0.342989981174469,0.0990860015153885,-1034.70007324219,24.9000015258789,-926.100036621094,1.2117863110193,-0.361947408536193,0.0331288987986243,DLL
10.7666666666667,-3.40044283866882,-0.742295444011688,7.75851249694824,0.609759986400604,0.746955990791321,-0.320124000310898,-1044.30004882812,27.9000015258789,-928.500061035156,1.23665987612916,-0.410614938817025,0.0920482916487339,DLL
10.8,-4.21511363983154,-0.0275145769119263,8.57198715209961,-0.167683988809586,-0.190549999475479,-0.602137982845306,-1041.90002441406,27.3000011444092,-911.700012207031,1.2033899444262,-0.454851922696312,0.0076655060595826,DLL
10.8333333333333,-4.34311628341675,0.0562254376709461,8.82141208648682,0.922261953353882,-0.259148001670837,0.846041977405548,-1044.30004882812,29.7000007629395,-921.300048828125,1.19468781164409,-0.456960659449795,-0.008185798897961,DLL
10.8666666666667,-4.07275533676147,-0.506028950214386,8.3997220993042,0.861285984516144,0.724089980125427,0.0609759986400604,-1032.30004882812,29.7000007629395,-911.700012207031,1.22462105740786,-0.452241996613593,0.0562476147763852,DLL
10.9,-4.30004978179932,-0.278734624385834,9.16594314575195,0.426831990480423,0.190549999475479,0.0381099991500378,-1039.5,33.9000015258789,-923.700012207031,1.2143217191794,-0.439357837741981,0.0307024284228502,DLL
10.9333333333333,-5.17812347412109,0.183031752705574,9.12885761260986,0.457319974899292,0.182927995920181,-0.0076219998300075,-1034.70007324219,35.1000022888184,-909.300048828125,1.19261582634299,-0.513445718716101,-0.0189137447901197,DLL
10.9666666666667,-4.16965484619141,-0.391783654689789,9.06007194519043,0.0228659994900227,0.213415995240211,-0.693601965904236,-1034.70007324219,33.3000030517578,-928.500061035156,1.22307784677543,-0.434660627113023,0.0413040697873454,DLL
11.0,-4.35866785049438,-0.0831418707966805,8.10962200164795,1.56251001358032,-0.228659987449646,0.121951997280121,-1044.30004882812,35.7000007629395,-930.900024414062,1.21133497752213,-0.490393273412821,0.0088151496246118,DLL
11.0333333333333,-3.82572245597839,-0.767417430877686,8.50619125366211,1.18903195858002,0.411587983369827,0.457319974899292,-1044.30004882812,30.3000011444092,-933.300048828125,1.24567223677111,-0.424147075765675,0.0851391484003881,DLL
11.0666666666667,-4.12898111343384,-0.713584542274475,8.9536018371582,-0.525918006896973,-0.975615978240967,-0.167683988809586,-1034.70007324219,26.7000007629395,-921.300048828125,1.24319924978426,-0.42896321611022,0.0807076262718381,DLL
11.1,-3.88852739334106,-0.677695989608765,8.54028511047363,0.0304879993200302,-0.617381989955902,0.160062000155449,-1044.30004882812,31.5000019073486,-918.900024414062,1.24169104859299,-0.425190965384006,0.0790393328445965,DLL
11.1333333333333,-3.46085524559021,-0.922336459159851,7.67477226257324,0.46494197845459,0.0228659994900227,-0.221037998795509,-1032.30004882812,28.5000019073486,-918.900024414062,1.25936177209052,-0.421115732201715,0.117529878476082,DLL
11.1666666666667,-4.45437049865723,-0.0412718653678894,8.24599933624268,0.609759986400604,-0.487807989120483,0.510673999786377,-1051.5,33.3000030517578,-926.100036621094,1.2102067665756,-0.491554464503416,0.0082680576597599,DLL
11.2,-3.84127426147461,-0.719565987586975,7.91103887557983,0.556405961513519,0.0990860015153885,0.899396002292633,-1039.5,33.3000030517578,-916.500061035156,1.24293789783747,-0.452426222315017,0.0857639199500843,DLL
11.2333333333333,-4.54768085479736,-0.751267552375793,8.75501823425293,-0.396344006061554,-0.0304879993200302,-0.144817993044853,-1046.70007324219,38.7000007629395,-916.500061035156,1.2429792490306,-0.476483303784398,0.0863927142921591,DLL
11.2666666666667,-4.77796602249146,-0.520982503890991,9.67914962768555,-0.548784017562866,-1.09756803512573,-0.198172003030777,-1034.70007324219,28.5000019073486,-926.100036621094,1.22845406866811,-0.456550003704955,0.0556224648497598,DLL
11.3,-4.00875425338745,-0.75545459985733,8.4469747543335,1.10518991947174,-1.20427596569061,1.31098401546478,-1032.30004882812,26.1000003814697,-926.100036621094,1.23752421607501,-0.440355499804757,0.0848766023892684,DLL
11.3333333333333,-4.18281364440918,-0.37324121594429,8.33751487731934,0.967993974685669,0.358233988285065,0.320124000310898,-1037.10009765625,31.5000019073486,-918.900024414062,1.22060699004479,-0.46424565010448,0.04450957148934,DLL
11.3666666666667,-4.02191352844238,-0.312828779220581,8.56899642944336,0.663114011287689,0.144817993044853,0.0304879993200302,-1037.10009765625,31.5000019073486,-911.700012207031,1.21797275541551,-0.439863756368727,0.0356826214890005,DLL
11.4,-3.97226738929749,0.0305052921175957,8.0886869430542,0.716467976570129,-0.87652999162674,0.518296003341675,-1039.5,35.1000022888184,-923.700012207031,1.19986629915954,-0.454542534947149,-0.0042949882905983,DLL
11.4333333333333,-3.28320670127869,-0.732725143432617,8.16883850097656,0.846041977405548,-0.320124000310898,0.693601965904236,-1037.10009765625,35.7000007629395,-926.100036621094,1.23458547158598,-0.38245257611541,0.0849659912262116,DLL
11.4666666666667,-4.35687351226807,0.356493204832077,8.74006462097168,1.39482593536377,0.320124000310898,0.769822001457214,-1034.70007324219,35.1000022888184,-914.100036621094,1.18255485500991,-0.460699666537099,-0.0405566901922669,DLL
11.5,-4.01353931427002,-0.112450875341892,8.83995532989502,0.548784017562866,0.518296003341675,0.792688012123108,-1039.5,29.1000003814697,-909.300048828125,1.20170775701619,-0.428166063268715,0.009511622245949,DLL
11.5333333333333,-4.0177264213562,-0.191405743360519,8.63419342041016,-0.571649968624115,-0.144817993044853,0.190549999475479,-1034.70007324219,27.9000015258789,-923.700012207031,1.20520969813645,-0.434902976885554,0.0224560980502618,DLL
11.5666666666667,-3.54160451889038,-0.706406831741333,8.3100004196167,-0.6250039935112,0.160062000155449,-0.426831990480423,-1039.5,29.7000007629395,-904.500061035156,1.23080150568395,-0.403170556494377,0.0836649207244322,DLL
11.6,-4.51657772064209,0.0640012994408607,8.90216159820557,0.274392008781433,-0.114329993724823,0.335367977619171,-1032.30004882812,32.7000007629395,-916.500061035156,1.19290872667291,-0.466681670245203,-0.0041210420380816,DLL
11.6333333333333,-3.93279004096985,-0.38939106464386,9.16115760803223,-0.221037998795509,-0.647870004177094,0.37347799539566,-1034.70007324219,32.1000022888184,-918.900024414062,1.20983116348645,-0.406620476732226,0.0407124856062804,DLL
11.6666666666667,-4.01653003692627,-0.18183545768261,9.33761024475098,-0.472563982009888,-0.792688012123108,0.289635986089706,-1037.10009765625,34.5,-923.700012207031,1.19983411822151,-0.404859123938109,0.0209045296963002,DLL
11.7,-2.87168431282043,-0.320604622364044,8.61565113067627,-1.28811800479889,-0.716467976570129,-0.480185985565186,-1039.5,40.5,-930.900024414062,1.20621760139162,-0.323674714390782,0.0389601905699463,DLL
11.7333333333333,-3.6612331867218,-0.611302137374878,9.1808967590332,0.510673999786377,-0.213415995240211,0.815553963184357,-1034.70007324219,28.5000019073486,-921.300048828125,1.212015351404,-0.376448275772428,0.0640660181698097,DLL
11.7666666666667,-3.06069755554199,-0.945664048194885,8.66709136962891,-0.731711983680725,-0.754577994346619,-0.99848198890686,-1037.10009765625,30.3000011444092,-930.900024414062,1.23059915790502,-0.337587045122464,0.108868344358376,DLL
11.8,-3.92441606521606,-0.152526453137398,8.62940883636475,0.739333987236023,-0.259148001670837,-0.419209986925125,-1034.70007324219,32.1000022888184,-921.300048828125,1.20067309628865,-0.423493141848088,0.019749381740737,DLL
11.8333333333333,-3.47700500488281,-0.0113647161051631,8.692214012146,1.05183601379395,0.388722002506256,0.0152439996600151,-1039.5,29.1000003814697,-923.700012207031,1.19489073914132,-0.382544403945976,9.77147232117182e-05,DLL
11.8666666666667,-4.72293710708618,0.116637878119946,8.99427604675293,1.6920839548111,1.22714197635651,0.221037998795509,-1034.70007324219,31.5000019073486,-916.500061035156,1.19079777400165,-0.481423898753617,-0.0154699560979437,DLL
11.9,-4.33175134658813,-0.0753660127520561,9.08938026428223,0.518296003341675,0.335367977619171,-0.564027965068817,-1037.10009765625,34.5,-916.500061035156,1.20421803345638,-0.446769354836282,0.006934325785294,DLL
11.9333333333333,-3.92321968078613,-0.0448607243597507,9.16953182220459,0.129574000835419,-0.541162014007568,-0.259148001670837,-1034.70007324219,30.9000015258789,-914.100036621094,1.2047557539124,-0.404896450894908,0.0049317908969382,DLL
11.9666666666667,-3.90826606750488,0.0795530155301094,8.04263019561768,1.91312193870544,0.685979962348938,0.205793991684914,-1039.5,33.3000030517578,-928.500061035156,1.20040591092215,-0.451961863896131,-0.0128210488730135,DLL
12.0,-6.91513109207153,-0.458177506923676,9.473388671875,2.77440786361694,1.58537602424622,0.0304879993200302,-1032.30004882812,32.7000007629395,-914.100036621094,1.23499330839573,-0.625377432788678,0.0408133221129257,DLL
12.0333333333333,-3.69353294372559,0.921140193939209,10.1732158660889,-2.77440786361694,-3.10977602005005,-2.56099200248718,-1037.10009765625,29.1000003814697,-916.500061035156,1.18367926829946,-0.353554272925338,-0.0792786491731691,DLL
12.0666666666667,-3.24971079826355,-0.623863101005554,7.60060262680054,2.22562384605408,1.08232402801514,0.78506600856781,-1041.90002441406,30.3000011444092,-930.900024414062,1.2401618637151,-0.40313102862146,0.0716789613987141,DLL
12.1,-4.20913219451904,-0.133385881781578,8.50738716125488,3.72715783119202,1.98171997070312,0.182927995920181,-1039.5,33.9000015258789,-914.100036621094,1.22203385188763,-0.46096777353139,0.0110738373822329,DLL
12.1333333333333,-4.00636148452759,-0.231481328606606,8.49602317810059,2.88873791694641,0.800309956073761,-1.86738991737366,-1027.5,33.9000015258789,-923.700012207031,1.24093939325349,-0.442601626072858,0.0232609805417313,DLL
12.1666666666667,-3.87058305740356,0.0257201474159956,8.58873462677002,1.83690190315247,0.388722002506256,-3.84148788452148,-1029.90002441406,28.5000019073486,-928.500061035156,1.25155417492122,-0.424604477828916,-0.0024184526548378,DLL
12.2,-2.83101058006287,-1.88056147098541,8.72870063781738,1.18903195858002,-1.47866797447205,-5.70887804031372,-1034.70007324219,26.1000003814697,-926.100036621094,1.35355251094065,-0.306820337315856,0.206500847402869,DLL
12.2333333333333,-3.86819052696228,-1.39786016941071,6.52873039245605,6.51680994033813,-3.01068997383118,-2.20275783538818,-1046.70007324219,24.3000011444092,-928.500061035156,1.3707566619699,-0.510460313121553,0.201022501172459,DLL
12.2666666666667,-4.34431219100952,-0.518589973449707,9.04093074798584,2.31708788871765,-1.17378795146942,-5.89180564880371,-1034.70007324219,28.5000019073486,-928.500061035156,1.33580550905851,-0.447315102971985,0.0638070201623673,DLL
12.3,-4.03447437286377,-0.445018380880356,8.59471607208252,1.74543797969818,-1.62348592281342,-6.25004005432129,-1041.90002441406,27.3000011444092,-918.900024414062,1.36069609060637,-0.435439460910028,0.0541119771783369,DLL
12.3333333333333,-3.75274896621704,-1.11374223232269,8.16106224060059,2.71343183517456,-0.129574000835419,-5.92991590499878,-1044.30004882812,27.3000011444092,-945.300048828125,1.42313875220179,-0.426450308767974,0.132246687713168,DLL
12.3666666666667,-4.50880193710327,-0.775193274021149,9.43690204620361,2.67532205581665,-0.175305992364883,-6.58540773391724,-1049.10009765625,21.9000015258789,-935.700012207031,1.43649845139518,-0.442494929613126,0.084490777348556,DLL
12.4,-4.80607891082764,0.0041870009154081,9.5684928894043,3.13264203071594,-0.754577994346619,-6.19668579101562,-1044.30004882812,24.3000011444092,-923.700012207031,1.43428941699815,-0.463399268196559,0.0022218530874098,DLL
12.4333333333333,-5.15659046173096,-0.537132382392883,8.98410701751709,4.24545383453369,-0.0914639979600906,-4.57319974899292,-1056.30004882812,27.3000011444092,-940.500061035156,1.48671282767516,-0.517479478706082,0.0544575612255183,DLL
12.4666666666667,-3.80478739738464,-0.664536833763123,9.82090950012207,3.20886182785034,0.381099998950958,-5.99851369857788,-1046.70007324219,25.5000019073486,-938.100036621094,1.52490025952437,-0.373582391188164,0.0658888954409831,DLL
12.5,-4.52375507354736,0.285912334918976,7.9995641708374,4.61131000518799,-0.3125019967556,-6.2729058265686,-1051.5,21.9000015258789,-935.700012207031,1.51780825610853,-0.508389859400123,-0.0333659288747032,DLL
12.5333333333333,-3.23535537719727,-0.631639003753662,8.51576137542725,3.48325395584106,0.983237981796265,-5.7850980758667,-1046.70007324219,23.1000003814697,-935.700012207031,1.59419738413346,-0.368011021624677,0.0688884743642239,DLL
12.5666666666667,-3.93159365653992,0.279930919408798,7.92300176620483,3.20123982429504,-0.6250039935112,-6.2195520401001,-1053.90002441406,19.5,-940.500061035156,1.58623286880813,-0.455835788981846,-0.031255414745677,DLL
12.6,-4.52734422683716,0.430662930011749,8.26872825622559,3.68142580986023,0.990859985351562,-5.11436176300049,-1041.90002441406,14.1000003814697,-942.900024414062,1.60487569736545,-0.500641265073058,-0.0527616720716361,DLL
12.6333333333333,-4.13914918899536,-0.028710862621665,9.14979267120361,2.58385801315308,1.61586391925812,-4.24545383453369,-1034.70007324219,14.7000007629395,-926.100036621094,1.65123379648745,-0.430686119093656,-4.45736987211695e-05,DLL
12.6666666666667,-3.72284173965454,0.315221339464188,9.06545448303223,2.17989206314087,0.739333987236023,-4.984787940979,-1051.5,16.5,-926.100036621094,1.66491056539289,-0.392135308809904,-0.0339807589554344,DLL
12.7,-4.23365592956543,0.232079476118088,9.39204120635986,1.85976791381836,1.6615959405899,-4.71039581298828,-1049.10009765625,11.7000007629395,-926.100036621094,1.69169775948494,-0.425090780749527,-0.024700447958069,DLL
12.7333333333333,-4.06916666030884,0.674705266952515,8.61146450042725,1.03659200668335,0.228659987449646,-4.61893177032471,-1056.30004882812,11.7000007629395,-935.700012207031,1.69218380050186,-0.440568703918481,-0.0741257436968196,DLL
12.7666666666667,-3.24193501472473,0.442625790834427,7.0808162689209,1.72257196903229,1.63872992992401,-3.65855979919434,-1046.70007324219,12.3000001907349,-928.500061035156,1.71670893381191,-0.432130512759915,-0.0628964084842888,DLL
12.8,-4.34191989898682,0.01914057508111,9.01700496673584,0.175305992364883,2.080806016922,-3.28508186340332,-1041.90002441406,20.1000003814697,-938.100036621094,1.75752141915167,-0.451807162135741,-0.0017036217066654,DLL
12.8333333333333,-4.27014255523682,-0.336156338453293,8.43262004852295,0.907018005847931,0.0457319989800453,-2.64483404159546,-1039.5,14.7000007629395,-942.900024414062,1.78827699523105,-0.467685192651388,0.0388447214743521,DLL
12.8666666666667,-4.20374870300293,0.132787734270096,9.10732460021973,-0.548784017562866,-0.236281991004944,-2.27897787094116,-1032.30004882812,14.1000003814697,-926.100036621094,1.77565347835264,-0.433320792850464,-0.0099784592057199,DLL
12.9,-3.84247040748596,-0.357689499855042,8.9775276184082,-0.487807989120483,-0.541162014007568,-2.13416004180908,-1032.30004882812,15.9000005722046,-933.300048828125,1.80408137501078,-0.404305008821724,0.0401629266031381,DLL
12.9333333333333,-4.61347675323486,-0.247033044695854,8.05399513244629,0.137196004390717,-0.46494197845459,-1.41769194602966,-1039.5,9.90000057220459,-950.100036621094,1.80656939784694,-0.514414836828191,0.0321254060702241,DLL
12.9666666666667,-3.79162836074829,-0.14056359231472,8.23523235321045,0.0990860015153885,0.731711983680725,-0.67835795879364,-1046.70007324219,12.3000001907349,-935.700012207031,1.80340891080461,-0.434982125950529,0.0178524778317262,DLL
13.0,-4.23784303665161,-0.648985147476196,7.41876745223999,0.564027965068817,0.396344006061554,-0.442075997591019,-1039.5,13.5000009536743,-923.700012207031,1.83671701553942,-0.514653868663203,0.083780098344536,DLL
13.0333333333333,-4.48487615585327,-0.702219843864441,9.97283744812012,-0.861285984516144,1.84452390670776,-0.388722002506256,-1027.5,18.3000011444092,-926.100036621094,1.83210804268887,-0.428498035516273,0.0726528503067365,DLL
13.0666666666667,-5.37909984588623,-0.149535745382309,9.43869590759277,0.152439996600151,-1.20427596569061,-0.243903994560242,-1029.90002441406,14.7000007629395,-938.100036621094,1.80854529630155,-0.512299548881202,0.018207525643166,DLL
13.1,-4.07873678207397,-0.65436840057373,7.75312900543213,1.13567793369293,0.967993974685669,0.282013982534409,-1037.10009765625,15.9000005722046,-940.500061035156,1.83944199293471,-0.48572456551959,0.0794805963173241,DLL
13.1333333333333,-5.26006937026978,-0.577207982540131,8.78014087677002,0.282013982534409,2.24086785316467,-0.114329993724823,-1027.5,14.1000003814697,-940.500061035156,1.83466013549393,-0.541271807552393,0.0657826571039639,ST
13.1666666666667,-4.14154195785522,-0.714182734489441,8.91292858123779,0.175305992364883,0.297257989645004,-0.586893975734711,-1013.10003662109,8.70000076293945,-916.500061035156,1.84428009032879,-0.437613656062622,0.0797191996978339,ST
13.2,-3.25748658180237,-0.811081886291504,8.65333461761475,-0.0228659994900227,-1.6844619512558,-0.46494197845459,-1022.70001220703,14.1000003814697,-938.100036621094,1.85080012308468,-0.358926144415463,0.093148960873651,ST
13.2333333333333,-4.35926580429077,-0.415111213922501,8.25437259674072,0.25152599811554,-2.66007804870605,-0.426831990480423,-1025.10009765625,14.7000007629395,-921.300048828125,1.83559908185441,-0.475737477328671,0.051911794387407,ST
13.2666666666667,-3.56553030014038,-0.866111040115356,8.34409427642822,0.388722002506256,1.47866797447205,0.160062000155449,-1022.70001220703,12.9000005722046,-933.300048828125,1.85708528678526,-0.407409059397439,0.100746042969364,ST
13.3,-4.02490425109863,-0.850559294223785,8.28308391571045,0.0990860015153885,0.243903994560242,-0.0152439996600151,-1029.90002441406,15.9000005722046,-928.500061035156,1.85802119930508,-0.448922943728746,0.102126383172735,ST
13.3333333333333,-3.84845185279846,-0.832016885280609,8.20771789550781,0.144817993044853,-1.76068198680878,-0.0685980021953583,-1025.10009765625,14.7000007629395,-918.900024414062,1.85725642691902,-0.434043474577993,0.100741683256219,ST
13.3666666666667,-4.08830738067627,-1.04914271831512,8.29863548278809,-0.0990860015153885,-0.746955990791321,-0.106707997620106,-1037.10009765625,13.5000009536743,-938.100036621094,1.86750453010015,-0.452519818171155,0.124905470587233,ST
13.4,-5.05969142913818,-0.751865744590759,8.90335845947266,0.167683988809586,-0.0838419944047928,-0.320124000310898,-1032.30004882812,17.1000003814697,-926.100036621094,1.85100213591628,-0.512815494516005,0.0857701857778917,ST
13.4333333333333,-4.84675264358521,-0.760837852954865,9.24370193481445,0.381099998950958,0.335367977619171,0.0457319989800453,-1020.30004882812,15.3000001907349,-933.300048828125,1.84977889076628,-0.483370642562532,0.0816152728500127,ST
13.4666666666667,-4.20614147186279,-0.826035439968109,8.07552814483643,0.731711983680725,-0.46494197845459,-0.0457319989800453,-1034.70007324219,15.9000005722046,-930.900024414062,1.85978491932785,-0.477497950908613,0.0998849563935496,ST
13.5,-4.51657772064209,-1.20166921615601,8.63120269775391,-0.121951997280121,0.182927995920181,-0.411587983369827,-1039.5,11.1000003814697,-935.700012207031,1.87864947156889,-0.478369287294542,0.137530403128617,ST
13.5333333333333,-3.80418920516968,-0.386998504400253,9.08220291137695,-0.381099998950958,-1.54726600646973,-0.510673999786377,-1022.70001220703,15.3000001907349,-928.500061035156,1.84125252102876,-0.397111808949119,0.0472315913739371,ST
13.5666666666667,-4.21989870071411,-0.474925518035889,8.16285705566406,0.472563982009888,-0.228659987449646,0.228659987449646,-1032.30004882812,11.7000007629395,-923.700012207031,1.84518193826345,-0.472849384192142,0.0566515842607236,ST
13.6,-3.95013618469238,-0.735117733478546,8.21070861816406,0.655492007732391,0.25152599811554,0.282013982534409,-1037.10009765625,9.90000057220459,-930.900024414062,1.85884545956098,-0.448260259001061,0.0868204634784649,ST
13.6333333333333,-4.70738506317139,-0.221911042928696,8.59710884094238,0.426831990480423,0.167683988809586,0.297257989645004,-1041.90002441406,11.1000003814697,-918.900024414062,1.83128829987045,-0.499256001545842,0.0270783481941105,ST
13.6666666666667,-4.6529541015625,-0.504832684993744,8.64196968078613,0.0685980021953583,0.937505960464478,0.381099998950958,-1032.30004882812,18.9000015258789,-921.300048828125,1.84424377420905,-0.495011078262421,0.0569420535516234,ST
13.7,-4.49743700027466,-0.431261092424393,9.11151218414307,-0.327746003866196,-0.213415995240211,-0.213415995240211,-1020.30004882812,11.7000007629395,-914.100036621094,1.84044381737172,-0.458869699060467,0.0483196227144033,ST
13.7333333333333,-4.310218334198,-0.583189368247986,7.69570732116699,0.449698001146317,0.823175966739655,-0.411587983369827,-1034.70007324219,9.90000057220459,-938.100036621094,1.85564114621678,-0.509062435773041,0.0744156130122311,ST
13.7666666666667,-4.03447437286377,-0.653770267963409,9.72819709777832,-0.327746003866196,0.327746003866196,-0.381099998950958,-1029.90002441406,9.30000019073486,-930.900024414062,1.8539959903897,-0.397580756394548,0.06820909383279,ST
13.8,-3.67857933044434,-0.285912334918976,8.48226547241211,1.18903195858002,-1.50153398513794,-0.327746003866196,-1034.70007324219,14.1000003814697,-930.900024414062,1.84371866793932,-0.406110253034748,0.032853585288183,ST
13.8333333333333,-3.9997820854187,-0.183031752705574,8.35306644439697,1.01372599601746,-0.945127964019775,0.25152599811554,-1027.5,13.5000009536743,-930.900024414062,1.83940771227848,-0.44344830698519,0.0203843976855796,ST
13.8666666666667,-3.77966547012329,-0.163293033838272,8.24958801269531,0.945127964019775,-0.487807989120483,0.0152439996600151,-1041.90002441406,8.10000038146973,-921.300048828125,1.84026768210839,-0.429228956623742,0.0182042057541853,ST
13.9,-3.93637895584106,-0.485692083835602,9.96865081787109,0.571649968624115,0.25152599811554,-0.0609759986400604,-1034.70007324219,9.90000057220459,-916.500061035156,1.85289983018649,-0.377809741158072,0.046817732634724,ST
13.9333333333333,-4.26057243347168,-0.444420218467712,7.89608526229858,1.30336201190948,-1.71494996547699,-0.182927995920181,-1037.10009765625,14.7000007629395,-918.900024414062,1.85881547884832,-0.486522174081834,0.0536848225170728,ST
13.9666666666667,-4.04882955551147,-0.0496458671987057,8.65871810913086,-0.0533539988100529,-0.647870004177094,0.114329993724823,-1039.5,6.30000019073486,-933.300048828125,1.83761942944738,-0.438320122927,0.0076214463161586,ST
14.0,-3.79521703720093,-0.305651068687439,8.51576137542725,0.205793991684914,-0.152439996600151,-0.0381099991500378,-1044.30004882812,12.3000001907349,-930.900024414062,1.84936733483434,-0.419450994880308,0.0345468296651707,ST
14.0333333333333,-4.10804605484009,-0.407933503389359,9.74434757232666,-0.129574000835419,-0.693601965904236,-0.137196004390717,-1041.90002441406,8.70000076293945,-938.100036621094,1.85249655766453,-0.398333725086674,0.041838888080879,ST
14.0666666666667,-3.94475293159485,-0.348717361688614,7.32605504989624,1.09756803512573,-0.617381989955902,-0.167683988809586,-1039.5,13.5000009536743,-928.500061035156,1.85694251076796,-0.48854461739899,0.045583348277744,ST
14.1,-4.52255916595459,-0.265575468540192,8.71075630187988,-0.236281991004944,1.05183601379395,-0.137196004390717,-1037.10009765625,11.1000003814697,-930.900024414062,1.8506512605043,-0.480848602918596,0.0316326662286561,ST
14.1333333333333,-4.3544807434082,-0.409727931022644,9.25446796417236,0.190549999475479,1.93598794937134,-0.175305992364883,-1025.10009765625,9.30000019073486,-926.100036621094,1.85763584404293,-0.443851027982623,0.0437845208150695,ST
14.1666666666667,-4.52734422683716,-0.527562081813812,9.17910194396973,0.693601965904236,-0.274392008781433,-0.25152599811554,-1039.5,14.1000003814697,-938.100036621094,1.8653780124631,-0.456581777714598,0.0559428510500678,ST
14.2,-4.36584568023682,-0.354698777198792,8.72271919250488,0.480185985565186,-0.823175966739655,-0.472563982009888,-1039.5,17.7000007629395,-935.700012207031,1.86145128258384,-0.462029084794793,0.0408256039678131,ST
14.2333333333333,-4.00875425338745,-0.147741317749023,8.19216632843018,0.160062000155449,-0.914639949798584,-0.297257989645004,-1032.30004882812,5.70000028610229,-916.500061035156,1.85323014083855,-0.453658105969352,0.0186319592782436,ST
14.2666666666667,-4.14632701873779,-0.64838695526123,9.00265026092529,-0.259148001670837,1.51677799224854,-0.152439996600151,-1039.5,3.90000009536743,-933.300048828125,1.87591655312984,-0.434101718519972,0.0703898084248532,ST
14.3,-4.03088569641113,-0.875681281089783,9.79279708862305,-0.129574000835419,-0.914639949798584,-0.335367977619171,-1039.5,7.50000047683716,-930.900024414062,1.88415824570245,-0.389337823197261,0.0888268348327706,DLR
14.3333333333333,-3.23116827011108,-0.553880393505096,7.5132737159729,0.92988395690918,-2.21800184249878,-0.396344006061554,-1039.5,9.90000057220459,-938.100036621094,1.88064524381992,-0.400827170792032,0.0727384253011037,DLR
14.3666666666667,-4.21331930160522,-0.843979716300964,8.72092437744141,0.670735955238342,0.754577994346619,-0.236281991004944,-1034.70007324219,9.90000057220459,-930.900024414062,1.89220749417852,-0.447535408248173,0.0946044983329487,DLR
14.4,-3.52485656738281,-0.900803327560425,9.40819072723389,0.640248000621796,-1.20427596569061,-1.04421401023865,-1039.5,18.9000015258789,-930.900024414062,1.89741562341546,-0.358481621967233,0.0949458296858186,DLR
14.4333333333333,-3.35019874572754,-0.756052732467651,8.54387378692627,1.06708002090454,-1.87501192092896,-1.47104597091675,-1041.90002441406,8.10000038146973,-928.500061035156,1.9021328903306,-0.368459517789572,0.0875838224812875,DLR
14.4666666666667,-3.67977547645569,-0.963010191917419,9.78143215179443,0.556405961513519,-0.724089980125427,-2.44666194915771,-1044.30004882812,7.50000047683716,-926.100036621094,1.91702613520776,-0.35704834535778,0.0982604819481579,DLR
14.5,-3.93877148628235,-0.909177303314209,8.24540042877197,2.0655620098114,-0.335367977619171,-3.19361782073975,-1041.90002441406,8.70000076293945,-933.300048828125,1.9385361506368,-0.439044461733863,0.108323483687346,DLR
14.5333333333333,-3.75274896621704,-1.05632042884827,8.76758003234863,1.91312193870544,1.82927989959717,-3.37654590606689,-1039.5,14.7000007629395,-918.900024414062,1.96141759846848,-0.40572327528746,0.118833377159626,DLR
14.5666666666667,-3.96508979797363,-1.06529259681702,8.464919090271,1.92074394226074,-0.632625997066498,-3.83386588096619,-1034.70007324219,12.3000001907349,-926.100036621094,1.98303828430186,-0.432011956395855,0.124562645643352,DLR
14.6,-4.52016639709473,-0.942673325538635,9.05468845367432,2.28659987449646,0.274392008781433,-3.74240183830261,-1037.10009765625,9.30000019073486,-930.900024414062,1.99424346281893,-0.459481815783626,0.103846518377098,DLR
14.6333333333333,-3.84845185279846,-0.964206457138062,9.34837627410889,3.10215401649475,0.83841997385025,-3.57471799850464,-1037.10009765625,11.1000003814697,-926.100036621094,2.01384651110346,-0.392344235858041,0.100214356272954,DLR
14.6666666666667,-4.05899810791016,-0.653770267963409,8.40032005310059,3.71953582763672,0.533540010452271,-5.35826587677002,-1027.5,2.70000004768372,-926.100036621094,2.0356315242111,-0.44730499006351,0.0764205359852754,DLR
14.7,-3.83828353881836,-0.644798099994659,8.42484378814697,4.44362592697144,2.38568592071533,-5.32777786254883,-1034.70007324219,2.10000014305115,-923.700012207031,2.06581310457887,-0.430569926139505,0.073200323240111,DLR
14.7333333333333,-4.41130447387695,-0.554478526115417,8.35366439819336,4.41313791275024,2.77440786361694,-5.71649980545044,-1025.10009765625,0.300000011920929,-906.900024414062,2.09625866027891,-0.487001605721023,0.0642681651836017,DLR
14.7666666666667,-3.94714546203613,-0.172863319516182,8.2322416305542,5.28966808319092,2.77440786361694,-5.71649980545044,-1020.30004882812,-5.10000038146973,-923.700012207031,2.11231605037569,-0.452754232841626,0.0182126500146363,DLR
14.8,-4.49145555496216,-0.245238617062569,8.73946666717529,5.38875389099121,2.58385801315308,-5.66314601898193,-1015.50006103516,-0.900000035762787,-926.100036621094,2.14941743896707,-0.477787069783618,0.0235538826056643,DLR
14.8333333333333,-4.77258253097534,0.553880393505096,9.36691856384277,5.55643796920776,1.61586391925812,-5.45735168457031,-1010.70001220703,5.70000028610229,-916.500061035156,2.14477828761147,-0.474024916437302,-0.0604041942369072,DLR
14.8666666666667,-4.46752977371216,0.635227859020233,8.51516342163086,5.68601179122925,-0.190549999475479,-3.94057393074036,-1010.70001220703,2.70000004768372,-916.500061035156,2.16397531310544,-0.481903884846347,-0.0799623492405146,DLR
14.9,-4.07574605941772,0.829026162624359,8.1784086227417,4.71801805496216,0.846041977405548,-3.04117798805237,-1005.90002441406,0.300000011920929,-916.500061035156,2.17545329133754,-0.462935556841301,-0.10583050567985,DLR
14.9333333333333,-3.9758563041687,1.07486295700073,8.78014087677002,3.90246391296387,0.655492007732391,-2.31708788871765,-996.300048828125,-5.10000038146973,-921.300048828125,2.18368535101022,-0.42562831576254,-0.125995762982877,DLR
14.9666666666667,-3.65884065628052,0.859531462192535,8.29385089874268,4.05490398406982,0.396344006061554,-2.41617393493652,-1005.90002441406,0.300000011920929,-911.700012207031,2.20802849155735,-0.415115400053849,-0.109222095676057,DLR
15.0,-4.88264083862305,0.766221165657043,8.31059837341309,3.90246391296387,0.830797970294952,-2.99544596672058,-989.100036621094,-5.10000038146973,-914.100036621094,2.23407328956049,-0.526565290907496,-0.0965309645064681,DLR
15.0333333333333,-5.06088781356812,0.61548912525177,9.53380107879639,3.27745985984802,0.350611984729767,-2.43903994560242,-996.300048828125,-4.5,-911.700012207031,2.26441007350661,-0.489648871269443,-0.069049861528526,DLR
15.0666666666667,-5.01841974258423,1.48040390014648,8.53908920288086,3.69666981697083,-1.32622802257538,-2.23324584960938,-1001.10003662109,-8.70000076293945,-909.300048828125,2.23277962391956,-0.521925651353225,-0.171290092130106,DLR
15.1,-4.62005615234375,1.3201014995575,7.68852996826172,2.26373386383057,-0.381099998950958,-1.50915598869324,-996.300048828125,-10.5,-911.700012207031,2.24368666696164,-0.533977099237866,-0.172351608070036,DLR
15.1333333333333,-4.97415685653687,1.1316864490509,9.21319580078125,1.37958192825317,-0.571649968624115,-1.22714197635651,-984.300048828125,-11.1000003814697,-923.700012207031,2.27610673846232,-0.492437571664234,-0.124754841625159,DLR
15.1666666666667,-4.02490425109863,0.650181412696838,6.11242294311523,3.04879999160767,0.525918006896973,-1.57775402069092,-993.900024414062,-7.50000047683716,-897.300048828125,2.29676504527123,-0.577354222801707,-0.110308118621487,DLR
15.2,-4.79291963577271,0.97258049249649,8.07193946838379,-0.160062000155449,2.25611186027527,-1.61586391925812,-979.500061035156,-9.30000019073486,-911.700012207031,2.29816439049031,-0.537918201095612,-0.118045678205281,DLR
15.2333333333333,-6.11541366577148,0.225499898195267,8.60907173156738,0.144817993044853,2.0579400062561,-2.080806016922,-991.500061035156,-12.3000001907349,-899.700012207031,2.35528285135854,-0.617896663597147,-0.0280318877944162,DLR
15.2666666666667,-5.87316560745239,1.52466642856598,9.31607723236084,0.335367977619171,1.57013201713562,-1.30336201190948,-984.300048828125,-9.90000057220459,-899.700012207031,2.28886515791969,-0.562147060378453,-0.156454478043995,DLR
15.3,-4.60330820083618,0.233873903751373,8.24480247497559,1.33385002613068,-0.274392008781433,-0.564027965068817,-981.900024414062,-15.3000001907349,-921.300048828125,2.35719240538659,-0.510456422859482,-0.0340251393999174,DLR
15.3333333333333,-4.81744337081909,0.934897482395172,7.37510299682617,0.861285984516144,-0.647870004177094,-2.00458598136902,-977.100036621094,-13.5000009536743,-894.900024414062,2.32225936365751,-0.571732497600761,-0.121443575899965,DLR
15.3666666666667,-4.24561882019043,0.448607236146927,9.49372482299805,-1.19665396213531,-1.09756803512573,-0.0990860015153885,-969.900024414062,-16.5,-897.300048828125,2.3557296613657,-0.424493819316925,-0.0479238462606681,DLR
15.4,-3.3286657333374,0.512010395526886,8.52234077453613,0.663114011287689,-2.97257995605469,-0.190549999475479,-977.100036621094,-11.1000003814697,-899.700012207031,2.35365448936107,-0.368676701994478,-0.0604546243454499,DLR
15.4333333333333,-3.12888598442078,0.561058104038239,6.90675687789917,1.2500079870224,-1.85214591026306,-0.403965979814529,-986.700012207031,-9.90000057220459,-906.900024414062,2.34997802416427,-0.418835305812134,-0.0818934567348679,DLR
15.4666666666667,-4.75284385681152,0.479710668325424,8.66768932342529,-0.586893975734711,0.87652999162674,-1.2347639799118,-991.500061035156,-9.90000057220459,-902.100036621094,2.36645795021249,-0.500493044055346,-0.0538975285396807,DLR
15.5,-4.41190242767334,0.205761179327965,9.12586688995361,0.983237981796265,-1.34147191047668,-0.221037998795509,-986.700012207031,-9.30000019073486,-923.700012207031,2.38272282391454,-0.450039035968632,-0.0252203859422756,DLR
15.5333333333333,-4.86828565597534,0.897214472293854,8.58095932006836,-0.0076219998300075,-1.6615959405899,0.0381099991500378,-986.700012207031,-10.5,-914.100036621094,2.34819525093662,-0.50841728367343,-0.100729051447209,DLR
15.5666666666667,-5.64886236190796,0.0245238617062569,9.29813289642334,-1.02897000312805,-0.205793991684914,-0.0304879993200302,-991.500061035156,-9.90000057220459,-899.700012207031,2.39463278140109,-0.54470879755969,-0.0033524035047918,DLR
15.6,-5.07883214950562,-0.136376604437828,9.45305156707764,-0.190549999475479,0.0762199983000755,0.0076219998300075,-972.300048828125,-3.90000009536743,-902.100036621094,2.40288220893847,-0.494560767158527,0.0142549982929836,DLR
15.6333333333333,-3.60799837112427,0.979160070419312,8.75860786437988,0.6250039935112,-1.80641400814056,1.03659200668335,-977.100036621094,-10.5,-904.500061035156,2.34674259706249,-0.388057174036844,-0.110041588562696,DLR
15.6666666666667,-4.63859891891479,-0.111852735280991,6.09746932983398,0.365855991840363,-0.167683988809586,-0.777444005012512,-1005.90002441406,-9.30000019073486,-894.900024414062,2.41167860317874,-0.639366085960254,0.0122987915545176,DLR
15.7,-4.24681520462036,0.442625790834427,8.81961822509766,-0.37347799539566,0.0152439996600151,0.967993974685669,-984.300048828125,-5.70000028610229,-909.300048828125,2.37497292777226,-0.454361470558978,-0.0486131762443771,DLR
15.7333333333333,-4.14572906494141,0.325987905263901,8.40689945220947,0.266770005226135,-0.792688012123108,1.07470202445984,-981.900024414062,-8.70000076293945,-914.100036621094,2.37479780443738,-0.456301461192325,-0.040461121479813,DLR
15.7666666666667,-4.49444627761841,0.714780867099762,8.04263019561768,-0.243903994560242,-0.846041977405548,1.12805593013763,-998.700012207031,-7.50000047683716,-894.900024414062,2.34832999563982,-0.504279582883187,-0.0871814864737055,DLR
15.8,-4.63680410385132,-0.0586180128157139,7.91761827468872,-0.457319974899292,1.76068198680878,0.807931959629059,-986.700012207031,-10.5,-918.900024414062,2.38877683335527,-0.531766058833539,0.0034752196317376,DLR
15.8333333333333,-5.38747358322144,0.337950766086578,9.68931770324707,-1.87501192092896,1.70732796192169,0.129574000835419,-998.700012207031,-10.5,-918.900024414062,2.36698774173757,-0.511067483405488,-0.0303724676187845,DLR
15.8666666666667,-3.31909537315369,0.245238617062569,7.76210117340088,1.82927989959717,-3.3689239025116,1.34147191047668,-989.100036621094,-3.90000009536743,-921.300048828125,2.3632150159381,-0.402532919535836,-0.0355032624567877,DLR
15.9,-4.08412027359009,1.01145970821381,8.15807151794434,-1.09756803512573,-0.472563982009888,0.403965979814529,-1001.10003662109,-11.1000003814697,-909.300048828125,2.32505120131676,-0.457932167176406,-0.118121246190549,DLR
15.9333333333333,-4.26775026321411,0.808091163635254,9.55712795257568,-0.746955990791321,0.152439996600151,0.594515979290009,-991.500061035156,-5.70000028610229,-899.700012207031,2.33519679034656,-0.420425906907022,-0.0849104409772781,DLR
15.9666666666667,-3.35797452926636,1.28600740432739,7.33861589431763,1.65397393703461,-2.53050398826599,0.861285984516144,-996.300048828125,-7.50000047683716,-914.100036621094,2.3003214344547,-0.418962401140179,-0.172961212217978,DLR
16.0,-3.81495594978333,0.968991637229919,8.83576774597168,-0.83841997385025,0.0990860015153885,1.08232402801514,-1003.50006103516,-11.1000003814697,-921.300048828125,2.3189577658395,-0.405945019549317,-0.111186579599533,DLR
16.0333333333333,-4.00456714630127,-0.0083740018308162,7.12567710876465,0.236281991004944,0.541162014007568,0.137196004390717,-986.700012207031,-8.70000076293945,-911.700012207031,2.36617458076651,-0.508706528910111,-0.0042162285106177,DLR
16.0666666666667,-5.04832649230957,1.22439861297607,10.1134014129639,-1.34147191047668,0.396344006061554,1.28049600124359,-991.500061035156,-7.50000047683716,-909.300048828125,2.30629628918947,-0.46263511963791,-0.114766785170557,DLR
16.1,-4.16905641555786,0.0167480036616325,8.14730548858643,0.541162014007568,-1.58537602424622,1.37195992469788,-1005.90002441406,-0.900000035762787,-911.700012207031,2.34976913008924,-0.469975233281252,-0.0087321083252276,DLR
16.1333333333333,-4.25937604904175,0.564048826694489,8.85012340545654,-0.800309956073761,-2.22562384605408,1.56251001358032,-996.300048828125,-8.10000038146973,-906.900024414062,2.31888638134837,-0.444831739720335,-0.0612523527262433,DLR
16.1666666666667,-4.80009746551514,0.412718653678894,7.95649766921997,-0.335367977619171,-0.495429992675781,0.160062000155449,-1008.30004882812,-12.3000001907349,-906.900024414062,2.32208803223701,-0.537436168132619,-0.0518082958091708,DLR
16.2,-5.39943647384644,0.297875195741653,9.83705902099609,-2.080806016922,1.75305998325348,0.434453994035721,-996.300048828125,0.300000011920929,-914.100036621094,2.327175523499,-0.506155648132528,-0.0281090956722028,DLR
16.2333333333333,-4.05062437057495,0.754258275032043,11.3138742446899,-0.792688012123108,-1.74543797969818,1.47104597091675,-986.700012207031,-7.50000047683716,-921.300048828125,2.30425737400058,-0.345220837951176,-0.0649856735376187,DLR
16.2666666666667,-4.41908025741577,0.79074501991272,6.95460844039917,0.708845973014832,-1.64635193347931,-0.0762199983000755,-991.500061035156,-2.70000004768372,-911.700012207031,2.28632802804264,-0.55149788912715,-0.11199959755982,DLR
16.3,-3.51169729232788,0.288903057575226,7.12687349319458,-0.304879993200302,0.67835795879364,0.0609759986400604,-1001.10003662109,-9.30000019073486,-916.500061035156,2.31906239796789,-0.461669534015222,-0.0422520554893329,DLR
16.3333333333333,-4.63800048828125,0.0394774377346039,9.02657604217529,-0.663114011287689,1.31860601902008,-0.152439996600151,-996.300048828125,-5.10000038146973,-923.700012207031,2.33518696911963,-0.476330571128299,-0.0046880733879323,DLR
16.3666666666667,-4.68106698989868,0.585581958293915,9.07861423492432,0.899396002292633,1.56251001358032,0.121951997280121,-986.700012207031,-1.5,-916.500061035156,2.30920734372038,-0.477891205616924,-0.0636851908778794,DLR
16.4,-3.36036729812622,0.24224790930748,10.7629842758179,0.518296003341675,-2.34757590293884,1.08232402801514,-1005.90002441406,-7.50000047683716,-916.500061035156,2.32031877542797,-0.304149039533037,-0.025200748780351,DLR
16.4333333333333,-4.69003915786743,0.237462759017944,7.03535747528076,1.36433792114258,0.510673999786377,-1.84452390670776,-998.700012207031,-9.90000057220459,-911.700012207031,2.32779962145773,-0.579495263647699,-0.0339082745106918,DLR
16.4666666666667,-4.35926580429077,0.0843381583690643,9.2401123046875,-0.213415995240211,0.899396002292633,-0.67835795879364,-1003.50006103516,-11.1000003814697,-911.700012207031,2.34247631642084,-0.446763545913699,-0.0089587803798347,DLR
16.5,-3.46504211425781,0.365465342998505,10.4800634384155,0.457319974899292,-1.6692179441452,0.472563982009888,-1008.30004882812,-14.7000007629395,-928.500061035156,2.33147649631874,-0.319880893208947,-0.0351921912564188,DLR
16.5333333333333,-2.71437287330627,-0.273351341485977,5.68355464935303,2.70580983161926,-1.89787793159485,-0.685979962348938,-998.700012207031,-14.1000003814697,-897.300048828125,2.36711808257076,-0.436860570755028,0.0403503717111373,DLR
16.5666666666667,-3.6211576461792,0.418700069189072,9.38905048370361,0.274392008781433,-1.2423859834671,-0.335367977619171,-1015.50006103516,-6.90000009536743,-899.700012207031,2.33703212943173,-0.368572117653728,-0.0414271562623003,DLR
16.6,-4.92451095581055,0.279930919408798,8.32076644897461,1.2347639799118,0.480185985565186,-0.846041977405548,-1003.50006103516,-9.90000057220459,-909.300048828125,2.34575593121733,-0.528235931184637,-0.0353139293726781,DLR
16.6333333333333,-3.74258065223694,0.119628593325615,8.6383810043335,0.579271972179413,-0.106707997620106,0.670735955238342,-1001.10003662109,-9.90000057220459,-923.700012207031,2.35288169005488,-0.413463864061417,-0.0161539741274568,DLR
16.6666666666667,-4.61048603057861,0.263781040906906,9.55413722991943,-1.14329993724823,0.3125019967556,0.800309956073761,-1013.10003662109,-10.5,-909.300048828125,2.34265783568275,-0.448937434309436,-0.0259881873933079,DLR
16.7,-5.04234504699707,-0.0352904349565506,8.87046051025391,0.350611984729767,0.114329993724823,0.792688012123108,-1013.10003662109,-5.70000028610229,-909.300048828125,2.3528982849308,-0.514325759417048,0.0013796917579113,DLR
16.7333333333333,-3.889723777771,0.209350034594536,9.60318565368652,-0.0838419944047928,0.274392008781433,0.922261953353882,-1008.30004882812,-9.90000057220459,-914.100036621094,2.33858203882864,-0.389335693389658,-0.0216399630970106,DLR
16.7666666666667,-4.16427135467529,-0.0047851437702775,8.34110355377197,0.670735955238342,-1.08232402801514,0.0990860015153885,-996.300048828125,-9.90000057220459,-916.500061035156,2.34785225149633,-0.45857064542346,-0.0014746069415267,DLR
16.8,-3.98901557922363,0.068188302218914,8.87105846405029,0.403965979814529,0.0914639979600906,0.350611984729767,-1008.30004882812,-11.1000003814697,-897.300048828125,2.3441223044674,-0.423729269403025,-0.0084706687496094,DLR
16.8333333333333,-2.61029601097107,0.323595345020294,7.24650192260742,1.46342396736145,-0.891773998737335,0.388722002506256,-1003.50006103516,-14.7000007629395,-918.900024414062,2.33091784317049,-0.346397560570726,-0.0461994420808587,DLR
16.8666666666667,-5.19965696334839,0.690257012844086,8.96018123626709,-1.71494996547699,2.27897787094116,-0.602137982845306,-1003.50006103516,-11.1000003814697,-914.100036621094,2.31834670823981,-0.521139565703678,-0.0722462544095048,DLR
16.9,-4.40352869033813,0.101086162030697,8.2681303024292,0.609759986400604,1.92074394226074,0.236281991004944,-1003.50006103516,-10.5,-923.700012207031,2.34587200671588,-0.493883580328069,-0.0158819145572648,DLR
16.9333333333333,-5.23494720458984,0.566441416740417,10.4244356155396,-0.823175966739655,-0.396344006061554,1.53202199935913,-1001.10003662109,-5.70000028610229,-904.500061035156,2.32096140087471,-0.46520699396235,-0.052653873453557,DLR
16.9666666666667,-4.36764001846313,0.379820793867111,9.45065879821777,0.381099998950958,-0.78506600856781,1.04421401023865,-996.300048828125,-5.70000028610229,-918.900024414062,2.32210802955882,-0.432542437962368,-0.042093981153097,DLR
17.0,-3.83290004730225,0.342137783765793,9.23652362823486,0.190549999475479,-1.94360995292664,1.06708002090454,-998.700012207031,-9.30000019073486,-911.700012207031,2.31981055695975,-0.391383548037492,-0.0382425843287364,DLR
17.0333333333333,-3.49375319480896,0.957028746604919,9.3717041015625,0.182927995920181,-1.46342396736145,1.50153398513794,-1005.90002441406,-5.70000028610229,-902.100036621094,2.29153538315671,-0.353971894924304,-0.10038040744379,DLR
17.0666666666667,-3.00746297836304,0.736313998699188,8.14790344238281,0.365855991840363,-2.98782396316528,1.6920839548111,-1013.10003662109,-5.70000028610229,-911.700012207031,2.28891853532056,-0.347102299654429,-0.0920113183768256,DLR
17.1,-2.5116024017334,1.11972367763519,8.33930969238281,0.106707997620106,-0.87652999162674,1.96647596359253,-1005.90002441406,-16.5,-902.100036621094,2.26811884833183,-0.290526987902163,-0.132944673468091,DLR
17.1333333333333,-3.74377679824829,0.25839775800705,6.88103675842285,0.396344006061554,0.282013982534409,0.83841997385025,-1013.10003662109,-6.30000019073486,-914.100036621094,2.29966997330689,-0.489966573684114,-0.0432882143284591,DLR
17.1666666666667,-5.33543539047241,0.773398876190186,10.2437963485718,-1.39482593536377,2.24086785316467,0.823175966739655,-991.500061035156,-4.5,-904.500061035156,2.27904112119059,-0.48312580763835,-0.072596519428201,DLR
17.2,-5.26605081558228,0.13099330663681,10.2958345413208,0.137196004390717,0.0076219998300075,1.03659200668335,-1008.30004882812,-8.10000038146973,-906.900024414062,2.30101077973679,-0.473181828437904,-0.0162627920056542,DLR
17.2333333333333,-4.48547410964966,0.73451954126358,10.1845808029175,-0.0304879993200302,-1.46342396736145,1.00610399246216,-1003.50006103516,-4.5,-911.700012207031,2.27301201816625,-0.412789377943031,-0.0712869454807255,DLR
17.2666666666667,-3.92142534255981,-0.16269488632679,7.66639852523804,-0.198172003030777,-0.0609759986400604,-0.777444005012512,-1015.50006103516,-2.10000014305115,-899.700012207031,2.31417497709175,-0.470245064841529,0.0183139882075501,DLR
17.3,-4.26475954055786,-0.237462759017944,7.88830947875977,-0.289635986089706,1.61586391925812,-1.01372599601746,-1001.10003662109,-6.30000019073486,-914.100036621094,2.32377585857123,-0.497072971661119,0.0310515745973398,DLR
17.3333333333333,-4.36165857315063,0.634629666805267,9.92977142333984,-0.0228659994900227,-0.0914639979600906,0.967993974685669,-1010.70001220703,-12.3000001907349,-906.900024414062,2.27858172470901,-0.415628165490894,-0.0616303350617304,DLR
17.3666666666667,-4.05780172348022,0.334960073232651,8.03605079650879,0.647870004177094,-1.02897000312805,0.967993974685669,-1008.30004882812,-4.5,-904.500061035156,2.28343415073303,-0.463362021589385,-0.0443449478804128,DLR
17.4,-3.97525811195374,-0.16568560898304,8.00853633880615,-0.25152599811554,0.716467976570129,0.480185985565186,-1008.30004882812,-8.70000076293945,-918.900024414062,2.30879261807123,-0.46201663269995,0.0180765497852322,DLR
