seconds,sensor_accX_m_s_,sensor_accY_m_s_,sensor_accZ_m_s_,sensor_gyroX___s_,sensor_gyroY___s_,sensor_gyroZ___s_,sensor_magX__T_,sensor_magY__T_,sensor_magZ__T_,sensor_yaw___,sensor_pitch___,sensor_roll___,label1
0.0,-3.5972318649292,-0.517991840839386,8.86089038848877,0.25152599811554,-0.182927995920181,0.3125019967556,-1073.10009765625,10.5,-923.700012207031,2.76014442801145,-0.384476848397406,0.0578996122301107,ST
0.0333333333333333,-3.59902620315552,-0.494066089391708,8.85012340545654,0.274392008781433,-0.129574000835419,0.358233988285065,-1056.30004882812,15.9000005722046,-921.300048828125,2.75850421601912,-0.385375902731074,0.0553902195926508,ST
0.0666666666666667,-3.58706331253052,-0.568235814571381,8.82918834686279,0.304879993200302,-0.167683988809586,0.358233988285065,-1046.70007324219,17.1000003814697,-928.500061035156,2.76048166382825,-0.384991015338414,0.0623858069178273,ST
0.1,-3.66063499450684,-0.482103228569031,8.86627292633057,0.449698001146317,-0.0304879993200302,0.365855991840363,-1061.10009765625,12.9000005722046,-923.700012207031,2.75701463292598,-0.390203764046058,0.0545064091166859,ST
0.133333333333333,-3.5792875289917,-0.502440094947815,8.82380485534668,0.129574000835419,0.0457319989800453,0.236281991004944,-1039.5,13.5000009536743,-921.300048828125,2.75715033665454,-0.385424887526677,0.0562921067637197,ST
0.166666666666667,-3.5493803024292,-0.528160214424133,8.89618015289307,0.175305992364883,-0.198172003030777,0.274392008781433,-1046.70007324219,18.3000011444092,-923.700012207031,2.7573844959007,-0.379610264849964,0.0584574346340451,ST
0.2,-3.56612849235535,-0.562852561473846,8.84174919128418,0.175305992364883,-0.274392008781433,0.144817993044853,-1065.90002441406,8.70000076293945,-918.900024414062,2.75865039173641,-0.381858865178423,0.0625186343551636,ST
0.233333333333333,-3.57569861412048,-0.571824669837952,8.81004810333252,0.289635986089706,-0.167683988809586,0.114329993724823,-1046.70007324219,12.3000001907349,-926.100036621094,2.75917942908329,-0.384179704136185,0.0639911727984081,ST
0.266666666666667,-3.61098909378052,-0.511412262916565,8.84414196014404,0.236281991004944,-0.0609759986400604,0.167683988809586,-1046.70007324219,14.7000007629395,-930.900024414062,2.75677954689982,-0.386586567490275,0.0581410453142459,ST
0.3,-3.61756873130798,-0.477916240692139,8.88182544708252,0.403965979814529,-0.152439996600151,0.327746003866196,-1049.10009765625,16.5,-918.900024414062,2.75445868056327,-0.386098462814811,0.0533419947039981,ST
0.333333333333333,-3.60261511802673,-0.546104550361633,8.86986255645752,0.160062000155449,-0.342989981174469,0.243903994560242,-1053.90002441406,9.90000057220459,-938.100036621094,2.75645112199636,-0.384754909472606,0.0601336361534466,ST
0.366666666666667,-3.60261511802673,-0.537730515003204,8.80765533447266,0.228659987449646,-0.304879993200302,0.182927995920181,-1053.90002441406,19.5,-914.100036621094,2.75625319738508,-0.38681089858179,0.0603971181368809,ST
0.4,-3.62833523750305,-0.577806115150452,8.86986255645752,0.243903994560242,-0.0685980021953583,0.137196004390717,-1056.30004882812,15.9000005722046,-935.700012207031,2.75752238683328,-0.38738137595628,0.0640810603684012,ST
0.433333333333333,-3.61996126174927,-0.566441416740417,8.88601207733154,0.25152599811554,-0.167683988809586,0.106707997620106,-1053.90002441406,12.9000005722046,-930.900024414062,2.75716165812502,-0.386025032965522,0.0632383771607564,ST
0.466666666666667,-3.62474632263184,-0.60352623462677,8.89079666137695,0.213415995240211,-0.274392008781433,0.182927995920181,-1049.10009765625,13.5000009536743,-918.900024414062,2.75816887761388,-0.385886216208012,0.0667197225320634,ST
0.5,-3.57988572120667,-0.644199967384338,8.83337497711182,0.198172003030777,-0.266770005226135,0.236281991004944,-1034.70007324219,12.3000001907349,-909.300048828125,2.75950861410453,-0.383980533790702,0.0715240687024147,ST
0.533333333333333,-3.60799837112427,-0.632835268974304,8.87285327911377,0.358233988285065,-0.243903994560242,0.144817993044853,-1056.30004882812,14.1000003814697,-923.700012207031,2.75911933164266,-0.384793633018702,0.0706058156545446,ST
0.566666666666667,-3.6271390914917,-0.529954671859741,8.82201099395752,0.381099998950958,-0.114329993724823,0.0304879993200302,-1044.30004882812,15.9000005722046,-923.700012207031,2.75568510817776,-0.38873465554968,0.0606208109758302,ST
0.6,-3.53143620491028,-0.695042133331299,8.77894401550293,0.304879993200302,-0.0381099991500378,0.221037998795509,-1056.30004882812,16.5,-930.900024414062,2.76128701219223,-0.382202832400682,0.0762701639119772,ST
0.633333333333333,-3.56373572349548,-0.60352623462677,8.95061111450195,0.175305992364883,-0.121951997280121,0.160062000155449,-1039.5,7.50000047683716,-923.700012207031,2.75801556353616,-0.378520552663994,0.0681663795531818,ST
0.666666666666667,-3.52964162826538,-0.66633129119873,8.83696460723877,0.304879993200302,-0.114329993724823,0.0609759986400604,-1056.30004882812,14.7000007629395,-933.300048828125,2.7602383797914,-0.378796345439819,0.0738003962046165,ST
0.7,-3.60500764846802,-0.590367138385773,8.84892749786377,0.37347799539566,-0.182927995920181,0.0762199983000755,-1056.30004882812,8.10000038146973,-926.100036621094,2.757857547861,-0.384838431980531,0.0669719625392236,ST
0.733333333333333,-3.64627957344055,-0.562254369258881,8.86866569519043,0.320124000310898,-0.198172003030777,0.167683988809586,-1049.10009765625,16.5,-940.500061035156,2.75630744279909,-0.388475670242837,0.0632135601096358,ST
0.766666666666667,-3.57151174545288,-0.554478526115417,8.77356147766113,0.190549999475479,-0.243903994560242,0.350611984729767,-1058.70007324219,18.9000015258789,-926.100036621094,2.75531499581003,-0.385910421016874,0.0626161078188987,ST
0.8,-3.60560584068298,-0.583787560462952,8.89797496795654,0.236281991004944,-0.0228659994900227,0.434453994035721,-1056.30004882812,16.5,-930.900024414062,2.75511795245098,-0.384480521051672,0.0645013371489735,ST
0.833333333333333,-3.56194138526917,-0.65436840057373,8.86328220367432,0.213415995240211,-0.0762199983000755,0.213415995240211,-1051.5,12.9000005722046,-926.100036621094,2.75756749854602,-0.381538523746364,0.0720009927907083,ST
0.866666666666667,-3.58706331253052,-0.596946656703949,8.87285327911377,0.25152599811554,-0.167683988809586,0.0762199983000755,-1051.5,12.9000005722046,-928.500061035156,2.75588566495048,-0.382905653129959,0.0673955409015319,ST
0.9,-3.58945608139038,-0.628050148487091,8.84713268280029,0.198172003030777,-0.190549999475479,0.114329993724823,-1053.90002441406,20.7000007629395,-916.500061035156,2.75674302520779,-0.384055614376415,0.0700238901567904,ST
0.933333333333333,-3.61397981643677,-0.654966533184052,8.90455436706543,0.167683988809586,-0.205793991684914,0.243903994560242,-1046.70007324219,12.9000005722046,-923.700012207031,2.75717813657879,-0.384251277515784,0.0725808235966585,ST
0.966666666666667,-3.58586716651917,-0.68965882062912,8.87703990936279,0.190549999475479,-0.282013982534409,0.190549999475479,-1053.90002441406,15.3000001907349,-921.300048828125,2.75826707409418,-0.382647346066742,0.0764496287778725,ST
1.0,-3.6432888507843,-0.617283523082733,8.85371208190918,0.320124000310898,-0.327746003866196,0.228659987449646,-1051.5,14.1000003814697,-914.100036621094,2.75547776930598,-0.388130202663293,0.0698957985059772,ST
1.03333333333333,-3.59005403518677,-0.56763768196106,8.84473991394043,0.350611984729767,-0.289635986089706,0.381099998950958,-1044.30004882812,21.3000011444092,-926.100036621094,2.75260733925049,-0.38490699364682,0.0640990939669094,ST
1.06666666666667,-3.59902620315552,-0.60352623462677,8.82380485534668,0.388722002506256,-0.266770005226135,0.579271972179413,-1058.70007324219,18.3000011444092,-923.700012207031,2.7524441826161,-0.38590948196267,0.0667726245550639,ST
1.1,-3.64269065856934,-0.464158952236176,8.90814304351807,0.419209986925125,-0.205793991684914,0.533540010452271,-1051.5,9.90000057220459,-926.100036621094,2.74628325301047,-0.387194014569495,0.0530781761528443,ST
1.13333333333333,-3.5511748790741,-0.562254369258881,8.91472244262695,0.25152599811554,-0.121951997280121,0.411587983369827,-1056.30004882812,12.9000005722046,-933.300048828125,2.7484080502625,-0.379443627524369,0.0610209054660302,ST
1.16666666666667,-3.53562307357788,-0.540123105049133,8.90455436706543,0.388722002506256,-0.236281991004944,0.480185985565186,-1049.10009765625,13.5000009536743,-938.100036621094,2.74703459350413,-0.377309844736949,0.0597593237226044,ST
1.2,-3.62594270706177,-0.516795516014099,8.84832859039307,0.282013982534409,-0.3125019967556,0.480185985565186,-1046.70007324219,14.1000003814697,-918.900024414062,2.74516157519096,-0.386694510296804,0.0577392127342549,ST
1.23333333333333,-3.59783005714417,-0.488682806491852,8.84234714508057,0.243903994560242,-0.282013982534409,0.556405961513519,-1051.5,15.3000001907349,-935.700012207031,2.74280718300689,-0.385626080488863,0.0548328346874286,ST
1.26666666666667,-3.5912504196167,-0.467747807502747,8.89498424530029,0.274392008781433,-0.3125019967556,0.602137982845306,-1044.30004882812,11.7000007629395,-938.100036621094,2.74041243259524,-0.383144443938034,0.0520560562327789,ST
1.3,-3.66063499450684,-0.427074074745178,8.91233062744141,0.213415995240211,-0.381099998950958,0.67835795879364,-1046.70007324219,10.5,-942.900024414062,2.73714593107618,-0.387967290355701,0.0476971960859993,ST
1.33333333333333,-3.55237102508545,-0.515001118183136,8.80107593536377,0.205793991684914,-0.365855991840363,0.762199997901917,-1056.30004882812,10.5,-935.700012207031,2.73848894474955,-0.383217582790163,0.0562122613359428,ST
1.36666666666667,-3.53023982048035,-0.486290246248245,8.82320690155029,0.137196004390717,-0.358233988285065,0.586893975734711,-1051.5,17.7000007629395,-926.100036621094,2.73627945127216,-0.379907283722783,0.0545915201599988,ST
1.4,-3.55895066261292,-0.550291538238525,8.83397388458252,0.160062000155449,-0.228659987449646,0.548784017562866,-1053.90002441406,14.7000007629395,-923.700012207031,2.73711566855476,-0.381763593888921,0.0608493694107696,ST
1.43333333333333,-3.57091355323792,-0.528160214424133,8.89558219909668,0.190549999475479,-0.25152599811554,0.365855991840363,-1044.30004882812,11.1000003814697,-923.700012207031,2.73551743751943,-0.380837818437173,0.0589354915103648,ST
1.46666666666667,-3.62355017662048,-0.53533798456192,8.89677810668945,0.282013982534409,-0.236281991004944,0.411587983369827,-1053.90002441406,10.5,-918.900024414062,2.73473486744882,-0.385243392634311,0.0592670834160739,ST
1.5,-3.6271390914917,-0.500047504901886,8.86447906494141,0.320124000310898,-0.243903994560242,0.518296003341675,-1058.70007324219,13.5000009536743,-928.500061035156,2.73240919142416,-0.387162768211594,0.0559346611217752,ST
1.53333333333333,-3.5631377696991,-0.555076658725739,8.88840484619141,0.289635986089706,-0.228659987449646,0.525918006896973,-1051.5,11.7000007629395,-935.700012207031,2.73308403425285,-0.381180160707508,0.0607376071056456,ST
1.56666666666667,-3.63192415237427,-0.455784946680069,8.88302135467529,0.442075997591019,-0.259148001670837,0.518296003341675,-1058.70007324219,9.90000057220459,-933.300048828125,2.72850533458474,-0.386607319484213,0.0512595803437432,ST
1.6,-3.62893342971802,-0.581993103027344,8.81722545623779,0.510673999786377,-0.205793991684914,0.6250039935112,-1039.5,9.30000019073486,-926.100036621094,2.73173283478944,-0.389043938162531,0.0628957258201692,ST
1.63333333333333,-3.6714015007019,-0.540721237659454,8.84653472900391,0.617381989955902,-0.137196004390717,0.663114011287689,-1063.5,14.7000007629395,-928.500061035156,2.72936573092178,-0.392173849016535,0.059852074967948,ST
1.66666666666667,-3.58945608139038,-0.529954671859741,8.89498424530029,0.205793991684914,-0.221037998795509,0.472563982009888,-1058.70007324219,9.30000019073486,-933.300048828125,2.72788252806709,-0.383711761744026,0.0589274223062451,ST
1.7,-3.59663367271423,-0.545506417751312,8.90216159820557,0.274392008781433,-0.495429992675781,0.640248000621796,-1068.30004882812,11.7000007629395,-933.300048828125,2.72669860750193,-0.382646980076717,0.0601099694764228,ST
1.73333333333333,-3.55835247039795,-0.516795516014099,8.94283580780029,0.259148001670837,-0.617381989955902,0.640248000621796,-1068.30004882812,14.1000003814697,-933.300048828125,2.72404958631394,-0.377804509076824,0.057216894714808,ST
1.76666666666667,-3.54459524154663,-0.502440094947815,8.94642448425293,0.266770005226135,-0.724089980125427,0.777444005012512,-1073.10009765625,14.1000003814697,-918.900024414062,2.72146234269911,-0.375814062731385,0.055362498216549,ST
1.8,-3.37412452697754,-0.507225215435028,9.01401424407959,0.266770005226135,-0.846041977405548,0.945127964019775,-1053.90002441406,11.7000007629395,-928.500061035156,2.71899100294934,-0.358910463566371,0.0551268895932511,ST
1.83333333333333,-3.35139513015747,-0.374437510967255,9.02657604217529,0.419209986925125,-0.975615978240967,1.10518991947174,-1056.30004882812,7.50000047683716,-916.500061035156,2.71173288810453,-0.3543311466338,0.0420252372516702,ST
1.86666666666667,-3.35199332237244,-0.364269077777863,8.9775276184082,0.259148001670837,-0.739333987236023,1.14329993724823,-1063.5,15.3000001907349,-933.300048828125,2.70763388445308,-0.355715034495747,0.0396079563673896,ST
1.9,-3.29935669898987,-0.382213354110718,8.82799243927002,0.381099998950958,-0.457319974899292,1.18140995502472,-1061.10009765625,13.5000009536743,-933.300048828125,2.70521020586747,-0.356544975179734,0.0415856923774721,ST
1.93333333333333,-3.39087247848511,-0.372044920921326,8.92489147186279,0.37347799539566,-0.160062000155449,1.05945801734924,-1058.70007324219,11.7000007629395,-933.300048828125,2.7023286506594,-0.361780715133439,0.0404814092553905,ST
1.96666666666667,-3.5093047618866,-0.348717361688614,8.96257400512695,0.342989981174469,-0.114329993724823,0.830797970294952,-1061.10009765625,20.7000007629395,-930.900024414062,2.69932084458468,-0.371707838730353,0.0379992313758904,ST
2.0,-3.56493210792542,-0.342735916376114,8.94821929931641,0.411587983369827,-0.37347799539566,0.724089980125427,-1058.70007324219,15.3000001907349,-938.100036621094,2.69728038704644,-0.377615724967144,0.0371492712842283,ST
2.03333333333333,-3.65166282653809,-0.39836323261261,8.75142955780029,0.282013982534409,-0.815553963184357,0.503051996231079,-1068.30004882812,15.3000001907349,-942.900024414062,2.69855082832351,-0.391838934372708,0.0438025767311773,ST
2.06666666666667,-3.74975824356079,-0.351708054542542,8.86268424987793,0.0533539988100529,-1.21951997280121,0.396344006061554,-1058.70007324219,8.10000038146973,-926.100036621094,2.69580622920116,-0.397175262352013,0.0397757589448233,ST
2.1,-3.78145980834961,-0.258995920419693,8.82978630065918,0.0533539988100529,-1.56251001358032,0.411587983369827,-1073.10009765625,9.90000057220459,-918.900024414062,2.69075005206549,-0.401280743330544,0.0300633128542855,ST
2.13333333333333,-3.91843461990356,-0.163293033838272,8.74425220489502,0.510673999786377,-1.44055795669556,0.647870004177094,-1068.30004882812,6.30000019073486,-918.900024414062,2.68488277605715,-0.416859428159859,0.0186461429953387,ST
2.16666666666667,-3.92561221122742,-0.294286340475082,8.52413558959961,0.937505960464478,-0.78506600856781,0.350611984729767,-1070.70007324219,5.70000028610229,-933.300048828125,2.6901796366667,-0.42870027949487,0.0311804664954687,ST
2.2,-4.12299966812134,-0.147143170237541,8.33871078491211,0.914639949798584,-0.37347799539566,-0.457319974899292,-1070.70007324219,10.5,-921.300048828125,2.68705874115323,-0.455266532220949,0.0180273642115991,ST
2.23333333333333,-4.32576990127563,-0.0161498598754406,8.07612609863281,1.57775402069092,-0.335367977619171,-0.731711983680725,-1056.30004882812,16.5,-933.300048828125,2.68397715841926,-0.486984249699103,0.0020360795642041,ST
2.26666666666667,-4.70319795608521,0.187816888093948,8.42544174194336,1.59299790859222,-0.663114011287689,-1.14329993724823,-1070.70007324219,15.3000001907349,-928.500061035156,2.67850282221951,-0.505660280265207,-0.0211440719819812,ST
2.3,-4.79291963577271,0.244042336940765,9.01401424407959,1.27287399768829,-1.92074394226074,-1.19665396213531,-1070.70007324219,9.30000019073486,-942.900024414062,2.68087071836113,-0.487442677895018,-0.0273772229705605,ST
2.33333333333333,-4.69602060317993,0.528160214424133,8.61983871459961,1.265251994133,-3.70429182052612,-1.6615959405899,-1094.70007324219,6.30000019073486,-926.100036621094,2.67336795418647,-0.491266242880093,-0.0576622336224083,ST
2.36666666666667,-4.50222206115723,0.782370984554291,7.66101503372192,1.47104597091675,-3.23172783851624,-1.32622802257538,-1085.10009765625,15.9000005722046,-918.900024414062,2.66057061398936,-0.519306196836952,-0.0965397223397604,ST
2.4,-4.14632701873779,0.500645637512207,7.68793153762817,1.02134799957275,-1.50915598869324,-0.914639949798584,-1089.90002441406,5.70000028610229,-926.100036621094,2.67803730758477,-0.494511732516387,-0.0693537303555075,ST
2.43333333333333,-3.3346471786499,0.503636360168457,8.64376449584961,0.571649968624115,-2.03507399559021,-0.884151995182037,-1097.10009765625,8.10000038146973,-923.700012207031,2.6854228808183,-0.381811303144034,-0.0598651796725304,ST
2.46666666666667,-3.61996126174927,0.574815392494202,8.07911682128906,0.434453994035721,-2.9420919418335,-1.10518991947174,-1101.90002441406,6.90000009536743,-935.700012207031,2.68569785023701,-0.41078410435812,-0.0693145157873943,ST
2.5,-3.21621465682983,0.415709376335144,8.47568607330322,0.0533539988100529,-2.03507399559021,-0.594515979290009,-1106.70007324219,14.7000007629395,-935.700012207031,2.69445647799341,-0.365822347039759,-0.051368023761977,ST
2.53333333333333,-2.34651494026184,-0.183031752705574,10.2372169494629,0.144817993044853,-2.27135586738586,-0.853663980960846,-1094.70007324219,12.9000005722046,-938.100036621094,2.71509641952647,-0.240994361656806,0.00896757802641,ST
2.56666666666667,-2.15570735931396,0.0005981429712846,8.81184196472168,0.426831990480423,-4.38264989852905,-1.6615959405899,-1104.30004882812,6.90000009536743,-923.700012207031,2.71813156778322,-0.233446341227601,0.0011076764434062,ST
2.6,-2.55287408828735,0.538926839828491,8.68742847442627,0.472563982009888,-3.353679895401,-1.21951997280121,-1109.10009765625,5.70000028610229,-916.500061035156,2.70845101832408,-0.273365404378563,-0.0534690312502663,ST
2.63333333333333,-1.67779099941254,0.158507883548737,10.1409158706665,0.213415995240211,-3.11739802360535,0.0228659994900227,-1116.30004882812,8.70000076293945,-923.700012207031,2.71605367391033,-0.174055472063821,-0.0209579348283156,ST
2.66666666666667,-1.01086163520813,0.266771763563156,9.53021240234375,0.114329993724823,-5.14484977722168,-0.983237981796265,-1111.5,6.90000009536743,-911.700012207031,2.7184112951994,-0.107151069484911,-0.0270065023330688,ST
2.7,-1.25550210475922,0.65137767791748,9.50688457489014,0.167683988809586,-3.81862187385559,-0.434453994035721,-1133.10009765625,8.70000076293945,-918.900024414062,2.71610958519956,-0.122069329550739,-0.0629351107406196,ST
2.73333333333333,-0.90977543592453,0.47851437330246,10.3723974227905,0.685979962348938,-2.42379593849182,0.221037998795509,-1130.70007324219,3.90000009536743,-918.900024414062,2.71748697789486,-0.0884070904371521,-0.0494179399324406,ST
2.76666666666667,-0.733921408653259,0.450999796390533,10.1175880432129,0.0457319989800453,-2.43141794204712,-0.777444005012512,-1133.10009765625,13.5000009536743,-909.300048828125,2.72047385630453,-0.0706999189305211,-0.0451234477261789,ST
2.8,-1.41879510879517,0.723154842853546,9.61215782165527,-0.0228659994900227,-1.18140995502472,-0.754577994346619,-1125.90002441406,8.10000038146973,-918.900024414062,2.72030013259635,-0.13627138288016,-0.0716539018899035,ST
2.83333333333333,-1.57132160663605,0.82364284992218,9.92558479309082,-0.228659987449646,0.457319974899292,0.0533539988100529,-1137.90002441406,6.30000019073486,-916.500061035156,2.71860479693695,-0.154432863343057,-0.0809595465492743,ST
2.86666666666667,-1.57072341442108,0.617283523082733,9.77963733673096,-0.190549999475479,0.472563982009888,0.434453994035721,-1137.90002441406,8.10000038146973,-935.700012207031,2.71963639511349,-0.159001466931401,-0.0652812134583657,ST
2.9,-2.03069543838501,0.959421336650848,9.32265663146973,0.129574000835419,0.975615978240967,0.861285984516144,-1133.10009765625,5.70000028610229,-921.300048828125,2.71093480870871,-0.207946748167873,-0.0983244455144732,ST
2.93333333333333,-2.34172964096069,0.549693405628204,9.83047962188721,-0.0762199983000755,1.6920839548111,1.30336201190948,-1142.70007324219,12.3000001907349,-921.300048828125,2.714705203551,-0.233268632447884,-0.0608351527593938,ST
2.96666666666667,-2.30464482307434,0.223107323050499,9.90704250335693,-0.327746003866196,2.59910202026367,0.777444005012512,-1123.5,12.9000005722046,-933.300048828125,2.71970494332328,-0.233049767679958,-0.0274957286270661,ST
3.0,-4.11402750015259,0.661546111106873,10.2019262313843,-0.0838419944047928,3.70429182052612,0.87652999162674,-1116.30004882812,2.70000004768372,-921.300048828125,2.70714427542173,-0.367866533339898,-0.0599424826217446,ST
3.03333333333333,-4.56562519073486,0.681882977485657,10.864070892334,-0.472563982009888,5.35826587677002,2.53050398826599,-1121.10009765625,12.3000001907349,-928.500061035156,2.69666833205783,-0.402392442081522,-0.0635399432607665,ST
3.06666666666667,-3.59783005714417,0.15312460064888,10.9472122192383,-0.137196004390717,4.80185985565186,2.75154185295105,-1097.10009765625,2.10000014305115,-930.900024414062,2.70348022463594,-0.334683657304905,-0.0209766989750854,ST
3.1,-3.80777812004089,0.412718653678894,10.3975191116333,0.533540010452271,3.52898597717285,2.70580983161926,-1104.30004882812,8.70000076293945,-928.500061035156,2.6895401937569,-0.35422741013872,-0.0399128997993179,ST
3.13333333333333,-4.36764001846313,0.713584542274475,11.1960401535034,0.716467976570129,3.38416790962219,2.9268479347229,-1087.5,6.90000009536743,-930.900024414062,2.67261426911482,-0.374439308871405,-0.0640941492633653,ST
3.16666666666667,-3.45666813850403,-0.258995920419693,9.93096733093262,0.815553963184357,1.89787793159485,2.4923939704895,-1087.5,9.30000019073486,-935.700012207031,2.69340403013729,-0.342209208134695,0.0138473727535276,ST
3.2,-4.46573543548584,-0.474327385425568,9.00444412231445,1.08994603157043,2.23324584960938,2.17989206314087,-1087.5,2.70000004768372,-933.300048828125,2.70071700385267,-0.449778687279412,0.0447183383851373,ST
3.23333333333333,-5.21580648422241,-0.0951047316193581,8.57138919830322,1.04421401023865,2.59910202026367,1.50915598869324,-1082.70007324219,9.90000057220459,-930.900024414062,2.68345917647585,-0.537533262436689,0.0130029923701202,ST
3.26666666666667,-4.56323289871216,-0.66334056854248,7.78961610794067,0.198172003030777,2.08842802047729,2.69818782806396,-1063.5,6.90000009536743,-921.300048828125,2.70807639561389,-0.533030926781801,0.074024277738486,ST
3.3,-4.37960290908813,-0.948654770851135,8.45714378356934,-0.541162014007568,1.98171997070312,2.56099200248718,-1068.30004882812,9.90000057220459,-923.700012207031,2.71679794452652,-0.486482801849644,0.105663887186356,ST
3.33333333333333,-3.94475293159485,-1.06648886203766,7.9517126083374,0.160062000155449,1.07470202445984,3.14788603782654,-1058.70007324219,8.70000076293945,-933.300048828125,2.71913144665664,-0.463171809287472,0.127123342050123,ST
3.36666666666667,-4.62244892120361,-0.847568571567535,8.46133041381836,-0.236281991004944,1.57775402069092,2.24086785316467,-1068.30004882812,12.9000005722046,-921.300048828125,2.70211549957751,-0.495970817215267,0.102284811082004,ST
3.4,-4.9215202331543,-0.742295444011688,8.54088306427002,-0.129574000835419,1.52439999580383,1.73781597614288,-1058.70007324219,5.70000028610229,-921.300048828125,2.69082208182818,-0.52027416259764,0.0876588208955931,ST
3.43333333333333,-4.89580011367798,0.0897214487195015,8.25078392028809,-0.358233988285065,0.25152599811554,1.95123195648193,-1063.5,10.5,-926.100036621094,2.64200323235623,-0.53419153894961,0.0013448684118035,ST
3.46666666666667,-5.11352443695068,-0.138171032071114,7.73937177658081,0.0076219998300075,0.952749967575073,2.62196803092957,-1056.30004882812,20.1000003814697,-921.300048828125,2.64179683645134,-0.578589216357354,0.0130171386424609,ST
3.5,-5.04413986206055,-0.193798318505287,9.20302772521973,-0.221037998795509,1.14329993724823,2.32470989227295,-1068.30004882812,6.30000019073486,-933.300048828125,2.63854602479128,-0.513515514968993,0.0183120966005818,ST
3.53333333333333,-4.77856397628784,0.247631192207336,7.64965057373047,0.327746003866196,-0.503051996231079,2.01220798492432,-1065.90002441406,8.70000076293945,-923.700012207031,2.61067914340909,-0.551370156920661,-0.0276707936606593,ST
3.56666666666667,-4.37063074111938,-0.102880589663982,8.41288089752197,-0.266770005226135,-0.274392008781433,1.38720393180847,-1053.90002441406,9.30000019073486,-921.300048828125,2.62370763656272,-0.488497476222105,0.0062764902741495,ST
3.6,-3.93279004096985,-0.291295617818832,8.19396018981934,-0.0457319989800453,-1.28811800479889,-0.830797970294952,-1068.30004882812,9.90000057220459,-935.700012207031,2.63768208311611,-0.450433987260868,0.0326038087938215,ST
3.63333333333333,-4.63022470474243,0.222509190440178,7.95589971542358,-0.792688012123108,-1.21951997280121,-0.342989981174469,-1065.90002441406,3.30000019073486,-916.500061035156,2.61397763815078,-0.514838471700679,-0.0179487250009476,ST
3.66666666666667,-2.7741870880127,-0.641807436943054,7.98700332641602,-0.6250039935112,-1.98171997070312,1.21189796924591,-1075.5,9.30000019073486,-930.900024414062,2.64667792464904,-0.350128426530178,0.0704493089471674,ST
3.7,-3.58227825164795,0.401353925466537,8.83935642242432,-0.0838419944047928,-0.342989981174469,0.823175966739655,-1065.90002441406,9.90000057220459,-926.100036621094,2.60850035290517,-0.379807855627585,-0.0298788150435353,ST
3.73333333333333,-3.28858995437622,0.442027658224106,8.39553451538086,0.297257989645004,-0.175305992364883,0.259148001670837,-1061.10009765625,10.5,-926.100036621094,2.60068781998208,-0.373533937105639,-0.0501398108679671,ST
3.76666666666667,-3.70848631858826,0.722556710243225,7.87036514282227,0.609759986400604,0.518296003341675,-0.381099998950958,-1065.90002441406,15.9000005722046,-928.500061035156,2.58804549955346,-0.430775324501978,-0.0865150550602616,ST
3.8,-4.00995063781738,0.0879270136356354,8.39493656158447,0.175305992364883,1.15854394435883,0.602137982845306,-1063.5,12.3000001907349,-926.100036621094,2.61411227423506,-0.445468632290861,-0.0215363941363101,ST
3.83333333333333,-3.88314414024353,0.413316786289215,8.5187520980835,-0.205793991684914,-0.266770005226135,0.548784017562866,-1063.5,12.3000001907349,-923.700012207031,2.60254251698773,-0.429296557838023,-0.0449381625147345,ST
3.86666666666667,-3.57988572120667,0.187218755483627,8.38895511627197,0.259148001670837,-0.198172003030777,0.815553963184357,-1073.10009765625,11.7000007629395,-918.900024414062,2.60829598478181,-0.406444999229907,-0.0262615486726535,ST
3.9,-3.27602910995483,-0.105871304869652,7.92838525772095,-0.586893975734711,0.335367977619171,-0.25152599811554,-1061.10009765625,6.90000009536743,-914.100036621094,2.62207229933034,-0.394324401760732,0.0090780735894924,ST
3.93333333333333,-3.10615634918213,0.249425619840622,7.55334949493408,0.175305992364883,0.571649968624115,0.693601965904236,-1068.30004882812,8.10000038146973,-921.300048828125,2.606186729019,-0.391433270585893,-0.0280461842620742,ST
3.96666666666667,-3.14742827415466,0.340941488742828,8.76040172576904,0.282013982534409,1.20427596569061,1.85214591026306,-1058.70007324219,12.9000005722046,-940.500061035156,2.59743255822156,-0.352706847226813,-0.0389714503985398,ST
4.0,-2.19219398498535,-0.355296939611435,10.5075778961182,-1.00610399246216,-1.15854394435883,0.0457319989800453,-1070.70007324219,10.5,-930.900024414062,2.61520159141798,-0.220993574967959,0.0271346222023902,ST
4.03333333333333,-2.10546326637268,-0.715378999710083,8.68324184417725,-0.190549999475479,-2.27897787094116,-1.46342396736145,-1063.5,6.30000019073486,-933.300048828125,2.63013636578962,-0.231627454128899,0.0765373572521902,ST
4.06666666666667,-3.20185923576355,-0.394176214933395,9.87713527679443,0.579271972179413,-0.670735955238342,-0.769822001457214,-1068.30004882812,12.3000001907349,-933.300048828125,2.62413510055933,-0.30116560865909,0.0443984133959152,ST
4.1,-1.42537474632263,-0.668723821640015,8.70656871795654,1.44817996025085,-1.37195992469788,0.0381099991500378,-1073.10009765625,14.7000007629395,-928.500061035156,2.63102748370867,-0.175939279510333,0.0707473559650727,ST
4.13333333333333,-2.33335566520691,-0.620274245738983,7.9397497177124,2.12653803825378,0.602137982845306,-0.609759986400604,-1070.70007324219,14.1000003814697,-926.100036621094,2.63496249399319,-0.271099377393743,0.0739814538357493,ST
4.16666666666667,-3.9196310043335,-0.199181616306305,9.10971736907959,1.83690190315247,1.73019397258759,-0.724089980125427,-1068.30004882812,12.3000001907349,-935.700012207031,2.6235703198941,-0.390556606457298,0.0268868970081775,ST
4.2,-3.68157005310059,-1.30933499336243,9.59899806976318,-0.87652999162674,0.807931959629059,-1.10518991947174,-1063.5,9.90000057220459,-928.500061035156,2.66268299677694,-0.367417001235955,0.126080238409986,ST
4.23333333333333,-3.81196522712708,-1.01504862308502,9.68453311920166,-0.518296003341675,-0.190549999475479,-2.15702605247498,-1061.10009765625,14.1000003814697,-933.300048828125,2.66180684149099,-0.371717514391329,0.109388853042445,ST
4.26666666666667,-4.10326099395752,-0.300865918397903,8.78073883056641,1.78354799747467,-0.0076219998300075,-0.693601965904236,-1063.5,9.90000057220459,-923.700012207031,2.63954809532478,-0.428171977933711,0.0424312655424165,ST
4.3,-3.32746934890747,0.535936117172241,8.29863548278809,1.30336201190948,1.27287399768829,-0.320124000310898,-1068.30004882812,12.9000005722046,-938.100036621094,2.60424316989475,-0.389260127352865,-0.0521228535802765,ST
4.33333333333333,-4.35687351226807,0.309838056564331,9.42314434051514,0.503051996231079,0.0381099991500378,0.78506600856781,-1056.30004882812,10.5,-923.700012207031,2.60885507235733,-0.427434168282725,-0.036636147147921,ST
4.36666666666667,-4.73489999771118,0.506028950214386,8.87105846405029,-0.46494197845459,-0.0533539988100529,0.121951997280121,-1070.70007324219,10.5,-935.700012207031,2.60041531199292,-0.481733108460874,-0.0537403535661856,ST
4.4,-5.0531120300293,0.659153580665588,9.25327205657959,-0.899396002292633,-0.129574000835419,1.51677799224854,-1063.5,12.9000005722046,-926.100036621094,2.58791879183158,-0.496451290991836,-0.0689398134586567,ST
4.43333333333333,-4.26894617080688,-0.173461467027664,8.09048175811768,-1.15092194080353,0.823175966739655,1.09756803512573,-1056.30004882812,11.1000003814697,-935.700012207031,2.62145402984208,-0.488167053558081,0.011870910158711,ST
4.46666666666667,-5.89170837402344,1.02222633361816,9.36093711853027,-0.0533539988100529,2.72867584228516,0.0685980021953583,-1046.70007324219,10.5,-928.500061035156,2.56775023273683,-0.555421370858966,-0.0944147259752791,ST
4.5,-5.01064348220825,0.858335137367249,8.26394367218018,1.2500079870224,1.27287399768829,1.28811800479889,-1034.70007324219,11.7000007629395,-938.100036621094,2.56006373452847,-0.545817048327764,-0.105813115575965,ST
4.53333333333333,-4.10804605484009,0.326586067676544,7.17891216278076,-0.403965979814529,1.37195992469788,0.663114011287689,-1061.10009765625,5.10000038146973,-933.300048828125,2.58423754258072,-0.524997126782473,-0.0535418540887598,ST
4.56666666666667,-5.64766597747803,0.920542061328888,9.66479396820068,-1.42531394958496,2.0655620098114,-0.0533539988100529,-1046.70007324219,16.5,-923.700012207031,2.56492322398271,-0.529793133803055,-0.0873262754424051,ST
4.6,-4.86708927154541,0.0879270136356354,7.85122442245483,-0.213415995240211,-0.442075997591019,0.144817993044853,-1044.30004882812,8.70000076293945,-926.100036621094,2.59821223801834,-0.551016732743053,-0.021444057145601,ST
4.63333333333333,-4.47470760345459,-0.341539651155472,7.49054431915283,-0.762199997901917,0.228659987449646,0.67835795879364,-1051.5,14.1000003814697,-914.100036621094,2.62650247491231,-0.539923606410448,0.0389746274589875,ST
4.66666666666667,-5.3719220161438,0.0580198690295219,9.29215145111084,-1.21189796924591,0.548784017562866,0.342989981174469,-1034.70007324219,10.5,-935.700012207031,2.6047545067016,-0.527193914295336,0.0013271496507621,ST
4.7,-5.35278129577637,0.295482635498047,8.99367809295654,-0.495429992675781,-0.815553963184357,1.10518991947174,-1044.30004882812,13.5000009536743,-921.300048828125,2.58598080682378,-0.534196526024306,-0.0287595591770798,ST
4.73333333333333,-4.682861328125,-0.419896364212036,7.86797285079956,-0.960371971130371,-0.67835795879364,0.533540010452271,-1046.70007324219,14.7000007629395,-923.700012207031,2.62021296888872,-0.535160090867003,0.0439696329518529,ST
4.76666666666667,-4.84017276763916,-0.155517175793648,8.92548942565918,-1.63110792636871,-0.221037998795509,0.0,-1058.70007324219,15.9000005722046,-930.900024414062,2.60767514171955,-0.501705776140221,0.0233767431523994,ST
4.8,-4.98073673248291,-0.0053832866251468,8.60907173156738,-0.327746003866196,-0.762199997901917,0.0533539988100529,-1056.30004882812,18.9000015258789,-928.500061035156,2.59766368556991,-0.520283896001161,0.0041815971043295,ST
4.83333333333333,-4.32517194747925,-0.269164323806763,7.56949949264526,-0.282013982534409,-0.518296003341675,-0.0990860015153885,-1044.30004882812,18.3000011444092,-938.100036621094,2.61134126147637,-0.518260163912266,0.0321203737664134,ST
4.86666666666667,-4.89221143722534,-0.0173461455851793,8.10962200164795,-0.411587983369827,0.907018005847931,-0.701223969459534,-1046.70007324219,15.3000001907349,-928.500061035156,2.60008289977878,-0.540881741224003,0.0074994708043742,ST
4.9,-4.36106061935425,-0.57660984992981,8.78851509094238,0.274392008781433,0.25152599811554,-0.289635986089706,-1041.90002441406,17.1000003814697,-916.500061035156,2.62560387582374,-0.471191575348676,0.0578121284399296,ST
4.93333333333333,-4.09668111801147,-0.60352623462677,8.55703353881836,0.701223969459534,-0.495429992675781,-0.823175966739655,-1046.70007324219,21.3000011444092,-930.900024414062,2.63316847966494,-0.448180066594755,0.0682548819133578,ST
4.96666666666667,-3.86400365829468,-0.107067592442036,8.22925090789795,0.975615978240967,-0.274392008781433,-0.830797970294952,-1051.5,14.1000003814697,-930.900024414062,2.61558143344203,-0.439825603471425,0.0195541511808976,ST
5.0,-3.27543091773987,-0.388792932033539,8.59531402587891,0.381099998950958,-0.106707997620106,0.442075997591019,-1037.10009765625,12.9000005722046,-926.100036621094,2.62348920071884,-0.371793984757438,0.0416528419553604,ST
5.03333333333333,-3.77308583259583,-0.310436189174652,8.73587799072266,0.228659987449646,-0.0990860015153885,-0.457319974899292,-1051.5,12.3000001907349,-938.100036621094,2.62292553020657,-0.402482791095432,0.0362987019629103,ST
5.06666666666667,-3.2227942943573,-0.242846041917801,8.60309028625488,0.693601965904236,-0.198172003030777,-0.533540010452271,-1051.5,12.3000001907349,-926.100036621094,2.62218434444362,-0.363941938889989,0.0285601144721673,ST
5.1,-4.62543964385986,0.299071490764618,8.70058727264404,0.846041977405548,0.274392008781433,-0.236281991004944,-1049.10009765625,8.70000076293945,-926.100036621094,2.60070601154213,-0.475490292915558,-0.028366868481709,ST
5.13333333333333,-4.57758808135986,0.113647162914276,8.70357799530029,0.457319974899292,0.907018005847931,1.11281192302704,-1041.90002441406,18.3000011444092,-923.700012207031,2.60377059522263,-0.484608466061343,-0.0163413878560566,ST
5.16666666666667,-3.9459490776062,-0.803904175758362,7.87694501876831,-0.282013982534409,0.548784017562866,0.0304879993200302,-1051.5,14.1000003814697,-935.700012207031,2.65040626594788,-0.466570810965307,0.0863351135336363,ST
5.2,-4.97954034805298,-0.60651695728302,9.71384143829346,0.472563982009888,0.503051996231079,-1.03659200668335,-1029.90002441406,17.1000003814697,-930.900024414062,2.64445706959641,-0.472965061613715,0.0648572492572276,ST
5.23333333333333,-4.63560819625854,-0.652574002742767,9.50030517578125,1.27287399768829,-0.914639949798584,-0.442075997591019,-1058.70007324219,12.9000005722046,-914.100036621094,2.64787214894567,-0.454089091601974,0.0664662058223473,ST
5.26666666666667,-3.63850378990173,-0.441429525613785,8.33572006225586,1.53202199935913,-1.2576299905777,-0.617381989955902,-1046.70007324219,9.30000019073486,-935.700012207031,2.64549535785119,-0.413668999349694,0.0523402130111761,ST
5.3,-3.99738955497742,-0.321800917387009,7.79081201553345,1.55488801002502,-0.739333987236023,-0.609759986400604,-1039.5,16.5,-928.500061035156,2.64403386717979,-0.464450927925896,0.0408757307195718,ST
5.33333333333333,-4.00337076187134,-0.849363029003143,8.23583030700684,0.503051996231079,0.647870004177094,-0.716467976570129,-1046.70007324219,14.1000003814697,-918.900024414062,2.67028746979728,-0.453281266825323,0.0942707657456144,ST
5.36666666666667,-4.41549158096313,-0.640012979507446,9.01401424407959,0.411587983369827,0.731711983680725,-1.09756803512573,-1037.10009765625,8.10000038146973,-933.300048828125,2.665024142897,-0.455342864204127,0.0740429853143982,ST
5.4,-4.09488677978516,-0.528758406639099,8.69580268859863,1.31098401546478,-0.670735955238342,-0.503051996231079,-1039.5,9.90000057220459,-921.300048828125,2.6621390145163,-0.440487972577597,0.0608701850769376,ST
5.43333333333333,-4.60928964614868,-0.0167480036616325,8.53550052642822,0.518296003341675,-0.647870004177094,-0.221037998795509,-1039.5,15.9000005722046,-938.100036621094,2.64008770129641,-0.487388086642354,0.0089140771253443,ST
5.46666666666667,-4.35268640518188,0.042468149214983,8.11680030822754,0.213415995240211,-0.571649968624115,0.632625997066498,-1041.90002441406,9.90000057220459,-928.500061035156,2.63231195461067,-0.490817524657474,-0.0045664821460519,ST
5.5,-4.26416110992432,-0.315819501876831,8.94821929931641,-0.37347799539566,0.236281991004944,0.731711983680725,-1034.70007324219,4.5,-930.900024414062,2.64583614164705,-0.450269233171315,0.0307756417388853,ST
5.53333333333333,-4.78394746780396,0.0951047316193581,8.51695823669434,0.556405961513519,0.228659987449646,0.541162014007568,-1041.90002441406,13.5000009536743,-938.100036621094,2.62756661317644,-0.505008885451417,-0.0074612498650825,ST
5.56666666666667,-4.72114229202271,0.295482635498047,8.29504680633545,0.87652999162674,0.0076219998300075,0.846041977405548,-1034.70007324219,14.1000003814697,-918.900024414062,2.6137936348201,-0.515512032033864,-0.0338283759087799,ST
5.6,-4.57699012756348,0.500047504901886,7.40261745452881,0.830797970294952,0.647870004177094,1.34909391403198,-1037.10009765625,8.70000076293945,-938.100036621094,2.59533640106398,-0.548974757402193,-0.0657022801460979,ST
5.63333333333333,-4.64039325714111,-0.309838056564331,8.39792728424072,-0.25152599811554,1.12805593013763,0.708845973014832,-1046.70007324219,11.1000003814697,-933.300048828125,2.6389330875407,-0.511710577169752,0.0250259406827988,ST
5.66666666666667,-5.32347249984741,-0.381615221500397,8.27829837799072,-0.0381099991500378,0.609759986400604,-0.564027965068817,-1039.5,12.9000005722046,-942.900024414062,2.65022964442798,-0.565032158448648,0.0441520462974806,ST
5.7,-5.40721225738525,0.0753660127520561,9.17670917510986,-0.327746003866196,1.12805593013763,0.213415995240211,-1029.90002441406,10.5,-930.900024414062,2.62454506437532,-0.537528001355228,-0.0028144341352084,ST
5.73333333333333,-5.18889045715332,-0.43724250793457,9.57028770446777,0.0990860015153885,0.297257989645004,-0.0304879993200302,-1037.10009765625,17.1000003814697,-926.100036621094,2.6456162704872,-0.50246347438631,0.0391330826408004,ST
5.76666666666667,-4.43164110183716,-0.163891181349754,8.11440753936768,0.0685980021953583,-0.846041977405548,-0.297257989645004,-1037.10009765625,8.70000076293945,-930.900024414062,2.63852856000142,-0.498833946724474,0.0226896422315481,ST
5.8,-4.84974336624146,0.0065795728005468,7.30093288421631,-0.282013982534409,-0.137196004390717,0.0838419944047928,-1044.30004882812,10.5,-928.500061035156,2.62742946549172,-0.575974293826767,0.0023312620126174,ST
5.83333333333333,-4.38199520111084,-0.510814070701599,8.11739826202393,-1.00610399246216,0.701223969459534,1.49391198158264,-1037.10009765625,15.9000005722046,-921.300048828125,2.64958573953951,-0.506488827800298,0.0552598665205336,ST
5.86666666666667,-4.53452205657959,-0.0980954468250275,7.8177285194397,-0.884151995182037,0.899396002292633,-0.167683988809586,-1034.70007324219,9.30000019073486,-909.300048828125,2.6313763712813,-0.524406930615657,0.0198701757836215,ST
5.9,-4.94903516769409,0.355895072221756,8.30342102050781,0.0685980021953583,1.15854394435883,0.663114011287689,-1029.90002441406,10.5,-928.500061035156,2.60198419797728,-0.5372194632498,-0.0350441483667764,ST
5.93333333333333,-5.0016713142395,0.287706762552261,7.74894237518311,0.792688012123108,0.541162014007568,1.08994603157043,-1046.70007324219,14.7000007629395,-928.500061035156,2.59834677993933,-0.568806713722798,-0.039088516665419,ST
5.96666666666667,-4.56024217605591,-0.565245091915131,9.2879638671875,-1.02897000312805,-0.175305992364883,0.602137982845306,-1020.30004882812,2.70000004768372,-918.900024414062,2.63919843713797,-0.471029035276608,0.0490499248756867,ST
6.0,-4.48906278610229,-0.561058104038239,8.9715461730957,-0.396344006061554,-1.71494996547699,-0.830797970294952,-1022.70001220703,15.3000001907349,-926.100036621094,2.64670062796711,-0.46117583703262,0.0623218519015337,ST
6.03333333333333,-3.97286558151245,-0.748276829719543,9.01102352142334,0.510673999786377,-3.12502002716064,-0.571649968624115,-1029.90002441406,11.1000003814697,-926.100036621094,2.65554975653591,-0.415602850159192,0.0795861834130336,ST
6.06666666666667,-3.53622126579285,-0.45638307929039,8.28427982330322,0.617381989955902,-3.30032587051392,-0.449698001146317,-1044.30004882812,20.1000003814697,-933.300048828125,2.64801955819821,-0.399258917468065,0.0570853250276509,ST
6.1,-3.53263235092163,-0.599937379360199,8.28427982330322,0.0381099991500378,-1.6768399477005,-0.0457319989800453,-1049.10009765625,15.3000001907349,-928.500061035156,2.65302263645359,-0.399221488825328,0.0702809916475826,ST
6.13333333333333,-3.32746934890747,-0.394176214933395,8.67905426025391,-0.365855991840363,-1.03659200668335,-0.0838419944047928,-1037.10009765625,17.7000007629395,-942.900024414062,2.64455801054214,-0.367749187927597,0.0486112217432748,ST
6.16666666666667,-3.26167368888855,-0.433055520057678,8.37459945678711,-0.228659987449646,-1.22714197635651,0.594515979290009,-1053.90002441406,14.7000007629395,-923.700012207031,2.6434977101036,-0.368710138606294,0.0512144185627059,ST
6.2,-3.2688512802124,-0.60950767993927,7.94094610214233,0.236281991004944,-0.396344006061554,0.807931959629059,-1053.90002441406,17.1000003814697,-935.700012207031,2.64929154831421,-0.38616975771528,0.0722847559268133,ST
6.23333333333333,-4.47171688079834,-0.0442625805735588,9.13483905792236,-0.0228659994900227,0.891773998737335,0.327746003866196,-1044.30004882812,9.30000019073486,-926.100036621094,2.62397493649489,-0.449309192324116,0.0121239432343647,ST
6.26666666666667,-4.754638671875,-0.280529052019119,8.92130279541016,0.3125019967556,0.891773998737335,0.792688012123108,-1041.90002441406,15.3000001907349,-930.900024414062,2.62953563617669,-0.48691291273874,0.0283543062649107,ST
6.3,-4.89520215988159,-0.383409649133682,9.31727313995361,0.0228659994900227,0.320124000310898,0.0914639979600906,-1051.5,15.9000005722046,-926.100036621094,2.63447440732099,-0.484370989498911,0.0393082733844373,ST
6.33333333333333,-5.12488889694214,-0.550291538238525,8.85969352722168,0.655492007732391,0.487807989120483,0.152439996600151,-1044.30004882812,13.5000009536743,-926.100036621094,2.64396085920627,-0.51905694967243,0.0577965435210862,ST
6.36666666666667,-4.35687351226807,-0.797324597835541,8.85131931304932,1.43293595314026,-0.403965979814529,-0.129574000835419,-1039.5,10.5,-921.300048828125,2.65885276925604,-0.46199768904539,0.0843607078876638,ST
6.4,-4.10804605484009,-0.262584775686264,8.74664497375488,0.83841997385025,-0.815553963184357,-0.0990860015153885,-1046.70007324219,9.30000019073486,-935.700012207031,2.63827011410958,-0.439980570314474,0.0340803970909767,ST
6.43333333333333,-4.358069896698,0.123217448592186,7.86199140548706,1.31098401546478,-0.884151995182037,0.37347799539566,-1039.5,17.1000003814697,-930.900024414062,2.61800692879314,-0.497668234384087,-0.0125045553060538,ST
6.46666666666667,-4.08112955093384,-0.221312895417213,8.21011066436768,0.480185985565186,0.556405961513519,1.59299790859222,-1037.10009765625,14.1000003814697,-935.700012207031,2.62966225391933,-0.466338339549593,0.0204659342058135,ST
6.5,-4.29586267471313,-0.240453481674194,7.92001104354858,0.3125019967556,1.53964400291443,0.335367977619171,-1039.5,15.9000005722046,-928.500061035156,2.63303246938656,-0.49594419221919,0.0285406004616508,ST
6.53333333333333,-4.73968505859375,0.0598142966628075,8.54925727844238,1.09756803512573,1.2423859834671,0.891773998737335,-1041.90002441406,20.1000003814697,-916.500061035156,2.61601260857856,-0.506960328921141,-0.0053106600641462,ST
6.56666666666667,-4.42685604095459,-0.0663938671350479,9.01580905914307,1.09756803512573,0.602137982845306,1.28811800479889,-1032.30004882812,12.9000005722046,-930.900024414062,2.6180251720052,-0.462392277930397,0.0033892326967499,ST
6.6,-4.70200204849243,-0.0927121639251709,8.50559329986572,0.975615978240967,0.121951997280121,0.731711983680725,-1051.5,16.5,-926.100036621094,2.61951250551934,-0.499837187537496,0.0078400761876255,ST
6.63333333333333,-4.65056180953979,0.0167480036616325,8.74006462097168,-0.282013982534409,0.503051996231079,-0.0685980021953583,-1029.90002441406,6.30000019073486,-918.900024414062,2.61537914053802,-0.490944103533393,-0.0003791186913924,ST
6.66666666666667,-4.91075372695923,-0.142956167459488,9.25985145568848,0.419209986925125,0.899396002292633,0.37347799539566,-1041.90002441406,6.30000019073486,-921.300048828125,2.62117989142729,-0.489341866317958,0.0127886036843196,ST
6.7,-3.93996787071228,-0.187816888093948,8.54626655578613,0.907018005847931,-0.472563982009888,0.335367977619171,-1032.30004882812,7.50000047683716,-940.500061035156,2.62441237908124,-0.437333754384867,0.0193455225896577,ST
6.73333333333333,-3.9878191947937,-0.217724040150642,8.15089416503906,0.274392008781433,-0.884151995182037,0.190549999475479,-1027.5,15.9000005722046,-918.900024414062,2.62675631289936,-0.451617920184789,0.0253197646440956,ST
6.76666666666667,-3.6271390914917,0.0436644367873669,8.38357162475586,0.411587983369827,-0.335367977619171,0.853663980960846,-1027.5,8.70000076293945,-916.500061035156,2.61322826919018,-0.413262998228312,-0.0026719465834441,ST
6.8,-4.16008424758911,0.420494496822357,9.13543796539307,0.457319974899292,-0.25152599811554,1.38720393180847,-1032.30004882812,12.9000005722046,-923.700012207031,2.59343427035245,-0.425025916263668,-0.042995869033758,ST
6.83333333333333,-3.5553617477417,-0.0986935868859291,8.02648067474365,1.77592599391937,-0.83841997385025,1.2576299905777,-1044.30004882812,6.30000019073486,-935.700012207031,2.61082614805288,-0.416578490577987,0.0027359423079543,ST
6.86666666666667,-4.52076435089111,0.0837400183081627,8.15149211883545,1.10518991947174,0.167683988809586,0.221037998795509,-1032.30004882812,10.5,-930.900024414062,2.60588297127008,-0.495337301765228,-0.0104638491163894,ST
6.9,-4.72293710708618,-0.133385881781578,8.55882740020752,0.3125019967556,0.724089980125427,-0.434453994035721,-1029.90002441406,7.50000047683716,-923.700012207031,2.61815381401671,-0.504102882815085,0.0119433643344216,ST
6.93333333333333,-4.52076435089111,-0.307445496320724,8.67307281494141,0.342989981174469,-0.510673999786377,-0.137196004390717,-1017.90002441406,8.70000076293945,-942.900024414062,2.62837883593726,-0.482701900391267,0.0318786466761072,ST
6.96666666666667,-4.23066520690918,-0.394176214933395,8.60069751739502,0.495429992675781,-0.739333987236023,-0.403965979814529,-1034.70007324219,10.5,-926.100036621094,2.63524877492371,-0.45910307254704,0.0434764843251951,ST
7.0,-4.46932411193848,-0.260790348052979,7.60120105743408,1.18140995502472,-0.0457319989800453,0.114329993724823,-1034.70007324219,11.7000007629395,-938.100036621094,2.63195352013268,-0.521459205640611,0.0336795883036249,ST
7.03333333333333,-4.96817541122437,-0.141161739826202,9.03913688659668,-0.304879993200302,0.152439996600151,0.853663980960846,-1032.30004882812,14.1000003814697,-918.900024414062,2.62095399738084,-0.504662626113956,0.0171217272882812,ST
7.06666666666667,-5.17274045944214,-0.263182908296585,8.58514595031738,-0.579271972179413,-0.92988395690918,0.320124000310898,-1039.5,13.5000009536743,-930.900024414062,2.62537071157224,-0.535977273341693,0.0294922151251753,ST
7.1,-4.53691434860229,-0.270360618829727,8.3279447555542,-0.609759986400604,-0.99848198890686,1.28049600124359,-1032.30004882812,9.30000019073486,-928.500061035156,2.62217937002482,-0.501464300461564,0.0319226127573283,ST
7.13333333333333,-3.97047305107117,-0.410924226045609,7.99657344818115,-0.602137982845306,-0.586893975734711,1.02134799957275,-1029.90002441406,13.5000009536743,-935.700012207031,2.62658423022384,-0.465082820764758,0.0488645007249352,ST
7.16666666666667,-4.64936542510986,-0.16269488632679,8.26513957977295,0.0076219998300075,-0.114329993724823,1.00610399246216,-1037.10009765625,8.70000076293945,-916.500061035156,2.61188887743155,-0.505843210692143,0.0228779417481425,ST
7.2,-4.92630529403687,0.10527316480875,8.85131931304932,0.434453994035721,0.358233988285065,0.990859985351562,-1034.70007324219,12.3000001907349,-933.300048828125,2.59422525356642,-0.508184412148733,-0.009379562461952,ST
7.23333333333333,-4.88802433013916,0.215929612517357,8.49063968658447,0.907018005847931,-0.411587983369827,0.846041977405548,-1044.30004882812,9.30000019073486,-928.500061035156,2.5855636460265,-0.519679562323342,-0.0253338671696657,ST
7.26666666666667,-4.98312902450562,0.338548928499222,8.41646957397461,0.342989981174469,0.3125019967556,0.358233988285065,-1034.70007324219,4.5,-933.300048828125,2.57826527850507,-0.532708591625524,-0.0390259837168438,ST
7.3,-4.75822734832764,-0.042468149214983,9.15218544006348,-0.0990860015153885,-0.0990860015153885,0.716467976570129,-1034.70007324219,12.3000001907349,-926.100036621094,2.59461621201844,-0.486525561525233,-0.0015420264303795,ST
7.33333333333333,-4.02849292755127,-0.549095273017883,8.40450668334961,0.503051996231079,-1.2423859834671,0.419209986925125,-1034.70007324219,15.3000001907349,-930.900024414062,2.61972759900234,-0.449880566895039,0.055264006933185,ST
7.36666666666667,-4.09548473358154,-0.290697485208511,8.36682415008545,0.754577994346619,0.647870004177094,0.0762199983000755,-1027.5,8.70000076293945,-935.700012207031,2.6122762484836,-0.455272086928362,0.0363304964867085,ST
7.4,-3.95551943778992,0.211742609739304,7.58086395263672,1.73019397258759,1.09756803512573,-0.388722002506256,-1029.90002441406,14.1000003814697,-933.300048828125,2.58948775493898,-0.479079101409606,-0.0214775866292289,ST
7.43333333333333,-4.62244892120361,0.400157660245895,8.70955944061279,1.47866797447205,1.83690190315247,0.967993974685669,-1029.90002441406,5.10000038146973,-923.700012207031,2.57702680826917,-0.48949084630876,-0.0466775315971498,ST
7.46666666666667,-4.31380701065063,0.564048826694489,8.10304260253906,1.37195992469788,0.884151995182037,-0.442075997591019,-1027.5,14.1000003814697,-928.500061035156,2.56969493726779,-0.489770195020156,-0.0688691510532726,ST
7.5,-5.37551069259644,0.122619308531284,9.57626914978027,0.586893975734711,1.28049600124359,0.114329993724823,-1022.70001220703,9.30000019073486,-938.100036621094,2.5928147796108,-0.510563878277289,-0.0214761710389101,ST
7.53333333333333,-3.65285921096802,-0.394774347543716,7.66161346435547,0.541162014007568,-1.39482593536377,-0.381099998950958,-1025.10009765625,9.90000057220459,-930.900024414062,2.62352337543837,-0.45136045421291,0.0413533799661716,ST
7.56666666666667,-4.42865037918091,-0.0550291538238525,8.61385726928711,-1.14329993724823,-0.586893975734711,-0.403965979814529,-1022.70001220703,2.70000004768372,-926.100036621094,2.60993007161947,-0.471644486343805,0.0120165354242639,ST
7.6,-4.22408580780029,-0.0406737215816975,8.87524509429932,-0.121951997280121,-0.693601965904236,-0.0990860015153885,-1034.70007324219,11.7000007629395,-921.300048828125,2.60722035083167,-0.446324556218579,0.0056914862402935,ST
7.63333333333333,-3.86460185050964,0.225499898195267,8.00195693969727,0.358233988285065,-1.60824191570282,0.525918006896973,-1039.5,1.5,-918.900024414062,2.59281569014485,-0.446900214952604,-0.025454015346296,ST
7.66666666666667,-3.78863763809204,0.441429525613785,8.98709774017334,-0.106707997620106,-0.800309956073761,0.685979962348938,-1039.5,9.90000057220459,-921.300048828125,2.58225312201408,-0.403334149254192,-0.0464593734905327,ST
7.7,-4.01294136047363,0.761435985565186,8.560622215271,0.182927995920181,-1.47866797447205,0.754577994346619,-1025.10009765625,7.50000047683716,-926.100036621094,2.56525772006484,-0.430626068117297,-0.0844617050858004,ST
7.73333333333333,-4.80368614196777,0.736313998699188,8.02169513702393,0.228659987449646,0.381099998950958,0.92988395690918,-1032.30004882812,12.3000001907349,-921.300048828125,2.55969372936969,-0.524725661620076,-0.091798177425332,ST
7.76666666666667,-5.25947093963623,0.82065212726593,9.27360820770264,0.556405961513519,0.594515979290009,0.548784017562866,-1027.5,10.5,-918.900024414062,2.5598003682314,-0.516210298650663,-0.0900387071100792,ST
7.8,-4.62484169006348,0.384007781744003,8.10962200164795,0.213415995240211,-0.282013982534409,0.0076219998300075,-1034.70007324219,6.30000019073486,-921.300048828125,2.57883710973051,-0.517242452680588,-0.0522377907803917,ST
7.83333333333333,-4.82761192321777,-0.122021168470383,8.74425220489502,-0.297257989645004,0.403965979814529,-0.266770005226135,-1022.70001220703,9.30000019073486,-926.100036621094,2.60838914701378,-0.506521666076111,0.0075836723983048,ST
7.86666666666667,-4.63321542739868,0.0867307335138321,8.84892749786377,0.647870004177094,-1.32622802257538,0.0228659994900227,-1032.30004882812,9.30000019073486,-928.500061035156,2.60159506704912,-0.483594352822174,-0.0084701187358044,ST
7.9,-3.83349823951721,0.0550291538238525,7.97444200515747,1.11281192302704,-1.97409796714783,0.518296003341675,-1032.30004882812,5.10000038146973,-923.700012207031,2.60143516407162,-0.449904327241327,-0.009159523490803,ST
7.93333333333333,-4.17264556884766,0.544310092926025,8.24181175231934,0.342989981174469,-0.769822001457214,-0.327746003866196,-1046.70007324219,11.1000003814697,-950.100036621094,2.58043713281468,-0.464760734043725,-0.0600430579689605,ST
7.96666666666667,-4.60629892349243,0.413316786289215,8.62402534484863,-0.495429992675781,1.29574000835419,-0.37347799539566,-1029.90002441406,15.3000001907349,-926.100036621094,2.58595661739763,-0.489184774613071,-0.0483031961611794,ST
8.0,-5.007652759552,0.380418926477432,8.32495403289795,0.221037998795509,1.10518991947174,0.0228659994900227,-1032.30004882812,10.5,-923.700012207031,2.58704767958555,-0.537220442114356,-0.0463776928721265,ST
8.03333333333333,-4.65833759307861,0.100488021969795,8.79629039764404,0.503051996231079,1.55488801002502,0.487807989120483,-1041.90002441406,6.90000009536743,-918.900024414062,2.60109003272978,-0.49524708218614,-0.0165852746945943,ST
8.06666666666667,-4.39874362945557,0.298473328351974,9.2407112121582,0.556405961513519,-0.907018005847931,0.495429992675781,-1017.90002441406,6.90000009536743,-928.500061035156,2.59386141359624,-0.449602442160803,-0.0314113405389153,ST
8.1,-4.27732038497925,0.407933503389359,8.78791618347168,0.853663980960846,-1.08994603157043,0.541162014007568,-1034.70007324219,15.3000001907349,-928.500061035156,2.58721083626532,-0.450487420678693,-0.0461757791322471,ST
8.13333333333333,-4.01353931427002,0.308641761541367,8.40032005310059,1.18140995502472,-0.0457319989800453,1.00610399246216,-1049.10009765625,8.70000076293945,-935.700012207031,2.58851199579961,-0.44586335496006,-0.0403262968986639,ST
8.16666666666667,-3.9579119682312,0.317613929510117,9.59660625457764,0.0533539988100529,0.320124000310898,0.342989981174469,-1039.5,9.90000057220459,-926.100036621094,2.59009267162892,-0.398858259569569,-0.0343589635586322,ST
8.2,-3.54399704933167,0.232079476118088,8.22386741638184,0.144817993044853,-0.487807989120483,-0.609759986400604,-1034.70007324219,4.5,-928.500061035156,2.59406184999399,-0.404974363708597,-0.0288622728816217,ST
8.23333333333333,-3.7312159538269,0.412120521068573,7.85481357574463,1.17378795146942,-1.21951997280121,-0.434453994035721,-1032.30004882812,13.5000009536743,-930.900024414062,2.58783240720295,-0.436007941167117,-0.0506258599668934,ST
8.26666666666667,-4.19597291946411,-0.159106031060219,8.77954292297363,1.20427596569061,-0.221037998795509,-0.25152599811554,-1027.5,6.30000019073486,-928.500061035156,2.61494103953864,-0.444342690278897,0.0078006982325983,ST
8.3,-4.44539833068848,0.244640469551086,8.74485015869141,1.07470202445984,-1.59299790859222,-0.739333987236023,-1037.10009765625,10.5,-928.500061035156,2.60408470718278,-0.46493635343582,-0.0251562863998352,ST
8.33333333333333,-4.28689050674438,0.527562081813812,7.92359972000122,0.67835795879364,-1.22714197635651,-0.106707997620106,-1049.10009765625,4.5,-930.900024414062,2.58860922223915,-0.489145986348002,-0.0617054045948588,ST
8.36666666666667,-4.60749530792236,-0.0496458671987057,8.17781066894531,-0.457319974899292,0.0609759986400604,-0.282013982534409,-1037.10009765625,11.1000003814697,-938.100036621094,2.6183890553627,-0.510904723134763,0.0002095320257024,ST
8.4,-5.10096311569214,-0.375633776187897,9.6283073425293,-1.31860601902008,-0.487807989120483,-0.800309956073761,-1044.30004882812,10.5,-923.700012207031,2.63649526529355,-0.48869340826151,0.0375831675078162,ST
8.43333333333333,-4.38259363174438,-0.18183545768261,8.20293235778809,-0.221037998795509,-1.54726600646973,-0.419209986925125,-1044.30004882812,13.5000009536743,-918.900024414062,2.6310554469837,-0.487961277625574,0.0244809197956194,ST
8.46666666666667,-3.82093739509583,0.0651975870132446,7.87873935699463,-0.228659987449646,-0.663114011287689,0.46494197845459,-1027.5,8.10000038146973,-933.300048828125,2.61663823202332,-0.455486369245508,-0.0039377919870925,ST
8.5,-3.79222655296326,0.215929612517357,8.04861164093018,0.106707997620106,-0.419209986925125,0.594515979290009,-1051.5,6.30000019073486,-938.100036621094,2.60612542493692,-0.441299829325471,-0.0247806369278426,ST
8.53333333333333,-4.73908662796021,0.490477234125137,8.46432113647461,0.350611984729767,0.731711983680725,0.442075997591019,-1044.30004882812,3.90000009536743,-916.500061035156,2.59201388666604,-0.501547613540319,-0.0541864404977893,ST
8.56666666666667,-4.80069541931152,0.351708054542542,9.11031532287598,0.289635986089706,0.579271972179413,0.990859985351562,-1034.70007324219,10.5,-930.900024414062,2.59564747025452,-0.487605853826211,-0.041791680392599,ST
8.6,-4.08830738067627,0.107665732502937,9.35017108917236,0.114329993724823,-1.12805593013763,1.45580196380615,-1044.30004882812,11.7000007629395,-935.700012207031,2.60313812545289,-0.419874201561069,-0.0163857660964526,ST
8.63333333333333,-3.66003680229187,0.128002598881721,9.14919471740723,0.0228659994900227,-1.43293595314026,0.434453994035721,-1044.30004882812,11.7000007629395,-916.500061035156,2.60276908074583,-0.383648831071939,-0.014604224860587,ST
8.66666666666667,-4.64637470245361,0.416905641555786,7.86199140548706,0.259148001670837,0.37347799539566,-0.533540010452271,-1046.70007324219,9.30000019073486,-914.100036621094,2.58979814678954,-0.517674194727114,-0.0485457698932591,ST
8.7,-4.84376192092896,0.104675017297268,9.68572902679443,-0.457319974899292,1.34147191047668,0.6250039935112,-1044.30004882812,11.7000007629395,-935.700012207031,2.60314982021323,-0.473028527472262,-0.0156010489792504,ST
8.73333333333333,-3.28201055526733,-0.28411790728569,7.78004550933838,-0.0228659994900227,-0.945127964019775,0.182927995920181,-1041.90002441406,18.3000011444092,-923.700012207031,2.62187675859109,-0.407620302677103,0.0295660400158016,ST
8.76666666666667,-2.87946033477783,-0.430064797401428,7.89249658584595,0.0990860015153885,0.335367977619171,-0.228659987449646,-1034.70007324219,12.9000005722046,-923.700012207031,2.63089417679107,-0.356631753745283,0.0516042995943258,ST
8.8,-4.16546773910522,0.01914057508111,9.08938026428223,0.655492007732391,0.525918006896973,-0.663114011287689,-1049.10009765625,11.1000003814697,-914.100036621094,2.61538070638963,-0.422083061078262,0.0037443170725555,ST
8.83333333333333,-4.58476591110229,0.52935653924942,9.14680194854736,0.754577994346619,0.137196004390717,0.0990860015153885,-1041.90002441406,5.70000028610229,-928.500061035156,2.59237910417664,-0.459399177913512,-0.0517758343070146,ST
8.86666666666667,-4.35627508163452,0.833213150501251,8.47807884216309,0.487807989120483,0.0609759986400604,1.28811800479889,-1037.10009765625,9.90000057220459,-933.300048828125,2.57100673984725,-0.470887550052724,-0.0934126431449925,ST
8.9,-3.15640044212341,0.0562254376709461,8.95061111450195,-0.632625997066498,-0.304879993200302,1.79879200458527,-1051.5,7.50000047683716,-926.100036621094,2.59608281291193,-0.356488326038715,-0.017676823842726,ST
8.93333333333333,-3.57390427589417,-0.0317015759646893,9.46800518035889,-0.228659987449646,-2.28659987449646,1.12805593013763,-1044.30004882812,5.70000028610229,-940.500061035156,2.59910464476528,-0.356884286244024,0.0002151022928407,ST
8.96666666666667,-3.865797996521,-0.0113647161051631,9.38605976104736,0.0990860015153885,-1.58537602424622,0.83841997385025,-1037.10009765625,6.30000019073486,-945.300048828125,2.59696737668211,-0.384038717117036,0.000422613991079,ST
9.0,-2.60132384300232,0.820053994655609,7.85900068283081,0.983237981796265,-1.90549993515015,0.175305992364883,-1044.30004882812,5.10000038146973,-940.500061035156,2.56576162054538,-0.324313210502447,-0.0916721820221116,ST
9.03333333333333,-4.20315074920654,0.422288924455643,7.30272769927979,0.990859985351562,0.37347799539566,0.548784017562866,-1053.90002441406,3.90000009536743,-930.900024414062,2.57679727232833,-0.502364239017454,-0.0636305838310185,ST
9.06666666666667,-4.17563629150391,0.45937380194664,8.548659324646,0.807931959629059,0.83841997385025,0.213415995240211,-1046.70007324219,9.30000019073486,-940.500061035156,2.58063941046689,-0.460712315860206,-0.0562601840586865,ST
9.1,-4.89699649810791,0.32838049530983,9.80356311798096,0.137196004390717,0.533540010452271,0.350611984729767,-1051.5,8.70000076293945,-916.500061035156,2.58848882492176,-0.463548401536529,-0.036831312307645,ST
9.13333333333333,-3.72583246231079,-0.272155046463013,8.82320690155029,0.342989981174469,-0.434453994035721,-0.739333987236023,-1037.10009765625,11.7000007629395,-923.700012207031,2.61562083250378,-0.407519965474837,0.0219070912446767,ST
9.16666666666667,-4.27074098587036,-0.422887086868286,8.48645210266113,1.38720393180847,0.0533539988100529,-1.04421401023865,-1039.5,5.10000038146973,-935.700012207031,2.62955128304725,-0.45791618496613,0.0445640786554276,ST
9.2,-5.14702033996582,0.135778456926346,10.1241683959961,0.403965979814529,0.419209986925125,-1.10518991947174,-1046.70007324219,14.1000003814697,-923.700012207031,2.61033079134588,-0.4695838128039,-0.0064090983657415,ST
9.23333333333333,-4.23485231399536,0.276940196752548,7.5790696144104,1.47866797447205,0.495429992675781,-0.37347799539566,-1041.90002441406,6.90000009536743,-926.100036621094,2.60000944894216,-0.505799027752255,-0.0352351417079593,ST
9.26666666666667,-2.972172498703,-0.226696193218231,8.05818176269531,-0.0304879993200302,0.0990860015153885,-0.457319974899292,-1041.90002441406,11.1000003814697,-933.300048828125,2.62561443396799,-0.369907793298351,0.0220481044832718,ST
9.3,-3.9238178730011,0.268566191196442,8.65453052520752,0.868907988071442,-0.442075997591019,-0.37347799539566,-1041.90002441406,7.50000047683716,-933.300048828125,2.60960708398123,-0.417378573396669,-0.02476357205002,ST
9.33333333333333,-4.75104951858521,0.724949300289154,8.69041919708252,0.541162014007568,-0.358233988285065,0.121951997280121,-1027.5,9.30000019073486,-928.500061035156,2.58763646221837,-0.487367368684155,-0.0759268417303001,ST
9.36666666666667,-4.79471397399902,0.933103024959564,9.4315185546875,-0.243903994560242,1.61586391925812,0.983237981796265,-1039.5,6.30000019073486,-926.100036621094,2.57473692565223,-0.472919574109022,-0.0965339976373132,ST
9.4,-3.74497318267822,-0.0562254376709461,8.52832221984863,0.411587983369827,0.884151995182037,0.609759986400604,-1037.10009765625,2.10000014305115,-930.900024414062,2.61190189166588,-0.423354870674861,-0.0080585549090815,ST
9.43333333333333,-4.28748893737793,-0.305651068687439,9.44288349151611,-0.449698001146317,0.6250039935112,-0.777444005012512,-1027.5,6.30000019073486,-928.500061035156,2.62855683002605,-0.426650966662317,0.0285228679846732,ST
9.46666666666667,-3.5493803024292,-0.232079476118088,8.28846740722656,-0.205793991684914,-0.87652999162674,-0.861285984516144,-1034.70007324219,9.90000057220459,-914.100036621094,2.63080417232011,-0.405647456552884,0.028931341466328,ST
9.5,-3.10675454139709,-0.87089616060257,7.3463921546936,0.388722002506256,-0.617381989955902,-0.0533539988100529,-1032.30004882812,5.10000038146973,-918.900024414062,2.66117917276664,-0.397950910830468,0.105396682544072,ST
9.53333333333333,-3.72643065452576,-0.308043628931046,8.93805027008057,0.586893975734711,-0.114329993724823,-0.152439996600151,-1034.70007324219,9.30000019073486,-938.100036621094,2.63752389422829,-0.395045539734415,0.0412388840706858,ST
9.56666666666667,-4.74506807327271,-0.28112718462944,7.46243190765381,0.853663980960846,0.685979962348938,0.472563982009888,-1029.90002441406,12.9000005722046,-916.500061035156,2.63529176070855,-0.548688286645694,0.0362901262151587,ST
9.6,-4.88622999191284,-0.91575688123703,10.1594581604004,-1.2576299905777,0.503051996231079,0.78506600856781,-1029.90002441406,10.5,-933.300048828125,2.65512666763312,-0.459501543486145,0.0853045043603056,ST
9.63333333333333,-4.84435987472534,-0.593955993652344,9.41357421875,-0.403965979814529,-1.98934197425842,0.0685980021953583,-1025.10009765625,8.70000076293945,-933.300048828125,2.64562010546135,-0.469469875940292,0.0665012412067393,ST
9.66666666666667,-3.60082077980042,-0.326586067676544,7.26384830474854,0.228659987449646,-1.57775402069092,1.62348592281342,-1041.90002441406,8.10000038146973,-926.100036621094,2.63243065185085,-0.45887598998218,0.0462089541739206,ST
9.7,-4.81146192550659,-0.629844546318054,11.0076246261597,-0.945127964019775,1.70732796192169,2.62196803092957,-1044.30004882812,12.9000005722046,-911.700012207031,2.62858539275086,-0.42066231280364,0.0553824639047535,ST
9.73333333333333,-2.79272961616516,-0.0376830063760281,11.4664011001587,-1.50915598869324,-1.86738991737366,1.52439999580383,-1034.70007324219,11.1000003814697,-930.900024414062,2.60817096180364,-0.260850846373009,0.0114496341954533,ST
9.76666666666667,-5.11771106719971,0.998300611972809,8.00614356994629,0.304879993200302,-1.50153398513794,0.655492007732391,-1049.10009765625,8.70000076293945,-916.500061035156,2.56256370529495,-0.521597994667287,-0.103822070402213,ST
9.8,-3.12469887733459,-0.888242304325104,7.08859252929688,0.0685980021953583,1.08994603157043,2.30946588516235,-1041.90002441406,9.30000019073486,-921.300048828125,2.64733909730213,-0.430429426163443,0.093364308273535,ST
9.83333333333333,-5.60280513763428,0.208153754472733,10.3215551376343,-1.40244793891907,2.19513607025146,1.02134799957275,-1044.30004882812,17.1000003814697,-916.500061035156,2.60015065405939,-0.491937435312009,-0.003000429621033,ST
9.86666666666667,-5.43472719192505,0.680088579654694,8.00135898590088,0.274392008781433,1.00610399246216,0.868907988071442,-1037.10009765625,11.7000007629395,-928.500061035156,2.56168467423366,-0.582670811977131,-0.0744025026430648,ST
9.9,-4.36345291137695,-0.19798532128334,9.49851036071777,0.0457319989800453,1.29574000835419,2.40855193138123,-1051.5,10.5,-916.500061035156,2.59645959487452,-0.449145840637621,0.0093231776953687,ST
9.93333333333333,-3.77787089347839,-0.391185492277145,9.16594314575195,-0.541162014007568,-2.5000159740448,0.945127964019775,-1037.10009765625,11.7000007629395,-918.900024414062,2.6050810722642,-0.394830186602102,0.0383890411350102,ST
9.96666666666667,-5.92759704589844,0.350511789321899,7.49712419509888,0.967993974685669,0.0838419944047928,0.556405961513519,-1046.70007324219,8.10000038146973,-918.900024414062,2.56651973295241,-0.641209899913926,-0.038917750449054,ST
10.0,-3.24133682250977,-0.0586180128157139,8.58215522766113,-1.05945801734924,0.0609759986400604,1.62348592281342,-1020.30004882812,14.1000003814697,-909.300048828125,2.58132124988531,-0.394097427714786,0.0023888090906769,ST
10.0333333333333,-2.83459949493408,-0.316417634487152,8.22326946258545,-1.09756803512573,-1.85214591026306,1.89787793159485,-1034.70007324219,6.30000019073486,-928.500061035156,2.58623724903712,-0.336206812429896,0.0349448704830254,ST
10.0666666666667,-3.03916454315186,0.0741697251796722,7.51805877685547,-0.884151995182037,-1.08994603157043,1.60061991214752,-1037.10009765625,11.7000007629395,-926.100036621094,2.56700541265925,-0.376959741470063,-0.0041532500138395,ST
10.1,-2.972172498703,0.250023752450943,7.90505743026733,-1.17378795146942,0.0914639979600906,1.59299790859222,-1037.10009765625,14.1000003814697,-921.300048828125,2.55322170635223,-0.361936488605518,-0.0270883184936927,ST
10.1333333333333,-5.00585842132568,0.237462759017944,9.71563625335693,-0.121951997280121,1.28811800479889,2.14178204536438,-1039.5,9.90000057220459,-938.100036621094,2.54771593014948,-0.462117462898275,-0.0261954149652109,ST
10.1666666666667,-4.00157642364502,0.166881889104843,9.65103721618652,-0.144817993044853,-0.182927995920181,1.14329993724823,-1046.70007324219,5.70000028610229,-923.700012207031,2.54757717782543,-0.402022407373236,-0.0190114357182758,ST
10.2,-4.03626871109009,0.349315494298935,9.07442665100098,-0.228659987449646,-1.12043392658234,0.167683988809586,-1034.70007324219,13.5000009536743,-933.300048828125,2.54028749251466,-0.414503162110687,-0.0357572597422618,NLL
10.2333333333333,-2.99908876419067,-0.0197387188673019,8.53250980377197,-0.259148001670837,-2.11891603469849,0.0609759986400604,-1049.10009765625,21.3000011444092,-933.300048828125,2.55256088182678,-0.34364188800113,-0.0016280333546105,NLL
10.2666666666667,-3.98482847213745,-0.203966751694679,8.58813667297363,-0.152439996600151,-1.51677799224854,0.335367977619171,-1044.30004882812,14.7000007629395,-918.900024414062,2.55959890355301,-0.41979255068407,0.0201733141842001,NLL
10.3,-4.11163473129272,0.2554070353508,8.26274681091309,0.411587983369827,0.0762199983000755,1.03659200668335,-1044.30004882812,13.5000009536743,-928.500061035156,2.53811989781212,-0.456065343231928,-0.0252545086722555,NLL
10.3333333333333,-4.23186159133911,0.0891233012080193,9.11928749084473,-0.754577994346619,0.685979962348938,2.27897787094116,-1041.90002441406,15.9000005722046,-928.500061035156,2.53681596087332,-0.438365815738747,-0.0123420474086792,NLL
10.3666666666667,-4.21212291717529,-0.0675901547074318,8.680251121521,-1.15854394435883,-1.00610399246216,2.83538389205933,-1037.10009765625,12.3000001907349,-935.700012207031,2.53534983050077,-0.448452321991435,0.0047531841701995,NLL
10.4,-4.39515447616577,0.403148353099823,7.8715615272522,-0.983237981796265,0.190549999475479,3.59758400917053,-1032.30004882812,17.1000003814697,-921.300048828125,2.50096657835969,-0.50187451244504,-0.0459344498608101,NLL
10.4333333333333,-4.75224590301514,0.711192011833191,8.06057453155518,-1.15092194080353,1.96647596359253,4.1463680267334,-1041.90002441406,23.1000003814697,-921.300048828125,2.46853663830495,-0.530221548521256,-0.0851029917529931,NLL
10.4666666666667,-6.0968713760376,0.445616513490677,9.82150745391846,-1.71494996547699,2.54574799537659,4.97716569900513,-1025.10009765625,11.1000003814697,-918.900024414062,2.46940422547441,-0.555711867159071,-0.0522003365396019,NLL
10.5,-5.84983825683594,0.590965270996094,10.2677221298218,-2.5000159740448,-0.571649968624115,6.3567476272583,-1025.10009765625,12.9000005722046,-926.100036621094,2.44681349486765,-0.520939761139617,-0.0586054471866428,NLL
10.5333333333333,-4.03925943374634,0.176452174782753,6.59093761444092,-3.32319188117981,-2.33995389938354,8.73481178283691,-1032.30004882812,10.5,-926.100036621094,2.43307454535513,-0.541750812473507,-0.0338843640407471,NLL
10.5666666666667,-3.9297993183136,-0.547898948192596,8.46013450622559,-3.90246391296387,-0.533540010452271,10.8003740310669,-1039.5,20.7000007629395,-940.500061035156,2.44004936468325,-0.448511124523229,0.0495569572562177,NLL
10.6,-4.62185096740723,-0.187218755483627,8.87345123291016,-4.01679372787476,-1.00610399246216,10.8765935897827,-1032.30004882812,21.3000011444092,-923.700012207031,2.39361411429851,-0.475122453078673,0.0224176673800679,NLL
10.6333333333333,-3.27782344818115,-0.47851437330246,8.71733570098877,-5.67076778411865,-2.64483404159546,10.1982355117798,-1046.70007324219,18.9000015258789,-928.500061035156,2.37232744623728,-0.371502049370994,0.0526009396932149,NLL
10.6666666666667,-2.7682056427002,-0.66034984588623,6.9498233795166,-5.65552377700806,-3.33843588829041,11.0595216751099,-1053.90002441406,24.9000015258789,-921.300048828125,2.35005812125989,-0.373042890111074,0.0909112667577311,NLL
10.7,-3.85263895988464,-0.808689296245575,8.91651725769043,-5.74698781967163,-1.2576299905777,10.2058582305908,-1037.10009765625,19.5,-918.900024414062,2.31703510750806,-0.401395735603769,0.0927524034793307,NLL
10.7333333333333,-5.37610912322998,-0.0011962859425693,9.48176193237305,-3.61282801628113,-0.571649968624115,11.0290336608887,-1041.90002441406,28.5000019073486,-918.900024414062,2.24766936948442,-0.50025694552775,0.0101653350328791,NLL
10.7666666666667,-5.06208419799805,0.0538328662514687,9.06186580657959,-5.13722801208496,-1.10518991947174,11.1204977035522,-1037.10009765625,32.7000007629395,-930.900024414062,2.20496779704258,-0.506495953136233,-0.0052768521048239,NLL
10.8,-4.04583883285522,-0.722556710243225,8.34648704528809,-4.93905591964722,-1.08232402801514,11.2195835113525,-1037.10009765625,32.1000022888184,-923.700012207031,2.20388165964386,-0.455449293751029,0.0756328551709723,NLL
10.8333333333333,-3.83828353881836,-0.552085936069489,9.17252254486084,-5.15247201919556,-1.53964400291443,9.05493545532227,-1034.70007324219,29.1000003814697,-914.100036621094,2.16885308078871,-0.402308914975931,0.0638164736176278,NLL
10.8666666666667,-3.53562307357788,-0.354698777198792,7.87036514282227,-3.46800994873047,-0.510673999786377,7.60675573348999,-1032.30004882812,29.7000007629395,-911.700012207031,2.13829125812571,-0.419038259292076,0.0477600167647709,NLL
10.9,-3.29935669898987,-0.768613696098328,8.93864822387695,-2.73629784584045,0.297257989645004,5.67076778411865,-1025.10009765625,35.1000022888184,-918.900024414062,2.1327397031626,-0.36185070580359,0.081907966954684,NLL
10.9333333333333,-4.03208160400391,-0.216527760028839,9.5984001159668,-1.09756803512573,-0.663114011287689,2.38568592071533,-1020.30004882812,31.5000019073486,-918.900024414062,2.10495761403949,-0.392961663268374,0.0291996070165879,NLL
10.9666666666667,-3.70908451080322,-0.2105463296175,9.05827713012695,-0.663114011287689,-0.434453994035721,0.685979962348938,-1027.5,35.1000022888184,-909.300048828125,2.10043158195748,-0.388417916371041,0.0245112456237668,NLL
11.0,-2.8441698551178,-1.73102581501007,8.72750377655029,-0.685979962348938,-0.228659987449646,0.167683988809586,-1032.30004882812,32.7000007629395,-906.900024414062,2.15214386345122,-0.318874161804457,0.177258541715457,NLL
11.0333333333333,-3.76590824127197,-0.53533798456192,8.73348522186279,-0.556405961513519,-1.59299790859222,-0.525918006896973,-1029.90002441406,35.1000022888184,-916.500061035156,2.11641088135807,-0.395420126334302,0.0742831699694286,NLL
11.0666666666667,-3.80897450447083,-0.334361910820007,7.03834819793701,2.11891603469849,0.647870004177094,0.282013982534409,-1029.90002441406,29.1000003814697,-926.100036621094,2.10706502044219,-0.484019903646656,0.0475126036361457,NLL
11.1,-3.67558860778809,0.973776757717133,7.77884912490845,0.967993974685669,0.503051996231079,1.27287399768829,-1025.10009765625,29.1000003814697,-914.100036621094,2.03676105181185,-0.445985085534486,-0.104246567633324,NLL
11.1333333333333,-4.39754724502563,0.977963745594025,8.93147087097168,1.6692179441452,1.19665396213531,1.89025592803955,-1020.30004882812,34.5,-918.900024414062,2.03009351784161,-0.455406961827948,-0.112410236640452,NLL
11.1666666666667,-3.64807391166687,-0.342137783765793,9.26164531707764,-0.144817993044853,0.670735955238342,0.106707997620106,-1017.90002441406,29.1000003814697,-918.900024414062,2.08466505738076,-0.384467285341916,0.0226705162223434,NLL
11.2,-5.20503997802734,-0.0448607243597507,9.24908447265625,-0.655492007732391,-0.114329993724823,-1.18903195858002,-1013.10003662109,35.7000007629395,-916.500061035156,2.08125230161508,-0.496284408012884,0.0091291469964994,NLL
11.2333333333333,-3.86878871917725,-0.750669419765472,10.0093240737915,-0.221037998795509,0.205793991684914,0.259148001670837,-1032.30004882812,33.9000015258789,-911.700012207031,2.10546378689484,-0.382133844074729,0.0683058342730746,NLL
11.2666666666667,-3.01583695411682,-1.06828331947327,7.60359334945679,-0.297257989645004,-1.43293595314026,-0.152439996600151,-1027.5,38.1000022888184,-914.100036621094,2.12806255818882,-0.37327119977991,0.130399866567055,NLL
11.3,-3.43872404098511,-0.574815392494202,8.46133041381836,-0.548784017562866,-1.07470202445984,0.655492007732391,-1037.10009765625,35.1000022888184,-918.900024414062,2.10531924509409,-0.382264842220599,0.0760841443465588,NLL
11.3333333333333,-2.53253722190857,-1.41879510879517,7.9014687538147,-2.24086785316467,0.152439996600151,-0.114329993724823,-1037.10009765625,35.1000022888184,-916.500061035156,2.13580156188257,-0.313592908384967,0.171390361779644,NLL
11.3666666666667,-4.36464929580688,-0.151928320527077,8.67367076873779,-0.0228659994900227,0.25152599811554,1.15854394435883,-1034.70007324219,36.3000030517578,-914.100036621094,2.08335492830851,-0.446563838528886,0.038932549240646,NLL
11.4,-4.37421941757202,0.123217448592186,9.31129169464111,0.731711983680725,0.823175966739655,1.08994603157043,-1022.70001220703,37.5,-918.900024414062,2.06123753770756,-0.441459350355438,-0.0081073516242307,NLL
11.4333333333333,-4.74925518035889,0.522178828716278,10.2019262313843,-0.37347799539566,-0.144817993044853,-0.106707997620106,-1010.70001220703,42.9000015258789,-916.500061035156,2.04552056027358,-0.435873349285799,-0.0447062528363782,NLL
11.4666666666667,-4.27074098587036,0.401952087879181,8.99846267700195,-0.37347799539566,-1.13567793369293,0.0762199983000755,-1029.90002441406,36.3000030517578,-918.900024414062,2.04524012884916,-0.440144807559446,-0.0440955610984176,NLL
11.5,-3.74078607559204,-0.445018380880356,8.81363677978516,-0.320124000310898,0.762199997901917,-0.160062000155449,-1025.10009765625,40.5,-902.100036621094,2.07924527319017,-0.407596289196645,0.038462558026252,NLL
11.5333333333333,-3.95731401443481,-0.815867006778717,8.86148834228516,0.0685980021953583,-0.0762199983000755,-0.960371971130371,-1020.30004882812,30.9000015258789,-902.100036621094,2.10052079064354,-0.416818165223784,0.08509108172312,NLL
11.5666666666667,-4.08172750473022,-0.291893780231476,9.03853797912598,0.655492007732391,-0.37347799539566,-0.449698001146317,-1027.5,33.9000015258789,-911.700012207031,2.08336097157813,-0.42254517424897,0.0382093203639798,NLL
11.6,-4.2085337638855,-0.224901750683784,8.6742696762085,1.44055795669556,0.769822001457214,-0.769822001457214,-1017.90002441406,36.9000015258789,-914.100036621094,2.08214626104832,-0.449367530428513,0.0257160612050662,NLL
11.6333333333333,-3.76231932640076,-0.15312460064888,8.62342739105225,0.670735955238342,-0.243903994560242,-1.02134799957275,-1032.30004882812,35.1000022888184,-906.900024414062,2.08258322163181,-0.416074272717157,0.0184916111208473,NLL
11.6666666666667,-4.06737232208252,-0.328978627920151,8.76758003234863,0.891773998737335,0.731711983680725,-0.0533539988100529,-1025.10009765625,34.5,-916.500061035156,2.09006532182899,-0.432772277455938,0.033620575385623,NLL
11.7,-4.21571159362793,-0.391185492277145,9.1928596496582,-0.106707997620106,0.0076219998300075,-0.769822001457214,-1022.70001220703,32.1000022888184,-909.300048828125,2.09583496301343,-0.429904415729068,0.0423675885152087,NLL
11.7333333333333,-4.41489315032959,-0.26437920331955,8.88062858581543,0.891773998737335,0.0228659994900227,-0.899396002292633,-1037.10009765625,32.1000022888184,-921.300048828125,2.09446425907247,-0.457809086428637,0.0304214570049015,NLL
11.7666666666667,-3.64747595787048,-0.917551338672638,8.65213775634766,0.724089980125427,0.739333987236023,-0.99848198890686,-1027.5,39.3000030517578,-904.500061035156,2.1252569601961,-0.406332686333329,0.0953511431010946,NLL
11.8,-4.94604444503784,-0.176452174782753,8.78014087677002,0.792688012123108,0.487807989120483,-1.47104597091675,-1017.90002441406,32.7000007629395,-918.900024414062,2.10182280872035,-0.499276357063051,0.0307355873638566,NLL
11.8333333333333,-3.47700500488281,-1.40324342250824,8.73468208312988,0.365855991840363,-0.739333987236023,-0.990859985351562,-1020.30004882812,35.1000022888184,-914.100036621094,2.15293391863703,-0.39055453859517,0.14275682951537,NLL
11.8666666666667,-3.83110570907593,-0.595750391483307,7.8978796005249,-0.320124000310898,-1.06708002090454,-2.52288198471069,-1034.70007324219,34.5,-914.100036621094,2.13623413715562,-0.440562776803747,0.0867998414020761,NLL
11.9,-3.64029812812805,-1.25310957431793,8.71494293212891,0.434453994035721,0.922261953353882,-2.03507399559021,-1025.10009765625,30.9000015258789,-918.900024414062,2.16284685091093,-0.399222630437098,0.13667330575977,NLL
11.9333333333333,-4.01353931427002,-0.866111040115356,8.68204498291016,1.27287399768829,0.403965979814529,-2.88111591339111,-1020.30004882812,38.7000007629395,-914.100036621094,2.15935843278266,-0.427583593254731,0.103856192592026,NLL
11.9666666666667,-4.24262809753418,-0.495262384414673,9.62651252746582,1.2576299905777,-0.632625997066498,-3.3689239025116,-1017.90002441406,41.1000022888184,-923.700012207031,2.151317986428,-0.414861282769042,0.0577954093738639,NLL
12.0,-3.37771344184875,-1.60780835151672,7.95350694656372,4.18447780609131,0.503051996231079,-3.67380380630493,-1020.30004882812,37.5,-911.700012207031,2.2155586285598,-0.397031343844861,0.180221783753764,NLL
12.0333333333333,-4.74925518035889,-0.840988993644714,9.69709396362305,3.06404399871826,0.541162014007568,-7.05034971237183,-1022.70001220703,31.5000019073486,-916.500061035156,2.20479239312433,-0.445996140347859,0.0998124805045754,NLL
12.0666666666667,-4.05122232437134,-0.874485015869141,8.38596439361572,3.7805118560791,0.670735955238342,-7.36285161972046,-1044.30004882812,35.7000007629395,-916.500061035156,2.23004966866506,-0.447526970402667,0.102995792023276,NLL
12.1,-4.08770895004272,-0.840988993644714,8.46432113647461,2.81251788139343,0.274392008781433,-7.79730606079102,-1034.70007324219,29.7000007629395,-926.100036621094,2.25286507602194,-0.447134824837333,0.100961248030612,NLL
12.1333333333333,-3.78026366233826,-1.07546103000641,8.15567970275879,3.87197589874268,-0.945127964019775,-7.05034971237183,-1049.10009765625,28.5000019073486,-930.900024414062,2.28619659233452,-0.430310103604403,0.12603853590262,NLL
12.1666666666667,-4.33234977722168,0.165087461471558,8.90933990478516,3.42989993095398,0.129574000835419,-6.29577207565308,-1039.5,36.9000015258789,-921.300048828125,2.2532832302244,-0.449950061596528,0.0005762729218107,NLL
12.2,-4.13137340545654,-0.122021168470383,8.49542427062988,4.60368776321411,0.846041977405548,-5.52594995498657,-1046.70007324219,29.7000007629395,-923.700012207031,2.27863309491503,-0.453530094349376,0.0098099098608157,NLL
12.2333333333333,-4.15888786315918,-0.669920146465302,8.73707485198975,4.82472610473633,0.457319974899292,-5.87656164169312,-1039.5,23.7000007629395,-933.300048828125,2.3254728731705,-0.444696692044525,0.065718388416926,NLL
12.2666666666667,-4.63261747360229,-0.792539417743683,9.77963733673096,4.10063600540161,0.518296003341675,-6.92839765548706,-1051.5,32.1000022888184,-921.300048828125,2.35519268380721,-0.441537869840533,0.0778577123384475,NLL
12.3,-3.87297582626343,-1.0455539226532,8.62282943725586,4.42075967788696,-1.22714197635651,-7.13419198989868,-1041.90002441406,26.1000003814697,-923.700012207031,2.39340733988679,-0.419516017794715,0.113013578510462,NLL
12.3333333333333,-3.45008873939514,-0.61548912525177,8.0886869430542,3.87959790229797,-1.60824191570282,-6.707359790802,-1053.90002441406,24.3000011444092,-935.700012207031,2.40319368742031,-0.400618457044203,0.0782447350290232,NLL
12.3666666666667,-3.95013618469238,-0.52935653924942,8.42005825042725,4.03965997695923,-0.846041977405548,-5.4192419052124,-1049.10009765625,18.3000011444092,-938.100036621094,2.41560068960019,-0.431032813242977,0.0624365031108752,NLL
12.4,-2.92491912841797,-0.412120521068573,8.50379848480225,3.50611996650696,-0.282013982534409,-5.83083009719849,-1061.10009765625,24.9000015258789,-938.100036621094,2.43058668419981,-0.341668428532187,0.048010790545939,NLL
12.4333333333333,-4.62005615234375,1.3721399307251,7.23752975463867,3.73477983474731,-0.754577994346619,-3.89484190940857,-1044.30004882812,25.5000019073486,-923.700012207031,2.35765382136813,-0.535193269908549,-0.159275191055719,NLL
12.4666666666667,-4.24561882019043,-0.0263182912021875,10.7079553604126,2.68294382095337,2.78965187072754,-2.15702605247498,-1061.10009765625,20.7000007629395,-923.700012207031,2.43134926729169,-0.399610532958732,-0.0165065084366801,NLL
12.5,-3.34840440750122,0.307445496320724,9.16115760803223,1.05945801734924,-2.19513607025146,-5.10673999786377,-1058.70007324219,18.9000015258789,-928.500061035156,2.44135361224571,-0.35380629626136,-0.0298996773746356,NLL
12.5333333333333,-4.29406833648682,0.747678697109222,8.17960548400879,2.08842802047729,-0.701223969459534,-3.69666981697083,-1061.10009765625,20.1000003814697,-928.500061035156,2.43251222437727,-0.463777133536194,-0.0829717029273661,NLL
12.5666666666667,-3.00746297836304,-0.179442897439003,8.33153343200684,1.76830399036407,0.990859985351562,-2.17989206314087,-1044.30004882812,11.1000003814697,-930.900024414062,2.47742872939788,-0.361834515748928,0.0085574789091324,NLL
12.6,-3.2808141708374,-0.174657747149467,9.03435134887695,1.44055795669556,-0.449698001146317,-2.62196803092957,-1053.90002441406,16.5,-923.700012207031,2.48892472103957,-0.349376845439502,0.0171608013790397,NLL
12.6333333333333,-3.3747227191925,-0.34811919927597,8.596510887146,1.87501192092896,-0.160062000155449,-2.53050398826599,-1053.90002441406,12.9000005722046,-923.700012207031,2.50491833204959,-0.370611865566459,0.0363320894675836,NLL
12.6666666666667,-4.75703096389771,-0.123217448592186,9.04451942443848,2.52288198471069,0.777444005012512,-2.40092992782593,-1053.90002441406,19.5,-940.500061035156,2.50545778188616,-0.46989001640192,0.0147262541738611,NLL
12.7,-5.02679347991943,0.167480036616325,9.15637302398682,2.90398192405701,1.50153398513794,-1.77592599391937,-1070.70007324219,11.7000007629395,-921.300048828125,2.49929525996931,-0.500311326930028,-0.017095189413004,NLL
12.7333333333333,-4.08651256561279,-0.333165645599365,9.16773700714111,1.38720393180847,0.952749967575073,-1.47104597091675,-1061.10009765625,17.1000003814697,-942.900024414062,2.52568240365058,-0.430751126458047,0.0288549382390316,NLL
12.7666666666667,-3.71865487098694,-0.0400755777955055,7.97803115844727,0.419209986925125,-0.457319974899292,-1.89025592803955,-1058.70007324219,13.5000009536743,-914.100036621094,2.52289907200361,-0.434807142113149,0.0084974768203358,NLL
12.8,-4.01712799072266,-0.068188302218914,9.60797023773193,0.167683988809586,0.907018005847931,-0.891773998737335,-1056.30004882812,14.7000007629395,-918.900024414062,2.5253263000009,-0.401575760555856,0.0075882561164686,NLL
12.8333333333333,-4.21631002426147,-0.466551512479782,8.42663860321045,0.548784017562866,0.792688012123108,-0.647870004177094,-1046.70007324219,11.1000003814697,-923.700012207031,2.54470803860702,-0.456195507458296,0.048327675269642,NLL
12.8666666666667,-3.31431031227112,-0.629246413707733,9.12347507476807,-0.990859985351562,0.0152439996600151,-0.495429992675781,-1058.70007324219,7.50000047683716,-938.100036621094,2.55272242895586,-0.362348970694954,0.0679742306491033,NLL
12.9,-4.04583883285522,-0.203966751694679,8.01033020019531,0.129574000835419,0.228659987449646,0.0152439996600151,-1044.30004882812,14.7000007629395,-933.300048828125,2.53826498077912,-0.453731328125626,0.031258492534635,NLL
12.9333333333333,-3.42676115036011,-0.61847984790802,9.04810905456543,0.0533539988100529,0.503051996231079,0.632625997066498,-1049.10009765625,5.70000028610229,-933.300048828125,2.54948984951189,-0.374609528285348,0.0629650050130677,ST
12.9666666666667,-3.21800923347473,-0.656162858009338,9.04990291595459,0.205793991684914,-0.0381099991500378,-0.167683988809586,-1044.30004882812,19.5,-930.900024414062,2.55293763113698,-0.345306101342827,0.0709031702704498,ST
13.0,-3.40163898468018,-0.458177506923676,9.0911750793457,0.0381099991500378,-1.21189796924591,-0.579271972179413,-1046.70007324219,14.7000007629395,-926.100036621094,2.54833045651091,-0.354095336479106,0.0533688544773677,ST
13.0333333333333,-3.80538558959961,-0.650181412696838,9.16055965423584,0.952749967575073,-0.137196004390717,-0.198172003030777,-1041.90002441406,15.3000001907349,-914.100036621094,2.5548261716892,-0.38738152974771,0.0671287341257156,ST
13.0666666666667,-4.18999147415161,-0.240453481674194,9.20841121673584,0.442075997591019,-0.487807989120483,-0.899396002292633,-1041.90002441406,11.7000007629395,-918.900024414062,2.54368841867705,-0.420804868812091,0.0316508149445636,ST
13.1,-4.9454460144043,-0.419896364212036,8.9894905090332,1.28049600124359,0.205793991684914,-0.0304879993200302,-1051.5,12.3000001907349,-928.500061035156,2.55027875403097,-0.491761510923246,0.0426319561894264,ST
13.1333333333333,-3.73779535293579,-0.808689296245575,9.88012599945068,0.160062000155449,-0.975615978240967,-0.175305992364883,-1049.10009765625,12.3000001907349,-935.700012207031,2.56502995459267,-0.376883417071453,0.0764768759002206,ST
13.1666666666667,-3.29158067703247,-0.432457357645035,7.89967441558838,0.769822001457214,-1.40244793891907,-0.503051996231079,-1051.5,13.5000009536743,-926.100036621094,2.55954877392811,-0.389913703024838,0.0565215739603287,ST
13.2,-4.56562519073486,-0.227294325828552,9.03494930267334,0.327746003866196,0.381099998950958,0.137196004390717,-1044.30004882812,11.7000007629395,-938.100036621094,2.54826663407821,-0.457858973289683,0.0289434191014744,ST
13.2333333333333,-4.04225015640259,-0.596348524093628,9.20362567901611,-0.0228659994900227,0.6250039935112,0.480185985565186,-1053.90002441406,12.9000005722046,-928.500061035156,2.56013148191967,-0.420131698139046,0.0596941594132667,ST
13.2666666666667,-3.67020535469055,0.0215331465005875,8.57796859741211,0.365855991840363,0.716467976570129,0.342989981174469,-1044.30004882812,21.3000011444092,-918.900024414062,2.53772768255136,-0.407620138381769,0.0050557530871192,ST
13.3,-3.77607655525208,-0.0514402948319912,8.72092437744141,0.304879993200302,2.85824990272522,1.58537602424622,-1049.10009765625,13.5000009536743,-921.300048828125,2.53314715722021,-0.413019166123792,0.0042576066587966,ST
13.3333333333333,-4.25518894195557,-0.0394774377346039,8.70058727264404,0.182927995920181,1.29574000835419,1.03659200668335,-1039.5,16.5,-933.300048828125,2.5301913900967,-0.452009645286385,0.0034614772980739,ST
13.3666666666667,-3.82751679420471,0.0580198690295219,7.56949949264526,0.937505960464478,2.60672402381897,0.983237981796265,-1044.30004882812,11.7000007629395,-926.100036621094,2.52359340863199,-0.469896472818193,-0.0083291368528579,ST
13.4,-4.53452205657959,0.0640012994408607,9.70666408538818,0.129574000835419,1.94360995292664,0.480185985565186,-1034.70007324219,15.3000001907349,-926.100036621094,2.52280822069333,-0.443572585896596,-0.0073502575969,ST
13.4333333333333,-4.63321542739868,-0.132787734270096,8.89498424530029,0.396344006061554,-0.221037998795509,0.198172003030777,-1029.90002441406,14.1000003814697,-950.100036621094,2.53117984807471,-0.475592950442254,0.0115202368675628,ST
13.4666666666667,-2.88843250274658,-0.262584775686264,8.77356147766113,0.0533539988100529,-1.6920839548111,0.25152599811554,-1025.10009765625,12.9000005722046,-923.700012207031,2.53677476510493,-0.335157580341241,0.0274526375007059,ST
13.5,-3.26645874977112,-0.116637878119946,9.03674411773682,-0.129574000835419,-2.38568592071533,0.0076219998300075,-1027.5,13.5000009536743,-923.700012207031,2.53237852629372,-0.341653342306031,0.015050350352156,ST
13.5333333333333,-3.72343993186951,0.459971934556961,8.08808898925781,0.594515979290009,-1.74543797969818,-0.327746003866196,-1046.70007324219,14.1000003814697,-928.500061035156,2.51084329021415,-0.416262781890939,-0.0474029494253233,ST
13.5666666666667,-2.87347888946533,0.337352633476257,8.51396751403809,0.419209986925125,0.175305992364883,-0.0152439996600151,-1049.10009765625,15.9000005722046,-918.900024414062,2.51357380044109,-0.337823725152144,-0.0412650216593804,ST
13.6,-4.49863338470459,0.0412718653678894,8.12397766113281,0.37347799539566,0.716467976570129,-0.129574000835419,-1037.10009765625,11.7000007629395,-928.500061035156,2.52671975329111,-0.485705742483299,-0.0105450449468129,ST
13.6333333333333,-4.30722761154175,-0.238060906529427,11.4687929153442,-0.975615978240967,0.807931959629059,-0.350611984729767,-1034.70007324219,13.5000009536743,-928.500061035156,2.5386215906284,-0.377543526732652,0.0183977118395548,ST
13.6666666666667,-4.93707227706909,0.782969176769257,8.43979740142822,1.16616594791412,-0.990859985351562,-0.503051996231079,-1039.5,17.7000007629395,-935.700012207031,2.49889622367549,-0.510018968550491,-0.081039392645314,ST
13.7,-3.58646535873413,0.0514402948319912,8.0354528427124,0.472563982009888,-0.0076219998300075,0.716467976570129,-1051.5,14.7000007629395,-923.700012207031,2.52730232026785,-0.429574846729484,-0.0153718137769833,ST
13.7333333333333,-3.67020535469055,-0.309838056564331,9.04451942443848,0.0228659994900227,1.47104597091675,-0.358233988285065,-1034.70007324219,13.5000009536743,-923.700012207031,2.54622392772253,-0.392377383235085,0.0292349030945554,ST
13.7666666666667,-3.76291751861572,0.0448607243597507,7.83985996246338,0.0533539988100529,-0.0381099991500378,-1.59299790859222,-1037.10009765625,14.1000003814697,-916.500061035156,2.53868575955112,-0.441520521749174,-0.0008171119027608,ST
13.8,-3.28619742393494,-0.208153754472733,9.23652362823486,-0.152439996600151,-0.632625997066498,-0.434453994035721,-1034.70007324219,10.5,-935.700012207031,2.54771401165758,-0.354274985052631,0.0199577075139224,ST
13.8333333333333,-5.07703733444214,0.0107665732502937,8.632399559021,1.2347639799118,-1.58537602424622,-0.449698001146317,-1039.5,10.5,-916.500061035156,2.54208340889411,-0.511445218673874,-0.0005928523425367,ST
13.8666666666667,-4.35029363632202,-0.272753208875656,8.84414196014404,0.182927995920181,2.17989206314087,-0.518296003341675,-1044.30004882812,12.9000005722046,-926.100036621094,2.55717938565126,-0.466202697924143,0.0277215620676695,ST
13.9,-3.80598378181458,-0.202770471572876,8.77535533905029,-0.0685980021953583,0.594515979290009,-0.807931959629059,-1032.30004882812,12.9000005722046,-930.900024414062,2.55785941294574,-0.417157772069592,0.0243389640596326,ST
13.9333333333333,-3.99260425567627,-0.0406737215816975,7.88651514053345,1.29574000835419,-0.92988395690918,0.205793991684914,-1037.10009765625,14.7000007629395,-928.500061035156,2.55095418110042,-0.460287525380238,0.005683021702947,ST
13.9666666666667,-3.74377679824829,-0.324193477630615,8.50200462341309,0.884151995182037,0.708845973014832,0.510673999786377,-1027.5,15.3000001907349,-926.100036621094,2.56215464292105,-0.421390099112168,0.0324439203218177,ST
14.0,-4.66671133041382,0.267369896173477,9.30112361907959,0.419209986925125,0.190549999475479,-0.388722002506256,-1032.30004882812,10.5,-921.300048828125,2.54102534354729,-0.459386990658846,-0.0206686469623357,ST
14.0333333333333,-3.9118549823761,-0.225499898195267,8.82859039306641,0.67835795879364,-0.327746003866196,0.37347799539566,-1039.5,13.5000009536743,-921.300048828125,2.55743204713964,-0.422271308315678,0.0181228261145417,ST
14.0666666666667,-3.77009510993958,-0.837998330593109,8.65811920166016,0.282013982534409,-0.716467976570129,-0.442075997591019,-1032.30004882812,13.5000009536743,-926.100036621094,2.58616143166127,-0.409811234165474,0.0857751096512682,ST
14.1,-3.5571563243866,-0.668125689029694,9.42194843292236,0.152439996600151,-0.602137982845306,-1.15092194080353,-1027.5,8.10000038146973,-940.500061035156,2.58459994619609,-0.364873819583438,0.0729336281553396,ST
14.1333333333333,-3.21382212638855,-0.231481328606606,6.65912580490112,1.60061991214752,-1.55488801002502,-1.34909391403198,-1034.70007324219,17.7000007629395,-945.300048828125,2.57634013878247,-0.437828269869936,0.037392459919898,ST
14.1666666666667,-3.84845185279846,-0.66633129119873,8.76817798614502,0.739333987236023,-0.236281991004944,-0.243903994560242,-1044.30004882812,14.1000003814697,-933.300048828125,2.59121263085657,-0.415615913541812,0.0697485645623939,ST
14.2,-4.52495145797729,-0.39836323261261,8.46611595153809,0.846041977405548,-0.777444005012512,-0.609759986400604,-1034.70007324219,12.9000005722046,-918.900024414062,2.58482444064383,-0.481100145922713,0.0486697777044562,ST
14.2333333333333,-4.61766386032104,-0.072973445057869,8.94941520690918,-0.236281991004944,0.739333987236023,-0.381099998950958,-1034.70007324219,8.10000038146973,-918.900024414062,2.56966602352254,-0.478126963188599,0.0142729700302576,ST
14.2666666666667,-4.55725145339966,0.0741697251796722,8.73169136047363,-0.228659987449646,-0.556405961513519,0.0685980021953583,-1027.5,11.1000003814697,-926.100036621094,2.56024213450872,-0.479800807389303,-0.0051229255330474,ST
14.3,-4.41848230361938,-0.178844749927521,9.08280086517334,-0.907018005847931,-0.815553963184357,0.320124000310898,-1022.70001220703,15.3000001907349,-923.700012207031,2.56842072593351,-0.455136268612659,0.0174941904815684,ST
14.3333333333333,-2.7903368473053,-0.718967854976654,8.41826438903809,-0.617381989955902,-0.0228659994900227,-0.419209986925125,-1044.30004882812,9.90000057220459,-928.500061035156,2.59209496364619,-0.337459302904456,0.0776302536993609,ST
14.3666666666667,-3.64448523521423,0.0604124404489994,7.26504468917847,0.0762199983000755,-1.02134799957275,-1.42531394958496,-1044.30004882812,9.90000057220459,-938.100036621094,2.56796405670767,-0.446281621943532,0.0047867045471161,ST
14.4,-4.89699649810791,-0.0209350045770407,8.21130657196045,0.350611984729767,1.73781597614288,-0.335367977619171,-1049.10009765625,11.1000003814697,-928.500061035156,2.56838880614509,-0.530612626216669,0.0025326411640271,ST
14.4333333333333,-4.52136278152466,-0.622666835784912,9.48116397857666,-0.297257989645004,1.10518991947174,-0.342989981174469,-1032.30004882812,11.7000007629395,-928.500061035156,2.59533326791077,-0.457590281105813,0.0581566155343839,ST
14.4666666666667,-4.39874362945557,-0.0825437307357788,9.1689338684082,0.487807989120483,0.0304879993200302,-0.777444005012512,-1044.30004882812,16.5,-933.300048828125,2.57925775524232,-0.448766764287985,0.0154386987525096,ST
14.5,-4.74207735061646,-0.217724040150642,9.85440540313721,0.114329993724823,-0.670735955238342,0.0838419944047928,-1022.70001220703,8.10000038146973,-933.300048828125,2.58153794900277,-0.447450265374831,0.0209488861634557,ST
14.5333333333333,-3.21800923347473,-0.608311414718628,9.27061748504639,0.0685980021953583,-1.42531394958496,0.114329993724823,-1029.90002441406,10.5,-930.900024414062,2.59607813855497,-0.346774069157208,0.0595171919229683,ST
14.5666666666667,-2.91355443000793,-0.262584775686264,7.93616104125977,0.0914639979600906,-1.95885396003723,-0.350611984729767,-1032.30004882812,11.7000007629395,-928.500061035156,2.58908620114741,-0.348048452214851,0.0366647793601846,ST
14.6,-3.53382873535156,-0.333763778209686,8.67666149139404,-0.0533539988100529,0.144817993044853,0.175305992364883,-1034.70007324219,17.1000003814697,-926.100036621094,2.58908893688673,-0.382613117640463,0.0382315426412559,ST
14.6333333333333,-3.31131958961487,-0.21712589263916,8.04801368713379,0.365855991840363,-0.411587983369827,0.297257989645004,-1044.30004882812,20.7000007629395,-930.900024414062,2.58471596022963,-0.388576277561604,0.0277538629606601,ST
14.6666666666667,-4.45377254486084,-0.0699827298521996,8.57019233703613,0.175305992364883,0.746955990791321,0.236281991004944,-1046.70007324219,10.5,-930.900024414062,2.5771642693116,-0.468137061516398,0.0104779673424253,ST
14.7,-5.26306009292603,0.378624498844147,9.14141941070557,0.495429992675781,0.205793991684914,0.0304879993200302,-1037.10009765625,13.5000009536743,-930.900024414062,2.55627714333712,-0.515121722793862,-0.0349821897428994,ST
14.7333333333333,-4.93647384643555,-0.297875195741653,9.43331241607666,0.213415995240211,0.594515979290009,0.335367977619171,-1034.70007324219,11.1000003814697,-933.300048828125,2.58316493267042,-0.487429662134041,0.0221383665816554,ST
14.7666666666667,-4.52315711975098,-0.263182908296585,9.46022891998291,0.0152439996600151,-0.6250039935112,0.106707997620106,-1037.10009765625,13.5000009536743,-921.300048828125,2.58504409545877,-0.450520386443159,0.0269436492846984,ST
14.8,-2.99310731887817,-0.891233026981354,8.60368824005127,0.221037998795509,-2.01982998847961,0.320124000310898,-1027.5,16.5,-942.900024414062,2.60962657314594,-0.346173212171812,0.0927089779533478,ST
14.8333333333333,-3.95312690734863,-0.529954671859741,7.41218757629395,1.09756803512573,-0.25152599811554,-0.381099998950958,-1039.5,12.3000001907349,-933.300048828125,2.60398517669084,-0.470543108544807,0.0727848768833061,ST
14.8666666666667,-4.37661218643188,-0.396568775177002,8.99487400054932,0.739333987236023,1.2423859834671,0.0076219998300075,-1032.30004882812,17.1000003814697,-940.500061035156,2.59331193734149,-0.456492967816079,0.0462631616550768,ST
14.9,-3.9357807636261,-0.496458679437637,9.40579795837402,0.762199997901917,0.152439996600151,0.411587983369827,-1044.30004882812,14.1000003814697,-930.900024414062,2.59495387916096,-0.40259776605836,0.0505963800549112,DLR
14.9333333333333,-3.63969993591309,-0.595152258872986,8.0115270614624,1.53964400291443,-0.442075997591019,-0.175305992364883,-1037.10009765625,17.7000007629395,-933.300048828125,2.6043808757741,-0.421652244829927,0.0687044274835677,DLR
14.9666666666667,-5.24272298812866,-0.0968991592526436,10.2838716506958,2.04269599914551,3.20123982429504,-1.12805593013763,-1039.5,8.10000038146973,-935.700012207031,2.58718970423721,-0.469577109464915,0.0153937868366196,DLR
15.0,-4.14692544937134,-0.477916240692139,9.473388671875,2.89635992050171,0.198172003030777,-1.09756803512573,-1029.90002441406,9.90000057220459,-906.900024414062,2.60516460703192,-0.420194987966292,0.0422108174946861,DLR
15.0333333333333,-3.25329971313477,-0.604124426841736,8.09167766571045,3.33843588829041,-1.02134799957275,-1.37958192825317,-1022.70001220703,12.9000005722046,-923.700012207031,2.6217381225665,-0.384944013439033,0.0660194857986687,DLR
15.0666666666667,-3.04036068916321,-0.65735912322998,9.73896408081055,4.29880809783936,0.899396002292633,-3.27745985984802,-1032.30004882812,5.10000038146973,-930.900024414062,2.63373296371228,-0.314218337382119,0.0624976698469291,DLR
15.1,-3.10436201095581,-0.538926839828491,8.07552814483643,6.45583391189575,1.08232402801514,-6.19668579101562,-1020.30004882812,6.90000009536743,-926.100036621094,2.65598328318817,-0.360285193299007,0.0597109209979589,DLR
15.1333333333333,-3.06249189376831,-0.506028950214386,9.05767917633057,7.24852180480957,2.02745199203491,-6.73022603988647,-1027.5,8.10000038146973,-935.700012207031,2.67791452286644,-0.332788779753756,0.0490632017845768,DLR
15.1666666666667,-4.1965708732605,-0.33137121796608,8.24659729003906,9.0625581741333,0.967993974685669,-9.60371971130371,-1032.30004882812,0.900000035762787,-935.700012207031,2.70795924862682,-0.452632508431269,0.0341168174558177,DLR
15.2,-5.0590934753418,-0.456981241703033,8.78552436828613,10.7698860168457,1.80641400814056,-10.122015953064,-1015.50006103516,-4.5,-906.900024414062,2.75185103174857,-0.51464415493846,0.0414902112218356,DLR
15.2333333333333,-4.66611337661743,0.372044920921326,9.42314434051514,10.228723526001,-0.304879993200302,-10.7470197677612,-1010.70001220703,-5.70000028610229,-928.500061035156,2.75916682737726,-0.465347663225607,-0.0382152150364249,DLR
15.2666666666667,-6.0131311416626,1.05033910274506,7.29614782333374,10.7012882232666,-1.76068198680878,-10.3506755828857,-996.300048828125,-6.30000019073486,-906.900024414062,2.75321635515276,-0.659724741796024,-0.135378317311795,DLR
15.3,-4.94604444503784,1.15142524242401,8.31717777252197,6.95888566970825,0.472563982009888,-7.4924259185791,-1008.30004882812,0.300000011920929,-904.500061035156,2.78072482395892,-0.549484935837642,-0.140654796525968,DLR
15.3333333333333,-5.067467212677,2.39795517921448,9.14321327209473,5.52594995498657,-0.487807989120483,-7.157057762146,-998.700012207031,-16.5,-902.100036621094,2.75472448044662,-0.501850497920203,-0.243595093645334,DLR
15.3666666666667,-4.76121807098389,1.44571161270142,6.82122230529785,4.49697971343994,-1.90549993515015,-6.07473373413086,-991.500061035156,-8.10000038146973,-904.500061035156,2.79213207802345,-0.585209751573372,-0.214645932967932,DLR
15.4,-4.37601375579834,1.53244233131409,7.88173007965088,2.01220798492432,-0.182927995920181,-4.94667768478394,-993.900024414062,-14.1000003814697,-892.500061035156,2.81808717751136,-0.511868149492408,-0.193680025114981,DLR
15.4333333333333,-4.52016639709473,1.27045571804047,8.02827453613281,1.49391198158264,0.685979962348938,-4.00917196273804,-993.900024414062,-9.90000057220459,-904.500061035156,2.84582948569523,-0.510189394428883,-0.160898805719556,DLR
15.4666666666667,-4.78035879135132,1.44272089004517,7.45884275436401,0.25152599811554,1.15092194080353,-3.52898597717285,-981.900024414062,-12.9000005722046,-890.100036621094,2.84243231871296,-0.557370541908198,-0.184266791953375,DLR
15.5,-5.28519105911255,0.948654770851135,9.05827713012695,-0.67835795879364,1.41769194602966,-2.11891603469849,-989.100036621094,-9.90000057220459,-890.100036621094,2.88344450637128,-0.532781827417185,-0.112190611485184,DLR
15.5333333333333,-5.18948841094971,1.14484560489655,7.55992889404297,-0.236281991004944,0.724089980125427,-2.70580983161926,-977.100036621094,-12.9000005722046,-892.500061035156,2.87349190507609,-0.589390945754776,-0.142062488174952,DLR
15.5666666666667,-5.40302562713623,0.940280735492706,10.1104106903076,-1.71494996547699,0.0381099991500378,-0.594515979290009,-979.500061035156,-9.30000019073486,-902.100036621094,2.89633281422849,-0.502783228762741,-0.0960026045057694,DLR
15.6,-4.14871978759766,0.701023578643799,10.3712005615234,0.952749967575073,-1.90549993515015,-1.76830399036407,-981.900024414062,-12.3000001907349,-906.900024414062,2.91404605030586,-0.390251856277136,-0.0705849121986791,DLR
15.6333333333333,-3.13845610618591,0.951645493507385,7.90266513824463,3.09453201293945,-2.37806391716003,-2.44666194915771,-974.700012207031,-8.70000076293945,-890.100036621094,2.90785583427799,-0.373910891541119,-0.117728843131834,DLR
15.6666666666667,-3.42137789726257,0.989926636219025,7.24769830703735,4.16923379898071,-0.274392008781433,-2.9420919418335,-972.300048828125,-12.3000001907349,-897.300048828125,2.91322663502852,-0.430286856764182,-0.138055037031741,DLR
15.7,-4.85991144180298,1.17415463924408,8.27171897888184,3.3460578918457,0.403965979814529,-2.59910202026367,-972.300048828125,-18.9000015258789,-899.700012207031,2.92249795996329,-0.517661438417098,-0.14382766748568,DLR
15.7333333333333,-5.24511575698853,1.69513714313507,8.1843900680542,2.27135586738586,-0.365855991840363,-1.76068198680878,-969.900024414062,-12.9000005722046,-899.700012207031,2.90277634187835,-0.554687676906765,-0.197671571080561,DLR
15.7666666666667,-4.60091590881348,0.954038023948669,7.16395854949951,1.64635193347931,-0.106707997620106,-0.518296003341675,-979.500061035156,-14.1000003814697,-911.700012207031,2.93549084696138,-0.565368177173074,-0.143263122797248,DLR
15.8,-6.6902289390564,1.30933499336243,9.30830097198486,-1.2423859834671,1.00610399246216,-0.617381989955902,-962.700012207031,-15.9000005722046,-892.500061035156,2.93762966541037,-0.613005858021788,-0.137865603101122,DLR
15.8333333333333,-5.59742212295532,1.25131511688232,8.88601207733154,-1.34147191047668,-0.144817993044853,0.46494197845459,-972.300048828125,-15.9000005722046,-887.700012207031,2.93405100626317,-0.563323799323481,-0.138064776070753,DLR
15.8666666666667,-3.27184200286865,0.39836323261261,7.41577672958374,-0.556405961513519,-2.36281991004944,1.57775402069092,-979.500061035156,-8.10000038146973,-897.300048828125,2.96539057339842,-0.428593314612697,-0.0630639767342129,DLR
15.9,-4.07873678207397,0.939084470272064,8.22745704650879,-1.54726600646973,-1.41006994247437,0.0609759986400604,-979.500061035156,-17.7000007629395,-899.700012207031,2.94554805456168,-0.452191707228601,-0.105237308026026,DLR
15.9333333333333,-4.77736806869507,0.610105812549591,8.32973861694336,-2.25611186027527,1.06708002090454,0.0762199983000755,-981.900024414062,-12.3000001907349,-890.100036621094,2.95657230224332,-0.513404326351329,-0.0736126844132184,DLR
15.9666666666667,-4.48128700256348,0.823044717311859,11.5650939941406,-1.00610399246216,-1.79117000102997,2.21037983894348,-984.300048828125,-15.9000005722046,-904.500061035156,2.95060051956155,-0.382643530598507,-0.0712320045140341,DLR
16.0,-4.80009746551514,0.958823204040527,9.99437046051025,-0.830797970294952,-0.632625997066498,0.884151995182037,-974.700012207031,-11.1000003814697,-899.700012207031,2.93935260887528,-0.436357499214507,-0.0915594906867385,DLR
16.0333333333333,-3.45965886116028,0.192003890872002,7.27222204208374,0.670735955238342,-0.327746003866196,-0.0762199983000755,-998.700012207031,-17.7000007629395,-904.500061035156,2.96398922000424,-0.442527036369783,-0.0361809319125615,DLR
16.0666666666667,-5.11651515960693,1.28600740432739,10.5596160888672,-1.37958192825317,0.228659987449646,0.861285984516144,-993.900024414062,-15.3000001907349,-904.500061035156,2.92894505263163,-0.447975209431643,-0.108230309267449,DLR
16.1,-3.15221357345581,0.359483927488327,6.96836566925049,1.82927989959717,-0.297257989645004,-0.137196004390717,-979.500061035156,-13.5000009536743,-892.500061035156,2.95157100522081,-0.426936963935868,-0.0612486823863358,DLR
16.1333333333333,-3.91723823547363,0.340941488742828,9.51884746551514,0.0990860015153885,-0.914639949798584,0.685979962348938,-977.100036621094,-10.5,-899.700012207031,2.95856759946064,-0.393730629780733,-0.0397545037147804,DLR
16.1666666666667,-5.0973744392395,0.890036761760712,8.13534259796143,0.350611984729767,0.716467976570129,-1.44055795669556,-989.100036621094,-10.5,-916.500061035156,2.93628475881213,-0.536290186877832,-0.0982276234984924,DLR
16.2,-3.34122657775879,-0.0544310100376606,8.81842136383057,0.213415995240211,-2.32470989227295,1.38720393180847,-986.700012207031,-5.10000038146973,-885.300048828125,2.97326077967334,-0.382523033157969,-0.0082166959937818,DLR
16.2333333333333,-4.4501838684082,0.78476357460022,9.37888145446777,-0.327746003866196,-0.160062000155449,0.0381099991500378,-986.700012207031,-14.7000007629395,-892.500061035156,2.94722936591619,-0.43359260344273,-0.0725733800817894,DLR
16.2666666666667,-4.00097846984863,0.2105463296175,8.04920959472656,1.28049600124359,-0.236281991004944,-0.297257989645004,-1008.30004882812,-13.5000009536743,-897.300048828125,2.96667918863826,-0.457677480974091,-0.0333659670276894,DLR
16.3,-4.06139087677002,0.705808699131012,9.10014724731445,0.350611984729767,-0.640248000621796,0.586893975734711,-981.900024414062,-15.9000005722046,-899.700012207031,2.9490094631399,-0.422958843419996,-0.0724655293554131,DLR
16.3333333333333,-3.69413089752197,0.2105463296175,7.85002851486206,1.49391198158264,-0.25152599811554,-0.388722002506256,-984.300048828125,-12.9000005722046,-909.300048828125,2.96747653356988,-0.437154651885496,-0.0350088478687806,DLR
16.3666666666667,-4.78634023666382,0.937888205051422,8.46970462799072,0.25152599811554,0.769822001457214,-0.152439996600151,-984.300048828125,-9.90000057220459,-894.900024414062,2.93854596511523,-0.503014170361635,-0.100057914713706,DLR
16.4,-5.20743274688721,0.613694667816162,9.27839374542236,-0.769822001457214,0.922261953353882,0.564027965068817,-981.900024414062,-11.7000007629395,-909.300048828125,2.95060541402868,-0.511014792907757,-0.0693615427856445,DLR
16.4333333333333,-3.46982741355896,-0.0610105842351913,8.54925727844238,1.64635193347931,-2.05031800270081,0.6250039935112,-981.900024414062,-10.5,-909.300048828125,2.98007924960959,-0.395989674006181,-0.0036149092000104,DLR
16.4666666666667,-4.59912109375,0.522776961326599,6.68364953994751,0.457319974899292,0.503051996231079,-1.14329993724823,-993.900024414062,-12.3000001907349,-904.500061035156,2.95406288541134,-0.57437478444,-0.066529672958204,DLR
16.5,-4.3161997795105,0.431859225034714,9.56968975067139,-0.647870004177094,-0.990859985351562,1.18140995502472,-986.700012207031,-11.7000007629395,-902.100036621094,2.95942328018778,-0.437975215410266,-0.0471570049661984,DLR
16.5333333333333,-3.84007787704468,0.45638307929039,8.22147560119629,0.411587983369827,-0.663114011287689,0.975615978240967,-989.100036621094,-8.70000076293945,-892.500061035156,2.95389341058611,-0.435515030325205,-0.0556161364405881,DLR
16.5666666666667,-3.45248126983643,0.571226537227631,8.59232425689697,0.350611984729767,-0.419209986925125,0.800309956073761,-1003.50006103516,-8.10000038146973,-899.700012207031,2.94810860096567,-0.387920295675732,-0.0659841113165378,DLR
16.6,-3.88912558555603,0.666929423809052,7.95829200744629,0.945127964019775,-0.121951997280121,-0.175305992364883,-989.100036621094,-7.50000047683716,-904.500061035156,2.94297491789302,-0.445438543805927,-0.0828439697802597,DLR
16.6333333333333,-4.70379638671875,0.751267552375793,8.50798606872559,0.182927995920181,0.3125019967556,-0.0762199983000755,-993.900024414062,-6.90000009536743,-909.300048828125,2.94117636363167,-0.496622561316448,-0.0876472460026847,DLR
16.6666666666667,-3.85323691368103,0.622068703174591,9.08160495758057,0.548784017562866,-1.57775402069092,1.10518991947174,-989.100036621094,-5.70000028610229,-909.300048828125,2.94603481996826,-0.408199030037237,-0.0719355732215381,DLR
16.7,-4.08471822738647,1.30155909061432,8.22386741638184,0.403965979814529,-1.44817996025085,0.503051996231079,-984.300048828125,-14.1000003814697,-902.100036621094,2.91377233450889,-0.44875602235658,-0.14846620257099,DLR
16.7333333333333,-4.41070604324341,0.779380261898041,7.66699647903442,0.0533539988100529,0.327746003866196,0.46494197845459,-989.100036621094,-11.1000003814697,-899.700012207031,2.93107545441488,-0.510704002518009,-0.108418305731904,DLR
16.7666666666667,-4.31141471862793,0.614292860031128,9.02777194976807,-0.701223969459534,-0.0152439996600151,1.59299790859222,-984.300048828125,-14.1000003814697,-902.100036621094,2.94233521398608,-0.453393012061244,-0.073400944806364,DLR
16.8,-3.9579119682312,1.08862018585205,9.18568134307861,-0.449698001146317,-0.83841997385025,1.83690190315247,-989.100036621094,-11.7000007629395,-892.500061035156,2.92084232635647,-0.409452547208999,-0.112570048548689,DLR
16.8333333333333,-4.52255916595459,1.18193054199219,9.00205135345459,-0.78506600856781,-0.922261953353882,1.6692179441452,-1003.50006103516,-14.1000003814697,-914.100036621094,2.90917379870893,-0.45383368925705,-0.12815899262818,DLR
16.8666666666667,-4.14034557342529,0.71059387922287,7.02997446060181,-0.221037998795509,0.0914639979600906,1.84452390670776,-998.700012207031,-17.1000003814697,-899.700012207031,2.91461434517514,-0.521038151876468,-0.10530774912087,DLR
16.9,-6.5257396697998,1.27404451370239,11.1565628051758,-4.29118585586548,1.93598794937134,3.63569402694702,-991.500061035156,-14.7000007629395,-923.700012207031,2.89581781518832,-0.528179346497564,-0.109535522420149,DLR
16.9333333333333,-2.54031324386597,-0.451597929000854,7.78064393997192,-0.121951997280121,-2.26373386383057,5.16009378433228,-998.700012207031,-8.70000076293945,-894.900024414062,2.9431696052753,-0.337219766127482,0.0369231490772389,DLR
16.9666666666667,-4.85153770446777,0.186022460460663,8.81064605712891,-1.69970595836639,-2.08842802047729,5.65552377700806,-1013.10003662109,-18.3000011444092,-890.100036621094,2.9034954276287,-0.482137338681533,-0.0159226156564341,DLR
17.0,-5.06208419799805,0.161498606204987,7.83806562423706,-1.6692179441452,0.87652999162674,5.46497392654419,-1013.10003662109,-5.10000038146973,-916.500061035156,2.88309420955298,-0.563926182961795,-0.0225923988104784,DLR
17.0333333333333,-4.44719314575195,0.729136288166046,9.99556732177734,-2.71343183517456,0.137196004390717,6.76071405410767,-993.900024414062,-7.50000047683716,-904.500061035156,2.83985486219978,-0.435687215322997,-0.0680906500315123,DLR
17.0666666666667,-2.77538347244263,0.421690791845322,7.45465564727783,-2.17989206314087,-0.762199997901917,5.49546194076538,-1020.30004882812,-6.90000009536743,-904.500061035156,2.8269141101118,-0.365003728609792,-0.0580727731688143,DLR
17.1,-4.47889471054077,0.66034984588623,9.84004974365234,-2.94971394538879,-1.15092194080353,6.04424571990967,-1010.70001220703,-6.30000019073486,-921.300048828125,2.80509080979011,-0.415712624184221,-0.0651350260724945,DLR
17.1333333333333,-2.89561009407043,0.349913626909256,9.13483905792236,-1.15092194080353,-3.87959790229797,7.5076699256897,-1017.90002441406,-6.90000009536743,-918.900024414062,2.79130629177376,-0.313937265154431,-0.0437528245195426,DLR
17.1666666666667,-2.93867635726929,0.573020994663239,7.09576988220215,-2.52288198471069,-1.03659200668335,6.57016372680664,-1034.70007324219,-8.70000076293945,-914.100036621094,2.76047375476205,-0.37882673006581,-0.075349646378692,DLR
17.2,-3.59424114227295,-0.461168229579926,7.33801794052124,-3.7957558631897,3.14026403427124,5.68601179122925,-1015.50006103516,-12.9000005722046,-911.700012207031,2.78965767336787,-0.44974474590251,0.0453325791753756,DLR
17.2333333333333,-5.33065032958984,0.771006286144257,9.92199516296387,-4.26069784164429,2.27897787094116,5.55643796920776,-1017.90002441406,-3.90000009536743,-921.300048828125,2.72023702091751,-0.49051235462993,-0.0609820458911639,DLR
17.2666666666667,-3.08881020545959,0.0406737215816975,8.90395641326904,-2.66007804870605,-4.37502813339233,7.30949783325195,-1025.10009765625,-0.900000035762787,-926.100036621094,2.71673748844381,-0.343745571301641,-0.0106773411523758,DLR
17.3,-5.04892492294312,0.297875195741653,8.22865295410156,-3.42227792739868,-3.82624387741089,6.2043080329895,-1041.90002441406,-0.900000035762787,-923.700012207031,2.68765007088989,-0.516023738174433,-0.0318790671373823,DLR
17.3333333333333,-4.11701822280884,-0.101086162030697,9.87115383148193,-1.87501192092896,-0.243903994560242,6.53967571258545,-1044.30004882812,-1.5,-914.100036621094,2.68403760893277,-0.411078465206182,0.0030249577072366,DLR
17.3666666666667,-2.87048816680908,0.0317015759646893,9.30231952667236,-2.21800184249878,-1.41006994247437,5.46497392654419,-1049.10009765625,-0.300000011920929,-921.300048828125,2.66524603093357,-0.312269028569703,-0.0021608784824289,DLR
17.4,-1.00368392467499,-0.605320692062378,7.10354614257812,-1.79117000102997,-3.91770792007446,4.80948209762573,-1049.10009765625,2.10000014305115,-930.900024414062,2.66811384839825,-0.157839553186855,0.0747126163675612,DLR
