seconds,sensor_accX_m_s_,sensor_accY_m_s_,sensor_accZ_m_s_,sensor_gyroX___s_,sensor_gyroY___s_,sensor_gyroZ___s_,sensor_magX__T_,sensor_magY__T_,sensor_magZ__T_,sensor_yaw___,sensor_pitch___,sensor_roll___,label3
0.0,-3.8939106464386,-0.608311414718628,8.70058727264404,0.0914639979600906,0.152439996600151,0.388722002506256,-1032.30004882812,6.90000009536743,-935.700012207031,1.99177030478897,-0.420222525494641,0.0693432690882789,ST
0.0333333333333333,-3.80957269668579,-0.625657558441162,8.77595329284668,0.0762199983000755,0.0,0.289635986089706,-1049.10009765625,18.9000015258789,-921.300048828125,1.99078585777731,-0.408758383470171,0.0708073417736785,ST
0.0666666666666667,-3.84067606925964,-0.626255691051483,8.68383979797363,0.0304879993200302,-0.0914639979600906,0.160062000155449,-1051.5,8.70000076293945,-935.700012207031,1.99021806753151,-0.415268043428684,0.0718042247700656,ST
0.1,-3.89450883865356,-0.644199967384338,8.74305534362793,0.0076219998300075,0.144817993044853,-0.0381099991500378,-1058.70007324219,12.9000005722046,-921.300048828125,1.99124698197249,-0.418270958658045,0.073557352899056,ST
0.133333333333333,-3.83828353881836,-0.73751026391983,8.63957691192627,0.37347799539566,0.221037998795509,-0.106707997620106,-1061.10009765625,14.7000007629395,-916.500061035156,1.99752658351891,-0.417109018117429,0.0845211694527311,ST
0.166666666666667,-3.93996787071228,-0.620274245738983,8.85191822052002,0.114329993724823,0.221037998795509,-0.144817993044853,-1044.30004882812,6.30000019073486,-926.100036621094,1.99291157063523,-0.418216414958222,0.0700340076831467,ST
0.2,-3.92022895812988,-0.64838695526123,8.67726039886475,0.304879993200302,-0.0304879993200302,0.0609759986400604,-1044.30004882812,18.3000011444092,-914.100036621094,1.99498589725011,-0.423208951732431,0.0739728355200938,ST
0.233333333333333,-3.9357807636261,-0.675901532173157,8.66290473937988,0.228659987449646,0.0533539988100529,0.190549999475479,-1051.5,13.5000009536743,-938.100036621094,1.99584641850732,-0.42540298039573,0.0772894277215119,ST
0.266666666666667,-3.93338823318481,-0.677097856998444,8.75860786437988,0.198172003030777,0.0533539988100529,0.266770005226135,-1049.10009765625,11.7000007629395,-918.900024414062,1.99456880029273,-0.421164137638045,0.0766108087164537,ST
0.3,-4.01832437515259,-0.608311414718628,8.81303882598877,0.37347799539566,-0.114329993724823,0.419209986925125,-1053.90002441406,15.9000005722046,-933.300048828125,1.98940381848879,-0.426706188276812,0.0679890920183697,ST
0.333333333333333,-3.97645449638367,-0.631639003753662,8.68922328948975,0.304879993200302,-0.137196004390717,0.46494197845459,-1051.5,10.5,-935.700012207031,1.98897629747387,-0.427988631610721,0.0716105795378991,ST
0.366666666666667,-3.90407919883728,-0.620872378349304,8.69400787353516,0.236281991004944,-0.228659987449646,0.37347799539566,-1070.70007324219,7.50000047683716,-938.100036621094,1.98672308171161,-0.42081006443058,0.0705829836427019,ST
0.4,-3.8957052230835,-0.62147057056427,8.70118618011475,0.190549999475479,-0.274392008781433,0.236281991004944,-1044.30004882812,14.7000007629395,-926.100036621094,1.98575604066418,-0.419571591031122,0.0707696465247936,ST
0.433333333333333,-3.92202353477478,-0.622068703174591,8.76040172576904,0.228659987449646,-0.289635986089706,0.106707997620106,-1032.30004882812,13.5000009536743,-921.300048828125,1.98546034441344,-0.419511332435617,0.0703968632014774,ST
0.466666666666667,-3.87835907936096,-0.631040811538696,8.73288726806641,0.327746003866196,-0.167683988809586,0.160062000155449,-1044.30004882812,11.7000007629395,-935.700012207031,1.98571516359161,-0.416732233935284,0.0714211637011204,ST
0.5,-3.85562968254089,-0.639414846897125,8.74664497375488,0.327746003866196,-0.0838419944047928,0.152439996600151,-1039.5,11.7000007629395,-933.300048828125,1.98597812506721,-0.414110342017943,0.0722703775888586,ST
0.533333333333333,-3.89211630821228,-0.659153580665588,8.78552436828613,0.320124000310898,-0.137196004390717,0.106707997620106,-1058.70007324219,13.5000009536743,-935.700012207031,1.98690460522701,-0.415746245115308,0.0742142405950982,ST
0.566666666666667,-3.92022895812988,-0.581993103027344,8.7221212387085,0.243903994560242,-0.205793991684914,0.106707997620106,-1046.70007324219,11.7000007629395,-926.100036621094,1.98356785963421,-0.421179448213589,0.0661787813775013,ST
0.6,-3.89450883865356,-0.668125689029694,8.6742696762085,0.487807989120483,-0.137196004390717,0.137196004390717,-1032.30004882812,11.7000007629395,-938.100036621094,1.98794549059677,-0.420679354281528,0.0758205324703984,ST
0.633333333333333,-3.84007787704468,-0.674107134342194,8.83397388458252,0.152439996600151,-0.0533539988100529,0.0304879993200302,-1046.70007324219,7.50000047683716,-923.700012207031,1.98815179012658,-0.409047716549981,0.0758681883975616,ST
0.666666666666667,-3.84964823722839,-0.693845868110657,8.77774810791016,0.266770005226135,-0.259148001670837,0.0914639979600906,-1044.30004882812,12.3000001907349,-921.300048828125,1.98915650544356,-0.411701232288212,0.0783097349147103,ST
0.7,-3.86280727386475,-0.647190690040588,8.66948413848877,0.282013982534409,-0.221037998795509,0.0457319989800453,-1046.70007324219,15.9000005722046,-928.500061035156,1.98780841733213,-0.417694840587446,0.0740111032667784,ST
0.733333333333333,-3.9058735370636,-0.633433401584625,8.71314907073975,0.327746003866196,-0.0228659994900227,0.213415995240211,-1049.10009765625,11.1000003814697,-928.500061035156,1.9865373686242,-0.420388058588784,0.0718581562893548,ST
0.766666666666667,-3.98004341125488,-0.568833947181702,8.82918834686279,0.266770005226135,0.0076219998300075,0.327746003866196,-1051.5,14.7000007629395,-933.300048828125,1.98192674533584,-0.422758109616402,0.0636877970830204,ST
0.8,-3.9178364276886,-0.590965270996094,8.78193473815918,0.205793991684914,-0.0533539988100529,0.342989981174469,-1051.5,6.90000009536743,-923.700012207031,1.98157601018783,-0.418775081394742,0.0665343926034226,ST
0.833333333333333,-3.90407919883728,-0.57361912727356,8.74843883514404,0.243903994560242,-0.213415995240211,0.365855991840363,-1044.30004882812,12.9000005722046,-921.300048828125,1.97929555464971,-0.418613554495424,0.0647761602193314,ST
0.866666666666667,-3.88314414024353,-0.614292860031128,8.70896148681641,0.221037998795509,-0.236281991004944,0.365855991840363,-1039.5,9.30000019073486,-916.500061035156,1.97964874077634,-0.418138538045326,0.0696768025079587,ST
0.9,-3.88673305511475,-0.586180090904236,8.71494293212891,0.182927995920181,-0.190549999475479,0.282013982534409,-1058.70007324219,16.5,-930.900024414062,1.97706886812183,-0.418370336893814,0.0666354017352051,ST
0.933333333333333,-3.91723823547363,-0.588572680950165,8.76937389373779,0.137196004390717,-0.182927995920181,0.335367977619171,-1034.70007324219,3.90000009536743,-928.500061035156,1.97526324997539,-0.418981106223452,0.0665084035508878,ST
0.966666666666667,-3.86938691139221,-0.626255691051483,8.74724292755127,0.0914639979600906,-0.228659987449646,0.327746003866196,-1041.90002441406,8.70000076293945,-930.900024414062,1.97522744880386,-0.415209058315322,0.0710092319564749,ST
1.0,-3.86280727386475,-0.687266290187836,8.69998931884766,0.0609759986400604,-0.182927995920181,0.236281991004944,-1053.90002441406,12.3000001907349,-938.100036621094,1.97693931847892,-0.416401186806437,0.0784412254767022,ST
1.03333333333333,-3.87596654891968,-0.690257012844086,8.75741100311279,0.0381099991500378,-0.0457319989800453,-0.0076219998300075,-1053.90002441406,9.90000057220459,-918.900024414062,1.97712845075582,-0.415459827233895,0.0785923761435974,ST
1.06666666666667,-3.86998510360718,-0.765622973442078,8.62223052978516,0.381099998950958,-0.152439996600151,-0.160062000155449,-1049.10009765625,12.9000005722046,-938.100036621094,1.98273333975591,-0.420075999950068,0.0878972373841555,ST
1.1,-4.00456714630127,-0.70162171125412,8.79629039764404,-0.0,-0.449698001146317,-0.0838419944047928,-1049.10009765625,14.7000007629395,-938.100036621094,1.97965505266318,-0.425165165200576,0.0797337924013736,ST
1.13333333333333,-3.92800498008728,-0.782370984554291,8.62163257598877,0.160062000155449,-0.571649968624115,0.114329993724823,-1029.90002441406,12.3000001907349,-935.700012207031,1.98334561164108,-0.424981889722022,0.0899606817014976,ST
1.16666666666667,-3.94475293159485,-0.724949300289154,8.74365425109863,0.0990860015153885,-0.556405961513519,0.266770005226135,-1058.70007324219,9.90000057220459,-926.100036621094,1.97868948946024,-0.421644421517925,0.0823984482714373,ST
1.2,-3.8837423324585,-0.747678697109222,8.72750377655029,0.274392008781433,-0.533540010452271,0.426831990480423,-1049.10009765625,5.70000028610229,-940.500061035156,1.97756511956536,-0.416530404057061,0.0845909599482895,ST
1.23333333333333,-4.00456714630127,-0.672312676906586,8.67546558380127,0.25152599811554,-0.503051996231079,0.449698001146317,-1049.10009765625,9.30000019073486,-928.500061035156,1.97213167179423,-0.430332283689237,0.0766116227477396,ST
1.26666666666667,-3.97645449638367,-0.717173397541046,8.5666036605835,0.266770005226135,-0.419209986925125,0.510673999786377,-1053.90002441406,12.9000005722046,-923.700012207031,1.97219698441786,-0.432568703051781,0.0825453353777142,ST
1.3,-3.99200630187988,-0.78177285194397,8.61385726928711,0.0152439996600151,-0.449698001146317,0.37347799539566,-1049.10009765625,11.7000007629395,-942.900024414062,1.97301574400187,-0.431699225308251,0.0900583988836192,ST
1.33333333333333,-4.05540943145752,-0.83560574054718,8.64974594116211,-0.0685980021953583,-0.762199997901917,0.175305992364883,-1056.30004882812,14.7000007629395,-921.300048828125,1.97397468528101,-0.435294492390446,0.0961490607775527,ST
1.36666666666667,-4.27014255523682,-0.69264954328537,8.53908920288086,0.0533539988100529,-0.99848198890686,0.190549999475479,-1053.90002441406,14.1000003814697,-935.700012207031,1.9657029460693,-0.460525957396823,0.0807084198167138,ST
1.4,-4.25877809524536,-0.879270195960999,8.41228294372559,0.167683988809586,-1.04421401023865,0.327746003866196,-1061.10009765625,12.9000005722046,-930.900024414062,1.97378889326013,-0.464651183879058,0.103192563327302,ST
1.43333333333333,-4.38498592376709,-0.797922730445862,8.54985523223877,-0.106707997620106,-0.952749967575073,0.205793991684914,-1063.5,11.7000007629395,-918.900024414062,1.967129530827,-0.470460910729668,0.0930718656422058,ST
1.46666666666667,-4.44001531600952,-0.682481110095978,8.85670280456543,-0.0838419944047928,-1.21951997280121,0.442075997591019,-1063.5,16.5,-926.100036621094,1.95651866120167,-0.461564067414009,0.0767882328014875,ST
1.5,-4.11582183837891,-0.744687974452972,8.53250980377197,0.137196004390717,-1.78354799747467,0.320124000310898,-1061.10009765625,9.90000057220459,-930.900024414062,1.95826536602532,-0.445053602110357,0.0863378943061217,ST
1.53333333333333,-4.10625171661377,-0.66034984588623,8.488844871521,0.282013982534409,-1.57013201713562,-0.114329993724823,-1061.10009765625,7.50000047683716,-930.900024414062,1.95505397587701,-0.446593760763843,0.0772476927358498,ST
1.56666666666667,-4.02071714401245,-0.594554126262665,8.68084907531738,-0.0,-1.57013201713562,-0.289635986089706,-1058.70007324219,12.3000001907349,-933.300048828125,1.95241931326459,-0.430294042660585,0.0686348148470157,ST
1.6,-3.95133256912231,-0.616685390472412,8.86148834228516,0.266770005226135,-2.02745199203491,-0.274392008781433,-1073.10009765625,14.7000007629395,-940.500061035156,1.95407803997143,-0.415164777430906,0.0691107826409636,ST
1.63333333333333,-4.08950328826904,-0.492869794368744,8.73228931427002,0.480185985565186,-2.42379593849182,-0.381099998950958,-1073.10009765625,13.5000009536743,-918.900024414062,1.95141428312086,-0.432955221859613,0.0558584710492341,ST
1.66666666666667,-3.9656879901886,-0.445616513490677,8.75621509552002,0.647870004177094,-2.40092992782593,-0.167683988809586,-1082.70007324219,9.90000057220459,-942.900024414062,1.95086053831687,-0.420728458061945,0.049826842011664,ST
1.7,-3.75753402709961,-0.563450694084167,8.83576774597168,0.472563982009888,-2.82013988494873,-0.342989981174469,-1089.90002441406,14.1000003814697,-930.900024414062,1.95836356470601,-0.396627532501077,0.0628640575732037,ST
1.73333333333333,-3.79760980606079,-0.531749129295349,8.53191089630127,0.533540010452271,-2.56099200248718,-0.884151995182037,-1089.90002441406,5.70000028610229,-935.700012207031,1.96369231082707,-0.413325868481232,0.0618756676000596,ST
1.76666666666667,-4.00396919250488,-0.366063505411148,8.54507064819336,0.533540010452271,-1.57013201713562,-0.975615978240967,-1085.10009765625,9.30000019073486,-938.100036621094,1.96263841522557,-0.434801033658016,0.0428169975097598,ST
1.8,-4.10744762420654,-0.226098045706749,8.62522125244141,0.990859985351562,-0.564027965068817,-0.853663980960846,-1075.5,9.90000057220459,-938.100036621094,1.96270155090024,-0.443178349622597,0.0253884975788866,ST
1.83333333333333,-3.94654726982117,-0.28112718462944,8.37101078033447,0.983237981796265,-0.46494197845459,-0.983237981796265,-1082.70007324219,12.9000005722046,-933.300048828125,1.97447669486982,-0.439500159727603,0.0325853066097322,ST
1.86666666666667,-4.03088569641113,-0.266771763563156,7.97982549667358,0.92988395690918,-0.144817993044853,-1.55488801002502,-1082.70007324219,15.3000001907349,-930.900024414062,1.98613314909006,-0.466840737943078,0.0331459842443436,ST
1.9,-4.04464292526245,-0.427672237157822,8.01990127563477,0.884151995182037,0.472563982009888,-1.81403601169586,-1092.30004882812,8.70000076293945,-935.700012207031,2.00801270663399,-0.467186952980899,0.0531026596816878,ST
1.93333333333333,-3.99918389320374,-0.437840640544891,7.97623634338379,0.434453994035721,0.342989981174469,-2.81251788139343,-1089.90002441406,6.30000019073486,-940.500061035156,2.02730561241014,-0.464503494384027,0.0565174763028634,ST
1.96666666666667,-4.56084012985229,-0.0334960073232651,7.92659044265747,0.556405961513519,0.586893975734711,-3.52136397361755,-1085.10009765625,14.7000007629395,-938.100036621094,2.02710890785695,-0.522661819535004,0.0071653839728131,ST
2.0,-4.7247314453125,0.0657957270741463,8.27291584014893,1.18903195858002,0.891773998737335,-2.54574799537659,-1087.5,14.7000007629395,-928.500061035156,2.03761404740247,-0.520503574107604,-0.0073083765712847,ST
2.03333333333333,-3.9716694355011,-0.291295617818832,7.14780855178833,0.655492007732391,1.42531394958496,-2.14940404891968,-1068.30004882812,14.7000007629395,-935.700012207031,2.07558613846937,-0.509302528616268,0.0411428191762388,ST
2.06666666666667,-3.50511789321899,0.23925718665123,8.89199352264404,0.411587983369827,1.65397393703461,-1.95123195648193,-1070.70007324219,9.30000019073486,-935.700012207031,2.06051454525974,-0.379151705451888,-0.0258890033333285,ST
2.1,-3.43453693389893,0.0717771574854851,8.83576774597168,1.76830399036407,0.846041977405548,-0.724089980125427,-1075.5,9.90000057220459,-930.900024414062,2.07430037214542,-0.372301819877088,-0.010904639278191,ST
2.13333333333333,-3.36335802078247,-0.21712589263916,8.78133678436279,1.6844619512558,-0.144817993044853,-0.922261953353882,-1085.10009765625,5.10000038146973,-942.900024414062,2.09573305823885,-0.365464660848857,0.022050977763228,ST
2.16666666666667,-3.82990956306458,0.218920320272446,8.9416389465332,0.952749967575073,-1.05945801734924,-0.579271972179413,-1080.30004882812,8.70000076293945,-935.700012207031,2.08398679004312,-0.40236543387448,-0.0251925123032673,ST
2.2,-3.77368402481079,0.0819455906748772,9.25566387176514,0.868907988071442,-1.04421401023865,0.510673999786377,-1080.30004882812,10.5,-938.100036621094,2.08866272122006,-0.385504218100855,-0.010900513694724,ST
2.23333333333333,-3.08163261413574,0.254808902740479,8.01511573791504,0.266770005226135,-0.78506600856781,0.365855991840363,-1075.5,7.50000047683716,-940.500061035156,2.07942053201165,-0.365740443121562,-0.0322130637994321,ST
2.26666666666667,-3.50451970100403,0.164489313960075,9.83646106719971,-0.274392008781433,0.0457319989800453,0.983237981796265,-1077.90002441406,10.5,-918.900024414062,2.07822947952409,-0.342549169298433,-0.0170424044766109,ST
2.3,-4.75284385681152,0.130395174026489,9.89926624298096,-0.0381099991500378,-0.571649968624115,0.457319974899292,-1063.5,5.10000038146973,-938.100036621094,2.0769024296996,-0.445301804112488,-0.0135242998261844,ST
2.33333333333333,-4.94724035263062,0.527562081813812,10.0840921401978,-0.731711983680725,0.541162014007568,1.00610399246216,-1089.90002441406,9.30000019073486,-914.100036621094,2.05250592772624,-0.4562832183503,-0.0514045497696416,ST
2.36666666666667,-5.42695140838623,0.257799625396729,11.3204536437988,-0.708845973014832,0.137196004390717,2.65245604515076,-1080.30004882812,11.1000003814697,-938.100036621094,2.04682615923375,-0.44714549505865,-0.0240400298488785,ST
2.4,-5.17274045944214,-0.128002598881721,10.9274740219116,-0.78506600856781,-1.38720393180847,3.10977602005005,-1075.5,6.30000019073486,-921.300048828125,2.0403601415188,-0.439785440824395,0.0102144899018029,ST
2.43333333333333,-5.48975610733032,-0.581993103027344,11.0249710083008,-1.30336201190948,-1.22714197635651,3.26983785629272,-1077.90002441406,8.10000038146973,-930.900024414062,2.0345441914567,-0.459418665149059,0.0517748391198663,ST
2.46666666666667,-4.48607206344604,-1.23875403404236,10.7408533096313,0.0762199983000755,-1.76068198680878,4.50460195541382,-1082.70007324219,11.1000003814697,-940.500061035156,2.03043601971756,-0.391700145615029,0.110794259570733,ST
2.5,-3.90706992149353,-0.668125689029694,8.76578521728516,0.282013982534409,-1.34147191047668,4.53508996963501,-1082.70007324219,7.50000047683716,-914.100036621094,1.98915866189259,-0.416166216408635,0.0725005727726319,ST
2.53333333333333,-4.4681282043457,-0.824839174747467,9.25446796417236,-0.884151995182037,0.899396002292633,5.34302186965942,-1099.5,10.5,-942.900024414062,1.96032900307042,-0.450311564194281,0.0859080702640055,ST
2.56666666666667,-3.18570947647095,-1.90628159046173,9.87952709197998,-1.72257196903229,0.259148001670837,5.15247201919556,-1080.30004882812,13.5000009536743,-928.500061035156,1.96515178812474,-0.310477984547423,0.189527005988517,ST
2.6,-2.97277045249939,-2.27832651138306,7.86857080459595,-0.884151995182037,-1.07470202445984,3.56709599494934,-1085.10009765625,15.9000005722046,-940.500061035156,1.97026991204962,-0.347565687940627,0.279906190618781,ST
2.63333333333333,-4.17085075378418,-2.24662494659424,7.82131767272949,0.739333987236023,1.92836594581604,4.24545383453369,-1085.10009765625,12.9000005722046,-930.900024414062,1.95003017693419,-0.477284180167001,0.275314725510004,ST
2.66666666666667,-4.20973014831543,-2.47750806808472,9.06425857543945,0.0152439996600151,0.746955990791321,3.91008591651917,-1080.30004882812,-0.300000011920929,-926.100036621094,1.92340786045257,-0.424693834894441,0.264046093169806,ST
2.7,-4.01712799072266,-1.9026927947998,7.9194130897522,0.46494197845459,-0.221037998795509,2.75916385650635,-1094.70007324219,12.9000005722046,-928.500061035156,1.89581793477565,-0.458533828132486,0.233017014473642,ST
2.73333333333333,-3.90108847618103,-1.66881883144379,8.36802005767822,0.701223969459534,1.57775402069092,2.58385801315308,-1082.70007324219,17.7000007629395,-935.700012207031,1.86834593153917,-0.43271632417842,0.1942949221467,ST
2.76666666666667,-3.72343993186951,-1.1938933134079,8.72570991516113,0.586893975734711,-0.594515979290009,2.82013988494873,-1080.30004882812,9.30000019073486,-930.900024414062,1.82851927291521,-0.400042014357516,0.133563892736149,ST
2.8,-4.81983613967896,-0.840390861034393,8.52234077453613,-0.457319974899292,0.0533539988100529,1.95885396003723,-1070.70007324219,12.3000001907349,-926.100036621094,1.8000361858562,-0.511897077158847,0.0976011630047473,ST
2.83333333333333,-3.35797452926636,-1.2698575258255,8.70298004150391,0.777444005012512,0.823175966739655,2.0579400062561,-1073.10009765625,11.7000007629395,-940.500061035156,1.80907263497186,-0.36792172501988,0.141858176597692,ST
2.86666666666667,-3.46623849868774,-1.05273163318634,7.99059200286865,1.08232402801514,0.213415995240211,0.99848198890686,-1089.90002441406,9.30000019073486,-935.700012207031,1.80107172050383,-0.406280710804254,0.128548973070762,ST
2.9,-3.43573331832886,-0.0251220054924488,8.50858402252197,-0.350611984729767,-1.37195992469788,1.97409796714783,-1082.70007324219,10.5,-938.100036621094,1.74034225536471,-0.38175313723,0.003694973547224,ST
2.93333333333333,-3.11333417892456,-0.20097604393959,8.22506427764893,-0.350611984729767,-0.106707997620106,2.42379593849182,-1073.10009765625,8.70000076293945,-933.300048828125,1.73183966321309,-0.361869363605074,0.0232330313787487,ST
2.96666666666667,-3.49255681037903,-0.221911042928696,8.86507701873779,-0.167683988809586,0.960371971130371,1.73781597614288,-1082.70007324219,14.1000003814697,-926.100036621094,1.72165807969315,-0.376753681868543,0.024127622993938,ST
3.0,-3.5493803024292,-0.285314202308655,8.61624908447266,0.320124000310898,0.297257989645004,0.647870004177094,-1092.30004882812,10.5,-935.700012207031,1.72127947666788,-0.391029956438299,0.0320345023919511,ST
3.03333333333333,-4.0655779838562,0.476121813058853,8.12577247619629,0.739333987236023,0.0838419944047928,0.0990860015153885,-1080.30004882812,12.3000001907349,-926.100036621094,1.6850784558334,-0.46249703899708,-0.058746952633994,ST
3.06666666666667,-3.50392150878906,0.125610023736954,7.84045791625977,0.685979962348938,0.564027965068817,0.419209986925125,-1080.30004882812,11.1000003814697,-921.300048828125,1.70181761128601,-0.421707143006008,-0.0180458638073108,ST
3.1,-3.27244019508362,-0.0041870009154081,8.76219654083252,-0.0076219998300075,1.02134799957275,0.289635986089706,-1077.90002441406,8.10000038146973,-942.900024414062,1.70698084621335,-0.359976518522352,8.03233008647827e-05,ST
3.13333333333333,-4.43523025512695,0.976169347763062,7.72740888595581,0.945127964019775,2.58385801315308,-0.0914639979600906,-1075.5,6.90000009536743,-930.900024414062,1.6550930376726,-0.520177167604009,-0.125852900420626,ST
3.16666666666667,-3.61697053909302,-0.108862020075321,8.08749103546143,0.899396002292633,2.22562384605408,1.08994603157043,-1073.10009765625,9.30000019073486,-926.100036621094,1.71281993939648,-0.425631081734675,0.0094462918815672,ST
3.2,-4.25817966461182,0.2613884806633,8.656325340271,0.426831990480423,0.891773998737335,0.960371971130371,-1070.70007324219,8.70000076293945,-938.100036621094,1.69050239328473,-0.458243595854758,-0.0314713623324324,ST
3.23333333333333,-4.0057635307312,1.04854464530945,7.76090526580811,0.510673999786377,2.27897787094116,1.40244793891907,-1068.30004882812,12.3000001907349,-916.500061035156,1.63517444045933,-0.47628478127209,-0.135780798650564,ST
3.26666666666667,-2.85493636131287,0.300865918397903,8.13414669036865,0.320124000310898,2.05031800270081,1.84452390670776,-1065.90002441406,8.70000076293945,-926.100036621094,1.66263093365742,-0.342444726573985,-0.0398709479671671,ST
3.3,-2.55526685714722,-0.845774173736572,9.83047962188721,-0.586893975734711,0.388722002506256,0.221037998795509,-1056.30004882812,6.30000019073486,-935.700012207031,1.69729749242043,-0.255224447330653,0.0852484907892198,ST
3.33333333333333,-3.03976249694824,-0.405540943145752,8.75023365020752,-0.46494197845459,-0.807931959629059,-1.15092194080353,-1056.30004882812,8.70000076293945,-933.300048828125,1.69233629469946,-0.331566171909875,0.0482565983772798,ST
3.36666666666667,-4.10326099395752,-0.333165645599365,8.81244087219238,0.579271972179413,0.25152599811554,-0.0762199983000755,-1051.5,14.7000007629395,-926.100036621094,1.69014498812811,-0.434844819609587,0.036965162282195,ST
3.4,-2.93867635726929,-1.14125680923462,9.08698844909668,0.358233988285065,0.457319974899292,-0.510673999786377,-1058.70007324219,9.30000019073486,-942.900024414062,1.72592944648434,-0.312713142974866,0.123611688748274,ST
3.43333333333333,-2.71497106552124,-0.938486337661743,7.98580694198608,1.34909391403198,-0.205793991684914,-1.29574000835419,-1049.10009765625,14.7000007629395,-928.500061035156,1.73397514365064,-0.324885877619177,0.115454635340631,ST
3.46666666666667,-4.81983613967896,-0.638816714286804,9.66060733795166,0.983237981796265,0.106707997620106,-0.457319974899292,-1056.30004882812,11.7000007629395,-933.300048828125,1.72026865384625,-0.460838687583447,0.0651782619968328,ST
3.5,-3.82811498641968,-1.05871307849884,8.84832859039307,-0.106707997620106,0.106707997620106,-1.11281192302704,-1044.30004882812,11.7000007629395,-935.700012207031,1.74993492003553,-0.406105751085265,0.119717565728456,ST
3.53333333333333,-5.20324563980103,-0.19798532128334,9.63967227935791,0.37347799539566,0.236281991004944,-0.571649968624115,-1058.70007324219,6.90000009536743,-923.700012207031,1.7116491935097,-0.49449403124895,0.0213323583536547,ST
3.56666666666667,-4.41130447387695,-0.15312460064888,9.04870700836182,1.84452390670776,0.884151995182037,0.846041977405548,-1041.90002441406,5.10000038146973,-935.700012207031,1.70843911047785,-0.455402369197244,0.0130516184228146,ST
3.6,-4.13316774368286,0.215929612517357,8.76040172576904,0.25152599811554,0.571649968624115,0.792688012123108,-1049.10009765625,0.900000035762787,-918.900024414062,1.6879130676785,-0.441853680286997,-0.0252791469448469,ST
3.63333333333333,-5.00825119018555,0.671116411685944,8.94881725311279,0.3125019967556,0.274392008781433,1.07470202445984,-1039.5,9.90000057220459,-921.300048828125,1.65942487829857,-0.508675480206553,-0.0759104456708043,ST
3.66666666666667,-4.15290641784668,0.516197383403778,8.1066312789917,0.0457319989800453,-0.350611984729767,0.846041977405548,-1044.30004882812,5.10000038146973,-935.700012207031,1.65992893097267,-0.472171759973098,-0.0644877364414338,ST
3.7,-4.76719951629639,0.633433401584625,8.19814777374268,0.114329993724823,0.106707997620106,0.556405961513519,-1063.5,7.50000047683716,-938.100036621094,1.65085673917233,-0.524869569412964,-0.0777111724064168,ST
3.73333333333333,-4.52076435089111,0.714182734489441,8.22685813903809,0.259148001670837,0.594515979290009,0.37347799539566,-1041.90002441406,9.90000057220459,-933.300048828125,1.64458962636252,-0.502144451383413,-0.0873355744347541,ST
3.76666666666667,-5.20384407043457,0.440831363201141,7.83627128601074,0.503051996231079,1.56251001358032,0.243903994560242,-1053.90002441406,13.5000009536743,-935.700012207031,1.65975617926169,-0.587122674772761,-0.0578507523680577,ST
3.8,-5.56272983551025,0.228490620851517,8.05638790130615,0.426831990480423,1.97409796714783,-0.228659987449646,-1046.70007324219,5.70000028610229,-942.900024414062,1.67828959957537,-0.607363172071423,-0.0291951273016991,ST
3.83333333333333,-6.2009482383728,0.601731836795807,8.64735317230225,0.350611984729767,1.71494996547699,-0.0457319989800453,-1034.70007324219,5.10000038146973,-938.100036621094,1.65588750923453,-0.623811524449304,-0.0698152818372112,ST
3.86666666666667,-5.78165006637573,0.425279647111893,8.02049922943115,0.777444005012512,0.304879993200302,0.449698001146317,-1037.10009765625,9.30000019073486,-928.500061035156,1.66505194750755,-0.624408061413255,-0.0550265037000153,ST
3.9,-5.78105163574219,0.585581958293915,7.88472080230713,-0.602137982845306,-0.3125019967556,0.67835795879364,-1039.5,9.90000057220459,-930.900024414062,1.64849454488316,-0.630643182355195,-0.0736812363924461,ST
3.93333333333333,-4.89639854431152,0.245238617062569,7.24052047729492,-1.08232402801514,-0.533540010452271,0.571649968624115,-1046.70007324219,9.90000057220459,-930.900024414062,1.66506943285874,-0.59383424742566,-0.0331132070292765,ST
3.96666666666667,-5.66321754455566,0.239855334162712,8.1305570602417,-1.18903195858002,0.388722002506256,0.670735955238342,-1041.90002441406,6.30000019073486,-923.700012207031,1.65995257035545,-0.608654461176955,-0.0283041079656064,ST
4.0,-5.52265405654907,0.0837400183081627,8.50439643859863,-0.137196004390717,0.632625997066498,0.663114011287689,-1044.30004882812,9.30000019073486,-928.500061035156,1.66572482321512,-0.57734193584887,-0.0105513919834531,ST
4.03333333333333,-5.03815841674805,0.119030453264713,7.44388914108276,0.693601965904236,-0.167683988809586,0.0076219998300075,-1032.30004882812,7.50000047683716,-940.500061035156,1.66464438644537,-0.594494085370393,-0.0171471725426393,ST
4.06666666666667,-5.54598140716553,0.466551512479782,8.500807762146,-0.0990860015153885,-0.129574000835419,-0.449698001146317,-1032.30004882812,8.70000076293945,-942.900024414062,1.6465512408966,-0.577347401180292,-0.0538170131376669,ST
4.1,-5.40362358093262,0.48449581861496,8.15508079528809,0.205793991684914,-0.46494197845459,-0.571649968624115,-1034.70007324219,8.10000038146973,-947.700012207031,1.64761681947932,-0.583548606969206,-0.0589469982196213,ST
4.13333333333333,-5.21999359130859,0.245836764574051,8.560622215271,0.228659987449646,0.243903994560242,-0.495429992675781,-1025.10009765625,4.5,-928.500061035156,1.66759079853353,-0.548061666257077,-0.0287714127362971,ST
4.16666666666667,-4.74207735061646,0.450999796390533,8.10483741760254,0.533540010452271,-0.236281991004944,-0.884151995182037,-1034.70007324219,7.50000047683716,-923.700012207031,1.66113221794836,-0.52853100250162,-0.0554096601179329,ST
4.2,-4.55605506896973,0.256603330373764,7.49832010269165,0.609759986400604,1.38720393180847,-0.411587983369827,-1044.30004882812,5.10000038146973,-935.700012207031,1.6755849138617,-0.547979977567155,-0.0351014276655512,ST
4.23333333333333,-5.19367551803589,0.489280939102173,8.57617378234863,0.0685980021953583,2.28659987449646,-0.381099998950958,-1029.90002441406,10.5,-930.900024414062,1.66605217422565,-0.54782762728933,-0.0565772366783749,ST
4.26666666666667,-4.2563853263855,-0.125610023736954,7.96546983718872,0.617381989955902,0.87652999162674,-0.221037998795509,-1029.90002441406,14.1000003814697,-947.700012207031,1.70445832426433,-0.492815010028301,0.0141949229761641,ST
4.3,-4.87725782394409,0.0927121639251709,8.71135425567627,-0.0228659994900227,0.823175966739655,-1.08994603157043,-1032.30004882812,9.90000057220459,-935.700012207031,1.69944293365295,-0.511655989944568,-0.0093339273795681,ST
4.33333333333333,-4.64876699447632,0.113647162914276,7.42056179046631,0.815553963184357,0.663114011287689,-0.899396002292633,-1020.30004882812,8.10000038146973,-935.700012207031,1.70415359080018,-0.560353965044381,-0.0157109969280977,ST
4.36666666666667,-5.02200841903687,-0.274547636508942,9.69171047210693,0.449698001146317,0.952749967575073,0.198172003030777,-1020.30004882812,8.10000038146973,-935.700012207031,1.72576529506718,-0.480430267361863,0.0269530075691317,ST
4.4,-4.84974336624146,0.256603330373764,9.35734844207764,1.58537602424622,-1.57013201713562,-0.114329993724823,-1013.10003662109,3.90000009536743,-940.500061035156,1.70561743101309,-0.47532090838871,-0.0296220200584433,ST
4.43333333333333,-4.611083984375,0.463560789823532,7.81832695007324,1.63110792636871,-0.945127964019775,0.579271972179413,-1025.10009765625,9.90000057220459,-923.700012207031,1.69224987889955,-0.529989096280849,-0.0623544348165946,ST
4.46666666666667,-4.67388916015625,0.571226537227631,8.13773536682129,0.92988395690918,0.282013982534409,1.22714197635651,-1022.70001220703,8.70000076293945,-933.300048828125,1.68311733952699,-0.520734968517216,-0.0728197827225557,ST
4.5,-5.10036516189575,0.558067381381989,8.83516979217529,0.922261953353882,0.914639949798584,1.64635193347931,-1010.70001220703,9.90000057220459,-928.500061035156,1.67965269483964,-0.52405370451139,-0.0664719308213517,ST
4.53333333333333,-4.6708984375,0.259594053030014,8.95599460601807,0.922261953353882,-0.907018005847931,1.6844619512558,-1025.10009765625,12.3000001907349,-926.100036621094,1.68921757722631,-0.479277277394118,-0.0323869615543436,ST
4.56666666666667,-4.43463182449341,-0.072973445057869,7.34220504760742,0.236281991004944,-2.14940404891968,1.13567793369293,-1025.10009765625,5.70000028610229,-930.900024414062,1.70337797667503,-0.538856959472775,0.0078050148457859,ST
4.6,-4.226478099823,-0.231481328606606,7.73578310012817,-0.327746003866196,-0.419209986925125,0.983237981796265,-1034.70007324219,5.70000028610229,-928.500061035156,1.70753429130665,-0.499654181067072,0.0292748472320111,ST
4.63333333333333,-5.39046430587769,-0.0275145769119263,8.79509449005127,-0.167683988809586,-0.685979962348938,0.419209986925125,-1027.5,2.10000014305115,-952.500061035156,1.69145706096296,-0.548222515176437,0.0032103385292734,ST
4.66666666666667,-5.05012130737305,-0.122619308531284,7.44927263259888,0.152439996600151,-1.47104597091675,-0.350611984729767,-1020.30004882812,9.30000019073486,-938.100036621094,1.70112219999043,-0.592791525371004,0.0164729617311149,ST
4.7,-5.35337972640991,-0.10826388001442,7.99477910995483,0.0152439996600151,-0.0685980021953583,-0.221037998795509,-1025.10009765625,7.50000047683716,-930.900024414062,1.70084616128703,-0.589905416016838,0.0138045054069114,ST
4.73333333333333,-5.46941947937012,-0.192003890872002,8.98530387878418,-0.46494197845459,-1.21189796924591,-0.739333987236023,-1022.70001220703,10.5,-928.500061035156,1.70822139680166,-0.544886995338445,0.0228663238822416,ST
4.76666666666667,-5.52923345565796,0.0305052921175957,8.16584777832031,0.0152439996600151,-2.38568592071533,-0.480185985565186,-1032.30004882812,8.10000038146973,-940.500061035156,1.69693707445819,-0.590474519572,-0.0028640863493153,ST
4.8,-4.81505107879639,-0.360082060098648,7.62572479248047,-0.274392008781433,-0.510673999786377,-0.282013982534409,-1039.5,14.7000007629395,-926.100036621094,1.72476687595309,-0.562146244230909,0.0473369503951066,ST
4.83333333333333,-5.81873464584351,0.0089721446856856,8.97214412689209,0.0914639979600906,0.282013982534409,0.0304879993200302,-1037.10009765625,3.90000009536743,-933.300048828125,1.69910279255924,-0.57567531536947,-0.0005969334660652,ST
4.86666666666667,-5.38627767562866,0.180041030049324,7.8536171913147,0.6250039935112,-0.0457319989800453,0.0914639979600906,-1032.30004882812,12.9000005722046,-935.700012207031,1.68795367856617,-0.600641470267407,-0.0238282511192519,ST
4.9,-4.77138662338257,-0.186620607972145,8.49363040924072,0.830797970294952,-0.564027965068817,0.861285984516144,-1037.10009765625,11.1000003814697,-933.300048828125,1.7085611373801,-0.511435479526357,0.019356160266021,ST
4.93333333333333,-5.35637044906616,0.206359326839447,8.16345500946045,0.114329993724823,-0.403965979814529,-0.647870004177094,-1051.5,7.50000047683716,-935.700012207031,1.69002286135612,-0.579257745087719,-0.0243221379682088,ST
4.96666666666667,-5.40661430358887,0.19798532128334,9.79817962646484,0.426831990480423,-1.2576299905777,0.121951997280121,-1041.90002441406,13.5000009536743,-942.900024414062,1.69254666095305,-0.502880433208764,-0.021080738095933,ST
5.0,-4.54827928543091,0.129797026515007,7.42235612869263,1.30336201190948,-3.06404399871826,-0.114329993724823,-1046.70007324219,2.70000004768372,-921.300048828125,1.69844376557906,-0.543846787669219,-0.0196066999590062,ST
5.03333333333333,-4.73609590530396,0.386998504400253,8.17721271514893,0.907018005847931,-0.685979962348938,0.952749967575073,-1044.30004882812,8.10000038146973,-930.900024414062,1.68111476294542,-0.523464862296992,-0.0494371877902473,ST
5.06666666666667,-4.29526472091675,0.148339450359344,8.28487873077393,0.403965979814529,-0.419209986925125,0.754577994346619,-1034.70007324219,6.90000009536743,-947.700012207031,1.69247936634485,-0.478035642684207,-0.019644692446271,ST
5.1,-4.46154832839966,0.309838056564331,8.64196968078613,0.25152599811554,0.0381099991500378,0.762199997901917,-1046.70007324219,16.5,-933.300048828125,1.68069397047898,-0.476344437242969,-0.036836032840919,ST
5.13333333333333,-4.82761192321777,0.394774347543716,7.96068477630615,0.137196004390717,0.457319974899292,0.106707997620106,-1034.70007324219,8.10000038146973,-930.900024414062,1.67412782110325,-0.54453400944185,-0.0497610892090813,ST
5.16666666666667,-4.71097421646118,0.203368604183197,9.45065879821777,-0.358233988285065,0.609759986400604,1.19665396213531,-1041.90002441406,5.10000038146973,-933.300048828125,1.67957596767047,-0.464345528297737,-0.0222839562587401,ST
5.2,-4.52614784240723,0.325987905263901,8.30521488189697,-0.335367977619171,0.0152439996600151,0.419209986925125,-1037.10009765625,2.70000004768372,-923.700012207031,1.66845399585583,-0.498298974337572,-0.0388658233122989,ST
5.23333333333333,-3.72762703895569,-0.553282260894775,7.94154405593872,-1.00610399246216,0.129574000835419,-0.0076219998300075,-1041.90002441406,12.3000001907349,-933.300048828125,1.71494748162244,-0.438913038804554,0.0700146213115041,ST
5.26666666666667,-4.03028726577759,-0.438438802957535,9.29693603515625,-2.01982998847961,0.160062000155449,-0.388722002506256,-1037.10009765625,8.70000076293945,-926.100036621094,1.70431260502742,-0.409264032409992,0.0511767270864858,ST
5.3,-3.74975824356079,-0.595152258872986,7.9098424911499,0.144817993044853,-0.868907988071442,-0.442075997591019,-1029.90002441406,8.10000038146973,-933.300048828125,1.71683795039451,-0.439753488814041,0.0749416454352055,ST
5.33333333333333,-4.53212928771973,-0.174657747149467,8.48824691772461,0.259148001670837,1.50153398513794,-0.693601965904236,-1034.70007324219,11.1000003814697,-930.900024414062,1.69775645269935,-0.492282173175341,0.0214755501874268,ST
5.36666666666667,-4.9215202331543,-0.0777585878968239,8.3458890914917,0.685979962348938,2.21037983894348,-0.632625997066498,-1039.5,5.70000028610229,-938.100036621094,1.69739544602124,-0.536092664776956,0.0089511649075375,ST
5.4,-4.77676963806152,0.240453481674194,9.30172157287598,0.129574000835419,0.442075997591019,-0.0381099991500378,-1022.70001220703,6.30000019073486,-928.500061035156,1.68116639499062,-0.475506922743341,-0.0257987481234636,ST
5.43333333333333,-4.11881256103516,0.269164323806763,8.43441390991211,0.0152439996600151,-0.518296003341675,0.243903994560242,-1032.30004882812,15.3000001907349,-942.900024414062,1.67711668861661,-0.453426081949588,-0.0320459923533075,ST
5.46666666666667,-4.19417858123779,-0.28411790728569,7.34878444671631,-0.663114011287689,1.05183601379395,-0.198172003030777,-1039.5,12.9000005722046,-938.100036621094,1.70961176322243,-0.519317026678758,0.0391197406603458,ST
5.5,-4.51897001266479,-0.202770471572876,8.91053581237793,-0.762199997901917,1.2500079870224,0.0304879993200302,-1029.90002441406,11.1000003814697,-930.900024414062,1.7003238470947,-0.472014164867736,0.0242565554292335,ST
5.53333333333333,-5.03038215637207,0.0759641602635384,8.54746341705322,0.0457319989800453,0.983237981796265,0.510673999786377,-1032.30004882812,9.90000057220459,-926.100036621094,1.68160011278182,-0.532879252504405,-0.0090729148778996,ST
5.56666666666667,-4.71217012405396,-0.0657957270741463,7.63948202133179,0.685979962348938,0.548784017562866,0.685979962348938,-1034.70007324219,11.1000003814697,-933.300048828125,1.68814899080378,-0.553462527938071,0.0065406368276098,ST
5.6,-5.53521490097046,0.155517175793648,9.12885761260986,0.0228659994900227,0.952749967575073,0.548784017562866,-1034.70007324219,14.1000003814697,-933.300048828125,1.67246850530086,-0.546713162449377,-0.0174636280637392,ST
5.63333333333333,-5.0375599861145,0.080151155591011,8.0827054977417,0.0762199983000755,-0.510673999786377,-0.449698001146317,-1025.10009765625,9.90000057220459,-952.500061035156,1.67944851916885,-0.55635055588477,-0.0096255455923133,ST
5.66666666666667,-4.59194374084473,0.129797026515007,8.20412921905518,0.137196004390717,-0.731711983680725,-0.0228659994900227,-1027.5,10.5,-930.900024414062,1.67685828593028,-0.509517461539763,-0.0159501235918198,ST
5.7,-4.69721698760986,0.139367312192917,7.78722333908081,0.259148001670837,-0.510673999786377,-0.0838419944047928,-1025.10009765625,14.1000003814697,-923.700012207031,1.67706273517785,-0.541411578982467,-0.0182222795979584,ST
5.73333333333333,-4.94484806060791,0.248229339718819,8.33093547821045,0.282013982534409,-0.419209986925125,0.0228659994900227,-1044.30004882812,8.70000076293945,-928.500061035156,1.67180324543128,-0.534819818857823,-0.0301434016391339,ST
5.76666666666667,-5.15898323059082,0.263182908296585,8.40211391448975,0.746955990791321,0.0152439996600151,0.243903994560242,-1020.30004882812,15.9000005722046,-930.900024414062,1.67154488051833,-0.550260902123075,-0.0328452157377387,ST
5.8,-4.54169940948486,0.23925718665123,7.72202587127686,0.632625997066498,-0.0304879993200302,0.205793991684914,-1027.5,10.5,-926.100036621094,1.67279198062728,-0.531580999634971,-0.0322935614520491,ST
5.83333333333333,-5.49274682998657,0.357689499855042,8.3339262008667,0.243903994560242,0.92988395690918,0.221037998795509,-1020.30004882812,10.5,-923.700012207031,1.66628457034739,-0.583457163017934,-0.0435175719061962,ST
5.86666666666667,-5.08421516418457,0.422288924455643,7.55095672607422,0.693601965904236,1.08232402801514,0.221037998795509,-1025.10009765625,8.10000038146973,-921.300048828125,1.65964953388381,-0.593611045115866,-0.057238148136946,ST
5.9,-5.15001106262207,0.28710862994194,7.87096357345581,0.487807989120483,1.22714197635651,0.137196004390717,-1022.70001220703,3.30000019073486,-940.500061035156,1.67123086910938,-0.581332012066512,-0.0376916784219591,ST
5.93333333333333,-5.65125465393066,0.0825437307357788,9.12407302856445,0.190549999475479,1.41006994247437,-0.0685980021953583,-1032.30004882812,5.10000038146973,-942.900024414062,1.68722765985062,-0.557290342650158,-0.0096593667385315,ST
5.96666666666667,-5.26724720001221,0.0346922911703587,9.04152870178223,0.548784017562866,-0.0609759986400604,-0.449698001146317,-1022.70001220703,8.70000076293945,-938.100036621094,1.69417241702319,-0.527757713051295,-0.0043991413787634,ST
6.0,-4.97954034805298,0.205163031816483,8.99128532409668,0.289635986089706,-1.12805593013763,-0.449698001146317,-1027.5,9.90000057220459,-930.900024414062,1.68866893342939,-0.504003186367323,-0.0226387760253967,ST
6.03333333333333,-4.88802433013916,-0.147741317749023,7.80995273590088,0.945127964019775,-0.67835795879364,-0.25152599811554,-1017.90002441406,11.1000003814697,-923.700012207031,1.71318761697013,-0.557300886377037,0.0170101589274783,ST
6.06666666666667,-4.3305549621582,0.0484495796263218,7.79679346084595,0.670735955238342,0.228659987449646,0.243903994560242,-1025.10009765625,9.90000057220459,-923.700012207031,1.7016125782757,-0.507757686677202,-0.0074469705827388,ST
6.1,-4.94783878326416,-0.0741697251796722,8.79569244384766,-0.0838419944047928,0.0381099991500378,0.236281991004944,-1017.90002441406,5.10000038146973,-926.100036621094,1.70766479675777,-0.512409678825221,0.0081535861197872,ST
6.13333333333333,-4.85273408889771,0.223705470561981,8.85969352722168,0.0076219998300075,-0.685979962348938,0.487807989120483,-1029.90002441406,6.90000009536743,-918.900024414062,1.68882207551461,-0.499906111744564,-0.0252966785817278,ST
6.16666666666667,-3.6492702960968,-0.232677608728409,6.81284856796265,0.617381989955902,-1.2347639799118,1.22714197635651,-1015.50006103516,3.30000019073486,-926.100036621094,1.71052715612689,-0.489561079445035,0.0311866260365402,ST
6.2,-4.48308134078979,-0.258995920419693,8.33691692352295,-0.0914639979600906,0.0381099991500378,0.899396002292633,-1017.90002441406,9.90000057220459,-923.700012207031,1.70486108452699,-0.493248240094967,0.0303837399848559,ST
6.23333333333333,-4.71755361557007,-0.562852561473846,8.57796859741211,-0.0990860015153885,-1.69970595836639,0.495429992675781,-1027.5,15.3000001907349,-928.500061035156,1.7172683063971,-0.498968235310631,0.064902751026417,ST
6.26666666666667,-4.7666015625,-0.435448080301285,7.33622360229492,0.121951997280121,-1.76830399036407,0.213415995240211,-1022.70001220703,12.3000001907349,-921.300048828125,1.7128476372265,-0.571428854929115,0.0587953232083239,ST
6.3,-5.75234079360962,-0.512608528137207,8.90694713592529,0.449698001146317,0.739333987236023,0.815553963184357,-1037.10009765625,11.7000007629395,-918.900024414062,1.70837503524797,-0.574034552890476,0.0558507055871719,ST
6.33333333333333,-5.99339246749878,-0.41750380396843,9.62112998962402,-0.403965979814529,-0.426831990480423,-0.0990860015153885,-1029.90002441406,6.90000009536743,-921.300048828125,1.70125184029956,-0.556164617083862,0.0443000894500339,ST
6.36666666666667,-5.3240704536438,-0.264977335929871,8.46671390533447,-0.0,-2.10367202758789,-0.0762199983000755,-1027.5,9.90000057220459,-911.700012207031,1.69447933739627,-0.557434505057077,0.0314563279128419,ST
6.4,-4.31799411773682,-0.506028950214386,7.73398876190186,1.18140995502472,-0.716467976570129,0.221037998795509,-1027.5,12.3000001907349,-921.300048828125,1.71288796079632,-0.507446651079885,0.0627899385904875,ST
6.43333333333333,-4.45795965194702,-0.409727931022644,7.03236675262451,1.14329993724823,-0.243903994560242,-0.907018005847931,-1029.90002441406,13.5000009536743,-938.100036621094,1.71943701041234,-0.56328993125376,0.057220996057111,ST
6.46666666666667,-5.428147315979,-0.162096738815308,7.82909345626831,0.548784017562866,0.381099998950958,-0.152439996600151,-1029.90002441406,13.5000009536743,-935.700012207031,1.70191793965419,-0.606265775608124,0.0204043040625723,ST
6.5,-5.48018598556519,0.0604124404489994,8.80885124206543,0.434453994035721,0.342989981174469,2.26373386383057,-1041.90002441406,6.30000019073486,-935.700012207031,1.67476165357674,-0.557684396183011,-0.0097321418382068,ST
6.53333333333333,-5.23913431167603,-0.299071490764618,9.07861423492432,0.37347799539566,-0.205793991684914,2.85062789916992,-1037.10009765625,9.30000019073486,-918.900024414062,1.68028358318572,-0.523374434371539,0.0289280580627044,ST
6.56666666666667,-4.47530555725098,-0.229088753461838,8.36323547363281,0.510673999786377,-0.78506600856781,2.20275783538818,-1027.5,13.5000009536743,-928.500061035156,1.66730756023964,-0.490322866775514,0.0244714785755009,ST
6.6,-5.15060901641846,0.400755792856216,9.50987529754639,0.175305992364883,0.342989981174469,1.86738991737366,-1034.70007324219,17.1000003814697,-930.900024414062,1.62415936077777,-0.496429272736069,-0.043691868199439,ST
6.63333333333333,-5.14881467819214,0.330773055553436,8.46551704406738,0.670735955238342,0.518296003341675,1.14329993724823,-1022.70001220703,11.7000007629395,-930.900024414062,1.62107550912065,-0.546300802074196,-0.0414845834244015,ST
6.66666666666667,-4.52255916595459,0.0986935868859291,8.57677173614502,0.0990860015153885,0.205793991684914,1.21951997280121,-1039.5,14.7000007629395,-945.300048828125,1.62823723641799,-0.486085611512562,-0.0130536742782352,ST
6.7,-3.96867871284485,0.0388792939484119,7.4869556427002,0.525918006896973,-0.3125019967556,0.868907988071442,-1032.30004882812,5.70000028610229,-930.900024414062,1.62749524289576,-0.486853610185919,-0.0069573489098279,ST
6.73333333333333,-4.47052049636841,0.227892473340034,7.7818398475647,0.510673999786377,0.907018005847931,0.609759986400604,-1027.5,11.7000007629395,-918.900024414062,1.6141306799656,-0.522438579107487,-0.0305549638922327,ST
6.76666666666667,-4.79770469665527,0.348717361688614,8.22207355499268,0.708845973014832,1.2347639799118,0.632625997066498,-1027.5,14.7000007629395,-921.300048828125,1.60577085532162,-0.529847125992946,-0.0441805464552171,ST
6.8,-4.96039962768555,0.28411790728569,9.12646579742432,0.518296003341675,0.907018005847931,0.442075997591019,-1029.90002441406,8.10000038146973,-933.300048828125,1.61041789883966,-0.499524486474701,-0.0325929947527313,ST
6.83333333333333,-4.25578737258911,0.569432079792023,7.75073671340942,1.21189796924591,-0.0762199983000755,0.388722002506256,-1027.5,17.1000003814697,-942.900024414062,1.5914916188147,-0.500808838310138,-0.075288665133126,ST
6.86666666666667,-5.01064348220825,0.0311034340411425,8.34409427642822,-0.746955990791321,2.14178204536438,-0.602137982845306,-1025.10009765625,8.70000076293945,-921.300048828125,1.62833452102395,-0.544007958374373,-0.0027223828457984,ST
6.9,-4.96697902679443,-0.0472532957792282,9.5326042175293,-0.701223969459534,0.358233988285065,-0.25152599811554,-1013.10003662109,12.3000001907349,-930.900024414062,1.63206190412554,-0.481733707175172,0.0063016575205869,ST
6.93333333333333,-4.94604444503784,0.296678900718689,8.5546407699585,-0.594515979290009,-0.952749967575073,-0.121951997280121,-1010.70001220703,18.3000011444092,-921.300048828125,1.61211396036248,-0.521808111021794,-0.0329756424264987,ST
6.96666666666667,-4.08471822738647,0.116637878119946,7.60778045654297,-0.144817993044853,-0.228659987449646,0.586893975734711,-1037.10009765625,9.90000057220459,-938.100036621094,1.61657249032681,-0.492534269279253,-0.015774476660924,ST
7.0,-4.60271024703979,0.1722651720047,7.69211864471436,-0.0304879993200302,0.0228659994900227,0.342989981174469,-1022.70001220703,9.30000019073486,-933.300048828125,1.61109934660412,-0.538725620539472,-0.0226336173559285,ST
7.03333333333333,-5.25229358673096,0.496458679437637,8.81363677978516,-0.899396002292633,0.289635986089706,0.0152439996600151,-1008.30004882812,4.5,-918.900024414062,1.59152957947096,-0.53724395876264,-0.0544517997089997,ST
7.06666666666667,-4.97415685653687,0.465355217456818,7.94812393188477,0.221037998795509,-0.0990860015153885,0.46494197845459,-1029.90002441406,6.90000009536743,-926.100036621094,1.58720922653216,-0.557987646001883,-0.0593156063253363,ST
7.1,-5.09079504013062,0.366661638021469,8.59591293334961,-0.129574000835419,0.419209986925125,0.205793991684914,-1022.70001220703,2.70000004768372,-928.500061035156,1.59413152238661,-0.535287983347333,-0.0428362219474583,ST
7.13333333333333,-5.90965270996094,0.515001118183136,8.47807884216309,0.525918006896973,0.129574000835419,-0.243903994560242,-1022.70001220703,9.90000057220459,-940.500061035156,1.58738123471712,-0.607239407977318,-0.0610717928234783,ST
7.16666666666667,-5.416184425354,0.329576790332794,8.79210376739502,0.266770005226135,0.182927995920181,-0.0838419944047928,-1017.90002441406,5.70000028610229,-914.100036621094,1.60128680596556,-0.552806946472607,-0.0381242056763494,ST
7.2,-5.10694456100464,0.267369896173477,7.9696569442749,0.106707997620106,-0.175305992364883,-0.25152599811554,-1032.30004882812,14.7000007629395,-928.500061035156,1.60554845274948,-0.569161856532592,-0.0334844979487041,ST
7.23333333333333,-4.658935546875,0.15312460064888,7.98700332641602,0.266770005226135,-0.0228659994900227,-0.304879993200302,-1017.90002441406,12.9000005722046,-918.900024414062,1.6156462919143,-0.52825538957636,-0.019425183228542,ST
7.26666666666667,-5.17453479766846,0.194994613528252,7.89668369293213,0.807931959629059,0.0762199983000755,-0.259148001670837,-1025.10009765625,1.5,-928.500061035156,1.61646024641415,-0.579448038197855,-0.0257289319475598,ST
7.3,-4.99030685424805,0.297277063131332,7.4331226348877,1.04421401023865,1.02134799957275,-0.541162014007568,-1001.10003662109,12.3000001907349,-916.500061035156,1.61433065649044,-0.592533225758721,-0.0410179117521996,ST
7.33333333333333,-5.28997659683228,0.488084673881531,7.99597501754761,0.426831990480423,0.868907988071442,-0.381099998950958,-1010.70001220703,9.30000019073486,-909.300048828125,1.60643311476752,-0.585262095371849,-0.0610847325926674,ST
7.36666666666667,-5.40840864181519,0.187218755483627,8.42065715789795,-0.106707997620106,0.487807989120483,0.0609759986400604,-1008.30004882812,12.3000001907349,-926.100036621094,1.62673653967157,-0.571751000261286,-0.0223638453361977,ST
7.4,-5.33244466781616,0.0723752975463867,9.30351543426514,-0.205793991684914,0.0609759986400604,0.411587983369827,-1017.90002441406,6.90000009536743,-916.500061035156,1.63129630802643,-0.521165963395171,-0.0080080401067501,ST
7.43333333333333,-4.79232168197632,-0.0687864422798157,9.2227668762207,0.708845973014832,-1.57775402069092,0.282013982534409,-1013.10003662109,10.5,-926.100036621094,1.638418089347,-0.477003593136537,0.0057897435478018,ST
7.46666666666667,-4.11761617660522,0.0508421510457993,8.26095294952393,1.35671591758728,-2.080806016922,0.411587983369827,-1020.30004882812,5.70000028610229,-933.300048828125,1.63356950513163,-0.458892116487739,-0.0087588199917058,ST
7.5,-4.48128700256348,-0.126806303858757,8.02169513702393,0.708845973014832,-0.0152439996600151,-0.0533539988100529,-1022.70001220703,14.1000003814697,-938.100036621094,1.64674942724927,-0.508760595185059,0.0143233966279893,ST
7.53333333333333,-4.62783193588257,0.117236025631428,7.41218757629395,0.960371971130371,-0.137196004390717,0.0457319989800453,-1027.5,4.5,-916.500061035156,1.63367229020957,-0.557239554684458,-0.0171410573540535,ST
7.56666666666667,-5.20085334777832,0.0035888578277081,7.9995641708374,0.655492007732391,0.411587983369827,0.967993974685669,-1015.50006103516,5.70000028610229,-940.500061035156,1.63841503250646,-0.576946308118784,-0.0028709986639108,ST
7.6,-4.53512001037598,-0.426475942134857,8.2142972946167,0.480185985565186,-0.884151995182037,0.945127964019775,-1013.10003662109,-0.300000011920929,-921.300048828125,1.66151889991646,-0.503341445856129,0.0494592772452216,ST
7.63333333333333,-4.36764001846313,-0.34811919927597,7.68314647674561,-0.0533539988100529,-1.95885396003723,0.167683988809586,-1025.10009765625,-2.70000004768372,-935.700012207031,1.65784115095724,-0.512951848178839,0.0451732749670945,ST
7.66666666666667,-5.45626020431519,-0.154320880770683,8.00076007843018,-0.228659987449646,-0.403965979814529,0.0762199983000755,-1037.10009765625,5.70000028610229,-930.900024414062,1.64316677041285,-0.596989424424865,0.0198220249892238,ST
7.7,-5.46523237228394,-0.256603330373764,8.50499534606934,-0.121951997280121,0.243903994560242,0.320124000310898,-1020.30004882812,13.5000009536743,-935.700012207031,1.64664435081333,-0.571696901849606,0.0299000913240561,ST
7.73333333333333,-5.09258937835693,-0.156115308403969,9.29334735870361,-0.6250039935112,-0.525918006896973,0.342989981174469,-1020.30004882812,4.5,-916.500061035156,1.6363769051006,-0.501064480844051,0.0176677807571922,ST
7.76666666666667,-4.79172325134277,0.184228032827377,7.66879081726074,-0.144817993044853,-1.65397393703461,0.0990860015153885,-1027.5,3.30000019073486,-935.700012207031,1.61464824548103,-0.555061619960802,-0.0235131001319134,ST
7.8,-4.8975944519043,0.160900458693504,8.31358909606934,-0.0457319989800453,-0.396344006061554,0.609759986400604,-1029.90002441406,12.9000005722046,-942.900024414062,1.61308024076591,-0.531863264307859,-0.0199348488074156,ST
7.83333333333333,-4.81923770904541,0.282921612262726,8.54806137084961,0.556405961513519,-0.259148001670837,0.792688012123108,-1013.10003662109,7.50000047683716,-933.300048828125,1.60316639618814,-0.512864495339792,-0.0346481104487484,ST
7.86666666666667,-4.75104951858521,0.312230616807938,8.01272296905518,0.739333987236023,-0.106707997620106,0.769822001457214,-1029.90002441406,5.10000038146973,-921.300048828125,1.59801668867171,-0.534477243532694,-0.0409801661033518,ST
7.9,-4.6290283203125,0.192003890872002,7.95231103897095,0.594515979290009,0.182927995920181,0.594515979290009,-1017.90002441406,12.3000001907349,-928.500061035156,1.60423865553378,-0.527406699764907,-0.0259708760897245,ST
7.93333333333333,-4.80787324905396,-0.371446788311005,8.75920581817627,0.0685980021953583,-0.0609759986400604,0.167683988809586,-1015.50006103516,11.7000007629395,-940.500061035156,1.63665668707538,-0.501799153830208,0.0414029898510659,ST
7.96666666666667,-5.45865297317505,-0.0311034340411425,9.51047325134277,-0.411587983369827,-0.670735955238342,0.0990860015153885,-1025.10009765625,5.70000028610229,-935.700012207031,1.61639549598776,-0.519751584590907,0.0041675877253455,ST
8.0,-4.27851676940918,-0.0143554313108325,7.86318731307983,0.937505960464478,-0.647870004177094,0.78506600856781,-1037.10009765625,6.30000019073486,-935.700012207031,1.61262959621673,-0.497462061715421,-0.0004992456561429,ST
8.03333333333333,-4.10027027130127,-0.0741697251796722,7.99477910995483,0.99848198890686,0.891773998737335,0.617381989955902,-1027.5,2.70000004768372,-933.300048828125,1.61557656203197,-0.475705795780734,0.006896325338606,ST
8.06666666666667,-4.55246639251709,-0.257201462984085,7.67477226257324,1.2576299905777,0.78506600856781,-0.198172003030777,-1020.30004882812,2.10000014305115,-933.300048828125,1.6325295093084,-0.53575668546229,0.0312173987093666,ST
8.1,-4.98253107070923,0.540123105049133,9.03494930267334,0.289635986089706,0.0762199983000755,-0.274392008781433,-1022.70001220703,7.50000047683716,-923.700012207031,1.59013230113219,-0.503679149765878,-0.0591756577216155,ST
8.13333333333333,-4.34191989898682,0.135180309414864,8.9715461730957,-0.442075997591019,-0.769822001457214,0.419209986925125,-1017.90002441406,6.30000019073486,-933.300048828125,1.60683326922987,-0.450004915722183,-0.015171098618346,ST
8.16666666666667,-4.03088569641113,0.206957474350929,7.36912155151367,-0.0304879993200302,-1.6768399477005,1.05945801734924,-1015.50006103516,9.30000019073486,-926.100036621094,1.59482806720144,-0.49681208096804,-0.0288052290985484,ST
8.2,-5.18948841094971,0.236864611506462,9.37589073181152,-1.05183601379395,0.769822001457214,0.92988395690918,-1027.5,9.30000019073486,-930.900024414062,1.58795673538713,-0.506602767469102,-0.0243792220174162,ST
8.23333333333333,-4.14393472671509,0.0640012994408607,8.69699859619141,-0.381099998950958,0.0457319989800453,0.480185985565186,-1015.50006103516,6.90000009536743,-930.900024414062,1.59199368955552,-0.445471896260058,-0.0073033039546343,ST
8.26666666666667,-4.38917303085327,0.60950767993927,7.97264766693115,-0.6250039935112,-0.937505960464478,0.419209986925125,-1025.10009765625,3.30000019073486,-928.500061035156,1.5574052431613,-0.499677584213735,-0.0746795714938727,ST
8.3,-4.49145555496216,0.229088753461838,8.21549415588379,-0.518296003341675,0.0228659994900227,0.853663980960846,-1037.10009765625,12.3000001907349,-938.100036621094,1.5732860834928,-0.500141285301679,-0.0283607396576474,ST
8.33333333333333,-4.57998085021973,-0.0974973067641258,7.44687986373901,0.381099998950958,1.05183601379395,0.434453994035721,-1015.50006103516,8.10000038146973,-940.500061035156,1.59220285915318,-0.552807542144763,0.011664368260102,ST
8.36666666666667,-5.88393259048462,0.250621914863586,9.31069374084473,-0.266770005226135,1.34147191047668,0.106707997620106,-1022.70001220703,10.5,-918.900024414062,1.57055599625645,-0.565603604697759,-0.0261324165577633,ST
8.4,-4.44061326980591,0.0334960073232651,8.14551067352295,0.663114011287689,0.114329993724823,0.3125019967556,-1020.30004882812,5.10000038146973,-923.700012207031,1.58134260894267,-0.499725028710865,-0.0056908421830102,ST
8.43333333333333,-5.54059839248657,0.482103228569031,8.84593677520752,0.182927995920181,-1.2500079870224,0.198172003030777,-1032.30004882812,12.9000005722046,-918.900024414062,1.55666036793209,-0.55601041449476,-0.0542844465204775,ST
8.46666666666667,-4.93886661529541,0.202770471572876,8.62163257598877,0.289635986089706,-0.731711983680725,0.442075997591019,-1008.30004882812,14.1000003814697,-942.900024414062,1.57032098288744,-0.519030781047393,-0.0246250882248473,ST
8.5,-4.69243144989014,0.262584775686264,8.51037788391113,0.640248000621796,-0.541162014007568,0.480185985565186,-1020.30004882812,7.50000047683716,-928.500061035156,1.56596459253741,-0.502927663482098,-0.0323131254520025,ST
8.53333333333333,-4.48607206344604,0.371446788311005,7.30212926864624,1.01372599601746,0.106707997620106,0.533540010452271,-1008.30004882812,11.1000003814697,-938.100036621094,1.55598146735019,-0.549886033622226,-0.052909194808882,ST
8.56666666666667,-4.40711736679077,0.231481328606606,7.69510936737061,0.442075997591019,0.87652999162674,0.167683988809586,-1029.90002441406,6.90000009536743,-940.500061035156,1.56733782410427,-0.521790388405344,-0.031301266454395,ST
8.6,-5.25348949432373,0.445616513490677,8.66529750823975,0.228659987449646,0.533540010452271,-0.0304879993200302,-1022.70001220703,12.3000001907349,-947.700012207031,1.55784898603126,-0.545189272281141,-0.0516230417485591,ST
8.63333333333333,-5.06447649002075,0.0723752975463867,8.86806774139404,0.525918006896973,-0.121951997280121,0.640248000621796,-1025.10009765625,11.1000003814697,-930.900024414062,1.57703662469556,-0.518982033559132,-0.0102208920036104,ST
8.66666666666667,-4.6708984375,0.364867210388184,9.70965480804443,-0.0228659994900227,-1.28811800479889,0.647870004177094,-1020.30004882812,12.3000001907349,-933.300048828125,1.56028217193091,-0.446268570243928,-0.0378586918284199,ST
8.7,-5.031578540802,0.202770471572876,8.64496040344238,0.449698001146317,-0.0838419944047928,0.609759986400604,-1027.5,12.3000001907349,-923.700012207031,1.56422442634334,-0.526098359562834,-0.0249721386495494,ST
8.73333333333333,-4.39336013793945,-0.160900458693504,8.52413558959961,0.815553963184357,1.06708002090454,0.37347799539566,-1010.70001220703,13.5000009536743,-928.500061035156,1.58464531653482,-0.478290708909097,0.0166298860847183,ST
8.76666666666667,-3.40522789955139,-0.422887086868286,7.99657344818115,0.449698001146317,-0.579271972179413,0.0457319989800453,-1027.5,7.50000047683716,-940.500061035156,1.60031741711652,-0.402016010530462,0.0515758872271967,ST
8.8,-4.09548473358154,-0.0317015759646893,7.5910325050354,0.0838419944047928,-0.823175966739655,0.0457319989800453,-1029.90002441406,9.90000057220459,-933.300048828125,1.57984752509498,-0.492375277924228,0.0044992440470671,ST
8.83333333333333,-4.40592098236084,-0.300267785787582,7.66520214080811,0.274392008781433,-0.160062000155449,0.403965979814529,-1017.90002441406,12.9000005722046,-933.300048828125,1.59460383076274,-0.520847380537492,0.0379624982928778,ST
8.86666666666667,-5.12070178985596,0.0233275759965181,8.78253364562988,-0.152439996600151,-0.221037998795509,0.198172003030777,-1029.90002441406,8.10000038146973,-926.100036621094,1.57296932696032,-0.527403386171673,-0.0020939920840706,ST
8.9,-5.55495357513428,-0.0400755777955055,8.09167766571045,0.983237981796265,0.365855991840363,0.693601965904236,-1032.30004882812,4.5,-938.100036621094,1.57512229033604,-0.601329679365876,0.0023461462641926,ST
8.93333333333333,-5.15060901641846,-0.333763778209686,9.02238845825195,0.0990860015153885,-0.442075997591019,0.0381099991500378,-1015.50006103516,9.30000019073486,-928.500061035156,1.59335418050494,-0.518280292436619,0.0365065311695923,ST
8.96666666666667,-5.64228248596191,-0.0807493031024933,8.74784088134766,-0.152439996600151,-0.769822001457214,-0.647870004177094,-1017.90002441406,7.50000047683716,-938.100036621094,1.58280820932507,-0.570821732389622,0.0105442336514404,ST
9.0,-4.36524724960327,-0.135180309414864,7.07842397689819,0.693601965904236,-0.731711983680725,-0.320124000310898,-1022.70001220703,14.7000007629395,-935.700012207031,1.59082127016253,-0.551478180119171,0.018121967692534,ST
9.03333333333333,-4.84196758270264,0.307445496320724,8.98231315612793,0.670735955238342,0.3125019967556,0.739333987236023,-1034.70007324219,8.10000038146973,-933.300048828125,1.56186507691211,-0.495252504262617,-0.0355531299548318,ST
9.06666666666667,-4.73908662796021,0.456981241703033,7.60239696502686,1.2500079870224,-1.53964400291443,0.670735955238342,-1022.70001220703,3.30000019073486,-933.300048828125,1.54927376247526,-0.553348354790342,-0.0625966103729642,ST
9.1,-4.23963737487793,-0.0065795728005468,7.76628828048706,-0.167683988809586,-0.0533539988100529,0.960371971130371,-1025.10009765625,8.70000076293945,-933.300048828125,1.5746908327982,-0.500260300818891,-0.0005252988865523,ST
9.13333333333333,-5.30792093276978,-0.0113647161051631,9.36273193359375,-1.14329993724823,0.472563982009888,0.846041977405548,-1027.5,12.3000001907349,-933.300048828125,1.56737192060812,-0.516426091669223,0.0023475311141065,ST
9.16666666666667,-4.7127685546875,0.23925718665123,8.500807762146,0.152439996600151,-0.541162014007568,0.975615978240967,-1022.70001220703,6.90000009536743,-921.300048828125,1.54720012575031,-0.505190181612236,-0.0289475819930473,ST
9.2,-5.65484380722046,-0.585581958293915,9.18986892700195,-0.0914639979600906,2.44666194915771,1.12805593013763,-1027.5,3.90000009536743,-928.500061035156,1.58706689461469,-0.554507031691123,0.0615884980181422,ST
9.23333333333333,-3.8478536605835,0.371446788311005,11.3395948410034,-1.00610399246216,-1.32622802257538,0.3125019967556,-1020.30004882812,11.1000003814697,-935.700012207031,1.54351308539453,-0.327482041015264,-0.0301615184149876,ST
9.26666666666667,-5.02858781814575,0.39836323261261,5.80916452407837,1.40244793891907,-3.42227792739868,0.297257989645004,-1013.10003662109,5.10000038146973,-938.100036621094,1.52835286811903,-0.701545962801552,-0.0704605614976959,ST
9.3,-3.84964823722839,-0.479710668325424,8.33033752441406,-0.160062000155449,2.29422187805176,1.71494996547699,-1010.70001220703,13.5000009536743,-914.100036621094,1.58701505244649,-0.438772430202254,0.0555080284064861,ST
9.33333333333333,-4.24980592727661,0.714182734489441,9.62651252746582,-0.937505960464478,0.503051996231079,1.13567793369293,-1020.30004882812,7.50000047683716,-935.700012207031,1.52431426788913,-0.415702132964126,-0.0722101258141893,ST
9.36666666666667,-5.65903043746948,0.693845868110657,6.45994424819946,1.15854394435883,0.685979962348938,1.43293595314026,-1029.90002441406,12.3000001907349,-938.100036621094,1.50034933613658,-0.714773527112454,-0.110893861390974,ST
9.4,-3.94654726982117,0.0879270136356354,10.4603242874146,-1.07470202445984,3.10977602005005,2.21800184249878,-1017.90002441406,13.5000009536743,-928.500061035156,1.53781801571256,-0.370446482234948,-0.0092264729328135,ST
9.43333333333333,-6.33074522018433,1.04375946521759,8.54207992553711,-0.426831990480423,-3.68904781341553,-0.708845973014832,-1017.90002441406,11.1000003814697,-935.700012207031,1.48979132644308,-0.624825340159982,-0.117834047468431,ST
9.46666666666667,-4.08172750473022,0.25839775800705,6.96716928482056,0.861285984516144,1.60824191570282,1.73019397258759,-1020.30004882812,12.9000005722046,-933.300048828125,1.52484229411135,-0.533472808526729,-0.0413192389364256,ST
9.5,-4.75942373275757,0.263182908296585,9.68513107299805,-1.64635193347931,0.0990860015153885,-0.213415995240211,-1041.90002441406,9.90000057220459,-940.500061035156,1.52915834180444,-0.45746345083253,-0.0242629537926792,ST
9.53333333333333,-4.64398193359375,0.360680222511292,6.96238422393799,0.952749967575073,-1.82165801525116,-0.87652999162674,-1037.10009765625,11.7000007629395,-921.300048828125,1.52374299645467,-0.582961283354249,-0.0519565999624977,ST
9.56666666666667,-4.73011445999146,0.383409649133682,7.74774599075317,0.25152599811554,0.342989981174469,-0.0076219998300075,-1017.90002441406,9.30000019073486,-933.300048828125,1.52565658695959,-0.548529819104794,-0.0499161395283666,ST
9.6,-4.52016639709473,0.360680222511292,7.29375553131104,-0.274392008781433,-1.17378795146942,-0.746955990791321,-1039.5,11.7000007629395,-911.700012207031,1.53024575110972,-0.552238799167179,-0.0480830500937039,ST
9.63333333333333,-6.10345077514648,0.521580696105957,7.92300176620483,-0.0762199983000755,1.15854394435883,0.0914639979600906,-1022.70001220703,5.70000028610229,-923.700012207031,1.5191668301501,-0.656264535423904,-0.0656328524152467,ST
9.66666666666667,-5.22118997573853,0.495262384414673,8.88242340087891,0.358233988285065,1.05183601379395,0.518296003341675,-1013.10003662109,9.90000057220459,-933.300048828125,1.52197323464283,-0.533278274951584,-0.0569749152007297,ST
9.7,-5.39644575119019,0.388194799423218,9.55234336853027,-0.739333987236023,-0.266770005226135,0.114329993724823,-1015.50006103516,7.50000047683716,-928.500061035156,1.52753413326937,-0.513557061264315,-0.0395564380428875,ST
9.73333333333333,-4.17085075378418,0.119628593325615,7.97743272781372,0.289635986089706,-2.41617393493652,0.0076219998300075,-1010.70001220703,8.70000076293945,-923.700012207031,1.53997101268605,-0.477924595200482,-0.0157624849072916,ST
9.76666666666667,-3.88493871688843,0.208153754472733,7.29973697662354,0.221037998795509,-0.495429992675781,0.289635986089706,-1010.70001220703,13.5000009536743,-923.700012207031,1.53293253113613,-0.487906285100019,-0.0289839599086241,ST
9.8,-4.33593845367432,0.099889874458313,7.83806562423706,-0.350611984729767,1.07470202445984,-0.0152439996600151,-1025.10009765625,14.1000003814697,-935.700012207031,1.53979191138645,-0.506896157241354,-0.0123381253334711,ST
9.83333333333333,-3.82093739509583,-0.03828115016222,8.73109340667725,-0.434453994035721,-0.6250039935112,0.480185985565186,-1022.70001220703,7.50000047683716,-935.700012207031,1.5434002811987,-0.412587923856095,0.0045658705481224,ST
9.86666666666667,-4.61228036880493,0.399559497833252,7.54736804962158,0.655492007732391,-0.236281991004944,0.914639949798584,-1025.10009765625,8.10000038146973,-923.700012207031,1.51330907817471,-0.545782919497128,-0.0542045785043459,ST
9.9,-4.07036304473877,-0.214135184884071,7.48575925827026,0.830797970294952,1.89787793159485,1.15092194080353,-1015.50006103516,9.90000057220459,-928.500061035156,1.54929881852707,-0.501781354320785,0.025139197307908,ST
9.93333333333333,-5.53342056274414,-0.0771604403853416,7.83866357803345,1.28049600124359,2.23324584960938,0.0381099991500378,-1017.90002441406,6.90000009536743,-930.900024414062,1.54507463551261,-0.617830424966436,0.0076968103398445,ST
9.96666666666667,-6.66809797286987,0.0873288735747337,10.2743015289307,-0.152439996600151,2.22562384605408,0.46494197845459,-1020.30004882812,15.3000001907349,-933.300048828125,1.53274706608007,-0.579934918438637,-0.008623096396643,ST
10.0,-4.57100868225098,-0.736912131309509,8.86986255645752,-0.182927995920181,-3.07166600227356,0.282013982534409,-1020.30004882812,6.90000009536743,-930.900024414062,1.57487811305694,-0.469971940800683,0.0820956762792919,ST
10.0333333333333,-4.47231483459473,-0.245238617062569,7.32186794281006,-0.0,-3.03355598449707,-0.746955990791321,-1017.90002441406,9.30000019073486,-928.500061035156,1.5553567459741,-0.542113136919105,0.0345944463721772,ST
10.0666666666667,-4.76480674743652,-0.427672237157822,8.26394367218018,0.0228659994900227,-0.609759986400604,-0.46494197845459,-1020.30004882812,14.7000007629395,-933.300048828125,1.56676385488349,-0.521518645534484,0.0519487622342345,ST
10.1,-3.77547836303711,-0.455186814069748,8.71673774719238,0.0838419944047928,-1.265251994133,-0.724089980125427,-1027.5,11.7000007629395,-942.900024414062,1.57104694275414,-0.407379029900852,0.0525165783004861,ST
10.1333333333333,-3.68157005310059,-0.174657747149467,6.80866146087646,0.746955990791321,-1.61586391925812,-0.846041977405548,-1027.5,7.50000047683716,-940.500061035156,1.56590407694593,-0.491648519362455,0.0254348361175962,ST
10.1666666666667,-5.24571371078491,0.120226740837097,9.07143592834473,-0.144817993044853,0.327746003866196,-0.152439996600151,-1027.5,12.9000005722046,-923.700012207031,1.5478905676249,-0.524421892077657,-0.0123739586937736,ST
10.2,-6.40072774887085,0.421092659235001,9.19525146484375,0.99848198890686,0.861285984516144,0.0457319989800453,-1020.30004882812,9.30000019073486,-930.900024414062,1.53232498479491,-0.608068173917392,-0.0471607030813074,ST
10.2333333333333,-5.50470972061157,0.194396466016769,8.82440280914307,0.571649968624115,1.32622802257538,0.167683988809586,-1025.10009765625,6.90000009536743,-926.100036621094,1.54623987791499,-0.560527538079311,-0.0235219883312261,ST
10.2666666666667,-4.81923770904541,-0.100488021969795,7.85242080688477,0.663114011287689,0.640248000621796,-0.693601965904236,-1027.5,14.7000007629395,-945.300048828125,1.57092023448619,-0.551634096984306,0.0119569120875406,ST
10.3,-5.28040599822998,0.0490477234125137,8.28308391571045,0.685979962348938,-0.78506600856781,-1.2500079870224,-1025.10009765625,13.5000009536743,-923.700012207031,1.57067949675757,-0.565987648856277,-0.0055111351346572,ST
10.3333333333333,-4.29047966003418,-0.068188302218914,7.04911470413208,1.2500079870224,0.144817993044853,-0.731711983680725,-1020.30004882812,12.3000001907349,-933.300048828125,1.58597725493634,-0.547215337114131,0.0081070409747997,ST
10.3666666666667,-4.27014255523682,-0.0550291538238525,8.03485488891602,-0.0228659994900227,-0.0990860015153885,-0.670735955238342,-1003.50006103516,14.7000007629395,-921.300048828125,1.58934316130113,-0.489019333393759,0.0075194988143019,ST
10.4,-5.00406408309937,0.174059599637985,8.43202114105225,1.02134799957275,-0.609759986400604,0.259148001670837,-1017.90002441406,6.30000019073486,-928.500061035156,1.57660043473168,-0.533875822313571,-0.0223002559188647,ST
10.4333333333333,-5.15240335464478,-0.072973445057869,8.94104099273682,0.609759986400604,0.0990860015153885,0.685979962348938,-1022.70001220703,12.3000001907349,-923.700012207031,1.58901793353332,-0.523047525291506,0.0061578735564104,ST
10.4666666666667,-4.14752340316772,-0.560459971427917,10.0685405731201,-0.0762199983000755,-1.11281192302704,0.182927995920181,-1020.30004882812,4.5,-928.500061035156,1.60910316149643,-0.389931653027041,0.0549906421044109,ST
10.5,-3.76590824127197,0.14056359231472,8.81244087219238,-0.571649968624115,-4.50460195541382,-1.05183601379395,-1034.70007324219,3.90000009536743,-952.500061035156,1.5875818348453,-0.39590261410066,-0.0132858271615396,ST
10.5333333333333,-3.54638957977295,0.213537037372589,7.38467311859131,-0.182927995920181,-1.96647596359253,0.381099998950958,-1039.5,10.5,-928.500061035156,1.57867230093192,-0.443743737136357,-0.0287394467285594,ST
10.5666666666667,-3.74676752090454,0.270360618829727,7.22616529464722,-0.243903994560242,-0.198172003030777,0.342989981174469,-1027.5,17.1000003814697,-935.700012207031,1.57224692044131,-0.477333048904875,-0.0371829214400819,ST
10.6,-5.3061261177063,0.428270369768143,8.68383979797363,-0.320124000310898,1.28049600124359,0.472563982009888,-1029.90002441406,11.7000007629395,-940.500061035156,1.5622026844132,-0.549506796226971,-0.0491787516077583,ST
10.6333333333333,-4.80906963348389,0.202770471572876,9.13244724273682,0.388722002506256,-0.342989981174469,0.541162014007568,-1032.30004882812,13.5000009536743,-940.500061035156,1.57296107872656,-0.484455260592713,-0.0235534010860803,ST
10.6666666666667,-5.79480934143066,0.808091163635254,8.88242340087891,0.457319974899292,-0.815553963184357,0.213415995240211,-1029.90002441406,14.7000007629395,-947.700012207031,1.53968286398327,-0.573623131617926,-0.0908041583375013,ST
10.7,-5.89768981933594,0.530552804470062,9.32325458526611,0.533540010452271,0.731711983680725,0.685979962348938,-1046.70007324219,12.9000005722046,-940.500061035156,1.55466525507209,-0.564587027234161,-0.0588598818847722,ST
10.7333333333333,-3.67558860778809,0.001794428913854,8.14730548858643,-0.144817993044853,-0.442075997591019,0.0533539988100529,-1020.30004882812,10.5,-938.100036621094,1.58173952129914,-0.424766419516514,-0.0006857214064421,ST
10.7666666666667,-3.82093739509583,0.185424327850342,6.71116399765015,0.457319974899292,-2.0731840133667,0.167683988809586,-1032.30004882812,14.7000007629395,-930.900024414062,1.56999258846765,-0.512857660922056,-0.0282293763146317,ST
10.8,-3.10795092582703,-0.18183545768261,7.72621297836304,-0.548784017562866,-1.28049600124359,0.0685980021953583,-1025.10009765625,11.1000003814697,-930.900024414062,1.59066060316092,-0.38129052027871,0.0239789279344432,ST
10.8333333333333,-4.13197183609009,-0.0586180128157139,8.19575500488281,-0.144817993044853,-2.23324584960938,0.0990860015153885,-1039.5,8.70000076293945,-933.300048828125,1.5828178292734,-0.462062628906151,0.0075165488717232,ST
10.8666666666667,-4.74925518035889,-0.254210770130157,9.32684326171875,0.3125019967556,0.358233988285065,0.83841997385025,-1022.70001220703,8.70000076293945,-933.300048828125,1.58721790095112,-0.471380657317865,0.0257406626404974,ST
10.9,-5.12369251251221,0.0053832866251468,10.09485912323,-0.190549999475479,0.221037998795509,0.228659987449646,-1044.30004882812,6.30000019073486,-935.700012207031,1.57367245015687,-0.470077302627392,-8.47922498044249e-05,ST
10.9333333333333,-4.94424962997437,-0.206359326839447,8.91532135009766,0.548784017562866,0.503051996231079,0.335367977619171,-1039.5,10.5,-926.100036621094,1.583685134495,-0.506677497980915,0.0215961212244536,ST
10.9666666666667,-4.17324352264404,-0.772800743579865,9.31308650970459,-0.0609759986400604,0.472563982009888,0.487807989120483,-1037.10009765625,10.5,-933.300048828125,1.6078872640711,-0.421784071442439,0.081937403872653,ST
11.0,-4.4561653137207,-0.28710862994194,8.91233062744141,0.541162014007568,-1.17378795146942,0.213415995240211,-1039.5,13.5000009536743,-930.900024414062,1.58638060558972,-0.460926842490541,0.0316748421416937,ST
11.0333333333333,-3.96688413619995,-0.30325847864151,7.65563201904297,1.10518991947174,-0.419209986925125,0.853663980960846,-1041.90002441406,11.7000007629395,-935.700012207031,1.58699574617562,-0.476881867595322,0.0368146235249731,ST
11.0666666666667,-3.51468801498413,-0.241051614284515,7.59462118148804,0.0152439996600151,0.0838419944047928,0.304879993200302,-1032.30004882812,11.7000007629395,-933.300048828125,1.58287641789678,-0.433787452130841,0.0315028026890737,ST
11.1,-4.65115976333618,-0.419298231601715,8.87943267822266,-0.396344006061554,0.899396002292633,0.0,-1022.70001220703,11.7000007629395,-938.100036621094,1.58912727991432,-0.483109969493047,0.0477421332333362,ST
11.1333333333333,-4.45437049865723,-0.65735912322998,8.9416389465332,0.144817993044853,-0.327746003866196,0.0609759986400604,-1044.30004882812,10.5,-935.700012207031,1.60044429984564,-0.460814706905574,0.0727526095216751,ST
11.1666666666667,-4.07096099853516,-0.683079302310944,8.30820560455322,-0.182927995920181,-1.42531394958496,-0.602137982845306,-1044.30004882812,11.7000007629395,-935.700012207031,1.60713664193378,-0.451809083557803,0.082658628412218,ST
11.2,-5.00944757461548,-0.165087461471558,8.43979740142822,0.289635986089706,-0.0990860015153885,-0.457319974899292,-1037.10009765625,13.5000009536743,-926.100036621094,1.58109898433295,-0.534663128254483,0.0200991120746269,ST
11.2333333333333,-4.16427135467529,-0.315221339464188,8.47568607330322,1.02897000312805,0.0304879993200302,0.388722002506256,-1041.90002441406,8.10000038146973,-928.500061035156,1.58903253955298,-0.457167566026662,0.0349201454663986,ST
11.2666666666667,-5.52026128768921,-0.276940196752548,8.94403171539307,1.18903195858002,0.571649968624115,0.480185985565186,-1022.70001220703,5.70000028610229,-942.900024414062,1.5871906943628,-0.552594717151896,0.0284584106232462,ST
11.3,-4.15769195556641,0.0197387188673019,7.76628828048706,0.685979962348938,-1.00610399246216,0.0533539988100529,-1034.70007324219,4.5,-947.700012207031,1.57316139494121,-0.490320287063157,-0.0035145178728706,ST
11.3333333333333,-4.9095573425293,0.22011661529541,7.76808261871338,0.541162014007568,0.663114011287689,0.670735955238342,-1032.30004882812,11.1000003814697,-942.900024414062,1.55806170125894,-0.563663503847017,-0.0296947328474109,ST
11.3666666666667,-4.1965708732605,-0.0747678726911545,8.52892017364502,-0.160062000155449,0.777444005012512,0.945127964019775,-1032.30004882812,9.90000057220459,-926.100036621094,1.57041032403638,-0.459532162985171,0.0079124712615078,ST
11.4,-4.34491062164307,-0.294884473085403,8.54925727844238,-0.0838419944047928,-0.853663980960846,0.304879993200302,-1032.30004882812,5.10000038146973,-942.900024414062,1.57995004983218,-0.468399881413196,0.034055282054775,ST
11.4333333333333,-4.3401255607605,-0.133385881781578,7.77226972579956,0.0533539988100529,-0.746955990791321,-0.25152599811554,-1039.5,12.9000005722046,-906.900024414062,1.57376005508672,-0.507612793688246,0.0174242701359363,ST
11.4666666666667,-5.0734486579895,-0.13398402929306,9.21798133850098,-0.320124000310898,0.0838419944047928,-0.160062000155449,-1037.10009765625,9.90000057220459,-938.100036621094,1.57263384604618,-0.503290576515434,0.0152742136772454,ST
11.5,-5.16257190704346,-0.169872596859932,9.03913688659668,0.655492007732391,0.213415995240211,-0.25152599811554,-1029.90002441406,12.3000001907349,-926.100036621094,1.57735523197809,-0.519019335761245,0.0178680476176378,ST
11.5333333333333,-3.853835105896,-0.232677608728409,8.80825328826904,-0.152439996600151,-1.13567793369293,0.198172003030777,-1029.90002441406,6.30000019073486,-928.500061035156,1.57942229564096,-0.411281047340768,0.0264253348012794,ST
11.5666666666667,-4.00038003921509,0.0921140164136887,9.23114013671875,-0.0762199983000755,-2.45428395271301,0.853663980960846,-1029.90002441406,11.1000003814697,-926.100036621094,1.55927830526879,-0.404663936630275,-0.0101944677954143,ST
11.6,-3.00985550880432,0.241051614284515,7.84285068511963,0.274392008781433,-2.01220798492432,1.29574000835419,-1061.10009765625,14.1000003814697,-933.300048828125,1.54450288048989,-0.363212482066833,-0.0317653333697103,ST
11.6333333333333,-3.18331694602966,-0.0143554313108325,8.62342739105225,-0.106707997620106,-0.746955990791321,1.14329993724823,-1044.30004882812,9.30000019073486,-935.700012207031,1.54888822509987,-0.352459550764342,0.0007153665261408,ST
11.6666666666667,-4.11462545394897,0.189013183116913,8.83217906951904,0.175305992364883,-1.21189796924591,0.647870004177094,-1037.10009765625,9.90000057220459,-933.300048828125,1.53702872663539,-0.432750380391613,-0.0219123354977058,ST
11.7,-4.28988122940063,0.293090045452118,9.21379470825195,-0.137196004390717,-0.762199997901917,0.503051996231079,-1046.70007324219,6.30000019073486,-938.100036621094,1.52963445777414,-0.434179960177468,-0.0318430845061878,ST
11.7333333333333,-3.57868933677673,0.116039738059044,8.67785835266113,0.282013982534409,-1.00610399246216,0.647870004177094,-1041.90002441406,11.1000003814697,-947.700012207031,1.53352678936144,-0.38980431817974,-0.0144979598510892,ST
11.7666666666667,-4.08112955093384,0.463560789823532,8.23941898345947,0.556405961513519,-0.0762199983000755,0.571649968624115,-1051.5,19.5,-933.300048828125,1.51399238284664,-0.458567604927012,-0.0573316289941839,ST
11.8,-4.52554988861084,-0.0418700091540813,8.89139556884766,0.518296003341675,1.18140995502472,0.472563982009888,-1039.5,11.7000007629395,-938.100036621094,1.53964525931101,-0.472701103058675,0.0026390086392648,ST
11.8333333333333,-3.90886425971985,0.0358885787427425,7.99118995666504,0.175305992364883,-0.259148001670837,-0.0152439996600151,-1051.5,14.7000007629395,-940.500061035156,1.53694965930368,-0.454693844564366,-0.0046931495481552,ST
11.8666666666667,-4.58237314224243,0.0322997197508812,9.21259784698486,-0.221037998795509,0.914639949798584,0.3125019967556,-1053.90002441406,8.70000076293945,-926.100036621094,1.53510214273075,-0.463056394383624,-0.0034109685852631,ST
11.9,-4.98193264007568,0.18482618033886,9.83646106719971,0.129574000835419,-0.358233988285065,0.304879993200302,-1049.10009765625,15.3000001907349,-938.100036621094,1.52674102489807,-0.468047880527039,-0.0190825610325648,ST
11.9333333333333,-4.01593208312988,-0.0490477234125137,8.19515705108643,1.12043392658234,-0.777444005012512,0.106707997620106,-1044.30004882812,15.3000001907349,-928.500061035156,1.53940342500761,-0.454453626344418,0.0036557550285754,ST
11.9666666666667,-4.3126106262207,-0.337352633476257,7.8177285194397,0.556405961513519,1.10518991947174,-0.0609759986400604,-1044.30004882812,8.10000038146973,-930.900024414062,1.55920608236615,-0.505013808753254,0.0417697138572972,ST
12.0,-4.44659471511841,-0.0735715851187706,9.62172794342041,-0.708845973014832,0.3125019967556,0.175305992364883,-1041.90002441406,12.9000005722046,-942.900024414062,1.54149855646914,-0.434318621704475,0.0091259501327624,ST
12.0333333333333,-3.63192415237427,-0.415111213922501,8.536696434021,-0.0304879993200302,-0.754577994346619,0.510673999786377,-1053.90002441406,11.7000007629395,-942.900024414062,1.55396700204074,-0.400966644060172,0.0477648712176414,ST
12.0666666666667,-3.2927770614624,-0.415111213922501,8.1784086227417,-0.632625997066498,-1.32622802257538,0.487807989120483,-1041.90002441406,8.70000076293945,-928.500061035156,1.55058563844759,-0.38030317427516,0.051384846251964,ST
12.1,-4.66970205307007,-0.305052906274796,9.16713905334473,-0.190549999475479,-0.205793991684914,0.746955990791321,-1056.30004882812,12.3000001907349,-909.300048828125,1.53825079078536,-0.46949265638322,0.0331699478136743,ST
12.1333333333333,-3.50272512435913,-0.667527556419373,8.08629512786865,0.365855991840363,0.92988395690918,0.46494197845459,-1041.90002441406,9.90000057220459,-933.300048828125,1.55719785577566,-0.409746140292421,0.0810199876193963,ST
12.1666666666667,-3.6193630695343,-0.575413525104523,8.56181812286377,-0.533540010452271,-0.0533539988100529,0.0685980021953583,-1037.10009765625,10.5,-930.900024414062,1.55020413472453,-0.399136098297223,0.068079610063409,ST
12.2,-4.05062437057495,-0.596348524093628,9.10493278503418,-0.495429992675781,-1.06708002090454,0.381099998950958,-1037.10009765625,15.9000005722046,-938.100036621094,1.54512768673612,-0.41585696909976,0.065938413738303,ST
12.2333333333333,-4.47889471054077,-0.617881715297699,9.34658241271973,-0.358233988285065,-1.01372599601746,0.472563982009888,-1027.5,14.1000003814697,-942.900024414062,1.54118169181917,-0.44396302809287,0.0661883975454874,ST
12.2666666666667,-3.65704607963562,-0.771006286144257,8.86328220367432,-0.0228659994900227,0.0914639979600906,0.0381099991500378,-1053.90002441406,9.90000057220459,-942.900024414062,1.54920486222495,-0.390821711287818,0.0865422711267893,ST
12.3,-4.15410280227661,-0.590965270996094,8.74305534362793,0.663114011287689,0.640248000621796,-0.0990860015153885,-1044.30004882812,9.30000019073486,-928.500061035156,1.54375316255242,-0.443129088922422,0.0666990606855473,ST
12.3333333333333,-4.51837205886841,-0.369054228067398,8.55165004730225,0.6250039935112,0.266770005226135,-0.0152439996600151,-1029.90002441406,11.1000003814697,-938.100036621094,1.53482472902796,-0.485634145284454,0.0423688935356724,ST
12.3666666666667,-4.44838905334473,-0.306847333908081,9.29155254364014,-0.0990860015153885,-0.617381989955902,0.602137982845306,-1051.5,18.3000011444092,-947.700012207031,1.52621112718211,-0.445504365130655,0.0327238690623431,ST
12.4,-4.43582820892334,-0.0951047316193581,8.28906536102295,0.800309956073761,-0.525918006896973,0.907018005847931,-1025.10009765625,13.5000009536743,-926.100036621094,1.5127326995445,-0.490043079654891,0.0094374266698805,ST
12.4333333333333,-4.18640279769897,-0.236266478896141,8.72570991516113,0.320124000310898,1.50915598869324,0.495429992675781,-1046.70007324219,17.7000007629395,-935.700012207031,1.51844687565573,-0.450268252657519,0.0259580456968437,ST
12.4666666666667,-4.65534687042236,0.138171032071114,7.84464502334595,0.914639949798584,1.20427596569061,-0.0457319989800453,-1032.30004882812,12.9000005722046,-947.700012207031,1.50039315102483,-0.53655197378016,-0.0186092617466072,ST
12.5,-4.53930711746216,-0.352306216955185,8.97214412689209,-0.358233988285065,1.12805593013763,0.0304879993200302,-1039.5,14.7000007629395,-940.500061035156,1.5272794757141,-0.470458771117404,0.0395325881033633,ST
12.5333333333333,-4.00815582275391,-0.221312895417213,8.1425199508667,0.236281991004944,-1.11281192302704,-0.533540010452271,-1034.70007324219,4.5,-933.300048828125,1.52533411675411,-0.45550003447146,0.0273411817062313,ST
12.5666666666667,-4.53212928771973,-0.230285048484802,8.35605716705322,0.228659987449646,-0.198172003030777,-0.0685980021953583,-1037.10009765625,10.5,-916.500061035156,1.52630983412719,-0.495962319065391,0.0272128724467469,ST
12.6,-4.27971315383911,-0.187816888093948,9.15218544006348,0.0762199983000755,0.129574000835419,0.190549999475479,-1029.90002441406,7.50000047683716,-938.100036621094,1.52235276738511,-0.438271585790525,0.0203127320610826,ST
12.6333333333333,-4.01832437515259,-0.0083740018308162,9.58105373382568,0.144817993044853,-1.10518991947174,0.556405961513519,-1034.70007324219,11.1000003814697,-926.100036621094,1.51139929175414,-0.395719116659571,0.0004529372038955,ST
12.6666666666667,-3.75693607330322,0.0903195887804031,8.99008846282959,-0.388722002506256,-0.945127964019775,0.114329993724823,-1044.30004882812,10.5,-940.500061035156,1.50421303026016,-0.394170209067328,-0.0094438688280406,ST
12.7,-3.17374658584595,0.0430662930011749,7.95290899276733,0.564027965068817,-0.160062000155449,0.221037998795509,-1046.70007324219,8.70000076293945,-933.300048828125,1.50533608581373,-0.379595593658923,-0.0065878837670601,ST
12.7333333333333,-4.40951013565063,0.104076877236366,8.79569244384766,-0.0533539988100529,0.716467976570129,0.320124000310898,-1049.10009765625,15.3000001907349,-938.100036621094,1.50112941560857,-0.464866139448668,-0.0119572693006286,ST
12.7666666666667,-4.40711736679077,-0.0322997197508812,8.51516342163086,0.472563982009888,0.487807989120483,0.144817993044853,-1034.70007324219,14.7000007629395,-930.900024414062,1.50837607587315,-0.478328552973062,0.0027082750884092,ST
12.8,-5.86778259277344,0.136376604437828,9.63727951049805,0.3125019967556,0.701223969459534,0.37347799539566,-1034.70007324219,15.3000001907349,-930.900024414062,1.49867635472298,-0.547227446365631,-0.0148772271709718,ST
12.8333333333333,-3.70968270301819,-0.234472051262856,8.97334098815918,-0.457319974899292,-1.6692179441452,-0.0685980021953583,-1049.10009765625,9.90000057220459,-933.300048828125,1.51650207971125,-0.390146715755826,0.0266470492398402,ST
12.8666666666667,-4.06258726119995,-0.380418926477432,8.23642826080322,0.0457319989800453,-1.07470202445984,0.320124000310898,-1039.5,11.7000007629395,-930.900024414062,1.52215898840449,-0.455472659574917,0.045613264338804,ST
12.9,-2.77059817314148,-0.468345940113068,7.68195009231567,-0.129574000835419,-0.480185985565186,-0.0914639979600906,-1044.30004882812,12.9000005722046,-945.300048828125,1.52825827828911,-0.346057570361771,0.0609724978713572,ST
12.9333333333333,-3.93219184875488,0.0945065915584564,6.81763362884521,0.518296003341675,0.266770005226135,-0.114329993724823,-1049.10009765625,12.9000005722046,-923.700012207031,1.49896858005468,-0.521743793093385,-0.013804943372988,ST
12.9666666666667,-4.64039325714111,-0.369652360677719,9.56909084320068,0.0838419944047928,2.30184388160706,0.701223969459534,-1029.90002441406,13.5000009536743,-916.500061035156,1.51961270680616,-0.45610748048044,0.0373260089091758,ST
13.0,-5.18948841094971,-0.0173461455851793,10.0464096069336,0.266770005226135,-0.739333987236023,0.236281991004944,-1029.90002441406,13.5000009536743,-933.300048828125,1.502904340708,-0.475277300906043,0.0014950740041826,ST
13.0333333333333,-5.11591672897339,-0.0466551519930363,8.84234714508057,1.00610399246216,-0.0381099991500378,0.388722002506256,-1034.70007324219,7.50000047683716,-921.300048828125,1.5046521982232,-0.523842008273671,0.0031051522659435,ST
13.0666666666667,-4.19358015060425,-0.521580696105957,9.75930118560791,0.0076219998300075,0.350611984729767,0.289635986089706,-1039.5,9.90000057220459,-928.500061035156,1.52538395691345,-0.407410166610099,0.052592905766727,ST
13.1,-4.06198883056641,-0.322997212409973,8.26872825622559,0.632625997066498,-1.15854394435883,0.205793991684914,-1034.70007324219,11.7000007629395,-947.700012207031,1.51951516305659,-0.453739287408,0.037909759498229,ST
13.1333333333333,-2.69044709205627,-0.634031534194946,7.76030683517456,-0.0457319989800453,-1.03659200668335,0.990859985351562,-1039.5,14.7000007629395,-930.900024414062,1.52948028604589,-0.332531933301714,0.0804400984349366,ST
13.1666666666667,-3.47939777374268,-0.310436189174652,8.13235187530518,-0.388722002506256,-1.62348592281342,1.21951997280121,-1056.30004882812,12.3000001907349,-938.100036621094,1.50500793024967,-0.400763776594546,0.0382143494670125,ST
13.2,-4.13556051254272,-0.534141659736633,7.86737442016602,0.243903994560242,0.259148001670837,1.65397393703461,-1044.30004882812,13.5000009536743,-938.100036621094,1.507882350931,-0.482798046029877,0.0655771142641755,DLL
13.2333333333333,-4.51358699798584,-0.922934591770172,9.47219181060791,-1.03659200668335,0.655492007732391,0.815553963184357,-1046.70007324219,18.3000011444092,-935.700012207031,1.51460078904533,-0.444409860689893,0.0980772133298185,DLL
13.2666666666667,-4.69123554229736,-0.605918824672699,9.35615253448486,-1.05945801734924,-1.28049600124359,0.0,-1046.70007324219,17.7000007629395,-928.500061035156,1.49728495546435,-0.461529608132184,0.0667794565264114,DLL
13.3,-4.78574180603027,-0.901401460170746,8.69699859619141,-0.0152439996600151,-0.3125019967556,1.02897000312805,-1034.70007324219,18.9000015258789,-928.500061035156,1.50712603015041,-0.500154707044851,0.102029638889569,DLL
13.3333333333333,-4.94365167617798,-0.483299523591995,8.79808521270752,-0.403965979814529,-0.297257989645004,1.27287399768829,-1037.10009765625,5.70000028610229,-938.100036621094,1.47531989901787,-0.510808930500031,0.0547434250229684,DLL
13.3666666666667,-4.99628829956055,-0.156713455915451,8.79150581359863,0.304879993200302,0.236281991004944,2.40092992782593,-1053.90002441406,16.5,-928.500061035156,1.44331153365736,-0.517143124823448,0.0153267045426423,DLL
13.4,-4.15589714050293,-0.0370848625898361,7.8536171913147,0.0228659994900227,-0.342989981174469,3.49087595939636,-1049.10009765625,14.1000003814697,-938.100036621094,1.41729877221062,-0.48649952073819,0.0016160170375752,DLL
13.4333333333333,-4.06318521499634,-0.11484345048666,8.44637680053711,-1.58537602424622,-1.6768399477005,4.80185985565186,-1051.5,15.3000001907349,-930.900024414062,1.38733693190707,-0.445815354047189,0.0122502424101361,DLL
13.4666666666667,-4.14812135696411,0.0843381583690643,8.25437259674072,-3.38416790962219,-0.67835795879364,7.44669389724731,-1046.70007324219,18.3000011444092,-942.900024414062,1.32072410894201,-0.464203737021244,-0.0106273590720842,DLL
13.5,-4.05780172348022,-0.280529052019119,7.61675262451172,-3.47563195228577,0.0533539988100529,8.6281042098999,-1039.5,15.3000001907349,-942.900024414062,1.28269392216902,-0.48949100495408,0.0343305996388016,DLL
13.5333333333333,-3.9698748588562,-0.080151155591011,8.05040645599365,-3.7881338596344,0.167683988809586,9.02444744110107,-1051.5,17.7000007629395,-926.100036621094,1.20542539774428,-0.458828158403706,0.0089900917650499,DLL
13.5666666666667,-5.11232805252075,0.0568235814571381,8.63479232788086,-3.16313004493713,1.27287399768829,9.48176765441895,-1053.90002441406,17.1000003814697,-923.700012207031,1.13385502327727,-0.53566890001829,-0.0105661194952419,DLL
13.6,-4.34311628341675,-0.180639177560806,9.3238525390625,-4.08539199829102,0.914639949798584,8.62048149108887,-1049.10009765625,16.5,-921.300048828125,1.08730190856927,-0.438894665160551,0.0190291498667103,DLL
13.6333333333333,-4.80069541931152,0.217724040150642,9.2879638671875,-4.04728174209595,-0.640248000621796,7.9116358757019,-1034.70007324219,14.7000007629395,-938.100036621094,1.01247035048826,-0.475094128752708,-0.0229028477226316,DLL
13.6666666666667,-2.65874552726746,-0.687864422798157,8.77356147766113,-4.95429992675781,-1.28049600124359,6.90553188323975,-1046.70007324219,18.9000015258789,-935.700012207031,0.999853570405546,-0.294332995788587,0.0818562349645978,DLL
13.7,-3.23834609985352,0.0855344459414482,8.06835079193115,-5.09149599075317,-2.33995389938354,5.27442407608032,-1049.10009765625,20.7000007629395,-935.700012207031,0.928623777756793,-0.376590489384989,-0.0041917937861018,DLL
13.7333333333333,-2.89740467071533,-0.928916037082672,8.2741117477417,-3.66618180274963,-0.609759986400604,5.53357172012329,-1051.5,16.5,-933.300048828125,0.928571260476765,-0.3353973826526,0.113359610420316,DLL
13.7666666666667,-3.70310306549072,-0.0149535741657019,8.37818813323975,-3.86435389518738,-1.28049600124359,4.07014799118042,-1049.10009765625,29.1000003814697,-933.300048828125,0.852791143514375,-0.413453304334427,0.0062582379224626,DLL
13.8,-4.05002593994141,-0.626255691051483,9.2401123046875,-3.20123982429504,0.0,4.67990779876709,-1046.70007324219,30.3000011444092,-918.900024414062,0.842681575211298,-0.412801378614429,0.0689179019867201,DLL
13.8333333333333,-4.06497955322266,-0.480308800935745,9.50628662109375,-3.64331603050232,-0.739333987236023,3.58234000205994,-1037.10009765625,21.9000015258789,-926.100036621094,0.803010058423351,-0.402736733090866,0.054242310754931,DLL
13.8666666666667,-3.50093078613281,-1.02820777893066,8.94881725311279,-2.33995389938354,0.0304879993200302,3.66618180274963,-1039.5,27.3000011444092,-921.300048828125,0.799108039865981,-0.371851046502279,0.115249616420469,DLL
13.9,-4.09787750244141,-1.18611752986908,9.3836669921875,-1.02897000312805,0.632625997066498,3.15550804138184,-1025.10009765625,32.1000022888184,-918.900024414062,0.780058441004043,-0.410383539896465,0.125158138030529,DLL
13.9333333333333,-3.08761405944824,-0.812876284122467,9.45125675201416,-0.952749967575073,-0.0228659994900227,1.60061991214752,-1037.10009765625,28.5000019073486,-926.100036621094,0.754198346181697,-0.315713521852463,0.0868609168883663,DLL
13.9666666666667,-3.49494934082031,-0.888840436935425,8.56480884552002,1.60824191570282,0.78506600856781,1.13567793369293,-1037.10009765625,31.5000019073486,-933.300048828125,0.756046126646125,-0.386252843540072,0.0996934439643145,DLL
14.0,-4.72592782974243,0.412120521068573,8.76758003234863,1.96647596359253,0.495429992675781,1.05945801734924,-1027.5,31.5000019073486,-928.500061035156,0.691946279239169,-0.493412369505895,-0.0494659132426061,DLL
14.0333333333333,-4.01473569869995,-0.804502308368683,8.44817161560059,3.46038794517517,2.09605002403259,1.27287399768829,-1029.90002441406,27.9000015258789,-923.700012207031,0.757057561591467,-0.44618484013373,0.0868343441341243,DLL
14.0666666666667,-4.21571159362793,-0.0490477234125137,9.52602481842041,1.2347639799118,0.449698001146317,-0.792688012123108,-1032.30004882812,26.7000007629395,-933.300048828125,0.730646602184752,-0.417717454086309,0.0044610964224548,DLL
14.1,-4.97894191741943,0.247033044695854,9.47996807098389,0.617381989955902,-0.335367977619171,-0.853663980960846,-1034.70007324219,27.9000015258789,-918.900024414062,0.724393982707431,-0.482349521350104,-0.0260681577219052,DLL
14.1333333333333,-3.80897450447083,-0.446812808513641,7.55334949493408,2.37044191360474,0.304879993200302,-0.541162014007568,-1029.90002441406,26.1000003814697,-928.500061035156,0.771136324567557,-0.467059954924585,0.054452456929911,DLL
14.1666666666667,-4.09010171890259,-0.672312676906586,8.55523872375488,1.03659200668335,0.6250039935112,-0.846041977405548,-1034.70007324219,22.5,-923.700012207031,0.789044415184865,-0.446000763464644,0.0770847044693882,DLL
14.2,-3.74975824356079,-0.933103024959564,8.09945392608643,0.0990860015153885,-0.442075997591019,-1.6692179441452,-1027.5,20.7000007629395,-923.700012207031,0.814810412930912,-0.430176421373265,0.115346522277917,DLL
14.2333333333333,-4.41309881210327,0.0945065915584564,7.02339458465576,0.297257989645004,-0.891773998737335,-1.34147191047668,-1029.90002441406,26.1000003814697,-909.300048828125,0.763027351152561,-0.557867925880446,-0.0108257229246483,DLL
14.2666666666667,-4.83718204498291,-0.906784772872925,8.05638790130615,1.2500079870224,1.18903195858002,0.396344006061554,-1032.30004882812,25.5000019073486,-918.900024414062,0.827634962698305,-0.540352889789842,0.108169381517118,DLL
14.3,-5.28399515151978,-0.61847984790802,9.84842395782471,-0.78506600856781,-0.205793991684914,-0.670735955238342,-1034.70007324219,28.5000019073486,-933.300048828125,0.807645299316548,-0.491795057096471,0.0652159614885105,DLL
14.3333333333333,-4.46633338928223,-0.688462555408478,8.67068004608154,0.381099998950958,-1.63872992992401,-0.800309956073761,-1027.5,26.7000007629395,-909.300048828125,0.818937290259767,-0.471671001808256,0.0789973723712326,DLL
14.3666666666667,-4.66132831573486,-0.587376415729523,8.94821929931641,0.617381989955902,-0.914639949798584,-0.358233988285065,-1032.30004882812,23.7000007629395,-926.100036621094,0.816236292070561,-0.477686602737295,0.064844341559231,DLL
14.4,-4.57519578933716,-0.247033044695854,8.04502296447754,1.04421401023865,-0.152439996600151,0.236281991004944,-1029.90002441406,29.7000007629395,-942.900024414062,0.801144780193958,-0.516343689641619,0.0289076821244735,DLL
14.4333333333333,-3.19827055931091,-0.778183996677399,7.44329118728638,0.0914639979600906,0.0,-0.297257989645004,-1032.30004882812,30.3000011444092,-921.300048828125,0.836299871608887,-0.405197929092361,0.103360632510923,DLL
14.4666666666667,-4.78454542160034,-0.0197387188673019,8.48764896392822,0.525918006896973,-0.0228659994900227,0.442075997591019,-1037.10009765625,24.3000011444092,-935.700012207031,0.790564231522571,-0.511966160823006,0.0023001957988092,DLL
14.5,-5.10574817657471,-0.1722651720047,8.80286979675293,0.952749967575073,0.106707997620106,0.975615978240967,-1032.30004882812,24.9000015258789,-916.500061035156,0.795382605199815,-0.525556354160774,0.0167386283737269,DLL
14.5333333333333,-5.7003026008606,0.572422802448273,9.88191986083984,-0.487807989120483,-0.472563982009888,-0.495429992675781,-1027.5,24.3000011444092,-942.900024414062,0.760458171688998,-0.521778319134072,-0.0555949611329035,DLL
14.5666666666667,-3.99439883232117,-0.52935653924942,7.81234550476074,2.03507399559021,-0.106707997620106,0.579271972179413,-1025.10009765625,26.7000007629395,-928.500061035156,0.819439343302611,-0.472248579974818,0.0621652495533688,DLL
14.6,-4.00995063781738,-0.711790144443512,8.15388488769531,0.289635986089706,0.213415995240211,-0.190549999475479,-1044.30004882812,29.1000003814697,-938.100036621094,0.832302114094968,-0.456096060496171,0.0864494112148575,DLL
14.6333333333333,-3.65285921096802,-0.69264954328537,8.16764259338379,-0.0076219998300075,-0.259148001670837,-0.0838419944047928,-1029.90002441406,24.3000011444092,-918.900024414062,0.831891211251935,-0.419211190257787,0.0846841680728441,DLL
14.6666666666667,-4.17264556884766,-0.513804793357849,8.3040189743042,0.0762199983000755,-0.228659987449646,0.449698001146317,-1025.10009765625,24.9000015258789,-935.700012207031,0.819303113750239,-0.464183816074735,0.0614355211419627,DLL
14.7,-4.05780172348022,-0.299071490764618,9.40639591217041,-0.975615978240967,-0.205793991684914,0.213415995240211,-1027.5,32.1000022888184,-926.100036621094,0.803752407300828,-0.407441902908889,0.0336503156032847,DLL
14.7333333333333,-4.12000894546509,0.193200185894966,8.95719146728516,-0.617381989955902,-1.03659200668335,0.304879993200302,-1025.10009765625,33.3000030517578,-904.500061035156,0.778199460150096,-0.429048418735726,-0.0203081066118494,DLL
14.7666666666667,-3.1946816444397,-0.425877809524536,8.39433860778809,0.144817993044853,-0.175305992364883,0.518296003341675,-1034.70007324219,30.9000015258789,-921.300048828125,0.802270186690982,-0.36354552308762,0.0494864591588551,DLL
14.8,-4.11103677749634,-0.354698777198792,8.90156364440918,-0.243903994560242,-0.685979962348938,0.0381099991500378,-1039.5,24.3000011444092,-928.500061035156,0.79772077805887,-0.430327172085877,0.0403163034185284,DLL
14.8333333333333,-3.83529281616211,-0.480308800935745,8.24540042877197,-0.594515979290009,-0.830797970294952,-0.731711983680725,-1041.90002441406,27.3000011444092,-923.700012207031,0.808126635657954,-0.433171295318488,0.0595360128111947,DLL
14.8666666666667,-5.01483058929443,-0.295482635498047,9.03973484039307,0.0685980021953583,-0.144817993044853,0.205793991684914,-1039.5,34.5,-928.500061035156,0.794964630009019,-0.505263336048917,0.0326455093083228,DLL
14.9,-4.21690797805786,-0.488682806491852,9.71085071563721,-0.564027965068817,-1.10518991947174,0.0533539988100529,-1034.70007324219,24.9000015258789,-921.300048828125,0.800974725076719,-0.408486596475552,0.05096220540346,DLL
14.9333333333333,-3.18212056159973,-0.960019469261169,8.47867679595947,-0.0990860015153885,-1.09756803512573,-0.282013982534409,-1039.5,32.1000022888184,-933.300048828125,0.824829823435173,-0.35539194572949,0.112573388805136,DLL
14.9666666666667,-3.45008873939514,-0.204564899206161,8.0294713973999,0.693601965904236,0.228659987449646,0.655492007732391,-1049.59375,30.9000015258789,-930.900024414062,0.790146581530133,-0.405534854807985,0.0248828630930829,DLL
15.0,-5.26963949203491,-0.532945394515991,9.13424110412598,0.769822001457214,2.05031800270081,1.28811800479889,-1034.70007324219,26.7000007629395,-926.100036621094,0.799531215900271,-0.524749313774022,0.055353977518949,DLL
15.0333333333333,-3.50870656967163,-0.28112718462944,8.88421726226807,-0.266770005226135,0.396344006061554,0.708845973014832,-1037.10009765625,30.3000011444092,-930.900024414062,0.784577868839877,-0.378498238453843,0.0318705559243534,DLL
15.0666666666667,-4.10146617889404,0.0197387188673019,7.82251358032227,1.69970595836639,1.59299790859222,1.6615959405899,-1046.70007324219,24.9000015258789,-923.700012207031,0.763864408840587,-0.48436298169267,-0.006515919172497,DLL
15.1,-5.73559284210205,0.265575468540192,8.24839115142822,2.78965187072754,2.66007804870605,2.57623600959778,-1034.70007324219,26.1000003814697,-921.300048828125,0.742075184989048,-0.610269456290097,-0.0398577173730767,DLL
15.1333333333333,-4.62125253677368,-0.910971760749817,9.03794002532959,0.685979962348938,2.30946588516235,1.83690190315247,-1013.10003662109,31.5000019073486,-923.700012207031,0.805584778467262,-0.476626209099214,0.0962492181123595,DLL
15.1666666666667,-4.73789024353027,-0.444420218467712,8.56301498413086,-1.05183601379395,-0.480185985565186,0.0228659994900227,-1029.90002441406,27.3000011444092,-914.100036621094,0.782296704856405,-0.503639959376755,0.0541730626533264,DLL
15.2,-4.56981229782104,-0.269164323806763,9.02657604217529,-1.6692179441452,-1.12043392658234,0.144817993044853,-1020.30004882812,24.9000015258789,-926.100036621094,0.766422754015234,-0.466976102039542,0.0328210968172919,DLL
15.2333333333333,-3.41719079017639,-1.57969558238983,6.39235401153564,1.12043392658234,-0.556405961513519,1.36433792114258,-1025.10009765625,28.5000019073486,-914.100036621094,0.854436910495115,-0.478282608637623,0.236435627891311,DLL
15.2666666666667,-3.29576778411865,-1.13587355613708,7.51985359191895,-1.2576299905777,-0.983237981796265,0.304879993200302,-1029.90002441406,22.5,-938.100036621094,0.812488326397087,-0.408202590695621,0.15276113955762,DLL
15.3,-4.62783193588257,-0.720164120197296,8.38297367095947,-0.830797970294952,-0.510673999786377,0.693601965904236,-1022.70001220703,26.1000003814697,-906.900024414062,0.776608152814418,-0.501267477159859,0.087061578357358,DLL
15.3333333333333,-4.78095674514771,-0.748276829719543,8.3159818649292,0.365855991840363,0.205793991684914,1.21189796924591,-1034.70007324219,30.3000011444092,-921.300048828125,0.771281864158398,-0.520402775103603,0.0879049044346816,DLL
15.3666666666667,-4.99150323867798,-0.656760990619659,9.40878868103027,-0.533540010452271,-0.342989981174469,0.243903994560242,-1020.30004882812,28.5000019073486,-909.300048828125,0.759815660931827,-0.486606576147801,0.0705821530633387,DLL
15.4,-5.18829202651978,0.0867307335138321,8.61804389953613,0.510673999786377,-1.05183601379395,1.16616594791412,-1032.30004882812,33.9000015258789,-921.300048828125,0.714865333557965,-0.539396168961961,-0.0111164171352658,DLL
15.4333333333333,-4.87067842483521,-0.477916240692139,9.08638954162598,-0.320124000310898,0.221037998795509,1.01372599601746,-1020.30004882812,32.7000007629395,-918.900024414062,0.739186780144403,-0.492548595077423,0.051413281807627,DLL
15.4666666666667,-4.28569459915161,-0.457579374313354,8.03664875030518,0.335367977619171,-0.259148001670837,1.60824191570282,-1027.5,29.7000007629395,-911.700012207031,0.731731878461163,-0.488960662657632,0.0547641490806078,DLL
15.5,-2.67489528656006,-0.279930919408798,7.14601421356201,-0.716467976570129,-0.960371971130371,0.190549999475479,-1029.90002441406,27.9000015258789,-916.500061035156,0.722457804231846,-0.357237191623324,0.0403489752539551,DLL
15.5333333333333,-5.19786262512207,-0.14056359231472,7.88830947875977,1.27287399768829,0.800309956073761,1.93598794937134,-1032.30004882812,31.5000019073486,-921.300048828125,0.703373815054675,-0.582299421840627,0.0136179024684577,DLL
15.5666666666667,-4.38079929351807,-0.0861325860023499,8.20532512664795,0.0914639979600906,-1.09756803512573,0.602137982845306,-1025.10009765625,33.3000030517578,-926.100036621094,0.69833768734959,-0.48960946622779,0.0098047937470638,DLL
15.6,-4.3066291809082,-0.509019672870636,8.57737064361572,-0.891773998737335,-0.198172003030777,0.602137982845306,-1032.30004882812,30.3000011444092,-899.700012207031,0.715238347912975,-0.464644123103005,0.059684484316426,DLL
15.6333333333333,-3.69771981239319,-0.65735912322998,7.8859167098999,0.236281991004944,-0.365855991840363,0.693601965904236,-1027.5,29.1000003814697,-918.900024414062,0.721357011070924,-0.436884751113561,0.0819352786479399,DLL
15.6666666666667,-5.38149213790894,0.061608724296093,8.620436668396,0.823175966739655,0.396344006061554,0.983237981796265,-1017.90002441406,35.7000007629395,-918.900024414062,0.675142048509781,-0.557683883890061,-0.0087926388949306,DLL
15.7,-3.48836970329285,-2.05462121963501,8.20771789550781,1.45580196380615,0.342989981174469,1.53202199935913,-1017.90002441406,27.3000011444092,-930.900024414062,0.785208530338223,-0.394116998668381,0.239304368742204,DLL
15.7333333333333,-4.51837205886841,0.899607002735138,8.93446159362793,-0.777444005012512,-4.46649169921875,-0.891773998737335,-1013.10003662109,28.5000019073486,-911.700012207031,0.648995658301749,-0.458309914404736,-0.0956725568844453,DLL
15.7666666666667,-3.42676115036011,-1.53842377662659,8.92608737945557,-0.952749967575073,0.449698001146317,0.0914639979600906,-1027.5,30.3000011444092,-928.500061035156,0.752909513471723,-0.363810883792804,0.169150758604404,DLL
15.8,-4.07813882827759,-1.17953789234161,9.93276214599609,-1.51677799224854,-0.37347799539566,-0.342989981174469,-1022.70001220703,30.3000011444092,-921.300048828125,0.733464786620434,-0.386223904389643,0.12148165862746,DLL
15.8333333333333,-3.49614572525024,-0.971982300281525,8.06296730041504,-0.144817993044853,-0.87652999162674,-0.388722002506256,-1027.5,34.5,-911.700012207031,0.73445889486376,-0.404772160978105,0.120440519422906,DLL
15.8666666666667,-4.13615846633911,-0.247631192207336,8.25796222686768,0.739333987236023,-0.602137982845306,-0.0838419944047928,-1037.10009765625,27.3000011444092,-923.700012207031,0.698701586251737,-0.462411194629559,0.0298953885830826,DLL
15.9,-5.57947778701782,-0.0275145769119263,9.46501445770264,1.52439999580383,0.495429992675781,1.29574000835419,-1039.5,36.3000030517578,-909.300048828125,0.68173487199261,-0.532646953402506,-0.0006912277204717,DLL
15.9333333333333,-4.83299541473389,0.0807493031024933,8.30102825164795,0.0381099991500378,0.0152439996600151,-1.44055795669556,-1025.10009765625,32.1000022888184,-926.100036621094,0.685921889408258,-0.527333170635495,-0.0082362815679296,DLL
15.9666666666667,-5.10036516189575,-0.0388792939484119,9.13842868804932,0.365855991840363,-0.396344006061554,-0.487807989120483,-1049.10009765625,36.3000030517578,-909.300048828125,0.695781937865656,-0.508591639813119,0.0039410286355302,DLL
16.0,-4.74267578125,-0.239855334162712,9.38546180725098,1.40244793891907,-0.274392008781433,1.08994603157043,-1039.5,29.7000007629395,-926.100036621094,0.702053158962637,-0.467690530855144,0.0219799122269847,DLL
16.0333333333333,-4.91912794113159,0.162096738815308,8.61864185333252,1.33385002613068,0.503051996231079,-0.480185985565186,-1025.10009765625,35.7000007629395,-918.900024414062,0.688842107883859,-0.5188237878064,-0.0201332804554292,DLL
16.0666666666667,-2.63721227645874,-1.86441159248352,8.3817777633667,0.129574000835419,0.289635986089706,-1.87501192092896,-1041.90002441406,24.9000015258789,-916.500061035156,0.797315990495056,-0.299510625662635,0.218047933587509,DLL
16.1,-4.07335376739502,-0.945065915584564,7.67895936965942,2.04269599914551,-2.27897787094116,-0.586893975734711,-1044.30004882812,24.3000011444092,-918.900024414062,0.767141871431763,-0.478657138367862,0.120264015536244,DLL
16.1333333333333,-3.6654200553894,-0.563450694084167,8.24599933624268,1.49391198158264,0.541162014007568,-1.22714197635651,-1034.70007324219,30.3000011444092,-926.100036621094,0.755992581964671,-0.418741319195353,0.0670585439390816,DLL
16.1666666666667,-4.16666412353516,-0.193798318505287,9.2760009765625,2.19513607025146,1.28811800479889,-2.08842802047729,-1025.10009765625,25.5000019073486,-928.500061035156,0.756511570366688,-0.424237897055049,0.0190258317055875,DLL
16.2,-3.92680859565735,-1.69752979278564,8.58993148803711,2.11129403114319,0.769822001457214,-2.66007804870605,-1029.90002441406,24.3000011444092,-916.500061035156,0.851028746247491,-0.422101868844206,0.192284577660942,DLL
16.2333333333333,-3.75394535064697,-0.983945190906525,9.73238468170166,-0.304879993200302,-1.18903195858002,-5.99851369857788,-1046.70007324219,27.3000011444092,-923.700012207031,0.851449720894321,-0.363962461578359,0.106241393506351,DLL
16.2666666666667,-4.73908662796021,-1.01205790042877,7.7938027381897,3.803377866745,0.228659987449646,-4.32929611206055,-1037.10009765625,29.1000003814697,-918.900024414062,0.895980127172021,-0.539863782236193,0.126631311191091,DLL
16.3,-4.53332567214966,-1.23815596103668,8.59112739562988,2.68294382095337,1.15092194080353,-5.35826587677002,-1037.10009765625,26.1000003814697,-923.700012207031,0.94620502328349,-0.482395595897236,0.143351851214463,DLL
16.3333333333333,-3.40104103088379,-1.20705246925354,8.87883472442627,1.76068198680878,-0.137196004390717,-6.6540060043335,-1037.10009765625,22.5,-916.500061035156,0.986167654776892,-0.362424698607443,0.136544255423953,DLL
16.3666666666667,-4.07993316650391,-1.17654716968536,7.03715229034424,4.83234786987305,-0.67835795879364,-4.32929611206055,-1049.10009765625,29.7000007629395,-930.900024414062,1.03763854129465,-0.515924709587894,0.16107592195184,DLL
16.4,-4.76420879364014,-0.503636360168457,9.28975868225098,2.60672402381897,0.716467976570129,-4.62655401229858,-1049.10009765625,23.7000007629395,-935.700012207031,1.02109025966202,-0.474581157549162,0.0550897334888542,DLL
16.4333333333333,-4.11462545394897,-0.671116411685944,8.53729438781738,3.38416790962219,1.19665396213531,-4.59606599807739,-1051.5,23.1000003814697,-938.100036621094,1.07090623549885,-0.449540297912747,0.0763576539571566,DLL
16.4666666666667,-4.20973014831543,-0.409727931022644,7.7997841835022,2.66770005226135,0.114329993724823,-4.51984596252441,-1049.10009765625,22.5,-928.500061035156,1.09318846730167,-0.493574410709271,0.0523548163733326,DLL
16.5,-4.33534002304077,-0.492869794368744,9.88491058349609,2.40092992782593,0.724089980125427,-4.42075967788696,-1051.5,29.1000003814697,-918.900024414062,1.12376575903829,-0.414719035566941,0.0491230780580433,DLL
16.5333333333333,-4.50760555267334,0.0735715851187706,7.70228719711304,4.87045812606812,1.40244793891907,-3.58996200561523,-1034.70007324219,21.9000015258789,-928.500061035156,1.12995430340709,-0.530542303450104,-0.0136235491681344,DLL
16.5666666666667,-4.47829627990723,-0.187218755483627,8.40091800689697,2.62196803092957,2.0579400062561,-3.26983785629272,-1041.90002441406,15.3000001907349,-930.900024414062,1.1737462181693,-0.49352467247386,0.0204816473768809,DLL
16.6,-3.9076681137085,-0.454588651657104,8.97334098815918,1.76830399036407,1.30336201190948,-3.76526784896851,-1032.30004882812,26.1000003814697,-938.100036621094,1.21423451489508,-0.413035431704933,0.0501844236250072,DLL
16.6333333333333,-3.93159365653992,-0.488682806491852,7.75671815872192,1.92836594581604,0.457319974899292,-3.33081388473511,-1034.70007324219,19.5,-928.500061035156,1.24385207207792,-0.468078659822379,0.0623356650092548,DLL
16.6666666666667,-4.86110782623291,0.525767683982849,8.3040189743042,1.16616594791412,0.442075997591019,-3.31556987762451,-1044.30004882812,16.5,-926.100036621094,1.20918925342889,-0.529478363129404,-0.0611237532677361,DLL
16.7,-4.23545026779175,0.0951047316193581,8.83098316192627,1.73019397258759,2.27897787094116,-2.37044191360474,-1032.30004882812,19.5,-930.900024414062,1.25199666182772,-0.451798333847644,-0.0121380880336317,DLL
16.7333333333333,-3.27543091773987,0.130395174026489,8.71255016326904,0.708845973014832,0.0838419944047928,-2.33995389938354,-1034.70007324219,17.7000007629395,-926.100036621094,1.26645162241314,-0.360890575161546,-0.0146154082941595,DLL
16.7666666666667,-4.9454460144043,0.126208171248436,8.72152233123779,0.975615978240967,0.525918006896973,-2.080806016922,-1029.90002441406,9.90000057220459,-935.700012207031,1.2816413840806,-0.515124277693777,-0.014166644963143,DLL
16.8,-4.71336650848389,-0.427672237157822,9.20123291015625,0.243903994560242,0.388722002506256,-1.88263392448425,-1029.90002441406,14.7000007629395,-928.500061035156,1.32279524053678,-0.473865653455419,0.0471948537898439,DLL
16.8333333333333,-3.51289367675781,-0.821848452091217,8.73288726806641,0.160062000155449,-0.419209986925125,-2.0731840133667,-1025.10009765625,19.5,-933.300048828125,1.35503918975171,-0.380843790084037,0.0945063836202069,DLL
16.8666666666667,-2.98892045021057,-0.663938701152802,7.2566704750061,0.0990860015153885,-1.57013201713562,-2.31708788871765,-1034.70007324219,15.3000001907349,-940.500061035156,1.36725824521405,-0.386077405903169,0.0926246905832175,DLL
16.9,-5.0375599861145,-0.279332756996155,8.17541790008545,0.724089980125427,0.586893975734711,-1.57013201713562,-1034.70007324219,17.1000003814697,-950.100036621094,1.35244767009514,-0.55084456803942,0.0353420347701848,DLL
16.9333333333333,-4.57818651199341,-0.399559497833252,8.4236478805542,1.18903195858002,1.28049600124359,-1.05183601379395,-1029.90002441406,19.5,-947.700012207031,1.36773906173602,-0.50013792892161,0.0462583089181574,DLL
16.9666666666667,-5.61117935180664,-0.132189601659775,8.95539665222168,0.899396002292633,0.945127964019775,-0.708845973014832,-1039.5,17.7000007629395,-914.100036621094,1.35852959054628,-0.560560615437114,0.0143840171070785,DLL
17.0,-5.22597503662109,-0.522776961326599,9.2287483215332,0.457319974899292,0.0609759986400604,-0.922261953353882,-1039.5,14.1000003814697,-933.300048828125,1.38647920862321,-0.515148415900121,0.0562019207962584,DLL
17.0333333333333,-4.74267578125,-0.174657747149467,8.65811920166016,1.06708002090454,-0.342989981174469,-0.983237981796265,-1025.10009765625,12.3000001907349,-923.700012207031,1.37832689265678,-0.50050468900768,0.019467991591358,DLL
17.0666666666667,-4.27612400054932,-0.422887086868286,7.51566648483276,1.42531394958496,0.754577994346619,-0.510673999786377,-1032.30004882812,17.7000007629395,-933.300048828125,1.40250948875724,-0.517667298408924,0.053836849578074,DLL
17.1,-5.07045793533325,-0.441429525613785,8.84773063659668,0.564027965068817,0.716467976570129,-0.541162014007568,-1025.10009765625,12.3000001907349,-940.500061035156,1.40530184363279,-0.5210147028585,0.0494968034849126,DLL
17.1333333333333,-4.4621467590332,-0.820053994655609,8.66290473937988,0.746955990791321,0.381099998950958,-0.777444005012512,-1029.90002441406,14.7000007629395,-935.700012207031,1.43342469278553,-0.474781173254483,0.0934294240408172,DLL
17.1666666666667,-4.41908025741577,-0.604124426841736,8.12995910644531,1.07470202445984,-1.61586391925812,-0.518296003341675,-1017.90002441406,17.1000003814697,-940.500061035156,1.4292582097621,-0.493615630682117,0.0729239108416248,DLL
17.2,-4.75344228744507,-0.608311414718628,8.488844871521,0.823175966739655,-0.777444005012512,-0.487807989120483,-1020.30004882812,13.5000009536743,-930.900024414062,1.43302938849209,-0.50778062466538,0.0705481128825092,DLL
17.2333333333333,-3.74736571311951,-1.03239476680756,7.52583503723145,0.92988395690918,-0.228659987449646,-1.05945801734924,-1022.70001220703,12.3000001907349,-928.500061035156,1.47224225279976,-0.458021650129611,0.13511855655889,DLL
17.2666666666667,-3.92680859565735,-0.962412059307098,8.73946666717529,-0.243903994560242,-1.39482593536377,-1.50915598869324,-1025.10009765625,3.90000009536743,-923.700012207031,1.46925579964195,-0.41782349217672,0.111440622379062,DLL
17.3,-3.80239486694336,-0.851157426834106,7.73638105392456,0.548784017562866,-2.68294382095337,-1.57013201713562,-1037.10009765625,13.5000009536743,-938.100036621094,1.47726371881694,-0.449101289195076,0.109705186902063,DLL
17.3333333333333,-5.31270599365234,-0.91276615858078,9.45125675201416,0.541162014007568,-0.503051996231079,-0.716467976570129,-1032.30004882812,10.5,-933.300048828125,1.47634558287494,-0.50838830462116,0.0961473363949768,DLL
17.3666666666667,-4.25997447967529,-0.886447906494141,9.29274940490723,1.02897000312805,-1.12805593013763,-0.647870004177094,-1041.90002441406,15.3000001907349,-930.900024414062,1.48119162722809,-0.427059230929381,0.0937686326229568,DLL
