seconds,sensor_accX_m_s_,sensor_accY_m_s_,sensor_accZ_m_s_,sensor_gyroX___s_,sensor_gyroY___s_,sensor_gyroZ___s_,sensor_magX__T_,sensor_magY__T_,sensor_magZ__T_,sensor_yaw___,sensor_pitch___,sensor_roll___,label4
0.0,-4.45078182220459,-0.875083148479462,8.47508811950684,0.236281991004944,-0.0304879993200302,0.388722002506256,-1039.5,14.1000003814697,-933.300048828125,2.95848763522236,-0.481411862352594,0.102122367698159,ST
0.0333333333333333,-4.42984676361084,-0.924130916595459,8.48824691772461,0.236281991004944,-0.144817993044853,0.419209986925125,-1029.90002441406,7.50000047683716,-926.100036621094,2.95881153681395,-0.478423963224149,0.107620640756417,ST
0.0666666666666667,-4.45975399017334,-0.862522184848785,8.43620872497559,0.396344006061554,-0.282013982534409,0.411587983369827,-1044.30004882812,13.5000009536743,-935.700012207031,2.95401663836842,-0.483717883924462,0.100818181308604,ST
0.1,-4.42805242538452,-0.864316582679749,8.33332824707031,0.335367977619171,-0.175305992364883,0.480185985565186,-1029.90002441406,12.3000001907349,-935.700012207031,2.95243550380789,-0.485984414060193,0.102300720985739,ST
0.133333333333333,-4.45078182220459,-0.875083148479462,8.43800258636475,0.243903994560242,0.0152439996600151,0.487807989120483,-1034.70007324219,12.3000001907349,-930.900024414062,2.9499762099322,-0.483299947345026,0.102468625563283,ST
0.166666666666667,-4.43523025512695,-0.888840436935425,8.45056343078613,0.289635986089706,0.0914639979600906,0.411587983369827,-1020.30004882812,11.1000003814697,-918.900024414062,2.94876714707734,-0.481303047467304,0.103922466159654,ST
0.2,-4.36823797225952,-0.87089616060257,8.53370571136475,0.304879993200302,-0.0533539988100529,0.365855991840363,-1039.5,15.9000005722046,-945.300048828125,2.94573434293462,-0.471005357725927,0.100848491749705,ST
0.233333333333333,-4.44958543777466,-0.849363029003143,8.43680667877197,0.266770005226135,-0.205793991684914,0.198172003030777,-1027.5,12.3000001907349,-923.700012207031,2.94463254200182,-0.482883623044043,0.0996749508254528,ST
0.266666666666667,-4.50999784469604,-0.79373574256897,8.41527366638184,0.350611984729767,-0.167683988809586,0.304879993200302,-1034.70007324219,14.7000007629395,-933.300048828125,2.94063836564136,-0.489867831572999,0.0931577052519613,ST
0.3,-4.35926580429077,-0.910971760749817,8.36144065856934,0.434453994035721,-0.175305992364883,0.236281991004944,-1025.10009765625,6.90000009536743,-935.700012207031,2.94710978391326,-0.47795392764779,0.107480878638428,ST
0.333333333333333,-4.43941736221313,-0.84158718585968,8.52054691314697,0.182927995920181,-0.243903994560242,0.167683988809586,-1025.10009765625,13.5000009536743,-926.100036621094,2.94205632927563,-0.477944476960682,0.0979953247783028,ST
0.366666666666667,-4.42266893386841,-0.809885561466217,8.36682415008545,0.335367977619171,-0.152439996600151,0.282013982534409,-1034.70007324219,10.5,-947.700012207031,2.94011665718973,-0.484097375738128,0.0956488960145045,ST
0.4,-4.42745447158813,-0.801511585712433,8.37818813323975,0.228659987449646,0.0381099991500378,0.365855991840363,-1032.30004882812,18.3000011444092,-928.500061035156,2.93772785343097,-0.484394711325629,0.0946475261134673,ST
0.433333333333333,-4.48367977142334,-0.762632310390472,8.40869426727295,0.144817993044853,-0.0609759986400604,0.396344006061554,-1039.5,14.1000003814697,-947.700012207031,2.9330348474857,-0.488117284574722,0.0898362144660296,ST
0.466666666666667,-4.44719314575195,-0.832016885280609,8.31777572631836,0.182927995920181,-0.160062000155449,0.411587983369827,-1029.90002441406,12.3000001907349,-928.500061035156,2.93477141858882,-0.488715593482102,0.0989653059713746,ST
0.5,-4.49265193939209,-0.858933329582214,8.57318305969238,0.114329993724823,-0.0914639979600906,0.442075997591019,-1039.5,15.9000005722046,-923.700012207031,2.9320384372403,-0.480582295553434,0.0992461419493139,ST
0.533333333333333,-4.44719314575195,-0.772800743579865,8.39732933044434,0.342989981174469,-0.167683988809586,0.419209986925125,-1022.70001220703,11.1000003814697,-928.500061035156,2.92631675315693,-0.485059920641966,0.0908053084246279,ST
0.566666666666667,-4.46274471282959,-0.792539417743683,8.37220764160156,0.274392008781433,-0.0838419944047928,0.449698001146317,-1034.70007324219,15.3000001907349,-938.100036621094,2.92535305645455,-0.487799402332325,0.0934712717127426,ST
0.6,-4.44480037689209,-0.79373574256897,8.31478500366211,0.205793991684914,0.0076219998300075,0.457319974899292,-1037.10009765625,8.70000076293945,-933.300048828125,2.9231778179219,-0.48911843881857,0.094388752386544,ST
0.633333333333333,-4.50042772293091,-0.813474416732788,8.42185306549072,0.114329993724823,0.129574000835419,0.342989981174469,-1034.70007324219,14.7000007629395,-935.700012207031,2.92175081394464,-0.489122752864992,0.0957843567042492,ST
0.666666666666667,-4.53392362594604,-0.830820560455322,8.42843246459961,0.243903994560242,0.0914639979600906,0.236281991004944,-1039.5,14.7000007629395,-928.500061035156,2.92193038616058,-0.491705935570983,0.0976122808674882,ST
0.7,-4.52076435089111,-0.779978454113007,8.52054691314697,0.297257989645004,-0.0990860015153885,0.0457319989800453,-1027.5,11.7000007629395,-935.700012207031,2.919457128008,-0.485931973658319,0.0907378234353014,ST
0.733333333333333,-4.5931396484375,-0.720164120197296,8.45056343078613,0.449698001146317,-0.25152599811554,0.0609759986400604,-1037.10009765625,19.5,-933.300048828125,2.91749855838321,-0.495881096305834,0.0841772823333063,ST
0.766666666666667,-4.51418495178223,-0.726145565509796,8.33093547821045,0.266770005226135,-0.167683988809586,0.0381099991500378,-1029.90002441406,11.7000007629395,-930.900024414062,2.91921443712494,-0.494705826114305,0.0864195032840667,ST
0.8,-4.49145555496216,-0.733323276042938,8.44936752319336,0.304879993200302,-0.0533539988100529,0.25152599811554,-1025.10009765625,12.9000005722046,-933.300048828125,2.91826328567512,-0.487005684354814,0.0858076297976176,ST
0.833333333333333,-4.45496892929077,-0.801511585712433,8.3877592086792,0.350611984729767,-0.0838419944047928,0.213415995240211,-1034.70007324219,14.1000003814697,-945.300048828125,2.92204288378944,-0.486250393959236,0.0944209996041083,ST
0.866666666666667,-4.47829627990723,-0.736313998699188,8.3751974105835,0.274392008781433,-0.0838419944047928,0.175305992364883,-1037.10009765625,9.90000057220459,-942.900024414062,2.91832989595906,-0.489300758248644,0.0870645234553117,ST
0.9,-4.54827928543091,-0.738706588745117,8.4709005355835,0.175305992364883,-0.0533539988100529,0.25152599811554,-1029.90002441406,13.5000009536743,-918.900024414062,2.91685361942276,-0.491115876550156,0.0864428215685842,ST
0.933333333333333,-4.44898748397827,-0.806296706199646,8.37280559539795,0.167683988809586,-0.121951997280121,0.182927995920181,-1034.70007324219,18.3000011444092,-933.300048828125,2.92035966427278,-0.486347234719208,0.0954986490521154,ST
0.966666666666667,-4.53751277923584,-0.772800743579865,8.44219017028809,0.0533539988100529,-0.121951997280121,0.182927995920181,-1034.70007324219,7.50000047683716,-923.700012207031,2.91708767379929,-0.491241691818975,0.0910288612921655,ST
1.0,-4.51179265975952,-0.78476357460022,8.405104637146,0.129574000835419,-0.137196004390717,0.213415995240211,-1029.90002441406,14.1000003814697,-933.300048828125,2.91674571938638,-0.490638143374843,0.0926554367638403,ST
1.03333333333333,-4.52614784240723,-0.849961161613464,8.39792728424072,0.114329993724823,-0.129574000835419,0.221037998795509,-1032.30004882812,15.9000005722046,-935.700012207031,2.91908612033873,-0.492013619160672,0.100434791672794,ST
1.06666666666667,-4.45676326751709,-0.882260859012604,8.35964584350586,0.0685980021953583,-0.198172003030777,0.175305992364883,-1025.10009765625,15.3000001907349,-923.700012207031,2.91999278155181,-0.487204431068056,0.104835541758697,ST
1.1,-4.47171688079834,-0.910971760749817,8.4350118637085,0.0533539988100529,-0.198172003030777,0.129574000835419,-1022.70001220703,17.7000007629395,-930.900024414062,2.92021728399489,-0.484755548790242,0.10734593274419,ST
1.13333333333333,-4.45078182220459,-0.961215734481812,8.36562728881836,0.0533539988100529,-0.396344006061554,0.0152439996600151,-1032.30004882812,15.3000001907349,-938.100036621094,2.92319986204101,-0.485542302422914,0.114224831800714,ST
1.16666666666667,-4.52614784240723,-0.873288750648499,8.33751487731934,0.0914639979600906,-0.358233988285065,-0.0152439996600151,-1029.90002441406,17.7000007629395,-928.500061035156,2.91868195892738,-0.494419008600641,0.104205331011537,ST
1.2,-4.51418495178223,-0.949252903461456,8.3871603012085,0.282013982534409,-0.556405961513519,0.0228659994900227,-1020.30004882812,11.1000003814697,-933.300048828125,2.92292047174318,-0.490157063292303,0.11210909439576,ST
1.23333333333333,-4.67568349838257,-0.896018147468567,8.43022727966309,0.144817993044853,-0.922261953353882,0.190549999475479,-1029.90002441406,17.7000007629395,-933.300048828125,2.91814842624425,-0.502419381716239,0.105377277885457,ST
1.26666666666667,-4.78035879135132,-0.827829897403717,8.44637680053711,0.137196004390717,-1.73781597614288,0.335367977619171,-1041.90002441406,14.1000003814697,-930.900024414062,2.91106570600626,-0.509981953596123,0.0969984013956316,ST
1.3,-4.67927265167236,-0.891831159591675,8.37699222564697,-0.0381099991500378,-2.39330792427063,0.548784017562866,-1032.30004882812,8.10000038146973,-928.500061035156,2.90935970305274,-0.502988252591595,0.105330875020113,ST
1.33333333333333,-4.57340097427368,-0.973776757717133,8.23702716827393,-0.175305992364883,-2.71343183517456,0.685979962348938,-1053.90002441406,10.5,-942.900024414062,2.90726489638138,-0.4993553674067,0.11698438841313,ST
1.36666666666667,-4.43582820892334,-1.03837621212006,8.45355415344238,-0.152439996600151,-2.44666194915771,0.640248000621796,-1041.90002441406,14.1000003814697,-928.500061035156,2.90222478781451,-0.476142974845813,0.121628696119225,ST
1.4,-4.44300603866577,-1.00009500980377,8.48047065734863,0.0381099991500378,-2.27135586738586,0.564027965068817,-1041.90002441406,13.5000009536743,-935.700012207031,2.89378093388783,-0.475936992945955,0.11658936291059,ST
1.43333333333333,-4.44599676132202,-0.950449168682098,8.56122016906738,0.335367977619171,-1.95123195648193,0.403965979814529,-1041.90002441406,11.7000007629395,-935.700012207031,2.88732357749877,-0.473184058895231,0.109454930675173,ST
1.46666666666667,-4.49205350875854,-0.880466461181641,8.49063968658447,0.571649968624115,-1.72257196903229,0.3125019967556,-1051.5,17.1000003814697,-935.700012207031,2.88240351832918,-0.481461889412731,0.101904275858078,ST
1.5,-4.55844736099243,-0.754856407642365,8.24480247497559,0.640248000621796,-1.43293595314026,0.0304879993200302,-1063.5,9.30000019073486,-933.300048828125,2.87820250188242,-0.500759775413731,0.0900583904216716,ST
1.53333333333333,-4.71994638442993,-0.629844546318054,8.39613246917725,0.503051996231079,-1.30336201190948,0.0838419944047928,-1051.5,16.5,-928.500061035156,2.87104975488527,-0.508644905384988,0.0738814326047047,ST
1.56666666666667,-4.82940626144409,-0.616087257862091,8.40809535980225,0.449698001146317,-1.55488801002502,0.144817993044853,-1049.10009765625,8.70000076293945,-938.100036621094,2.87016368695502,-0.517488602449328,0.0721076952386491,ST
1.6,-4.90118360519409,-0.584385693073273,8.24001789093018,0.297257989645004,-1.47866797447205,0.0304879993200302,-1058.70007324219,11.7000007629395,-940.500061035156,2.86945635725627,-0.532860306327864,0.0701513410529293,ST
1.63333333333333,-4.78394746780396,-0.388792932033539,8.34349632263184,0.426831990480423,-1.18140995502472,-0.0533539988100529,-1073.10009765625,17.7000007629395,-942.900024414062,2.85896041595605,-0.518134637046781,0.0459066782705867,ST
1.66666666666667,-4.76301240921021,-0.436046212911606,8.28248596191406,0.365855991840363,-0.945127964019775,-0.129574000835419,-1065.90002441406,8.10000038146973,-945.300048828125,2.86415171308952,-0.519626753399982,0.0520244954930731,ST
1.7,-4.63022470474243,-0.434849947690964,8.32016849517822,0.320124000310898,-0.670735955238342,-0.297257989645004,-1063.5,11.1000003814697,-938.100036621094,2.86719920809461,-0.506099126266184,0.0519122629692892,ST
1.73333333333333,-4.67329120635986,-0.378624498844147,8.17721271514893,0.861285984516144,-0.503051996231079,-0.442075997591019,-1073.10009765625,12.9000005722046,-933.300048828125,2.87027055245641,-0.517785069634933,0.0452065037889443,ST
1.76666666666667,-4.65235614776611,-0.352306216955185,8.19814777374268,1.40244793891907,-0.434453994035721,-0.556405961513519,-1065.90002441406,7.50000047683716,-942.900024414062,2.87869179178624,-0.514982521723625,0.0410369178257979,ST
1.8,-4.64996337890625,-0.111254595220089,8.15567970275879,1.63110792636871,-0.769822001457214,-0.647870004177094,-1065.90002441406,11.1000003814697,-938.100036621094,2.87507715608209,-0.516779044728421,0.0115346415642276,ST
1.83333333333333,-4.76779747009277,0.149535745382309,7.95111465454102,1.79879200458527,-0.907018005847931,-0.525918006896973,-1070.70007324219,15.3000001907349,-935.700012207031,2.86968404718316,-0.538433563069291,-0.0212569723069761,ST
1.86666666666667,-4.62603759765625,0.351708054542542,7.5348072052002,1.57013201713562,-0.297257989645004,-0.182927995920181,-1073.10009765625,10.5,-935.700012207031,2.86391917356794,-0.549609703454006,-0.0491200180725357,ST
1.9,-4.36943435668945,0.216527760028839,7.59402322769165,1.08994603157043,-0.0533539988100529,0.144817993044853,-1073.10009765625,11.1000003814697,-947.700012207031,2.87679414337865,-0.521945443801334,-0.0306177212900594,ST
1.93333333333333,-4.25877809524536,0.244042336940765,7.72202587127686,0.92988395690918,0.0609759986400604,0.0762199983000755,-1085.10009765625,9.90000057220459,-926.100036621094,2.87858231910878,-0.503959903594818,-0.0332809693833153,ST
1.96666666666667,-4.50820350646973,0.392979919910431,8.22805500030518,1.47104597091675,0.579271972179413,0.358233988285065,-1061.10009765625,12.3000001907349,-947.700012207031,2.87322564991346,-0.501742518414142,-0.0505974175829667,ST
2.0,-3.88254594802856,0.299071490764618,7.75611972808838,1.78354799747467,0.579271972179413,0.564027965068817,-1065.90002441406,13.5000009536743,-928.500061035156,2.87945085067716,-0.464920130573738,-0.042195884780449,ST
2.03333333333333,-4.06976461410522,0.297875195741653,8.61983871459961,0.937505960464478,0.426831990480423,0.381099998950958,-1053.90002441406,7.50000047683716,-935.700012207031,2.8823123537362,-0.441687963941634,-0.0365264821630045,ST
2.06666666666667,-4.12419557571411,0.61249840259552,8.87703990936279,1.2423859834671,0.434453994035721,0.320124000310898,-1065.90002441406,6.90000009536743,-935.700012207031,2.86937007503697,-0.434749730862454,-0.0712569057437032,ST
2.1,-3.90288281440735,0.320604622364044,8.20173645019531,1.50915598869324,0.0838419944047928,0.846041977405548,-1068.30004882812,5.10000038146973,-935.700012207031,2.8806124334311,-0.443906675276963,-0.042514866709637,ST
2.13333333333333,-3.54579162597656,0.259594053030014,8.82500171661377,0.0533539988100529,-0.503051996231079,0.114329993724823,-1061.10009765625,2.70000004768372,-938.100036621094,2.88522336892528,-0.381246091965623,-0.0296165056174892,ST
2.16666666666667,-3.58227825164795,0.147143170237541,9.11868953704834,0.701223969459534,-0.381099998950958,0.0914639979600906,-1058.70007324219,8.10000038146973,-938.100036621094,2.89114622079441,-0.373643912154335,-0.0174618758406392,ST
2.2,-3.63611102104187,0.168676316738129,8.78552436828613,1.36433792114258,-0.0838419944047928,0.0685980021953583,-1061.10009765625,8.70000076293945,-926.100036621094,2.89326149609445,-0.392129071888048,-0.0216115402201204,ST
2.23333333333333,-4.12898111343384,0.432457357645035,9.68273830413818,0.0152439996600151,0.350611984729767,-0.198172003030777,-1070.70007324219,4.5,-947.700012207031,2.88586973095433,-0.403312866844252,-0.0444553930353929,ST
2.26666666666667,-4.93707227706909,0.315221339464188,10.9382400512695,0.0990860015153885,1.16616594791412,0.190549999475479,-1053.90002441406,8.70000076293945,-926.100036621094,2.89058345413683,-0.425798509895968,-0.029197704681377,ST
2.3,-6.44199991226196,0.979160070419312,12.3133716583252,0.327746003866196,2.29422187805176,0.602137982845306,-1068.30004882812,6.30000019073486,-942.900024414062,2.86347837259811,-0.484486439190708,-0.0805150659183389,ST
2.33333333333333,-6.59332990646362,0.932504892349243,12.3079881668091,0.533540010452271,2.53050398826599,1.58537602424622,-1063.5,11.7000007629395,-926.100036621094,2.85330520028551,-0.494767252941894,-0.0782246927151502,ST
2.36666666666667,-6.52095460891724,-0.0173461455851793,12.0304498672485,0.571649968624115,1.49391198158264,1.79117000102997,-1041.90002441406,9.30000019073486,-926.100036621094,2.878623643251,-0.499303721402757,-0.0014443126984693,ST
2.4,-6.0370569229126,-0.115441590547562,10.1935529708862,1.15854394435883,-0.0457319989800453,1.06708002090454,-1051.5,9.90000057220459,-933.300048828125,2.88063398835911,-0.534475787616614,0.0081635242000345,ST
2.43333333333333,-4.79471397399902,-0.391783654689789,7.85780429840088,0.663114011287689,-0.525918006896973,0.975615978240967,-1056.30004882812,9.90000057220459,-933.300048828125,2.8967531848753,-0.546444840758797,0.0474525215620028,ST
2.46666666666667,-4.73848867416382,-0.973178625106812,7.1047420501709,-0.403965979814529,0.472563982009888,1.57775402069092,-1058.70007324219,11.1000003814697,-935.700012207031,2.93160971901477,-0.584963200633431,0.13477230329885,ST
2.5,-4.91254806518555,-1.37513065338135,6.52095460891724,0.0457319989800453,1.72257196903229,2.26373386383057,-1044.30004882812,8.10000038146973,-938.100036621094,2.95953605744649,-0.638807499031841,0.205126999102014,ST
2.53333333333333,-5.1332631111145,-1.69693160057068,7.86378574371338,-1.08994603157043,1.09756803512573,2.82776188850403,-1039.5,9.30000019073486,-930.900024414062,2.94129517653646,-0.571111241208918,0.211563372157845,ST
2.56666666666667,-5.4700174331665,-1.63053774833679,8.63479232788086,-1.39482593536377,-1.58537602424622,2.65245604515076,-1044.30004882812,9.90000057220459,-926.100036621094,2.89868152858722,-0.554950330495157,0.185969563305746,ST
2.6,-3.60560584068298,-1.92362785339355,6.44499063491821,0.495429992675781,-1.49391198158264,2.26373386383057,-1046.70007324219,8.10000038146973,-930.900024414062,2.93263146295032,-0.490946504396928,0.286402609977545,ST
2.63333333333333,-4.01892280578613,-1.73341834545135,7.03954458236694,-0.78506600856781,-0.289635986089706,0.617381989955902,-1058.70007324219,10.5,-935.700012207031,2.90278135939697,-0.505921091803861,0.242229928832505,ST
2.66666666666667,-4.16367340087891,-1.09400343894958,8.04861164093018,0.0838419944047928,-0.960371971130371,1.95123195648193,-1061.10009765625,6.30000019073486,-938.100036621094,2.83618271855441,-0.472562219856937,0.133364796247299,ST
2.7,-4.3664436340332,-0.863718450069427,7.47977781295776,0.442075997591019,-0.236281991004944,1.83690190315247,-1051.5,-3.90000009536743,-945.300048828125,2.81385128524681,-0.525368082470656,0.112363179112013,ST
2.73333333333333,-4.38917303085327,0.202770471572876,8.53729438781738,0.67835795879364,-0.0762199983000755,1.73781597614288,-1041.90002441406,6.30000019073486,-938.100036621094,2.73758979499536,-0.474761955687325,-0.0259953680366341,ST
2.76666666666667,-4.11941051483154,0.467149674892426,7.98520851135254,0.190549999475479,-1.36433792114258,0.640248000621796,-1049.10009765625,12.9000005722046,-923.700012207031,2.71907922368442,-0.473139564907783,-0.0591456879436648,ST
2.8,-4.45257616043091,0.895420014858246,7.45824480056763,0.259148001670837,-0.670735955238342,0.327746003866196,-1046.70007324219,10.5,-933.300048828125,2.68896870724815,-0.533616792502947,-0.119958606244048,ST
2.83333333333333,-4.05840015411377,0.437840640544891,7.94632959365845,0.594515979290009,0.25152599811554,1.01372599601746,-1049.10009765625,6.30000019073486,-930.900024414062,2.71383622824056,-0.472065947390348,-0.0571432856828456,ST
2.86666666666667,-4.05540943145752,0.595152258872986,7.6209397315979,-0.175305992364883,0.327746003866196,1.18903195858002,-1049.10009765625,8.70000076293945,-933.300048828125,2.69459681672293,-0.4881175895273,-0.0786715383528559,ST
2.9,-3.2987585067749,0.531749129295349,7.43252468109131,-0.967993974685669,1.13567793369293,1.45580196380615,-1046.70007324219,5.10000038146973,-952.500061035156,2.68348298964624,-0.418815019060616,-0.0709563509712561,ST
2.93333333333333,-3.93697714805603,-0.195592746138573,7.99597501754761,-0.457319974899292,1.57775402069092,0.175305992364883,-1051.5,11.7000007629395,-945.300048828125,2.7214193838097,-0.460021697222313,0.024775635283311,ST
2.96666666666667,-3.92561221122742,-0.0628050118684769,7.33801794052124,0.731711983680725,1.18903195858002,-0.807931959629059,-1061.10009765625,13.5000009536743,-938.100036621094,2.72238850921947,-0.493155780457154,0.0081100494667505,ST
3.0,-3.89630341529846,0.22968690097332,7.58923816680908,1.06708002090454,1.59299790859222,0.228659987449646,-1041.90002441406,8.70000076293945,-935.700012207031,2.70585225819393,-0.476915435225253,-0.032305264909632,ST
3.03333333333333,-4.49384832382202,0.0753660127520561,7.92479610443115,0.259148001670837,0.967993974685669,0.46494197845459,-1041.90002441406,11.7000007629395,-938.100036621094,2.71376767458757,-0.517412201407317,-0.0104867897224255,ST
3.06666666666667,-3.8998920917511,-0.412120521068573,8.92848014831543,-0.724089980125427,0.449698001146317,0.381099998950958,-1051.5,8.70000076293945,-928.500061035156,2.7344051388989,-0.412630076340886,0.0469103123287388,ST
3.1,-3.38429284095764,0.180041030049324,9.16355037689209,0.426831990480423,-1.22714197635651,1.34147191047668,-1034.70007324219,9.90000057220459,-930.900024414062,2.70025764713272,-0.351760204071888,-0.0209926354107854,ST
3.13333333333333,-3.38190031051636,-0.135778456926346,8.79629039764404,1.19665396213531,-1.22714197635651,1.28811800479889,-1049.10009765625,6.90000009536743,-945.300048828125,2.70560912621934,-0.364845699725457,0.0123515902114594,ST
3.16666666666667,-4.22288942337036,0.138769164681435,9.15158748626709,0.381099998950958,-0.0152439996600151,0.434453994035721,-1058.70007324219,12.3000001907349,-930.900024414062,2.69261778012355,-0.431995644030668,-0.0160681229462386,ST
3.2,-3.74736571311951,-0.374437510967255,9.43450927734375,0.350611984729767,-0.3125019967556,0.754577994346619,-1037.10009765625,11.7000007629395,-942.900024414062,2.70916666453005,-0.377456425200388,0.0383960759633992,ST
3.23333333333333,-5.06387853622437,-0.132189601659775,9.71384143829346,0.282013982534409,-1.76830399036407,0.106707997620106,-1041.90002441406,12.3000001907349,-921.300048828125,2.69864258822104,-0.477231384609662,0.0130489302738452,ST
3.26666666666667,-5.25468587875366,-0.0717771574854851,8.89318943023682,0.975615978240967,-0.78506600856781,0.297257989645004,-1046.70007324219,6.90000009536743,-933.300048828125,2.69712049677556,-0.532132042795354,0.006076872198655,ST
3.3,-4.87665987014771,-0.341539651155472,8.19455909729004,0.0381099991500378,0.442075997591019,-0.952749967575073,-1039.5,6.30000019073486,-928.500061035156,2.72252421557458,-0.537118699282782,0.042461915099546,ST
3.33333333333333,-4.63261747360229,0.581394970417023,9.81074142456055,-0.228659987449646,-0.731711983680725,-0.167683988809586,-1051.5,14.1000003814697,-935.700012207031,2.67580319137014,-0.439595060410123,-0.0582686845700977,ST
3.36666666666667,-3.53263235092163,0.302660346031189,8.00734043121338,0.411587983369827,-2.66770005226135,0.297257989645004,-1049.10009765625,8.10000038146973,-921.300048828125,2.68386270283359,-0.410661191808606,-0.0387184970551977,ST
3.4,-5.16496467590332,1.95054423809052,8.18319416046143,-0.495429992675781,-0.594515979290009,0.449698001146317,-1049.10009765625,8.10000038146973,-935.700012207031,2.58945521079813,-0.548960210153144,-0.232667579872302,ST
3.43333333333333,-4.56861591339111,1.15680849552155,8.66649341583252,0.746955990791321,1.265251994133,2.27135586738586,-1041.90002441406,12.3000001907349,-930.900024414062,2.62251317342927,-0.483399230341649,-0.136561899958154,ST
3.46666666666667,-4.98492336273193,0.215929612517357,8.20353126525879,-0.152439996600151,0.25152599811554,-0.144817993044853,-1049.10009765625,7.50000047683716,-926.100036621094,2.67716671785702,-0.546102126276522,-0.0263274036617887,ST
3.5,-6.20633125305176,0.501841962337494,8.0827054977417,-0.647870004177094,0.182927995920181,-1.57013201713562,-1046.70007324219,16.5,-923.700012207031,2.66595592833789,-0.65398387045794,-0.0586712098891498,ST
3.53333333333333,-5.87376403808594,0.515599250793457,8.2561674118042,0.205793991684914,-0.358233988285065,-0.78506600856781,-1049.10009765625,7.50000047683716,-940.500061035156,2.67095350156841,-0.61697550968622,-0.0617242104282049,ST
3.56666666666667,-5.33124828338623,0.454588651657104,8.78612232208252,0.472563982009888,-0.769822001457214,-0.701223969459534,-1046.70007324219,13.5000009536743,-930.900024414062,2.68351086730583,-0.543789491964495,-0.0517696834933219,ST
3.6,-5.16077756881714,0.506028950214386,8.37759017944336,0.266770005226135,-1.21951997280121,-0.792688012123108,-1053.90002441406,11.7000007629395,-926.100036621094,2.6863704517831,-0.54924191956536,-0.0598414830362835,ST
3.63333333333333,-4.80428457260132,0.254210770130157,8.06057453155518,0.510673999786377,-0.647870004177094,-0.282013982534409,-1049.10009765625,6.90000009536743,-928.500061035156,2.70487534762204,-0.536206247752705,-0.0322055939606096,ST
3.66666666666667,-4.30603122711182,-0.152526453137398,8.33751487731934,0.670735955238342,-0.419209986925125,-0.221037998795509,-1044.30004882812,8.10000038146973,-926.100036621094,2.7328940103186,-0.476150840179245,0.0171388677707723,ST
3.7,-4.96039962768555,0.772800743579865,7.74714756011963,0.381099998950958,0.541162014007568,-0.541162014007568,-1051.5,8.10000038146973,-935.700012207031,2.68025775617427,-0.568165646314553,-0.0993579337572875,ST
3.73333333333333,-5.22956418991089,0.465355217456818,8.28128910064697,0.762199997901917,1.53964400291443,0.541162014007568,-1051.5,9.90000057220459,-928.500061035156,2.70121086892331,-0.56518352048894,-0.0583096162660785,ST
3.76666666666667,-5.97305583953857,0.225499898195267,8.47628402709961,0.320124000310898,2.01982998847961,-0.0304879993200302,-1051.5,8.70000076293945,-950.100036621094,2.71972732202834,-0.617027941127127,-0.0273044636859511,ST
3.8,-5.46762466430664,0.375035643577576,8.21310138702393,0.525918006896973,1.56251001358032,0.0,-1034.70007324219,13.5000009536743,-935.700012207031,2.71094291547705,-0.589633538864119,-0.0466030138835979,ST
3.83333333333333,-5.81574392318726,0.461168229579926,8.69759654998779,0.922261953353882,1.12805593013763,0.701223969459534,-1037.10009765625,3.30000019073486,-940.500061035156,2.70507079279272,-0.590629448452936,-0.0554392528162261,ST
3.86666666666667,-5.05849504470825,0.37324121594429,7.70168876647949,0.777444005012512,0.632625997066498,-0.266770005226135,-1041.90002441406,13.5000009536743,-935.700012207031,2.71336913610241,-0.58176387404908,-0.0495319177937073,ST
3.9,-5.78165006637573,0.922336459159851,7.98461055755615,0.518296003341675,0.640248000621796,-0.716467976570129,-1037.10009765625,10.5,-933.300048828125,2.68295938282829,-0.624670084184257,-0.114858836262605,ST
3.93333333333333,-4.95441818237305,0.292491912841797,8.33930969238281,0.853663980960846,0.701223969459534,-0.221037998795509,-1037.10009765625,10.5,-921.300048828125,2.73082690581786,-0.537370354107312,-0.0366151613293321,ST
3.96666666666667,-4.70977783203125,0.379820793867111,7.28179264068604,0.990859985351562,0.3125019967556,-1.12805593013763,-1037.10009765625,12.3000001907349,-938.100036621094,2.73498839380099,-0.574053755128361,-0.0525516634348726,ST
4.0,-4.81804180145264,0.41750380396843,7.54019021987915,1.50915598869324,1.37958192825317,-0.487807989120483,-1029.90002441406,12.9000005722046,-933.300048828125,2.74224181640421,-0.570358474813352,-0.0574759942305306,ST
4.03333333333333,-5.16496467590332,0.479112505912781,7.01322650909424,1.07470202445984,1.95123195648193,-0.556405961513519,-1029.90002441406,8.70000076293945,-930.900024414062,2.74373129962051,-0.636972353844502,-0.0695122264218888,ST
4.06666666666667,-5.404221534729,0.385204076766968,8.45116233825684,-0.564027965068817,2.0579400062561,-0.0990860015153885,-1017.90002441406,11.1000003814697,-930.900024414062,2.7552071470651,-0.572215028198178,-0.0446162784435497,ST
4.1,-5.34500551223755,0.52636581659317,8.56720161437988,-0.396344006061554,1.51677799224854,0.46494197845459,-1025.10009765625,4.5,-923.700012207031,2.74083837682935,-0.559595990127713,-0.0612195084112092,ST
4.13333333333333,-5.043541431427,0.179442897439003,8.61744594573975,0.198172003030777,1.27287399768829,0.945127964019775,-1027.5,14.1000003814697,-928.500061035156,2.75504086754115,-0.531712487532055,-0.0223051223980153,ST
4.16666666666667,-5.02978420257568,0.324193477630615,8.92848014831543,-0.304879993200302,0.564027965068817,0.0990860015153885,-1025.10009765625,5.70000028610229,-933.300048828125,2.74618216546214,-0.513778259837916,-0.0358399297994656,ST
4.2,-4.88443565368652,0.20097604393959,8.10005187988281,-0.0076219998300075,-0.175305992364883,-0.0076219998300075,-1015.50006103516,5.70000028610229,-933.300048828125,2.75180096313121,-0.542122090784107,-0.024807849497301,ST
4.23333333333333,-4.9215202331543,0.14355431497097,8.9296760559082,-1.2576299905777,-0.503051996231079,0.243903994560242,-1017.90002441406,11.1000003814697,-926.100036621094,2.75050619515426,-0.50292609360729,-0.014146050868053,ST
4.26666666666667,-4.89580011367798,-0.0634031519293785,8.57677173614502,-0.586893975734711,-0.983237981796265,0.685979962348938,-1010.70001220703,12.3000001907349,-926.100036621094,2.75334596132631,-0.516941899089317,0.0076864303667177,ST
4.3,-4.81086397171021,-0.754258275032043,8.4828634262085,0.472563982009888,-0.350611984729767,0.3125019967556,-1025.10009765625,5.70000028610229,-935.700012207031,2.79207159491493,-0.513666114118326,0.0872274368373618,ST
4.33333333333333,-4.85512638092041,-0.41152235865593,8.29504680633545,0.670735955238342,-0.586893975734711,-0.647870004177094,-1017.90002441406,5.10000038146973,-933.300048828125,2.78072529531183,-0.527901937729005,0.0491025063683756,ST
4.36666666666667,-5.20025491714478,-0.0245238617062569,7.90206670761108,1.40244793891907,0.121951997280121,0.205793991684914,-1020.30004882812,8.10000038146973,-928.500061035156,2.75986532530516,-0.582053880701827,0.0006036233276905,ST
4.4,-4.95980167388916,0.294286340475082,7.59641551971436,1.06708002090454,0.365855991840363,0.693601965904236,-1015.50006103516,6.90000009536743,-926.100036621094,2.73687386880506,-0.57868115251533,-0.0412357698730269,ST
4.43333333333333,-5.28339672088623,0.465953379869461,8.1132116317749,0.647870004177094,-0.160062000155449,1.265251994133,-1025.10009765625,3.90000009536743,-926.100036621094,2.72072676300416,-0.576069206545679,-0.0598760528577991,ST
4.46666666666667,-4.32995700836182,0.147741317749023,7.58624744415283,-0.0838419944047928,-0.792688012123108,1.21951997280121,-1022.70001220703,-1.5,-926.100036621094,2.73220365097334,-0.517311813381828,-0.0206367110849321,ST
4.5,-4.75583457946777,-0.307445496320724,8.02229309082031,-0.602137982845306,-0.884151995182037,0.792688012123108,-1032.30004882812,-0.300000011920929,-933.300048828125,2.75340845896621,-0.533271309003748,0.0383277442779389,ST
4.53333333333333,-5.19188117980957,-0.061608724296093,7.69989442825317,-0.87652999162674,-1.12043392658234,-0.0990860015153885,-1022.70001220703,8.10000038146973,-928.500061035156,2.73483885407253,-0.591071255097762,0.0097474141354772,ST
4.56666666666667,-5.70329332351685,0.0663938671350479,7.33502721786499,-0.221037998795509,-0.3125019967556,0.457319974899292,-1029.90002441406,9.30000019073486,-921.300048828125,2.71972138009264,-0.660069839123689,-0.0092061237048132,ST
4.6,-5.96587800979614,-0.0317015759646893,7.42295408248901,0.144817993044853,1.2576299905777,0.487807989120483,-1017.90002441406,11.1000003814697,-921.300048828125,2.72514468129475,-0.679120418955321,0.0032916220319894,ST
4.63333333333333,-6.9139347076416,0.339147061109543,8.0713415145874,0.350611984729767,1.82165801525116,0.137196004390717,-1015.50006103516,6.90000009536743,-930.900024414062,2.69626012538251,-0.710930467796733,-0.0427524427887374,ST
4.66666666666667,-6.67587375640869,0.397765070199966,8.1012487411499,0.853663980960846,1.6615959405899,0.518296003341675,-1015.50006103516,11.1000003814697,-928.500061035156,2.69139106691826,-0.691569169045547,-0.0513841697808326,ST
4.7,-6.56222677230835,0.693845868110657,8.97633171081543,0.25152599811554,-0.121951997280121,0.952749967575073,-1025.10009765625,9.90000057220459,-926.100036621094,2.66979331827429,-0.629736577198016,-0.0786853749015137,ST
4.73333333333333,-5.86538982391357,0.505430817604065,9.11988544464111,-0.556405961513519,-1.44817996025085,0.99848198890686,-1025.10009765625,2.10000014305115,-930.900024414062,2.67428769610656,-0.568447454048427,-0.0555000251293485,ST
4.76666666666667,-4.85392999649048,0.227294325828552,6.83139085769653,-0.716467976570129,-2.41617393493652,0.137196004390717,-1022.70001220703,9.30000019073486,-942.900024414062,2.68370508344269,-0.613112316019473,-0.0321671284178316,ST
4.8,-4.4501838684082,-0.308043628931046,8.43082523345947,-0.952749967575073,-1.19665396213531,0.411587983369827,-1013.10003662109,9.30000019073486,-938.100036621094,2.71288066497455,-0.483655072687441,0.0376082657112186,ST
4.83333333333333,-5.65065670013428,0.195592746138573,7.3404107093811,0.472563982009888,-0.25152599811554,-0.579271972179413,-1027.5,10.5,-942.900024414062,2.68440224181516,-0.654958121323385,-0.02646785214125,ST
4.86666666666667,-5.83847332000732,0.168676316738129,7.58206033706665,0.716467976570129,0.853663980960846,-0.205793991684914,-1029.90002441406,8.70000076293945,-928.500061035156,2.69107485778698,-0.657571381075335,-0.0232538047093061,ST
4.9,-6.67168664932251,0.337950766086578,8.32555198669434,0.388722002506256,1.53964400291443,0.350611984729767,-1020.30004882812,7.50000047683716,-935.700012207031,2.67899464812285,-0.677747970324473,-0.0417586934917294,ST
4.93333333333333,-6.35945606231689,0.171068891882896,8.2860746383667,-0.152439996600151,0.670735955238342,0.724089980125427,-1015.50006103516,11.1000003814697,-921.300048828125,2.68608610887346,-0.655720984669072,-0.0214411088849696,ST
4.96666666666667,-5.53461694717407,-0.324791640043259,8.20054054260254,-0.396344006061554,0.0304879993200302,0.632625997066498,-1020.30004882812,9.90000057220459,-926.100036621094,2.71562130322385,-0.593651541687732,0.0393181446407111,ST
5.0,-5.17214250564575,-0.605918824672699,8.3997220993042,-0.937505960464478,-0.3125019967556,0.381099998950958,-1010.70001220703,9.30000019073486,-928.500061035156,2.72715273736823,-0.550427639579268,0.073093306015705,ST
5.03333333333333,-4.88443565368652,-0.78775429725647,8.1491003036499,-0.0762199983000755,0.861285984516144,0.0,-1017.90002441406,14.7000007629395,-947.700012207031,2.73951307071669,-0.539454779383743,0.0965021394707922,ST
5.06666666666667,-4.85452842712402,-0.585581958293915,8.65811920166016,0.693601965904236,0.78506600856781,0.25152599811554,-1025.10009765625,11.1000003814697,-938.100036621094,2.72587243688702,-0.511481630701066,0.0661729020128559,ST
5.1,-4.69781494140625,-0.172863319516182,7.96247911453247,0.907018005847931,-0.243903994560242,0.510673999786377,-1020.30004882812,9.30000019073486,-926.100036621094,2.70280274573837,-0.532444171760854,0.0197660302630395,ST
5.13333333333333,-5.15001106262207,-0.230883181095123,8.43680667877197,0.152439996600151,-0.342989981174469,0.556405961513519,-1020.30004882812,8.10000038146973,-935.700012207031,2.70260041975611,-0.547285305267549,0.026481345090469,ST
5.16666666666667,-4.77138662338257,-0.139367312192917,7.69570732116699,0.0381099991500378,-0.0457319989800453,-0.0762199983000755,-1017.90002441406,5.70000028610229,-933.300048828125,2.69891783420365,-0.554816875072693,0.0181536178317246,ST
5.2,-5.24990081787109,0.263781040906906,7.51506805419922,0.525918006896973,0.769822001457214,0.724089980125427,-1020.30004882812,12.3000001907349,-916.500061035156,2.66613345067452,-0.610580346333199,-0.0367095711633697,ST
5.23333333333333,-5.17513275146484,0.0843381583690643,9.37230205535889,-0.0914639979600906,-0.815553963184357,1.46342396736145,-1022.70001220703,3.90000009536743,-930.900024414062,2.66962718358251,-0.503438244427213,-0.0103355137155364,ST
5.26666666666667,-4.50999784469604,0.222509190440178,7.72382020950317,0.289635986089706,-1.98934197425842,0.541162014007568,-1013.10003662109,12.9000005722046,-940.500061035156,2.65782239541896,-0.524745800828472,-0.0297217734496709,ST
5.3,-5.11950588226318,0.503038227558136,7.52942371368408,0.0685980021953583,0.175305992364883,0.533540010452271,-998.700012207031,9.30000019073486,-928.500061035156,2.63445499948071,-0.596077387538304,-0.0673278325008497,ST
5.33333333333333,-4.71097421646118,0.105871304869652,7.54138660430908,-0.289635986089706,0.0990860015153885,0.952749967575073,-1029.90002441406,5.10000038146973,-923.700012207031,2.65539588903594,-0.55861451498156,-0.0147634469985381,ST
5.36666666666667,-5.4616436958313,0.127404451370239,7.56172323226929,-0.411587983369827,0.487807989120483,0.724089980125427,-1020.30004882812,8.70000076293945,-935.700012207031,2.64718422549388,-0.626080574618443,-0.0170437127820652,ST
5.4,-5.80318307876587,0.525169551372528,7.68314647674561,-0.0,0.724089980125427,0.960371971130371,-1022.70001220703,5.70000028610229,-923.700012207031,2.6091621442946,-0.646869834984365,-0.0694466216431644,ST
5.43333333333333,-6.05081415176392,0.759641587734222,8.78731822967529,0.144817993044853,-0.0609759986400604,1.6615959405899,-1010.70001220703,8.70000076293945,-918.900024414062,2.58786732219247,-0.601094479590903,-0.0883960111788057,ST
5.46666666666667,-5.81574392318726,0.706406831741333,7.74654960632324,-0.320124000310898,-0.693601965904236,0.960371971130371,-1017.90002441406,16.5,-930.900024414062,2.57870890284622,-0.640491945423899,-0.0915284455833976,ST
5.5,-4.70140361785889,0.303856641054153,7.73159599304199,-1.12805593013763,-1.09756803512573,0.213415995240211,-1020.30004882812,8.70000076293945,-938.100036621094,2.60285946063642,-0.544422707332442,-0.0376812295432434,ST
5.53333333333333,-4.83179903030396,0.279332756996155,7.00425434112549,-0.510673999786377,-1.2423859834671,-0.121951997280121,-1015.50006103516,11.7000007629395,-926.100036621094,2.60113267353166,-0.601134222797974,-0.0387585438489133,ST
5.56666666666667,-5.93298006057739,0.645396292209625,7.57787322998047,0.213415995240211,0.731711983680725,0.0990860015153885,-1010.70001220703,11.7000007629395,-945.300048828125,2.57361050299458,-0.663524672391707,-0.0853751381010399,ST
5.6,-5.7385835647583,0.745286166667938,7.67058563232422,0.320124000310898,0.975615978240967,0.129574000835419,-1015.50006103516,9.30000019073486,-923.700012207031,2.56627870692254,-0.641803282600574,-0.0976630731868382,ST
5.63333333333333,-5.93776512145996,0.883457183837891,6.73987483978271,0.152439996600151,0.640248000621796,-0.381099998950958,-996.300048828125,9.90000057220459,-923.700012207031,2.54855557719253,-0.718900310485534,-0.13002624220648,ST
5.66666666666667,-5.98023319244385,0.629246413707733,8.70357799530029,-0.518296003341675,1.49391198158264,0.213415995240211,-1020.30004882812,6.90000009536743,-928.500061035156,2.57970855288038,-0.603800971827785,-0.071853396061922,ST
5.7,-4.99868059158325,0.216527760028839,8.3871603012085,-0.426831990480423,-1.2576299905777,-0.899396002292633,-1008.30004882812,9.90000057220459,-935.700012207031,2.61005324264124,-0.535420221523342,-0.0242678647567549,ST
5.73333333333333,-4.53631639480591,0.0053832866251468,7.33682155609131,0.762199997901917,-0.846041977405548,-0.960371971130371,-1013.10003662109,12.9000005722046,-928.500061035156,2.63188179477405,-0.55222723525595,-0.0011178052126069,ST
5.76666666666667,-5.55914068222046,0.104076877236366,8.47448921203613,0.861285984516144,0.792688012123108,-0.78506600856781,-1017.90002441406,10.5,-938.100036621094,2.63515490699411,-0.581866016713987,-0.0128658457564453,ST
5.8,-6.08311414718628,0.142956167459488,9.02358531951904,0.708845973014832,0.259148001670837,-0.571649968624115,-1025.10009765625,9.90000057220459,-928.500061035156,2.64060324210829,-0.593537364350478,-0.0164018278966283,ST
5.83333333333333,-5.07045793533325,-0.302660346031189,8.34349632263184,0.190549999475479,-0.541162014007568,-0.335367977619171,-1008.30004882812,9.30000019073486,-938.100036621094,2.67211260556557,-0.544934692590835,0.0361383492848464,ST
5.86666666666667,-5.36055707931519,-0.256005197763443,9.0971565246582,0.365855991840363,-0.0381099991500378,-0.282013982534409,-1015.50006103516,12.9000005722046,-930.900024414062,2.67139645927777,-0.532266786470196,0.0278088066402429,ST
5.9,-4.94724035263062,-0.312828779220581,7.71484804153442,2.41617393493652,0.0838419944047928,0.0762199983000755,-1020.30004882812,10.5,-928.500061035156,2.68659272523462,-0.569917165552082,0.0362101361393008,ST
5.93333333333333,-4.635009765625,-0.205163031816483,7.81413984298706,1.21189796924591,0.472563982009888,-0.342989981174469,-1020.30004882812,8.70000076293945,-930.900024414062,2.68797309851406,-0.536156027806232,0.0245461187511179,ST
5.96666666666667,-5.25887298583984,0.421092659235001,7.96307754516602,0.746955990791321,0.282013982534409,0.228659987449646,-1020.30004882812,9.30000019073486,-940.500061035156,2.64780274271673,-0.583316611421724,-0.0541163429604783,ST
6.0,-5.37969779968262,0.221312895417213,7.66580009460449,0.792688012123108,0.945127964019775,0.792688012123108,-1020.30004882812,12.3000001907349,-928.500061035156,2.65880993106672,-0.61322005103897,-0.0313382520025651,ST
6.03333333333333,-4.55186796188354,-0.0885251611471176,8.1305570602417,0.213415995240211,0.640248000621796,0.365855991840363,-1015.50006103516,6.90000009536743,-928.500061035156,2.6792360159048,-0.511846142832354,0.0100191434092816,ST
6.06666666666667,-5.25109720230103,-0.330773055553436,8.67546558380127,0.564027965068817,-0.769822001457214,-0.297257989645004,-1008.30004882812,5.10000038146973,-928.500061035156,2.69759305073001,-0.54255125779228,0.0373516735977132,ST
6.1,-5.67876958847046,0.192602038383484,7.88771152496338,1.22714197635651,-0.792688012123108,-0.403965979814529,-1010.70001220703,9.90000057220459,-930.900024414062,2.67165225842008,-0.622294084894769,-0.0258664545450578,ST
6.13333333333333,-4.90716505050659,0.213537037372589,7.53361082077026,0.716467976570129,-0.495429992675781,0.0838419944047928,-1010.70001220703,8.70000076293945,-933.300048828125,2.67232966300378,-0.576422471115482,-0.0296551425286858,ST
6.16666666666667,-5.5298318862915,0.565843224525452,7.30751276016235,0.121951997280121,-0.564027965068817,0.0990860015153885,-1003.50006103516,12.3000001907349,-926.100036621094,2.64511002659773,-0.645112182293997,-0.0773791586124825,ST
6.2,-5.65723609924316,0.185424327850342,8.03126525878906,-0.327746003866196,0.0990860015153885,0.6250039935112,-1001.10003662109,6.30000019073486,-928.500061035156,2.67118434420051,-0.613812992155094,-0.0234779293602579,ST
6.23333333333333,-5.65065670013428,0.0077758585102856,7.5168628692627,0.152439996600151,-0.175305992364883,-0.190549999475479,-1010.70001220703,11.7000007629395,-921.300048828125,2.68631082608554,-0.644190646346975,-0.0011353651896003,ST
6.26666666666667,-5.88871765136719,0.080151155591011,8.61864185333252,-0.0228659994900227,0.121951997280121,-0.236281991004944,-1003.50006103516,8.70000076293945,-928.500061035156,2.68321281098799,-0.599758379190684,-0.0089509332149737,ST
6.3,-5.59443140029907,0.0322997197508812,8.03904151916504,0.472563982009888,-1.65397393703461,0.0381099991500378,-1013.10003662109,14.7000007629395,-933.300048828125,2.68748510124564,-0.605064058017529,-0.0048956824685558,ST
6.33333333333333,-5.68654537200928,-0.0490477234125137,7.9134316444397,0.289635986089706,-0.426831990480423,0.365855991840363,-1015.50006103516,9.30000019073486,-918.900024414062,2.69223944328671,-0.622282612258034,0.0051934111740793,ST
6.36666666666667,-5.56811285018921,-0.0968991592526436,8.01571369171143,0.213415995240211,0.442075997591019,0.144817993044853,-1015.50006103516,5.10000038146973,-928.500061035156,2.69595229772962,-0.607919372553305,0.0115231401603717,ST
6.4,-5.78284645080566,-0.0508421510457993,8.39493656158447,0.0914639979600906,-0.304879993200302,0.381099998950958,-1003.50006103516,9.30000019073486,-933.300048828125,2.69024433513038,-0.602678734860675,0.0054512259775662,ST
6.43333333333333,-5.01243829727173,-0.103478737175465,7.66998720169067,0.0457319989800453,-0.548784017562866,0.411587983369827,-1010.70001220703,8.70000076293945,-923.700012207031,2.69163200129344,-0.577910610456739,0.0129159457464816,ST
6.46666666666667,-5.08660793304443,-0.338548928499222,8.11380958557129,-0.0457319989800453,-0.266770005226135,0.304879993200302,-1015.50006103516,5.70000028610229,-923.700012207031,2.70446787924795,-0.559180762289046,0.0413679597798729,ST
6.5,-5.11053371429443,-0.375035643577576,8.47867679595947,0.777444005012512,0.426831990480423,0.282013982534409,-1005.90002441406,8.70000076293945,-926.100036621094,2.70662189693069,-0.542813347254807,0.0425675770474981,ST
6.53333333333333,-5.34919261932373,-0.39537250995636,7.89070224761963,0.846041977405548,-0.320124000310898,-0.403965979814529,-1025.10009765625,2.10000014305115,-923.700012207031,2.71647517629527,-0.594381995332486,0.0490179477015215,ST
6.56666666666667,-5.64826393127441,-0.0777585878968239,7.93017959594727,0.495429992675781,0.830797970294952,0.160062000155449,-1010.70001220703,9.30000019073486,-935.700012207031,2.69491694599005,-0.620235736757498,0.0089015584205172,ST
6.6,-5.27442455291748,-0.0502440109848976,7.79739189147949,0.480185985565186,0.419209986925125,0.556405961513519,-998.700012207031,8.70000076293945,-930.900024414062,2.69112677120807,-0.595535560600025,0.0049621040462804,ST
6.63333333333333,-4.81505107879639,-0.136376604437828,8.18738079071045,0.564027965068817,0.25152599811554,0.922261953353882,-1022.70001220703,3.90000009536743,-945.300048828125,2.69236074443155,-0.532264380191435,0.0146917074744796,ST
6.66666666666667,-5.01542901992798,-0.133385881781578,7.85541152954102,0.259148001670837,-0.708845973014832,0.182927995920181,-1015.50006103516,17.1000003814697,-926.100036621094,2.69296420429192,-0.566874737147306,0.0163070106609801,ST
6.7,-5.0375599861145,0.118432305753231,8.2202787399292,0.129574000835419,-0.144817993044853,0.0914639979600906,-1005.90002441406,9.90000057220459,-933.300048828125,2.67648190378064,-0.549526308039396,-0.0146687353716714,ST
6.73333333333333,-5.4197735786438,0.278136491775513,8.72331714630127,0.358233988285065,-0.457319974899292,0.693601965904236,-1015.50006103516,7.50000047683716,-930.900024414062,2.66363394629869,-0.554847994482156,-0.0331643627989419,ST
6.76666666666667,-4.88862228393555,0.111254595220089,8.01691055297852,-0.358233988285065,-0.868907988071442,0.37347799539566,-1017.90002441406,7.50000047683716,-930.900024414062,2.66961399537063,-0.546039191510965,-0.0136814309887047,ST
6.8,-4.92451095581055,0.0083740018308162,7.20941734313965,-0.792688012123108,-0.396344006061554,-0.0457319989800453,-1003.50006103516,7.50000047683716,-921.300048828125,2.67392763913346,-0.598385799240605,0.0002246170665664,ST
6.83333333333333,-5.75174283981323,0.704014301300049,8.90754508972168,-0.617381989955902,-0.243903994560242,0.762199997901917,-1017.90002441406,5.70000028610229,-947.700012207031,2.62277001818474,-0.571518581720309,-0.0783430228591758,ST
6.86666666666667,-4.97056818008423,0.495262384414673,8.2442045211792,0.0304879993200302,-2.26373386383057,1.05183601379395,-1017.90002441406,3.30000019073486,-930.900024414062,2.62503782438043,-0.537762118336951,-0.0610335425113022,ST
6.9,-4.54469013214111,0.83859646320343,6.09627294540405,0.419209986925125,-0.731711983680725,0.708845973014832,-1017.90002441406,5.70000028610229,-945.300048828125,2.58032598527452,-0.634335966578297,-0.137901930380315,ST
6.93333333333333,-5.5298318862915,0.419896364212036,8.08988380432129,-0.815553963184357,1.31860601902008,0.861285984516144,-1015.50006103516,13.5000009536743,-935.700012207031,2.619305323599,-0.601259522558211,-0.0517097059645298,ST
6.96666666666667,-5.98382234573364,0.51739364862442,7.32964420318604,0.121951997280121,1.6844619512558,0.160062000155449,-991.500061035156,8.10000038146973,-930.900024414062,2.60661350258606,-0.686036174238733,-0.0710067709613955,ST
7.0,-6.1830039024353,-0.0472532957792282,8.10483741760254,-0.205793991684914,2.14940404891968,-0.106707997620106,-1013.10003662109,11.7000007629395,-926.100036621094,2.65404533522125,-0.655552911676036,0.0060720577174315,ST
7.03333333333333,-5.86120319366455,0.170470744371414,7.40201950073242,0.213415995240211,-0.0076219998300075,-0.807931959629059,-1010.70001220703,8.70000076293945,-923.700012207031,2.64284838156011,-0.669582009292019,-0.0221776080073573,ST
7.06666666666667,-5.30851888656616,-0.0634031519293785,8.18558692932129,0.205793991684914,-0.525918006896973,-0.0838419944047928,-1013.10003662109,6.30000019073486,-926.100036621094,2.66157714136727,-0.574752666426524,0.0073752757371403,ST
7.1,-5.89529705047607,0.0412718653678894,8.35545921325684,0.137196004390717,-1.00610399246216,0.0609759986400604,-1013.10003662109,11.1000003814697,-942.900024414062,2.65478161192517,-0.612547808512374,-0.0052000910755752,ST
7.13333333333333,-5.67936754226685,0.245836764574051,7.6448655128479,0.480185985565186,0.228659987449646,0.358233988285065,-1013.10003662109,6.90000009536743,-930.900024414062,2.63819567870152,-0.638994069473891,-0.0333721925339739,ST
7.16666666666667,-5.29535961151123,-0.0047851437702775,7.13165855407715,0.487807989120483,1.04421401023865,-0.167683988809586,-1010.70001220703,12.3000001907349,-926.100036621094,2.66168683080642,-0.640513032263024,-4.18299366083047e-05,ST
7.2,-5.80617380142212,-0.135778456926346,8.50260257720947,-0.198172003030777,1.39482593536377,-0.411587983369827,-991.500061035156,7.50000047683716,-921.300048828125,2.67339867767823,-0.601643266575526,0.0167734450713655,ST
7.23333333333333,-5.11053371429443,-0.401353925466537,8.27889728546143,-0.266770005226135,-0.670735955238342,-0.632625997066498,-1020.30004882812,11.1000003814697,-930.900024414062,2.69447072578862,-0.55139061287511,0.0494893841554798,ST
7.26666666666667,-5.14103889465332,-0.0131591456010938,7.83746719360352,0.411587983369827,-2.5076379776001,-0.297257989645004,-1010.70001220703,11.1000003814697,-928.500061035156,2.672408600282,-0.576083757338577,0.0014724632679537,ST
7.3,-5.17214250564575,-0.230883181095123,8.37998294830322,0.533540010452271,-0.670735955238342,0.46494197845459,-1017.90002441406,6.90000009536743,-930.900024414062,2.6844423314906,-0.551701458569662,0.0260476021653876,ST
7.33333333333333,-5.40063285827637,-0.237462759017944,8.56779956817627,0.114329993724823,-0.0076219998300075,-0.190549999475479,-996.300048828125,12.9000005722046,-928.500061035156,2.68722174790891,-0.562209602861104,0.0277141834775631,ST
7.36666666666667,-5.11950588226318,-0.240453481674194,8.20532512664795,0.335367977619171,0.236281991004944,0.0228659994900227,-1013.10003662109,10.5,-923.700012207031,2.68922519406869,-0.558052941748727,0.0286919944170437,ST
7.4,-5.67876958847046,-0.38939106464386,8.34648704528809,0.556405961513519,-0.571649968624115,0.388722002506256,-1008.30004882812,11.1000003814697,-926.100036621094,2.69790167822341,-0.595851649921257,0.0451068036702583,ST
7.43333333333333,-4.76540517807007,-0.554478526115417,7.90445947647095,0.25152599811554,-1.31860601902008,0.579271972179413,-1010.70001220703,8.10000038146973,-926.100036621094,2.70716030298992,-0.539428771283405,0.0688085681557385,ST
7.46666666666667,-4.89280939102173,-0.321800917387009,6.76439905166626,0.556405961513519,-0.175305992364883,0.411587983369827,-1005.90002441406,6.90000009536743,-916.500061035156,2.69439924238192,-0.625262578230302,0.0460747811332812,ST
7.5,-5.83548259735107,-0.336156338453293,7.80755996704102,0.129574000835419,0.78506600856781,0.320124000310898,-1022.70001220703,14.7000007629395,-942.900024414062,2.69101979075716,-0.642728647221484,0.0424423260690272,ST
7.53333333333333,-5.69192838668823,-0.0263182912021875,7.86438369750977,-0.426831990480423,-0.907018005847931,-0.144817993044853,-1010.70001220703,5.10000038146973,-930.900024414062,2.66724720946232,-0.624952478656692,0.0043602323415883,ST
7.56666666666667,-5.42515659332275,0.0945065915584564,7.80636405944824,-0.213415995240211,-0.525918006896973,0.800309956073761,-1013.10003662109,9.90000057220459,-928.500061035156,2.65119245577841,-0.606438443880898,-0.0126332641937489,ST
7.6,-5.3539776802063,-0.169274464249611,7.52344226837158,0.0076219998300075,-0.144817993044853,0.327746003866196,-1008.30004882812,9.30000019073486,-933.300048828125,2.66893187849639,-0.618093357323919,0.0219432602972374,ST
7.63333333333333,-5.91264343261719,-0.0245238617062569,8.18738079071045,0.190549999475479,0.0685980021953583,0.160062000155449,-1005.90002441406,8.70000076293945,-918.900024414062,2.65747681259193,-0.625539027289728,0.0025331762972216,ST
7.66666666666667,-6.11661005020142,0.198583468794823,8.47508811950684,0.327746003866196,-0.243903994560242,0.419209986925125,-1010.70001220703,9.30000019073486,-928.500061035156,2.64044770934867,-0.624581983675913,-0.0244543255098917,ST
7.7,-5.19367551803589,0.0568235814571381,7.43491697311401,0.335367977619171,-0.282013982534409,0.602137982845306,-1008.30004882812,8.70000076293945,-935.700012207031,2.64698482892013,-0.609294952263259,-0.0090151686559166,ST
7.73333333333333,-4.86110782623291,-0.488682806491852,7.68434286117554,-0.228659987449646,-0.487807989120483,0.243903994560242,-1008.30004882812,5.10000038146973,-916.500061035156,2.68419006283346,-0.562488165593458,0.0633472097322555,ST
7.76666666666667,-5.73080778121948,-0.296678900718689,9.0971565246582,-0.594515979290009,-0.647870004177094,0.259148001670837,-1010.70001220703,9.90000057220459,-928.500061035156,2.66347479970029,-0.560805640487755,0.0334032414269768,ST
7.8,-4.95681095123291,-0.329576790332794,7.08141469955444,0.716467976570129,-0.594515979290009,0.25152599811554,-1013.10003662109,6.30000019073486,-914.100036621094,2.67132961894668,-0.60906832340297,0.0448883337858909,ST
7.83333333333333,-5.079430103302,-0.28112718462944,8.23882102966309,0.0762199983000755,0.731711983680725,0.266770005226135,-1015.50006103516,17.7000007629395,-923.700012207031,2.66391466363822,-0.55371742068197,0.0337542011047536,ST
7.86666666666667,-5.56751489639282,-0.0508421510457993,8.36562728881836,-0.0685980021953583,0.0,0.160062000155449,-1017.90002441406,6.90000009536743,-940.500061035156,2.64759992832523,-0.587081292715799,0.0061158100658215,ST
7.9,-5.42874574661255,-0.497056812047958,9.0074348449707,-0.342989981174469,-0.746955990791321,0.175305992364883,-1015.50006103516,6.90000009536743,-933.300048828125,2.67101622712144,-0.540616101130371,0.0553224651972785,ST
7.93333333333333,-3.81495594978333,-0.544310092926025,7.62512636184692,0.0076219998300075,-1.85214591026306,-0.198172003030777,-1005.90002441406,9.90000057220459,-933.300048828125,2.67924257829833,-0.459828413784982,0.0712698198985572,ST
7.96666666666667,-3.92321968078613,-0.2613884806633,7.49413347244263,-0.106707997620106,-1.2500079870224,-0.0609759986400604,-1022.70001220703,8.70000076293945,-935.700012207031,2.66249594268888,-0.479810346089279,0.0351237795596381,ST
8.0,-5.45925092697144,0.39238178730011,9.46621036529541,0.236281991004944,-0.586893975734711,0.685979962348938,-1013.10003662109,14.7000007629395,-928.500061035156,2.62127524760198,-0.521576507571291,-0.0423107233263202,ST
8.03333333333333,-4.07514810562134,-0.159704178571701,8.23403644561768,0.579271972179413,-1.62348592281342,0.693601965904236,-1010.70001220703,12.9000005722046,-928.500061035156,2.64641159863698,-0.456880609530207,0.0175868373966789,ST
8.06666666666667,-4.69362783432007,0.342137783765793,7.49772214889526,-0.259148001670837,-0.861285984516144,0.0152439996600151,-1017.90002441406,11.1000003814697,-918.900024414062,2.61503059705311,-0.556986861547501,-0.0448765807207254,ST
8.1,-5.56990718841553,0.349913626909256,7.9876012802124,-0.480185985565186,0.823175966739655,0.503051996231079,-1022.70001220703,11.7000007629395,-921.300048828125,2.60961917163321,-0.609744638542995,-0.0435997856605021,ST
8.13333333333333,-5.67458248138428,0.202172324061394,7.37091588973999,0.83841997385025,1.89025592803955,0.434453994035721,-1022.70001220703,15.9000005722046,-942.900024414062,2.61882891560986,-0.659004778375482,-0.0295965654182965,ST
8.16666666666667,-5.68654537200928,-0.247033044695854,9.35017108917236,-0.259148001670837,0.891773998737335,-0.137196004390717,-1022.70001220703,9.30000019073486,-928.500061035156,2.65079951219377,-0.548216170880394,0.0268443509992993,ST
8.2,-4.84376192092896,-0.0029907147400081,7.74714756011963,0.106707997620106,-2.25611186027527,-0.99848198890686,-1008.30004882812,14.1000003814697,-933.300048828125,2.64464772087716,-0.554801544697554,0.0013729900404104,ST
8.23333333333333,-5.30373382568359,0.148937597870827,7.65563201904297,0.182927995920181,-1.85214591026306,-0.221037998795509,-1013.10003662109,14.1000003814697,-926.100036621094,2.63577848901695,-0.602381178002908,-0.0193845642333901,ST
8.26666666666667,-4.94365167617798,-0.0622068680822849,7.99896574020386,0.830797970294952,0.0228659994900227,0.0,-1015.50006103516,8.70000076293945,-928.500061035156,2.65358981139418,-0.553720896571759,0.0062678222393933,ST
8.3,-5.51607465744019,0.0400755777955055,8.05459308624268,0.960371971130371,1.47866797447205,-0.0609759986400604,-1013.10003662109,6.90000009536743,-947.700012207031,2.65128437600917,-0.602870819871799,-0.0065398924290214,ST
8.33333333333333,-4.80189180374146,0.29009935259819,7.09337759017944,1.14329993724823,0.746955990791321,0.236281991004944,-1017.90002441406,14.7000007629395,-926.100036621094,2.63420797208741,-0.596010153613718,-0.0430768819919383,ST
8.36666666666667,-5.08122444152832,-0.0131591456010938,7.61615467071533,0.0685980021953583,0.861285984516144,0.548784017562866,-1013.10003662109,11.7000007629395,-923.700012207031,2.65531548919379,-0.589874353717059,0.0008074238888844,ST
8.4,-5.62553453445435,-0.160900458693504,8.39613246917725,0.175305992364883,1.56251001358032,0.25152599811554,-1010.70001220703,17.7000007629395,-938.100036621094,2.66442748150262,-0.592959797355813,0.0185519213826247,ST
8.43333333333333,-5.30253744125366,-0.154919028282166,9.71025276184082,0.274392008781433,0.282013982534409,0.282013982534409,-1015.50006103516,8.70000076293945,-918.900024414062,2.66178274575,-0.500451384394415,0.0152146746548042,ST
8.46666666666667,-5.19307708740234,0.0634031519293785,8.57677173614502,0.403965979814529,-1.72257196903229,0.0076219998300075,-1008.30004882812,4.5,-940.500061035156,2.65190298510798,-0.541300104992707,-0.0080212081932882,ST
8.5,-4.37421941757202,-0.117236025631428,7.94274044036865,0.25152599811554,0.182927995920181,0.411587983369827,-1020.30004882812,3.90000009536743,-942.900024414062,2.66077421953548,-0.50375144969969,0.0138850644779539,ST
8.53333333333333,-4.63680410385132,-0.135778456926346,7.72501659393311,0.830797970294952,0.0914639979600906,-0.182927995920181,-1015.50006103516,14.7000007629395,-921.300048828125,2.66666905081911,-0.540541166528248,0.0163076590632836,ST
8.56666666666667,-4.07395172119141,-0.164489313960075,8.0115270614624,0.327746003866196,-0.594515979290009,-0.807931959629059,-998.700012207031,9.90000057220459,-923.700012207031,2.67589278135355,-0.469494045694598,0.0206506406620604,ST
8.6,-4.9095573425293,-0.273949474096298,7.49592781066895,0.769822001457214,-0.716467976570129,-0.701223969459534,-1010.70001220703,10.5,-940.500061035156,2.69196594765959,-0.577995306918502,0.0359111063511004,ST
8.63333333333333,-5.01542901992798,-0.718967854976654,7.85541152954102,0.586893975734711,-0.0533539988100529,-0.213415995240211,-1013.10003662109,17.7000007629395,-930.900024414062,2.72577606601918,-0.566234142710022,0.0903723441931391,ST
8.66666666666667,-5.58187007904053,-0.378624498844147,7.97862911224365,0.762199997901917,0.609759986400604,-0.655492007732391,-998.700012207031,15.9000005722046,-930.900024414062,2.70978733386398,-0.610776454806841,0.0470872080876897,ST
8.7,-6.22427558898926,-0.181237325072289,9.28317928314209,0.495429992675781,1.2423859834671,-0.442075997591019,-1015.50006103516,9.90000057220459,-942.900024414062,2.69976672347746,-0.592753093927229,0.0192706259960058,ST
8.73333333333333,-6.1052451133728,-0.0556272976100445,7.69570732116699,0.846041977405548,-0.907018005847931,-0.37347799539566,-996.300048828125,9.90000057220459,-928.500061035156,2.69860528571049,-0.668780777767038,0.0063051312608968,ST
8.76666666666667,-5.7385835647583,-0.228490620851517,7.49114274978638,-0.0914639979600906,0.602137982845306,0.571649968624115,-1010.70001220703,12.9000005722046,-947.700012207031,2.70905353045085,-0.654602052233822,0.0298248292768206,ST
8.8,-4.72174072265625,-0.672312676906586,7.87993574142456,-0.381099998950958,0.78506600856781,0.769822001457214,-1015.50006103516,8.70000076293945,-933.300048828125,2.73356034009064,-0.540144932027733,0.0848542675823834,ST
8.83333333333333,-5.57887935638428,-0.288903057575226,8.22147560119629,-0.228659987449646,-0.685979962348938,0.556405961513519,-998.700012207031,14.1000003814697,-938.100036621094,2.70178196272171,-0.594554540045013,0.0350322958982954,ST
8.86666666666667,-5.22118997573853,-0.186620607972145,7.08919048309326,0.3125019967556,-0.0304879993200302,0.282013982534409,-1005.90002441406,12.3000001907349,-935.700012207031,2.69588218450747,-0.634452181586438,0.0254463919310046,ST
8.9,-4.60151386260986,-0.421690791845322,8.93266677856445,-0.419209986925125,-0.922261953353882,0.769822001457214,-1022.70001220703,11.7000007629395,-930.900024414062,2.69955978010269,-0.474070654177525,0.0471244750328019,ST
8.93333333333333,-6.14532089233398,0.15312460064888,7.6568284034729,0.594515979290009,0.121951997280121,0.830797970294952,-1008.30004882812,7.50000047683716,-933.300048828125,2.65890974531319,-0.67601349093841,-0.0220428971601079,ST
8.96666666666667,-5.82352018356323,-0.557469248771667,9.86935901641846,-0.449698001146317,0.0990860015153885,0.960371971130371,-1010.70001220703,8.10000038146973,-916.500061035156,2.69443161620223,-0.532996501264486,0.0560529664735783,ST
9.0,-4.38857507705688,0.099889874458313,8.36263656616211,0.0685980021953583,-3.01068997383118,0.152439996600151,-1008.30004882812,8.70000076293945,-945.300048828125,2.66062998913233,-0.478197145948963,-0.0119272689773524,ST
9.03333333333333,-5.33663177490234,0.0317015759646893,8.59591293334961,-0.975615978240967,-0.236281991004944,0.304879993200302,-1015.50006103516,8.70000076293945,-938.100036621094,2.65923519335188,-0.554898127319846,-0.0023487565655846,ST
9.06666666666667,-4.33892917633057,-0.810483753681183,7.9636754989624,0.190549999475479,0.0304879993200302,-0.0838419944047928,-1010.70001220703,9.90000057220459,-928.500061035156,2.71253909149747,-0.496896797234999,0.100932523081156,ST
9.1,-4.14513063430786,0.274547636508942,6.17403173446655,1.15854394435883,-1.37195992469788,0.137196004390717,-1017.90002441406,10.5,-928.500061035156,2.64072354686165,-0.588142721399469,-0.0460843954969716,ST
9.13333333333333,-5.04832649230957,0.148937597870827,9.32265663146973,-0.0609759986400604,2.08842802047729,0.830797970294952,-1001.10003662109,15.3000001907349,-926.100036621094,2.649513984119,-0.500194186813442,-0.016797811610045,ST
9.16666666666667,-4.34909772872925,-0.0771604403853416,8.78851509094238,0.846041977405548,-2.53812599182129,0.289635986089706,-1013.10003662109,8.10000038146973,-935.700012207031,2.66136726573264,-0.455253744437172,0.0069511509774271,ST
9.2,-5.64288091659546,0.699229121208191,7.13165855407715,0.594515979290009,-1.19665396213531,0.137196004390717,-1017.90002441406,10.5,-921.300048828125,2.60756627590621,-0.664329231523143,-0.0984357642899468,ST
9.23333333333333,-4.51956844329834,-0.173461467027664,8.488844871521,-1.27287399768829,0.556405961513519,0.342989981174469,-1003.50006103516,14.1000003814697,-923.700012207031,2.66598271041573,-0.490790967398655,0.0219376296661018,ST
9.26666666666667,-5.04055070877075,-0.312828779220581,8.15747356414795,0.228659987449646,0.350611984729767,-0.480185985565186,-1010.70001220703,12.9000005722046,-928.500061035156,2.67855999624035,-0.553501508002931,0.0383979511267463,ST
9.3,-5.89768981933594,0.283519774675369,7.47977781295776,1.18140995502472,0.304879993200302,-0.365855991840363,-1017.90002441406,12.9000005722046,-923.700012207031,2.64201358023839,-0.667470330412493,-0.0391550331306577,ST
9.33333333333333,-4.11761617660522,-0.276342064142227,8.39015102386475,0.670735955238342,0.853663980960846,-0.106707997620106,-1015.50006103516,11.1000003814697,-928.500061035156,2.68371230468909,-0.458015792532388,0.0317212530031365,ST
9.36666666666667,-5.42695140838623,0.275145769119263,6.62263917922974,1.70732796192169,-1.63110792636871,-0.617381989955902,-1013.10003662109,5.10000038146973,-918.900024414062,2.65543138436313,-0.682437737745888,-0.0432234435637293,ST
9.4,-5.46583032608032,0.350511789321899,8.00195693969727,-0.0152439996600151,1.15092194080353,0.495429992675781,-1013.10003662109,11.7000007629395,-926.100036621094,2.65109071167135,-0.601089503622387,-0.0443994485558778,ST
9.43333333333333,-5.03935432434082,-0.159106031060219,8.596510887146,0.0228659994900227,0.304879993200302,0.830797970294952,-1013.10003662109,8.10000038146973,-940.500061035156,2.67847658313018,-0.530911808280566,0.0174426924343162,ST
9.46666666666667,-5.4317364692688,0.116039738059044,8.60368824005127,-0.0,-0.937505960464478,0.411587983369827,-1013.10003662109,10.5,-928.500061035156,2.6594618987607,-0.56133783448959,-0.0138062414884416,ST
9.5,-4.78394746780396,0.110058307647705,7.9038610458374,0.221037998795509,-0.807931959629059,0.419209986925125,-1022.70001220703,3.90000009536743,-926.100036621094,2.65709586056562,-0.542887888617688,-0.0147358694565821,ST
9.53333333333333,-4.80727529525757,-0.534739792346954,7.61914539337158,-0.0762199983000755,0.297257989645004,-0.160062000155449,-1015.50006103516,7.50000047683716,-928.500061035156,2.7026758572312,-0.562220560706833,0.0702330507207466,ST
9.56666666666667,-4.48367977142334,-0.624461233615875,9.3358154296875,-0.282013982534409,-0.449698001146317,-0.342989981174469,-1010.70001220703,6.30000019073486,-928.500061035156,2.70259304862264,-0.446470316849913,0.0675518817814666,ST
9.6,-4.06079244613647,-0.158507883548737,7.40620613098145,0.617381989955902,-2.75154185295105,-0.289635986089706,-1008.30004882812,3.90000009536743,-928.500061035156,2.68508462564188,-0.496442555181408,0.0207159564606701,ST
9.63333333333333,-4.52136278152466,-0.229088753461838,7.37749528884888,0.46494197845459,-0.480185985565186,0.472563982009888,-1015.50006103516,14.7000007629395,-930.900024414062,2.68811886351043,-0.54860099891562,0.0296771058591791,ST
9.66666666666667,-5.09258937835693,-0.668125689029694,7.72800731658936,0.777444005012512,2.12653803825378,0.121951997280121,-1015.50006103516,14.1000003814697,-928.500061035156,2.72174941080426,-0.584600481093679,0.0848445932071144,ST
9.7,-5.475998878479,-0.468944102525711,10.7743492126465,-0.137196004390717,-0.533540010452271,0.335367977619171,-1010.70001220703,10.5,-933.300048828125,2.69757893297504,-0.469159322519466,0.0434924079156897,ST
9.73333333333333,-4.71396493911743,-0.500047504901886,8.43321800231934,0.0533539988100529,-3.52898597717285,-0.213415995240211,-1008.30004882812,7.50000047683716,-921.300048828125,2.70518435777759,-0.502667354334553,0.0590777635485625,ST
9.76666666666667,-4.9574089050293,-0.602928102016449,8.36802005767822,0.25152599811554,-1.64635193347931,-0.0152439996600151,-1008.30004882812,15.9000005722046,-928.500061035156,2.71160447476992,-0.530759518293335,0.0713523551095717,ST
9.8,-4.23664665222168,-0.705210566520691,8.87943267822266,0.617381989955902,0.137196004390717,-0.205793991684914,-1017.90002441406,9.30000019073486,-923.700012207031,2.7186554894752,-0.444493755214455,0.0783335075249975,ST
9.83333333333333,-3.78265619277954,-0.334960073232651,7.46422624588013,0.846041977405548,-1.6692179441452,-0.403965979814529,-1015.50006103516,1.5,-928.500061035156,2.70879840772994,-0.465625683521784,0.0437852055821774,ST
9.86666666666667,-4.13675689697266,-0.299071490764618,6.94802856445312,0.3125019967556,0.0533539988100529,0.236281991004944,-1025.10009765625,2.70000004768372,-938.100036621094,2.70763532274107,-0.536613148594095,0.0422318734854561,ST
9.9,-6.5975170135498,-0.149535745382309,8.15029621124268,-0.175305992364883,0.922261953353882,0.403965979814529,-1015.50006103516,9.90000057220459,-923.700012207031,2.69021320796601,-0.681753999458227,0.0181566173868691,DLR
9.93333333333333,-5.96348524093628,-0.203966751694679,9.37648963928223,-0.190549999475479,1.6692179441452,0.403965979814529,-1005.90002441406,7.50000047683716,-947.700012207031,2.68876550782236,-0.569564740010475,0.0216615841766651,DLR
9.96666666666667,-6.14053583145142,-0.0155517170205712,7.94453477859497,0.800309956073761,0.548784017562866,-0.0838419944047928,-1005.90002441406,10.5,-923.700012207031,2.68125233188999,-0.658703527863604,0.0007398958053519,DLR
10.0,-5.06627082824707,-0.391185492277145,8.87883472442627,0.190549999475479,-0.617381989955902,0.137196004390717,-1015.50006103516,6.90000009536743,-928.500061035156,2.70467753439533,-0.517562170764421,0.0433901821097904,DLR
10.0333333333333,-4.51418495178223,-0.11484345048666,7.1884822845459,0.25152599811554,-1.37195992469788,-0.708845973014832,-1005.90002441406,6.90000009536743,-928.500061035156,2.69672404279012,-0.558142466966627,0.0163659629081934,DLR
10.0666666666667,-4.44061326980591,-0.294286340475082,7.67297792434692,0.0609759986400604,-0.342989981174469,-0.114329993724823,-1013.10003662109,9.30000019073486,-938.100036621094,2.70895646038329,-0.523838610304985,0.0382515284877859,DLR
10.1,-4.22827243804932,-0.643003702163696,8.2681303024292,1.08994603157043,0.685979962348938,-0.487807989120483,-1015.50006103516,10.5,-928.500061035156,2.7349172417566,-0.472820424171362,0.0760588820547211,DLR
10.1333333333333,-5.12010383605957,-0.366063505411148,9.00803279876709,2.09605002403259,1.2423859834671,-1.70732796192169,-1017.90002441406,8.70000076293945,-923.700012207031,2.73786289088732,-0.518381469927305,0.0388414317410733,DLR
10.1666666666667,-4.17683219909668,-0.590367138385773,9.99855804443359,2.80489587783813,-0.0457319989800453,-2.37044191360474,-1022.70001220703,7.50000047683716,-921.300048828125,2.77196828396595,-0.39523775250702,0.0557605309521895,DLR
10.2,-3.94415473937988,0.332567483186722,7.36074733734131,3.58234000205994,-4.15398979187012,-4.23783206939697,-1022.70001220703,-0.300000011920929,-930.900024414062,2.77238128363146,-0.484242465339571,-0.046965817239801,DLR
10.2333333333333,-3.81375956535339,-0.0622068680822849,7.58684539794922,3.14788603782654,-1.38720393180847,-4.55795574188232,-1029.90002441406,5.70000028610229,-938.100036621094,2.84509443039187,-0.463347640913921,0.0065705664668849,DLR
10.2666666666667,-3.83050751686096,0.344530344009399,7.00485229492188,4.29118585586548,-1.10518991947174,-5.49546194076538,-1017.90002441406,9.30000019073486,-935.700012207031,2.87404909324223,-0.49832284160763,-0.0511619231534767,DLR
10.3,-5.13625383377075,0.39238178730011,7.59282684326172,3.76526784896851,0.594515979290009,-4.86283588409424,-1029.90002441406,5.70000028610229,-928.500061035156,2.92255656990727,-0.595252915340386,-0.0525210478087171,DLR
10.3333333333333,-5.10694456100464,0.264977335929871,9.02478122711182,3.63569402694702,0.46494197845459,-4.16161203384399,-1020.30004882812,4.5,-926.100036621094,2.98117214863397,-0.515962789719239,-0.031619909204633,DLR
10.3666666666667,-5.7565279006958,-0.107665732502937,9.16235446929932,4.27594184875488,0.403965979814529,-5.20582580566406,-1013.10003662109,5.10000038146973,-916.500061035156,3.05629917555823,-0.561377575279211,0.0098353045903526,DLR
10.4,-6.05739402770996,0.300865918397903,9.23532772064209,4.57319974899292,0.777444005012512,-5.89180564880371,-1022.70001220703,0.300000011920929,-926.100036621094,3.09256543418807,-0.581875426000786,-0.033659395960778,DLR
10.4333333333333,-4.06976461410522,-0.133385881781578,8.77475738525391,5.56405973434448,-0.754577994346619,-6.44058990478516,-1013.10003662109,5.10000038146973,-918.900024414062,-3.10260932417286,-0.433351496970524,0.010582317906028,DLR
10.4666666666667,-3.5972318649292,0.0592161528766155,7.51207780838013,6.71498203277588,-1.44817996025085,-6.71498203277588,-1020.30004882812,-5.10000038146973,-928.500061035156,-3.04082313024572,-0.444168467597408,-0.0139296235666437,DLR
10.5,-3.42975187301636,0.312828779220581,7.22855758666992,5.96040391921997,-1.82165801525116,-5.98326969146729,-1008.30004882812,-4.5,-921.300048828125,-2.98902457079759,-0.439990654519733,-0.0485721028003728,DLR
10.5333333333333,-5.031578540802,0.826035439968109,6.61665773391724,4.86283588409424,0.37347799539566,-5.22869205474854,-1017.90002441406,3.90000009536743,-916.500061035156,-2.97254892216291,-0.647431388689308,-0.125639234098474,DLR
10.5666666666667,-6.06875848770142,0.995309889316559,8.06655597686768,2.17227005958557,2.29422187805176,-3.06404399871826,-1010.70001220703,-11.1000003814697,-918.900024414062,-2.94261459770752,-0.646002113552254,-0.122935808620332,DLR
10.6,-5.77028512954712,0.46236452460289,8.67606353759766,0.167683988809586,1.19665396213531,-1.12805593013763,-981.900024414062,-5.10000038146973,-921.300048828125,-2.89337490792226,-0.588554504817783,-0.0524253397689255,DLR
10.6333333333333,-6.14831161499023,0.488084673881531,9.18388748168945,-1.40244793891907,0.0304879993200302,0.106707997620106,-986.700012207031,-6.30000019073486,-921.300048828125,-2.89968142190839,-0.589329662598344,-0.0507791961721834,DLR
10.6666666666667,-4.91852951049805,-0.07656230032444,9.69111251831055,-0.945127964019775,-0.99848198890686,1.20427596569061,-1010.70001220703,-5.70000028610229,-921.300048828125,-2.88199987584499,-0.468362916991057,0.0082696882042531,DLR
10.7,-3.90527534484863,-0.285912334918976,8.03844356536865,-0.198172003030777,-2.71343183517456,0.739333987236023,-1001.10003662109,-4.5,-928.500061035156,-2.87737154514464,-0.447347874514713,0.0351475735136501,DLR
10.7333333333333,-3.31191754341125,-0.211742609739304,7.90685176849365,-0.167683988809586,-1.36433792114258,0.632625997066498,-993.900024414062,-5.70000028610229,-916.500061035156,-2.88636550303519,-0.394381168316312,0.0266093385570022,DLR
10.7666666666667,-4.14094400405884,-0.288304924964905,8.07433223724365,0.0914639979600906,0.236281991004944,0.571649968624115,-1003.50006103516,0.900000035762787,-926.100036621094,-2.88659299089023,-0.473772272693753,0.0349972961802362,DLR
10.8,-4.15888786315918,-0.20097604393959,8.84952545166016,-0.114329993724823,0.0076219998300075,0.739333987236023,-1008.30004882812,1.5,-906.900024414062,-2.8979415312476,-0.439394956937674,0.0223446225655308,DLR
10.8333333333333,-3.89630341529846,-0.561058104038239,7.66580009460449,0.541162014007568,-1.00610399246216,0.228659987449646,-996.300048828125,-4.5,-938.100036621094,-2.87647435270673,-0.467340850483219,0.0716647954311024,DLR
10.8666666666667,-5.18231058120728,-0.582591235637665,8.40390872955322,-1.17378795146942,-0.175305992364883,-0.0076219998300075,-1010.70001220703,-14.7000007629395,-930.900024414062,-2.88153107044278,-0.550891646938393,0.0712615695362154,DLR
10.9,-4.25698375701904,-0.460570096969604,8.20951271057129,0.266770005226135,-0.236281991004944,0.6250039935112,-998.700012207031,-6.30000019073486,-918.900024414062,-2.89301792712266,-0.477648888225004,0.0550582042942913,DLR
10.9333333333333,-5.499924659729,-0.503038227558136,8.90933990478516,-0.381099998950958,0.556405961513519,0.594515979290009,-1003.50006103516,-0.900000035762787,-935.700012207031,-2.89797327059065,-0.553149765437644,0.0564591061117311,DLR
10.9666666666667,-4.32995700836182,0.0257201474159956,8.44936752319336,0.609759986400604,-0.937505960464478,1.28049600124359,-1003.50006103516,-2.70000004768372,-926.100036621094,-2.93499402858864,-0.472220508541137,-0.0050334858467908,DLR
11.0,-4.79650831222534,0.0634031519293785,7.24171686172485,-0.289635986089706,0.990859985351562,0.693601965904236,-1008.30004882812,-1.5,-916.500061035156,-2.94307205838449,-0.586283432095559,-0.0090435536920579,DLR
11.0333333333333,-4.06856870651245,-0.218322187662125,7.71843671798706,-0.899396002292633,1.52439999580383,1.20427596569061,-1010.70001220703,-0.900000035762787,-918.900024414062,-2.93625793247213,-0.487901940790074,0.0286832266522878,DLR
11.0666666666667,-4.80189180374146,-0.201574176549911,8.668288230896,-0.602137982845306,-0.403965979814529,0.868907988071442,-1005.90002441406,-8.70000076293945,-930.900024414062,-2.94780848091186,-0.505053880710623,0.0234669014823855,DLR
11.1,-4.83359336853027,0.307445496320724,7.70049238204956,0.0838419944047928,0.518296003341675,0.594515979290009,-1005.90002441406,-2.10000014305115,-923.700012207031,-2.98445223284119,-0.56091005727209,-0.0405634761846189,DLR
11.1333333333333,-4.74805879592896,-0.330174922943115,8.09586524963379,0.381099998950958,-0.182927995920181,0.579271972179413,-998.700012207031,0.300000011920929,-923.700012207031,-2.94552918585465,-0.52989706923097,0.0392076073291711,DLR
11.1666666666667,-5.10096311569214,0.666929423809052,8.50379848480225,-0.350611984729767,0.891773998737335,0.350611984729767,-989.100036621094,0.300000011920929,-935.700012207031,-3.00939010844504,-0.540435060536147,-0.0776595103265391,DLR
11.2,-4.58835458755493,0.216527760028839,8.91472244262695,-0.167683988809586,-0.25152599811554,1.10518991947174,-996.300048828125,0.300000011920929,-916.500061035156,-2.99253887210546,-0.474922620508894,-0.0251305836359407,DLR
11.2333333333333,-4.58536386489868,0.695042133331299,9.7000846862793,-0.388722002506256,-1.57013201713562,1.37195992469788,-1001.10003662109,-2.70000004768372,-923.700012207031,-3.02367024024292,-0.437828509327803,-0.0717124961385615,DLR
11.2666666666667,-3.33823585510254,0.379820793867111,7.17472505569458,0.701223969459534,-1.48628997802734,0.685979962348938,-1005.90002441406,-5.70000028610229,-916.500061035156,-3.0184876377547,-0.432316005393197,-0.0546643453855841,DLR
11.3,-4.86708927154541,0.86491471529007,8.75501823425293,-1.04421401023865,-0.0152439996600151,0.647870004177094,-1010.70001220703,-5.70000028610229,-926.100036621094,-3.04623196010529,-0.504916592527064,-0.0971025097732462,DLR
11.3333333333333,-4.03866147994995,0.354698777198792,8.2741117477417,0.46494197845459,-0.0381099991500378,0.907018005847931,-1005.90002441406,8.70000076293945,-923.700012207031,-3.02685407194374,-0.453780770350997,-0.044613018599969,DLR
11.3666666666667,-4.47351121902466,0.281725347042084,8.89498424530029,-0.891773998737335,-1.2347639799118,0.586893975734711,-1015.50006103516,3.30000019073486,-926.100036621094,-3.02780185814048,-0.463562167115678,-0.0306344833292598,DLR
11.4,-3.80897450447083,0.0311034340411425,7.59880828857422,0.114329993724823,-1.41006994247437,0.274392008781433,-1013.10003662109,4.5,-928.500061035156,-3.01765153395012,-0.462193628029452,-0.0046221244924758,DLR
11.4333333333333,-5.39106273651123,-0.0717771574854851,7.66699647903442,-0.114329993724823,1.55488801002502,-0.0381099991500378,-1015.50006103516,-0.900000035762787,-918.900024414062,-3.01053309542469,-0.614965594798708,0.0095684288794732,DLR
11.4666666666667,-5.50112104415894,0.360082060098648,9.46262168884277,-0.716467976570129,1.63872992992401,0.510673999786377,-1003.50006103516,-0.900000035762787,-921.300048828125,-3.04269655607395,-0.529425407136365,-0.0372096134320827,DLR
11.5,-5.41558647155762,-0.133385881781578,7.39244890213013,0.92988395690918,0.0076219998300075,-0.67835795879364,-1010.70001220703,2.10000014305115,-933.300048828125,-3.00289790457148,-0.632019054726961,0.0171913895361925,DLR
11.5333333333333,-5.78703308105469,0.34811919927597,9.7359733581543,-0.891773998737335,0.0152439996600151,0.213415995240211,-1005.90002441406,-3.30000019073486,-926.100036621094,-3.03719938829873,-0.536173956047041,-0.0343327252658718,DLR
11.5666666666667,-3.95492124557495,-0.227294325828552,8.40630149841309,0.78506600856781,-3.22410583496094,-0.0381099991500378,-1013.10003662109,-1.5,-916.500061035156,-3.00656323615579,-0.434359094732175,0.0254156781136622,DLR
11.6,-3.62414836883545,-0.0526365824043751,6.11062860488892,1.47866797447205,-0.411587983369827,-0.861285984516144,-1020.30004882812,3.30000019073486,-916.500061035156,-3.00328947000885,-0.534208558375469,0.006984200342897,DLR
11.6333333333333,-4.43881893157959,-0.0161498598754406,9.01521110534668,0.396344006061554,1.76830399036407,-0.167683988809586,-1001.10003662109,-2.70000004768372,-923.700012207031,-3.00308617424898,-0.460752751440902,0.0012590171880699,DLR
11.6666666666667,-4.97056818008423,-0.001794428913854,8.95778942108154,1.17378795146942,0.335367977619171,-0.350611984729767,-1008.30004882812,-0.300000011920929,-921.300048828125,-2.99694508466009,-0.507063225724434,-0.0015028305950413,DLR
11.7,-3.90467739105225,-0.559861838817596,7.8715615272522,0.6250039935112,-0.495429992675781,0.6250039935112,-1003.50006103516,0.300000011920929,-930.900024414062,-2.9667318695887,-0.458787052839487,0.0692128795264282,DLR
11.7333333333333,-5.4939432144165,-0.352306216955185,9.25686073303223,-0.518296003341675,0.663114011287689,0.0381099991500378,-1010.70001220703,3.30000019073486,-909.300048828125,-2.98328823146963,-0.536183339652874,0.0390499327766902,DLR
11.7666666666667,-4.4442024230957,-0.38939106464386,8.45415306091309,0.213415995240211,1.02134799957275,0.282013982534409,-998.700012207031,-5.10000038146973,-928.500061035156,-2.98103788844726,-0.48553580559839,0.0454151371082083,DLR
11.8,-4.16247701644897,-0.426475942134857,8.393141746521,-0.259148001670837,-0.693601965904236,1.17378795146942,-1008.30004882812,2.70000004768372,-914.100036621094,-2.98909348511036,-0.458837464380583,0.0501677445131623,DLR
11.8333333333333,-3.71745848655701,-0.534739792346954,8.21788597106934,-0.342989981174469,-0.800309956073761,1.85976791381836,-1010.70001220703,-2.10000014305115,-921.300048828125,-2.99965965663029,-0.422906386389896,0.0640505123165673,DLR
11.8666666666667,-4.17025279998779,-0.590367138385773,7.97862911224365,0.190549999475479,-0.548784017562866,1.52439999580383,-1015.50006103516,12.9000005722046,-926.100036621094,-3.00763847009499,-0.479631527053889,0.0720952684644194,DLR
11.9,-4.53212928771973,-0.301464051008224,8.63060474395752,-0.152439996600151,-0.640248000621796,1.04421401023865,-998.700012207031,-2.70000004768372,-928.500061035156,-3.03409463641803,-0.482234605598712,0.0342811423874543,DLR
11.9333333333333,-5.15180540084839,-0.0675901547074318,7.76927900314331,-0.0685980021953583,0.198172003030777,0.945127964019775,-1010.70001220703,-7.50000047683716,-926.100036621094,-3.05474629331008,-0.5856218743244,0.0077985280339911,DLR
11.9666666666667,-5.09857082366943,-0.231481328606606,10.1977396011353,-0.846041977405548,0.0685980021953583,1.59299790859222,-998.700012207031,-0.300000011920929,-942.900024414062,-3.06179038586683,-0.464151915224848,0.0227216883248274,DLR
12.0,-4.43403387069702,-0.142956167459488,8.34768295288086,0.205793991684914,-2.15702605247498,0.746955990791321,-1015.50006103516,0.300000011920929,-926.100036621094,-3.06967491181048,-0.484392790476212,0.0160698559762779,DLR
12.0333333333333,-4.53811073303223,-0.05742172524333,7.51028299331665,-0.0228659994900227,-0.746955990791321,0.731711983680725,-1005.90002441406,-0.900000035762787,-930.900024414062,-3.07955494492,-0.542061135701554,0.0069400687470521,DLR
12.0666666666667,-4.48068904876709,0.212340757250786,8.33930969238281,-0.221037998795509,1.21189796924591,1.34909391403198,-1005.90002441406,4.5,-918.900024414062,-3.1072110864213,-0.495070727417368,-0.0262953973053828,DLR
12.1,-4.3664436340332,-0.0215331465005875,7.46123552322388,-0.419209986925125,0.541162014007568,0.92988395690918,-998.700012207031,1.5,-930.900024414062,-3.10196526365406,-0.53035715239473,0.0026111869505159,DLR
12.1333333333333,-5.76908874511719,-0.0442625805735588,9.07861423492432,-1.52439999580383,1.41769194602966,0.6250039935112,-1005.90002441406,-2.10000014305115,-930.900024414062,-3.11050749600551,-0.568421661937075,0.00683343654677,DLR
12.1666666666667,-4.43403387069702,-0.197387173771858,9.08579158782959,-0.586893975734711,-1.15092194080353,0.975615978240967,-1001.10003662109,-1.5,-918.900024414062,-3.11248364752781,-0.452380630848029,0.0218399783623049,DLR
12.2,-4.7008056640625,-0.0472532957792282,7.89668369293213,0.121951997280121,-0.205793991684914,0.899396002292633,-1001.10003662109,-2.70000004768372,-935.700012207031,-3.12636449283357,-0.536279892056099,0.0049050286912195,DLR
12.2333333333333,-5.0411491394043,0.0891233012080193,9.31727313995361,-0.503051996231079,0.716467976570129,0.586893975734711,-991.500061035156,1.5,-909.300048828125,-3.13946682653312,-0.497315083777145,-0.0092001237463926,DLR
12.2666666666667,-4.63620615005493,0.247631192207336,9.28557109832764,-0.114329993724823,-0.815553963184357,0.381099998950958,-1005.90002441406,-0.900000035762787,-926.100036621094,3.13262090184735,-0.461629946215109,-0.0267117247999853,DLR
12.3,-4.01892280578613,0.314025074243546,7.2004451751709,0.480185985565186,-1.49391198158264,0.510673999786377,-1003.50006103516,-3.30000019073486,-921.300048828125,3.12286848713251,-0.505866906775614,-0.0447841150601454,DLR
12.3333333333333,-4.23305797576904,0.0352904349565506,8.46671390533447,-0.37347799539566,-0.205793991684914,0.87652999162674,-1015.50006103516,5.10000038146973,-933.300048828125,3.13402662648419,-0.463406668207944,-0.0044269235341741,DLR
12.3666666666667,-4.09488677978516,0.291295617818832,7.96068477630615,0.25152599811554,0.0533539988100529,0.167683988809586,-993.900024414062,-0.900000035762787,-921.300048828125,3.11898387615894,-0.474861195463077,-0.0370455106406806,DLR
12.4,-5.19786262512207,0.181237325072289,8.60667896270752,-0.198172003030777,0.259148001670837,0.144817993044853,-998.700012207031,-1.5,-921.300048828125,3.12499326657313,-0.54340291501403,-0.0209286134584397,DLR
12.4333333333333,-4.81325626373291,-0.172863319516182,8.17960548400879,0.259148001670837,-0.609759986400604,-0.121951997280121,-1010.70001220703,-2.10000014305115,-916.500061035156,-3.13506648141317,-0.53076326941751,0.0206378579962743,DLR
12.4666666666667,-5.84445476531982,0.117236025631428,9.24310302734375,-0.442075997591019,0.152439996600151,-0.198172003030777,-1013.10003662109,4.5,-921.300048828125,3.13081218478144,-0.563947417030848,-0.0115730966933262,DLR
12.5,-4.40532302856445,0.0819455906748772,8.83816051483154,0.419209986925125,-0.975615978240967,0.243903994560242,-1005.90002441406,5.70000028610229,-918.900024414062,3.13138282879518,-0.46105748602538,-0.0102114931360754,DLR
12.5333333333333,-4.41190242767334,-0.03828115016222,7.81892490386963,-0.0914639979600906,-1.44055795669556,-0.419209986925125,-1015.50006103516,2.70000004768372,-926.100036621094,3.14127443625366,-0.511017882018316,0.0053989357514147,DLR
12.5666666666667,-3.6151762008667,-0.302660346031189,6.73748254776001,0.495429992675781,0.243903994560242,-0.853663980960846,-1001.10003662109,2.70000004768372,-921.300048828125,-3.11474312226652,-0.492475382684604,0.0447205197387126,DLR
12.6,-4.35986423492432,-0.605918824672699,6.98870229721069,1.14329993724823,1.04421401023865,-0.739333987236023,-1003.50006103516,3.30000019073486,-926.100036621094,-3.08366499987808,-0.557602264917183,0.0852583596460588,DLR
12.6333333333333,-5.68774127960205,-0.0059814294800162,9.98180961608887,-0.518296003341675,1.02897000312805,-0.350611984729767,-1005.90002441406,4.5,-921.300048828125,-3.12586673747761,-0.519797443274184,0.0020121408215281,DLR
12.6666666666667,-5.7086763381958,-0.0388792939484119,9.65881252288818,0.350611984729767,-0.907018005847931,-0.152439996600151,-998.700012207031,5.10000038146973,-930.900024414062,-3.12262053348913,-0.532166896700266,0.0035602894940882,DLR
12.7,-5.4377179145813,-0.345726639032364,7.58744382858276,0.37347799539566,1.65397393703461,-0.495429992675781,-1003.50006103516,5.10000038146973,-935.700012207031,-3.09392736658308,-0.62396248454943,0.0454885320133834,DLR
12.7333333333333,-4.62603759765625,-0.447410941123962,9.40699481964111,-0.37347799539566,0.304879993200302,0.0685980021953583,-1008.30004882812,-2.70000004768372,-928.500061035156,-3.0944989603152,-0.457531403230914,0.0481247112423927,DLR
12.7666666666667,-4.56682157516479,-0.158507883548737,8.49781703948975,0.0914639979600906,-1.96647596359253,0.358233988285065,-1008.30004882812,2.10000014305115,-916.500061035156,-3.11069911298618,-0.489517216082106,0.0182365171485983,DLR
12.8,-3.20724272727966,-0.551487803459167,7.89847803115845,0.297257989645004,-2.16464805603027,1.22714197635651,-998.700012207031,3.90000009536743,-928.500061035156,-3.09927670644028,-0.381508821748029,0.0681101221472964,DLR
12.8333333333333,-3.13307285308838,-0.61249840259552,6.90316820144653,0.480185985565186,-2.56861400604248,-0.0838419944047928,-996.300048828125,-2.10000014305115,-952.500061035156,-3.09108876101718,-0.420014587077543,0.0874977782066627,DLR
12.8666666666667,-4.61826181411743,-0.358287632465363,7.61017322540283,-0.213415995240211,0.792688012123108,-0.419209986925125,-1013.10003662109,0.900000035762787,-914.100036621094,-3.10708862059802,-0.545836065381779,0.0480578056536624,DLR
12.9,-4.49803495407104,-0.73451954126358,9.04033279418945,-0.137196004390717,-0.449698001146317,0.6250039935112,-1015.50006103516,0.300000011920929,-914.100036621094,-3.09705613702748,-0.45984906045196,0.0806792392648094,DLR
12.9333333333333,-5.18709564208984,-0.453392386436462,8.72870063781738,0.297257989645004,-0.167683988809586,0.25152599811554,-1022.70001220703,-0.900000035762787,-921.300048828125,-3.11177761939948,-0.535048654897189,0.0512225991458084,DLR
12.9666666666667,-4.43283748626709,-0.500645637512207,7.77286767959595,1.02134799957275,0.579271972179413,0.342989981174469,-1020.30004882812,-0.300000011920929,-930.900024414062,-3.10406092866483,-0.518474883871007,0.0622174077329637,DLR
13.0,-5.93357849121094,-0.206359326839447,9.44826602935791,-0.213415995240211,0.853663980960846,0.144817993044853,-1017.90002441406,6.90000009536743,-918.900024414062,-3.12636605825481,-0.561988065083806,0.0222237044571521,DLR
13.0333333333333,-4.76839590072632,-0.0705808699131012,8.92907810211182,0.297257989645004,-0.426831990480423,0.724089980125427,-1008.30004882812,1.5,-926.100036621094,-3.13810541337839,-0.490016457598021,0.006761589092729,DLR
13.0666666666667,-4.31560134887695,-0.726743698120117,7.51447010040283,-0.327746003866196,-0.716467976570129,0.907018005847931,-1015.50006103516,1.5,-923.700012207031,-3.10315024786584,-0.518111662419958,0.0956852015825462,DLR
13.1,-4.59254169464111,-0.404942780733109,9.29813289642334,-1.02134799957275,-0.152439996600151,0.815553963184357,-1010.70001220703,5.70000028610229,-921.300048828125,-3.13728544720701,-0.458341372890215,0.0447151755985012,DLR
13.1333333333333,-3.95492124557495,-0.247631192207336,7.19386529922485,0.739333987236023,-1.20427596569061,0.647870004177094,-1027.5,0.300000011920929,-926.100036621094,3.13804414666414,-0.500247269087076,0.0324917636012812,DLR
13.1666666666667,-4.59373807907104,-0.265575468540192,7.38826179504395,0.396344006061554,0.907018005847931,0.861285984516144,-1008.30004882812,-2.70000004768372,-935.700012207031,3.13454339549293,-0.557501004489374,0.03433418994522,DLR
13.2,-5.38866996765137,-0.174657747149467,8.82559967041016,-0.503051996231079,1.95123195648193,0.434453994035721,-991.500061035156,4.5,-921.300048828125,3.12204911966064,-0.551505193504482,0.0202739990563638,DLR
13.2333333333333,-5.1332631111145,-0.0472532957792282,8.99606990814209,-0.617381989955902,1.00610399246216,0.708845973014832,-1001.10003662109,0.300000011920929,-930.900024414062,3.10721629424788,-0.520402422755834,0.0056779026446829,DLR
13.2666666666667,-4.20135641098022,-0.41451308131218,8.60667896270752,-0.121951997280121,-0.945127964019775,0.205793991684914,-1005.90002441406,2.10000014305115,-942.900024414062,3.12479581765757,-0.452288964278576,0.0479738003348639,DLR
13.3,-4.78693819046021,-0.332567483186722,8.31657981872559,-0.121951997280121,-0.297257989645004,-0.586893975734711,-1008.30004882812,-1.5,-938.100036621094,3.12510061832938,-0.521166238977632,0.04077720567678,DLR
13.3333333333333,-3.77248764038086,0.420494496822357,8.44458293914795,-0.121951997280121,-1.33385002613068,0.259148001670837,-1008.30004882812,-0.300000011920929,-918.900024414062,3.08219336307998,-0.417642816575093,-0.0494358286921978,DLR
13.3666666666667,-4.63261747360229,0.227892473340034,7.45585203170776,-0.365855991840363,-0.198172003030777,0.213415995240211,-993.900024414062,-1.5,-928.500061035156,3.08805108219144,-0.555129435328332,-0.0301815053078452,DLR
13.4,-4.13376617431641,-0.344530344009399,8.1365385055542,-0.0076219998300075,0.137196004390717,1.10518991947174,-1017.90002441406,5.10000038146973,-926.100036621094,3.11516928093285,-0.470339351961372,0.0411036952937436,DLR
13.4333333333333,-4.15649557113647,-0.253014475107193,9.26104736328125,0.213415995240211,-1.15854394435883,1.18140995502472,-1010.70001220703,7.50000047683716,-909.300048828125,3.1005078596376,-0.419947637589214,0.0260481023883463,DLR
13.4666666666667,-4.60689735412598,0.0275145769119263,7.86737442016602,0.213415995240211,-1.63110792636871,0.213415995240211,-1010.70001220703,4.5,-930.900024414062,3.08605456671266,-0.526572469292992,-0.0039846458924238,DLR
13.5,-5.25947093963623,-0.0717771574854851,8.96915340423584,-0.403965979814529,0.121951997280121,0.564027965068817,-1008.30004882812,4.5,-923.700012207031,3.08608108562156,-0.530555088199953,0.008107627596092,DLR
13.5333333333333,-4.86170625686646,-0.134582161903381,8.37041282653809,0.144817993044853,0.670735955238342,0.449698001146317,-1013.10003662109,0.900000035762787,-933.300048828125,3.0871849239561,-0.527333578731801,0.0153565092258738,DLR
13.5666666666667,-4.57579374313354,-0.182433605194092,7.30511999130249,0.67835795879364,0.510673999786377,0.731711983680725,-1003.50006103516,17.7000007629395,-928.500061035156,3.08899686906323,-0.560275012558759,0.0229742348304161,DLR
13.6,-5.6943211555481,0.16269488632679,8.75023365020752,-0.327746003866196,0.830797970294952,0.685979962348938,-1013.10003662109,-3.90000009536743,-916.500061035156,3.05980865056959,-0.578225854841536,-0.018735622538297,DLR
13.6333333333333,-4.60091590881348,0.163293033838272,7.78483057022095,0.419209986925125,-1.10518991947174,0.457319974899292,-1013.10003662109,3.90000009536743,-918.900024414062,3.05676548189793,-0.531911949875398,-0.0221382788273675,DLR
13.6666666666667,-5.38747358322144,0.0173461455851793,8.20532512664795,-0.594515979290009,0.266770005226135,0.0838419944047928,-1008.30004882812,7.50000047683716,-942.900024414062,3.06446168048097,-0.581334349357978,-0.0012246839892108,DLR
13.7,-5.12249660491943,-0.208153754472733,8.9416389465332,-0.144817993044853,0.365855991840363,0.769822001457214,-1017.90002441406,3.90000009536743,-926.100036621094,3.07074521124077,-0.520938080428579,0.022708737259801,DLR
13.7333333333333,-4.76959228515625,-0.10826388001442,9.13065242767334,-0.335367977619171,-0.548784017562866,1.00610399246216,-1013.10003662109,0.900000035762787,-928.500061035156,3.05691072761235,-0.48056712673547,0.0115589987584779,DLR
13.7666666666667,-4.4501838684082,-0.368456065654755,8.33871078491211,-0.175305992364883,-1.34909391403198,1.39482593536377,-1015.50006103516,2.70000004768372,-923.700012207031,3.06059810922923,-0.487546438830577,0.0430027295785206,DLR
13.8,-4.04344654083252,-0.503636360168457,8.25377464294434,-0.213415995240211,-1.71494996547699,1.87501192092896,-1017.90002441406,-0.300000011920929,-938.100036621094,3.05311780893674,-0.452130501665315,0.0595782160935286,DLR
13.8333333333333,-3.91903281211853,-0.247631192207336,8.52054691314697,-0.739333987236023,-1.80641400814056,2.34757590293884,-1017.90002441406,3.30000019073486,-926.100036621094,3.01976515461269,-0.427995132039658,0.0285452938840022,DLR
13.8666666666667,-3.2688512802124,-0.932504892349243,6.97135639190674,-0.724089980125427,-2.78202986717224,2.62959003448486,-1020.30004882812,6.90000009536743,-916.500061035156,3.03883344548403,-0.430834374524216,0.131469591351302,DLR
13.9,-5.0232048034668,-0.776389598846436,8.84354400634766,-1.49391198158264,-0.525918006896973,2.55336999893188,-1025.10009765625,9.90000057220459,-926.100036621094,2.99328253349949,-0.514195427082625,0.0877399191248791,DLR
13.9333333333333,-5.05012130737305,-0.53533798456192,9.425537109375,-0.861285984516144,-0.350611984729767,2.54574799537659,-1017.90002441406,3.90000009536743,-923.700012207031,2.95452250696525,-0.490882839359687,0.0559082404770086,DLR
13.9666666666667,-3.88075160980225,-0.869699895381927,6.99946928024292,-0.259148001670837,-2.11129403114319,2.82776188850403,-1020.30004882812,6.90000009536743,-928.500061035156,2.96291947659085,-0.499902574703922,0.120907627646005,DLR
14.0,-5.64347887039185,-0.674705266952515,9.57806301116943,-2.0579400062561,-0.0228659994900227,2.88111591339111,-1022.70001220703,6.30000019073486,-926.100036621094,2.90998970767972,-0.531572971279303,0.0711587921420338,DLR
14.0333333333333,-4.32517194747925,-0.757847130298615,8.78851509094238,-0.899396002292633,-0.701223969459534,3.05642199516296,-1029.90002441406,11.7000007629395,-930.900024414062,2.8909087251026,-0.455384777233829,0.0848759353618803,DLR
14.0666666666667,-3.89630341529846,-0.52935653924942,8.14730548858643,-1.48628997802734,-2.01982998847961,3.20886182785034,-1032.30004882812,6.90000009536743,-928.500061035156,2.85272298050608,-0.442157706029833,0.0647934244958325,DLR
14.1,-4.22169303894043,-0.366063505411148,7.41398191452026,-1.37195992469788,-1.09756803512573,3.3689239025116,-1041.90002441406,5.70000028610229,-938.100036621094,2.81563007792728,-0.515212650188035,0.0484248200704105,DLR
14.1333333333333,-5.031578540802,-0.367857933044434,8.78672027587891,-1.92836594581604,0.632625997066498,3.89484190940857,-1029.90002441406,13.5000009536743,-940.500061035156,2.77735652087431,-0.521038832326094,0.0413622197928866,DLR
14.1666666666667,-4.30124616622925,-0.221312895417213,8.57497787475586,-1.19665396213531,0.137196004390717,4.61131000518799,-1027.5,7.50000047683716,-928.500061035156,2.72825611834356,-0.465335921824459,0.0238818386248421,DLR
14.2,-5.35337972640991,-0.266173630952835,8.59531402587891,-1.28811800479889,-0.807931959629059,4.60368776321411,-1022.70001220703,10.5,-926.100036621094,2.69184682729918,-0.555366010962095,0.0281968293654975,DLR
14.2333333333333,-4.78514385223389,-0.122619308531284,8.80406665802002,-0.914639949798584,-0.0762199983000755,4.46649169921875,-1034.70007324219,9.30000019073486,-938.100036621094,2.6451363784299,-0.497876959297203,0.0113108122167529,DLR
14.2666666666667,-4.17443990707397,0.13099330663681,9.63787746429443,-1.29574000835419,-1.6768399477005,4.73326206207275,-1049.10009765625,11.1000003814697,-926.100036621094,2.5947894728063,-0.405993867223599,-0.0147891232152426,DLR
14.3,-3.45726633071899,-0.107067592442036,8.69340991973877,-1.42531394958496,-2.56099200248718,3.96343994140625,-1037.10009765625,15.3000001907349,-933.300048828125,2.57089954744466,-0.374211104377557,0.0119629443292228,DLR
14.3333333333333,-3.12230634689331,-0.178246602416039,8.64137172698975,-1.19665396213531,-1.91312193870544,3.12502002716064,-1029.90002441406,8.70000076293945,-930.900024414062,2.54671888707985,-0.343541806110765,0.0207017666472462,DLR
14.3666666666667,-2.78196287155151,-0.180639177560806,8.70776557922363,-0.518296003341675,-1.18140995502472,2.26373386383057,-1039.5,15.3000001907349,-938.100036621094,2.52721283232997,-0.307296068304776,0.0203773074167544,DLR
14.4,-3.18511128425598,0.0155517170205712,7.62991189956665,0.518296003341675,-0.907018005847931,1.07470202445984,-1053.90002441406,11.7000007629395,-933.300048828125,2.5124173123365,-0.393551466175702,-0.0036262387232529,DLR
14.4333333333333,-4.25399303436279,-0.0921140164136887,9.44647216796875,-0.0,0.655492007732391,0.434453994035721,-1046.70007324219,6.90000009536743,-945.300048828125,2.5141376459628,-0.424198983494862,0.0093881058995663,DLR
14.4666666666667,-3.82213354110718,0.172863319516182,8.57497787475586,0.708845973014832,0.0838419944047928,-0.205793991684914,-1041.90002441406,16.5,-938.100036621094,2.50570031612319,-0.419388445015697,-0.0211612003134955,DLR
14.5,-5.01483058929443,-0.123217448592186,10.0733261108398,0.0152439996600151,-0.175305992364883,0.0076219998300075,-1053.90002441406,8.70000076293945,-962.100036621094,2.51988067399321,-0.461451756282309,0.0120946572332238,DLR
14.5333333333333,-3.77368402481079,-0.0478514358401299,8.59172534942627,0.381099998950958,-2.30946588516235,-0.205793991684914,-1041.90002441406,5.70000028610229,-940.500061035156,2.51973815877434,-0.409941639613817,0.0050675093761378,DLR
14.5666666666667,-3.58945608139038,-0.0263182912021875,7.57847166061401,0.823175966739655,0.0838419944047928,-0.358233988285065,-1058.70007324219,10.5,-935.700012207031,2.52419844622014,-0.442382694742897,0.0023398817850979,DLR
14.6,-3.73001956939697,-0.154320880770683,8.20592308044434,0.556405961513519,1.29574000835419,-0.342989981174469,-1037.10009765625,8.70000076293945,-928.500061035156,2.53536320589432,-0.428867133600847,0.0180685321333897,DLR
14.6333333333333,-4.32337760925293,0.199181616306305,8.64137172698975,0.960371971130371,0.342989981174469,-0.236281991004944,-1034.70007324219,2.10000014305115,-938.100036621094,2.52211606401551,-0.464269367613335,-0.0243639166979343,ST
14.6666666666667,-3.56612849235535,0.155517175793648,6.91931772232056,1.06708002090454,-0.0838419944047928,0.0228659994900227,-1039.5,11.7000007629395,-935.700012207031,2.52589286777655,-0.475590399864231,-0.0243535755080421,ST
14.7,-5.59742212295532,0.0322997197508812,8.84952545166016,0.25152599811554,1.98934197425842,0.342989981174469,-1039.5,11.7000007629395,-923.700012207031,2.53423030237154,-0.567306075225087,-0.0045112598977509,ST
14.7333333333333,-5.64288091659546,0.190807610750198,9.4375,0.685979962348938,3.13264203071594,0.533540010452271,-1053.90002441406,9.90000057220459,-918.900024414062,2.52375018979658,-0.544301633397384,-0.0220016057359787,ST
14.7666666666667,-3.77547836303711,-0.37623193860054,9.44228458404541,-0.365855991840363,-1.02897000312805,0.945127964019775,-1037.10009765625,14.1000003814697,-928.500061035156,2.54217830616693,-0.378695222563956,0.0396635017807799,ST
14.8,-3.36754488945007,-0.468944102525711,7.58325672149658,-0.46494197845459,-2.81251788139343,0.221037998795509,-1037.10009765625,15.3000001907349,-935.700012207031,2.54616566168359,-0.41226905880815,0.0622273414853228,ST
14.8333333333333,-4.42924880981445,-0.616087257862091,7.83806562423706,0.129574000835419,0.99848198890686,0.0914639979600906,-1044.30004882812,5.70000028610229,-940.500061035156,2.55373223314588,-0.51459151504813,0.0781685505203618,ST
14.8666666666667,-1.96848857402802,-0.739902853965759,7.77107334136963,-0.472563982009888,-2.97257995605469,0.716467976570129,-1044.30004882812,2.70000004768372,-935.700012207031,2.55140183398956,-0.242984554774254,0.0952509709464273,ST
14.9,-4.25937604904175,-0.267968058586121,8.58275318145752,-0.564027965068817,-1.54726600646973,1.02134799957275,-1037.10009765625,8.10000038146973,-916.500061035156,2.51947473786621,-0.457034613698067,0.0315484728266805,ST
14.9333333333333,-3.39924645423889,-0.759641587734222,8.00734043121338,-0.396344006061554,-0.548784017562866,0.907018005847931,-1053.90002441406,14.1000003814697,-935.700012207031,2.5372676899166,-0.399261724289619,0.0943460038416306,ST
14.9666666666667,-4.310218334198,-0.494664251804352,9.96924877166748,0.160062000155449,0.0457319989800453,0.426831990480423,-1051.5,11.7000007629395,-923.700012207031,2.51670572782905,-0.407730516596513,0.0490887815368132,ST
15.0,-4.32517194747925,0.0167480036616325,7.46542263031006,0.564027965068817,-0.663114011287689,0.121951997280121,-1051.5,9.90000057220459,-930.900024414062,2.49447150118597,-0.523520405998847,-0.0031447838697293,ST
15.0333333333333,-5.16376829147339,-0.138171032071114,9.98958587646484,-0.6250039935112,1.02897000312805,1.36433792114258,-1051.5,15.9000005722046,-933.300048828125,2.49053459681335,-0.479040247927663,0.013634676024071,ST
15.0666666666667,-4.69721698760986,-0.0023925718851387,10.3496675491333,0.25152599811554,1.86738991737366,1.31098401546478,-1041.90002441406,6.30000019073486,-940.500061035156,2.47535329089677,-0.429492633751907,-0.0012043714522511,ST
15.1,-2.83041262626648,-0.387596637010574,7.76509189605713,-0.381099998950958,-2.17227005958557,0.571649968624115,-1044.30004882812,8.10000038146973,-938.100036621094,2.48847888314293,-0.345651634885509,0.0499623366350789,ST
15.1333333333333,-5.13386106491089,0.407933503389359,8.1191930770874,-0.182927995920181,0.754577994346619,0.617381989955902,-1046.70007324219,6.90000009536743,-938.100036621094,2.43895844424641,-0.563732455361875,-0.0501793194502969,ST
15.1666666666667,-4.03148365020752,-0.0885251611471176,8.01691055297852,0.320124000310898,1.36433792114258,0.609759986400604,-1039.5,3.90000009536743,-928.500061035156,2.46534323396933,-0.468596551595527,0.0097866948264849,ST
15.2,-3.91903281211853,0.165087461471558,9.59959697723389,-0.327746003866196,1.60824191570282,0.152439996600151,-1051.5,14.1000003814697,-938.100036621094,2.45202329839402,-0.390636723674291,-0.0166605475077645,ST
15.2333333333333,-4.70020723342896,0.433055520057678,6.92290687561035,-0.327746003866196,-1.58537602424622,-0.129574000835419,-1049.10009765625,6.90000009536743,-933.300048828125,2.43090453957335,-0.592046415911912,-0.0614476106075676,ST
15.2666666666667,-4.96099758148193,-0.0209350045770407,9.82090950012207,-0.25152599811554,3.14026403427124,1.21189796924591,-1039.5,12.3000001907349,-935.700012207031,2.4530311759071,-0.47367709115738,0.0012701404903012,ST
15.3,-4.31380701065063,-0.274547636508942,11.3043041229248,-1.02134799957275,-0.0457319989800453,0.228659987449646,-1041.90002441406,14.7000007629395,-923.700012207031,2.45808473884071,-0.364709147540632,0.0258390894215636,ST
15.3333333333333,-3.01164984703064,0.280529052019119,7.80696201324463,-0.221037998795509,-5.81558609008789,-0.647870004177094,-1039.5,11.1000003814697,-926.100036621094,2.44188187424484,-0.357879793385161,-0.0347499656739813,ST
15.3666666666667,-3.43453693389893,0.0101684303954244,8.46790981292725,-0.160062000155449,0.868907988071442,0.640248000621796,-1041.90002441406,9.90000057220459,-930.900024414062,2.44865207902122,-0.386728146248209,-0.0015007412620766,ST
15.4,-3.85862040519714,-0.260192185640335,9.64864444732666,-0.67835795879364,-0.411587983369827,0.198172003030777,-1049.10009765625,7.50000047683716,-938.100036621094,2.45605594535379,-0.379624363124703,0.0278902883179429,ST
15.4333333333333,-3.37053561210632,0.180639177560806,8.27710247039795,0.0609759986400604,-1.53964400291443,-0.114329993724823,-1032.30004882812,7.50000047683716,-933.300048828125,2.43876262898187,-0.383928494014465,-0.0216397644958857,ST
15.4666666666667,-3.78026366233826,-0.0687864422798157,7.86677646636963,0.0457319989800453,-0.823175966739655,1.265251994133,-1051.5,12.3000001907349,-933.300048828125,2.44141200227844,-0.446289655347089,0.0074929231106224,ST
15.5,-5.03636360168457,-0.115441590547562,9.61215782165527,-0.0076219998300075,1.41006994247437,0.37347799539566,-1046.70007324219,12.3000001907349,-930.900024414062,2.44039169229641,-0.485008178359036,0.0116883048220443,ST
15.5333333333333,-4.16666412353516,0.0592161528766155,8.33811283111572,0.579271972179413,0.609759986400604,-0.358233988285065,-1041.90002441406,11.1000003814697,-938.100036621094,2.43618616213127,-0.464552465853079,-0.0077319615723161,ST
15.5666666666667,-4.78933095932007,-0.160302311182022,9.98480033874512,-0.503051996231079,-0.419209986925125,0.0990860015153885,-1037.10009765625,11.7000007629395,-923.700012207031,2.44443770647295,-0.446533233241025,0.0167531396897218,ST
15.6,-4.89041709899902,0.0023925718851387,9.04691219329834,0.0381099991500378,-1.64635193347931,-0.335367977619171,-1046.70007324219,12.3000001907349,-940.500061035156,2.43937198009818,-0.492525187981188,4.60816443443221e-05,ST
15.6333333333333,-4.58895301818848,0.170470744371414,7.94752550125122,1.01372599601746,0.846041977405548,0.419209986925125,-1039.5,6.30000019073486,-921.300048828125,2.42891571496468,-0.524923513786195,-0.0235996604963748,ST
15.6666666666667,-4.18281364440918,-0.0221312902867794,9.29813289642334,1.09756803512573,1.29574000835419,0.320124000310898,-1041.90002441406,6.30000019073486,-938.100036621094,2.44137932408815,-0.4251888441077,0.0001704757849131,ST
15.7,-3.72583246231079,-0.0933103039860725,8.28906536102295,0.548784017562866,-1.75305998325348,-0.144817993044853,-1027.5,5.10000038146973,-930.900024414062,2.44849228655827,-0.419356277748297,0.0103716181642757,ST
15.7333333333333,-3.6534571647644,-0.0364867225289345,7.1968560218811,0.388722002506256,-1.28049600124359,0.236281991004944,-1051.5,1.5,-940.500061035156,2.44546915128955,-0.46733077562043,0.004200716028763,ST
15.7666666666667,-4.44061326980591,-0.215929612517357,8.59112739562988,0.37347799539566,1.2347639799118,0.739333987236023,-1049.10009765625,17.7000007629395,-945.300048828125,2.45064371453219,-0.479076563540241,0.0237625322925644,ST
15.8,-3.59424114227295,-0.628648281097412,9.44288349151611,0.594515979290009,0.472563982009888,0.724089980125427,-1041.90002441406,10.5,-940.500061035156,2.46410373098873,-0.364292641636596,0.0648321580198871,ST
15.8333333333333,-3.52665090560913,-0.448607236146927,9.6043815612793,-1.10518991947174,-3.72715783119202,0.594515979290009,-1046.70007324219,3.90000009536743,-923.700012207031,2.44904014420991,-0.345165602811609,0.0481703823709796,ST
15.8666666666667,-3.76531004905701,-0.419298231601715,6.8517279624939,0.640248000621796,-1.38720393180847,0.868907988071442,-1041.90002441406,5.70000028610229,-935.700012207031,2.44866470818586,-0.499076539972867,0.0590747759276819,ST
15.9,-4.22109508514404,-0.677695989608765,9.1982421875,-0.274392008781433,2.64483404159546,0.716467976570129,-1037.10009765625,14.1000003814697,-933.300048828125,2.45038384810002,-0.434142170404816,0.0735484806310818,ST
15.9333333333333,-3.11632490158081,-0.486290246248245,9.39443397521973,-0.937505960464478,-2.20275783538818,-0.670735955238342,-1051.5,11.7000007629395,-923.700012207031,2.44493084257842,-0.31618097312882,0.0537007682494945,ST
15.9666666666667,-4.44480037689209,-0.116039738059044,7.74296092987061,0.640248000621796,-1.72257196903229,-0.266770005226135,-1053.90002441406,8.10000038146973,-921.300048828125,2.43288496760006,-0.517307519781249,0.0142631889672791,ST
16.0,-4.01473569869995,-0.541319370269775,8.77296257019043,0.571649968624115,-0.243903994560242,0.114329993724823,-1056.30004882812,11.7000007629395,-933.300048828125,2.45496952632682,-0.428376812058552,0.0603624139007225,ST
16.0333333333333,-4.61048603057861,-0.138171032071114,9.02597713470459,0.213415995240211,0.388722002506256,-0.419209986925125,-1056.30004882812,15.3000001907349,-930.900024414062,2.43948088449018,-0.47276496719877,0.0154241904233302,ST
16.0666666666667,-4.63201904296875,-0.128600731492043,8.66469955444336,0.46494197845459,1.72257196903229,0.282013982534409,-1046.70007324219,9.30000019073486,-926.100036621094,2.43865054483818,-0.493835863189209,0.0137932951988272,ST
16.1,-4.09428882598877,-0.428270369768143,9.16594314575195,-0.221037998795509,-1.18140995502472,0.46494197845459,-1049.10009765625,8.10000038146973,-952.500061035156,2.4485937146237,-0.417946014022271,0.0465550271974289,ST
16.1333333333333,-3.43573331832886,-0.218322187662125,8.04203224182129,0.800309956073761,-0.746955990791321,0.510673999786377,-1053.90002441406,9.90000057220459,-928.500061035156,2.43862710552753,-0.402368516896436,0.0253905623525339,ST
16.1666666666667,-4.19298219680786,-0.26437920331955,8.36443138122559,-0.403965979814529,-1.41006994247437,0.472563982009888,-1039.5,11.1000003814697,-952.500061035156,2.43586115161559,-0.461899695634683,0.0318379929987288,ST
16.2,-4.15230846405029,-0.372643083333969,9.2347297668457,0.198172003030777,0.83841997385025,0.282013982534409,-1053.90002441406,5.70000028610229,-933.300048828125,2.43803037890819,-0.423824261153348,0.0397703985781425,ST
16.2333333333333,-3.15759682655334,-0.482701390981674,9.04392147064209,0.487807989120483,-0.342989981174469,0.0914639979600906,-1051.5,18.9000015258789,-935.700012207031,2.4432789887112,-0.335091051800737,0.0523751623160187,ST
16.2666666666667,-3.95851016044617,-0.281725347042084,8.2501859664917,0.106707997620106,-2.38568592071533,-0.426831990480423,-1056.30004882812,10.5,-933.300048828125,2.43932364037336,-0.442628392002836,0.0342890474780793,ST
16.3,-3.2066445350647,-0.363670915365219,8.45774173736572,0.510673999786377,-0.495429992675781,0.518296003341675,-1068.30004882812,16.5,-940.500061035156,2.43949314405716,-0.361418284487441,0.0417105430371219,ST
16.3333333333333,-3.55237102508545,-0.224303618073463,9.60378360748291,0.46494197845459,0.663114011287689,0.754577994346619,-1061.10009765625,17.7000007629395,-938.100036621094,2.42836636168306,-0.355406198770184,0.0221332166688285,ST
16.3666666666667,-3.91664028167725,-0.116039738059044,9.85739612579346,0.365855991840363,0.228659987449646,0.640248000621796,-1053.90002441406,15.3000001907349,-945.300048828125,2.42045330872134,-0.378521325562508,0.0107249485975032,ST
16.4,-3.75394535064697,-0.0269164331257343,8.56839847564697,0.182927995920181,-0.0457319989800453,0.945127964019775,-1049.10009765625,14.1000003814697,-928.500061035156,2.4107174998157,-0.41272290313144,0.0021328444785873,ST
16.4333333333333,-3.35618019104004,-0.470140367746353,9.01640701293945,-0.213415995240211,0.335367977619171,1.15092194080353,-1058.70007324219,14.7000007629395,-938.100036621094,2.41903386600807,-0.356671735206563,0.0516555391263456,ST
16.4666666666667,-3.70669198036194,-0.497654944658279,8.91292858123779,-0.37347799539566,1.31860601902008,0.777444005012512,-1039.5,9.30000019073486,-933.300048828125,2.41362390576082,-0.395865094947721,0.055908877501246,ST
16.5,-2.8543381690979,-0.442027658224106,8.53789234161377,-0.282013982534409,0.175305992364883,0.884151995182037,-1056.30004882812,12.3000001907349,-940.500061035156,2.40475508957631,-0.322885230115103,0.0517203471831084,ST
16.5333333333333,-5.07285070419312,-0.119030453264713,8.63957691192627,0.297257989645004,1.41769194602966,0.518296003341675,-1044.30004882812,10.5,-940.500061035156,2.38623098076129,-0.532595328207551,0.012905579069952,ST
16.5666666666667,-3.5954372882843,-0.226696193218231,8.3871603012085,0.99848198890686,1.72257196903229,0.861285984516144,-1051.5,15.9000005722046,-926.100036621094,2.3889474559471,-0.408356674791456,0.0246218700751682,ST
16.6,-5.24152708053589,-0.0550291538238525,10.2360210418701,-0.0990860015153885,0.967993974685669,0.46494197845459,-1044.30004882812,8.70000076293945,-933.300048828125,2.37700063791571,-0.474698080840344,0.0052116628990985,ST
16.6333333333333,-4.44659471511841,0.0370848625898361,8.4709005355835,0.769822001457214,0.129574000835419,-0.0304879993200302,-1041.90002441406,13.5000009536743,-938.100036621094,2.37508172903523,-0.483578917985143,-0.0056539483445777,ST
16.6666666666667,-4.14393472671509,0.181237325072289,7.61675262451172,1.54726600646973,1.04421401023865,0.388722002506256,-1037.10009765625,11.1000003814697,-926.100036621094,2.3681150838976,-0.499894433435731,-0.0268063240812225,ST
16.7,-4.59792518615723,-0.0986935868859291,8.73707485198975,1.39482593536377,3.44514393806458,0.289635986089706,-1037.10009765625,8.10000038146973,-930.900024414062,2.38817418221481,-0.490458713748681,0.0084979811609226,ST
16.7333333333333,-3.76172113418579,-0.147143170237541,9.90405178070068,-0.564027965068817,-0.0762199983000755,-0.411587983369827,-1027.5,12.3000001907349,-933.300048828125,2.39267049962989,-0.363275455173556,0.0160857060080889,ST
16.7666666666667,-4.77856397628784,-0.042468149214983,7.70049238204956,1.16616594791412,-0.78506600856781,-0.0914639979600906,-1029.90002441406,14.1000003814697,-933.300048828125,2.39240987997153,-0.553312173519956,0.0036162155726763,ST
16.8,-4.7247314453125,-0.70760315656662,7.70408153533936,0.289635986089706,1.38720393180847,0.388722002506256,-1029.90002441406,6.90000009536743,-935.700012207031,2.43724630960052,-0.550738049411204,0.0905967829858143,ST
16.8333333333333,-4.09249401092529,-0.654966533184052,9.24429988861084,-0.190549999475479,1.73019397258759,0.320124000310898,-1029.90002441406,14.7000007629395,-935.700012207031,2.42606456421085,-0.419382195316993,0.0709770624042833,ST
16.8666666666667,-3.66003680229187,-0.419896364212036,7.40740251541138,0.457319974899292,-1.16616594791412,-0.0533539988100529,-1037.10009765625,10.5,-928.500061035156,2.42114455066702,-0.456111359281229,0.0558727620948582,ST
16.9,-4.28988122940063,-0.221911042928696,6.94802856445312,0.442075997591019,-0.564027965068817,0.304879993200302,-1032.30004882812,12.3000001907349,-933.300048828125,2.40856802093861,-0.55175249035773,0.0308607894216872,ST
16.9333333333333,-5.02858781814575,-0.242846041917801,8.60667896270752,0.358233988285065,1.48628997802734,0.670735955238342,-1034.70007324219,9.30000019073486,-930.900024414062,2.40366631017519,-0.53129701594178,0.0269525224079541,ST
16.9666666666667,-4.635009765625,-0.342735916376114,8.71793365478516,0.190549999475479,0.0609759986400604,-0.106707997620106,-1034.70007324219,15.3000001907349,-933.300048828125,2.41106291217651,-0.488593375514468,0.0390190950177875,ST
17.0,-4.66970205307007,-0.152526453137398,7.66460418701172,0.632625997066498,-0.25152599811554,-0.243903994560242,-1027.5,10.5,-930.900024414062,2.4057124851073,-0.546522592575188,0.0190956046350381,ST
17.0333333333333,-5.89948415756226,-0.0496458671987057,8.67008209228516,0.335367977619171,2.4923939704895,0.388722002506256,-1032.30004882812,0.900000035762787,-923.700012207031,2.39695148653267,-0.601621345738371,0.0047469719777047,ST
17.0666666666667,-4.72951650619507,-0.538328647613525,10.7288904190063,-0.640248000621796,0.87652999162674,0.342989981174469,-1015.50006103516,3.90000009536743,-935.700012207031,2.41507156426737,-0.416973508408697,0.0508600405858427,ST
17.1,-4.53272724151611,-0.05742172524333,8.05399513244629,-0.0076219998300075,-2.38568592071533,-0.327746003866196,-1029.90002441406,6.30000019073486,-921.300048828125,2.3977585072628,-0.508097257733258,0.007611491896094,ST
17.1333333333333,-3.85682582855225,-0.117236025631428,6.80447435379028,0.716467976570129,0.411587983369827,0.25152599811554,-1032.30004882812,11.7000007629395,-923.700012207031,2.40284355369557,-0.516287357062528,0.0157048681947509,ST
17.1666666666667,-5.19008636474609,0.0059814294800162,7.6388840675354,0.114329993724823,1.51677799224854,-0.0152439996600151,-1027.5,12.9000005722046,-918.900024414062,2.39469453081243,-0.5991281984918,-0.0009018346481093,ST
17.2,-4.14991617202759,-0.319408357143402,9.2281494140625,-0.487807989120483,0.358233988285065,0.160062000155449,-1020.30004882812,6.30000019073486,-926.100036621094,2.40934585523508,-0.423291464477527,0.0352805589513438,ST
17.2333333333333,-4.41190242767334,-0.0514402948319912,7.95410537719727,0.0152439996600151,-1.62348592281342,0.0152439996600151,-1025.10009765625,6.30000019073486,-938.100036621094,2.39628450191729,-0.503284631182396,0.0065263678228724,ST
17.2666666666667,-5.70090055465698,-0.100488021969795,8.53250980377197,0.663114011287689,1.10518991947174,0.419209986925125,-1017.90002441406,9.90000057220459,-923.700012207031,2.3983020847522,-0.590603390629413,0.0101286562871093,ST
17.3,-4.74566650390625,-0.317015767097473,10.1235694885254,-0.67835795879364,-0.236281991004944,0.243903994560242,-1013.10003662109,6.30000019073486,-928.500061035156,2.40471088570406,-0.43813777833404,0.0322304882262952,ST
