seconds,sensor_accX_m_s_,sensor_accY_m_s_,sensor_accZ_m_s_,sensor_gyroX___s_,sensor_gyroY___s_,sensor_gyroZ___s_,sensor_magX__T_,sensor_magY__T_,sensor_magZ__T_,sensor_yaw___,sensor_pitch___,sensor_roll___,label3
0.0,-4.47052049636841,-1.66164112091064,8.21190452575684,0.167683988809586,-0.0990860015153885,0.221037998795509,-1029.90002441406,24.9000015258789,-909.300048828125,2.78555909158269,-0.490015938471962,0.19922439002013,ST
0.0333333333333333,-4.4621467590332,-1.66941702365875,8.33093547821045,0.213415995240211,-0.152439996600151,0.434453994035721,-1020.30004882812,21.3000011444092,-909.300048828125,2.78223906737814,-0.483504828121499,0.196990177494449,ST
0.0666666666666667,-4.37541580200195,-1.79203629493713,8.18379211425781,0.228659987449646,-0.3125019967556,0.442075997591019,-1034.70007324219,18.9000015258789,-909.300048828125,2.78790629363109,-0.480949823575907,0.214620925467846,ST
0.1,-4.49085760116577,-1.69453907012939,8.15268898010254,0.182927995920181,-0.0685980021953583,0.213415995240211,-1017.90002441406,17.1000003814697,-894.900024414062,2.78231804377714,-0.49448847227814,0.204459934747838,ST
0.133333333333333,-4.49085760116577,-1.64130425453186,8.30641174316406,0.320124000310898,0.0304879993200302,0.282013982534409,-1013.10003662109,16.5,-902.100036621094,2.77687787612931,-0.487850568746559,0.194327994320373,ST
0.166666666666667,-4.4501838684082,-1.78545677661896,8.19754981994629,0.243903994560242,-0.198172003030777,0.37347799539566,-1013.10003662109,7.50000047683716,-897.300048828125,2.78405023976477,-0.487498238068742,0.213546107761065,ST
0.2,-4.52255916595459,-1.73521280288696,8.24899005889893,0.282013982534409,-0.106707997620106,0.228659987449646,-1022.70001220703,22.5,-899.700012207031,2.78017738903477,-0.492304019509744,0.206647680722814,ST
0.233333333333333,-4.44539833068848,-1.69633340835571,8.2800931930542,0.304879993200302,-0.282013982534409,0.213415995240211,-1020.30004882812,24.3000011444092,-897.300048828125,2.77696463500225,-0.48382519294706,0.201320968374811,ST
0.266666666666667,-4.45736122131348,-1.722651720047,8.21609210968018,0.121951997280121,-0.396344006061554,0.175305992364883,-1017.90002441406,15.3000001907349,-911.700012207031,2.77789183789944,-0.487490487324806,0.206212501738806,ST
0.3,-4.39515447616577,-1.74358677864075,8.2202787399292,0.205793991684914,-0.289635986089706,0.327746003866196,-1013.10003662109,12.3000001907349,-904.500061035156,2.77705322642594,-0.481562577775477,0.208292365535384,ST
0.333333333333333,-4.40352869033813,-1.74418485164642,8.26573753356934,0.304879993200302,-0.152439996600151,0.37347799539566,-1022.70001220703,17.1000003814697,-899.700012207031,2.7749114473389,-0.480395577823966,0.207076572128788,ST
0.366666666666667,-4.44838905334473,-1.68197798728943,8.3040189743042,0.167683988809586,-0.190549999475479,0.236281991004944,-1029.90002441406,23.1000003814697,-906.900024414062,2.77012539276393,-0.483210330944186,0.199349457114651,ST
0.4,-4.35089206695557,-1.74119424819946,8.18678283691406,0.129574000835419,-0.190549999475479,0.320124000310898,-1017.90002441406,14.7000007629395,-906.900024414062,2.77252073528888,-0.479185365709814,0.208985807423265,ST
0.433333333333333,-4.38259363174438,-1.71607220172882,8.34230041503906,0.221037998795509,-0.190549999475479,0.274392008781433,-1025.10009765625,20.1000003814697,-904.500061035156,2.76805885690808,-0.475022791755714,0.202240733124578,ST
0.466666666666667,-4.358069896698,-1.75674593448639,8.16106224060059,0.221037998795509,-0.198172003030777,0.198172003030777,-1008.30004882812,18.9000015258789,-909.300048828125,2.77146199950842,-0.480833810284904,0.211373514584394,ST
0.5,-4.46932411193848,-1.67779099941254,8.18259620666504,0.190549999475479,-0.0304879993200302,0.152439996600151,-1017.90002441406,15.3000001907349,-911.700012207031,2.76659567577748,-0.491275527923416,0.201792175076272,ST
0.533333333333333,-4.48128700256348,-1.69453907012939,8.18139934539795,0.228659987449646,0.0914639979600906,0.327746003866196,-1027.5,23.1000003814697,-904.500061035156,2.76623457384888,-0.492573406771551,0.203541166224301,ST
0.566666666666667,-4.50042772293091,-1.76811063289642,8.27231693267822,0.121951997280121,0.0076219998300075,0.37347799539566,-1017.90002441406,16.5,-909.300048828125,2.76724046007539,-0.48909745143229,0.209990031567463,ST
0.6,-4.52973651885986,-1.81297135353088,8.25796222686768,0.0990860015153885,-0.144817993044853,0.167683988809586,-1029.90002441406,15.3000001907349,-899.700012207031,2.76900697323308,-0.491654002472152,0.215726915111849,ST
0.633333333333333,-4.42924880981445,-1.76811063289642,8.0946683883667,0.304879993200302,-0.243903994560242,0.426831990480423,-1017.90002441406,18.9000015258789,-902.100036621094,2.76621479411865,-0.490672938102775,0.214090892821433,ST
0.666666666666667,-4.54588651657104,-1.70111858844757,8.16704368591309,0.175305992364883,-0.25152599811554,0.152439996600151,-1029.90002441406,12.3000001907349,-904.500061035156,2.7611590010754,-0.498514674849845,0.204908846644426,ST
0.7,-4.52554988861084,-1.68855762481689,8.31538391113281,0.175305992364883,-0.320124000310898,0.365855991840363,-1017.90002441406,17.1000003814697,-899.700012207031,2.75650682700811,-0.489600898029728,0.199670180062436,ST
0.733333333333333,-4.36165857315063,-1.70410931110382,8.1425199508667,0.236281991004944,-0.495429992675781,0.602137982845306,-1027.5,15.9000005722046,-904.500061035156,2.75535504452496,-0.482310080875433,0.205233135582992,ST
0.766666666666667,-4.37661218643188,-1.70470750331879,8.18738079071045,0.167683988809586,-0.243903994560242,0.221037998795509,-1015.50006103516,21.9000015258789,-906.900024414062,2.75394599881084,-0.48180332411126,0.204745848641124,ST
0.8,-4.37601375579834,-1.722651720047,8.22326946258545,0.160062000155449,-0.259148001670837,0.335367977619171,-1015.50006103516,20.7000007629395,-909.300048828125,2.75248690826735,-0.479871389162343,0.205866922635228,ST
0.833333333333333,-4.41190242767334,-1.69932413101196,8.20173645019531,0.0533539988100529,-0.144817993044853,0.167683988809586,-1020.30004882812,20.1000003814697,-902.100036621094,2.75054153562484,-0.484592648764561,0.204039259148384,ST
0.866666666666667,-4.43702459335327,-1.74298858642578,8.25078392028809,0.175305992364883,-0.0609759986400604,0.243903994560242,-1020.30004882812,20.7000007629395,-894.900024414062,2.75110139870296,-0.48433878707924,0.207640272575661,ST
0.9,-4.42865037918091,-1.76631617546082,8.24599933624268,0.198172003030777,-0.129574000835419,0.25152599811554,-1015.50006103516,14.1000003814697,-902.100036621094,2.75116827740692,-0.483440943347341,0.210409565488772,ST
0.933333333333333,-4.45915603637695,-1.80220472812653,8.22865295410156,0.190549999475479,-0.137196004390717,0.335367977619171,-1025.10009765625,12.9000005722046,-894.900024414062,2.75157724625246,-0.486730497288609,0.214924152169651,ST
0.966666666666667,-4.47889471054077,-1.76691436767578,8.22326946258545,0.160062000155449,-0.121951997280121,0.243903994560242,-1022.70001220703,23.1000003814697,-899.700012207031,2.74862228173916,-0.489181711898581,0.211145784815248,ST
1.0,-4.45975399017334,-1.76153099536896,8.15807151794434,0.190549999475479,-0.152439996600151,0.419209986925125,-1029.90002441406,18.9000015258789,-902.100036621094,2.74673542790958,-0.490636598535201,0.21191122668804,ST
1.03333333333333,-4.42386531829834,-1.78784930706024,8.23104572296143,0.198172003030777,-0.0228659994900227,0.342989981174469,-1020.30004882812,12.3000001907349,-902.100036621094,2.74578833392084,-0.483740563460776,0.213220760661358,ST
1.06666666666667,-4.42805242538452,-1.77648460865021,8.1903715133667,0.266770005226135,-0.304879993200302,0.342989981174469,-1025.10009765625,18.3000011444092,-906.900024414062,2.74385788673261,-0.485669824175926,0.212759316587291,ST
1.1,-4.50102567672729,-1.85723388195038,8.19096946716309,0.167683988809586,-0.190549999475479,0.167683988809586,-1017.90002441406,18.3000011444092,-914.100036621094,2.74761639057629,-0.491672347829464,0.222442649451536,ST
1.13333333333333,-4.49504423141479,-1.8045973777771,8.26573753356934,0.198172003030777,-0.304879993200302,0.327746003866196,-1025.10009765625,24.3000011444092,-897.300048828125,2.74187039129962,-0.487992849946909,0.214283840998353,ST
1.16666666666667,-4.46932411193848,-1.8386914730072,8.1664457321167,0.175305992364883,-0.236281991004944,0.213415995240211,-1015.50006103516,21.3000011444092,-906.900024414062,2.74386774239962,-0.490076603283466,0.220874583129928,ST
1.2,-4.44240808486938,-1.81416761875153,8.21788597106934,0.335367977619171,-0.121951997280121,0.25152599811554,-1022.70001220703,20.1000003814697,-902.100036621094,2.74117430676487,-0.485604152003541,0.216462079209808,ST
1.23333333333333,-4.50999784469604,-1.71786665916443,8.15388488769531,0.335367977619171,-0.25152599811554,0.205793991684914,-1025.10009765625,17.7000007629395,-906.900024414062,2.73610146102378,-0.495703811592876,0.206843698004783,ST
1.26666666666667,-4.50042772293091,-1.75973665714264,8.22147560119629,0.282013982534409,-0.144817993044853,0.289635986089706,-1015.50006103516,17.7000007629395,-892.500061035156,2.73655390006402,-0.491350010983502,0.210057063736619,ST
1.3,-4.47231483459473,-1.70291304588318,8.23642826080322,0.213415995240211,-0.282013982534409,0.266770005226135,-1022.70001220703,14.1000003814697,-909.300048828125,2.73199690695386,-0.488349069841278,0.20325086609536,ST
1.33333333333333,-4.50939989089966,-1.77289581298828,8.18199729919434,0.228659987449646,-0.25152599811554,0.396344006061554,-1020.30004882812,28.5000019073486,-916.500061035156,2.7342736686274,-0.493764456399235,0.212519596589389,ST
1.36666666666667,-4.49025917053223,-1.67958545684814,8.28128910064697,0.25152599811554,-0.282013982534409,0.228659987449646,-1017.90002441406,22.5,-909.300048828125,2.72715505091534,-0.488077815805092,0.19947567785669,ST
1.4,-4.3843879699707,-1.7986159324646,8.28906536102295,0.266770005226135,-0.419209986925125,0.297257989645004,-1022.70001220703,17.1000003814697,-902.100036621094,2.73174096988615,-0.476540232514816,0.212793720882449,ST
1.43333333333333,-4.26894617080688,-1.80220472812653,8.27949523925781,0.243903994560242,-0.617381989955902,0.121951997280121,-1015.50006103516,23.1000003814697,-904.500061035156,2.73129574532855,-0.465740621523431,0.213677294056531,ST
1.46666666666667,-4.23545026779175,-1.92781484127045,8.45714378356934,0.175305992364883,-0.358233988285065,0.228659987449646,-1025.10009765625,14.7000007629395,-899.700012207031,2.73420669491769,-0.453778901237906,0.223504076167854,ST
1.5,-4.50640916824341,-2.03428435325623,8.37759017944336,0.327746003866196,0.0609759986400604,-0.0762199983000755,-1032.30004882812,17.7000007629395,-918.900024414062,2.74229371259075,-0.48157898324726,0.237643066888705,ST
1.53333333333333,-4.57041025161743,-1.77827906608582,8.38297367095947,0.731711983680725,0.342989981174469,0.403965979814529,-1029.90002441406,7.50000047683716,-904.500061035156,2.72871058553282,-0.49065638077266,0.207564185464618,ST
1.56666666666667,-4.52076435089111,-1.73521280288696,8.18199729919434,0.983237981796265,0.449698001146317,0.846041977405548,-1017.90002441406,17.7000007629395,-909.300048828125,2.72685295128849,-0.496569211792197,0.206574520826655,ST
1.6,-4.57878446578979,-1.7806715965271,8.11500549316406,0.92988395690918,0.198172003030777,0.899396002292633,-1017.90002441406,15.3000001907349,-904.500061035156,2.7280526890772,-0.504335351472451,0.213539255553074,ST
1.63333333333333,-4.68465566635132,-1.39367318153381,7.9576940536499,0.945127964019775,-0.0228659994900227,0.487807989120483,-1015.50006103516,16.5,-909.300048828125,2.70768985302347,-0.525541562971527,0.17134251177421,ST
1.66666666666667,-4.73729228973389,-1.43913197517395,8.23702716827393,0.891773998737335,-0.381099998950958,0.586893975734711,-1032.30004882812,21.3000011444092,-911.700012207031,2.70652770856329,-0.515030484265617,0.170779847119538,ST
1.7,-4.50162410736084,-1.51090919971466,8.0115270614624,0.701223969459534,-0.685979962348938,0.891773998737335,-1027.5,8.70000076293945,-914.100036621094,2.70891867908815,-0.503660413675076,0.184153191265857,ST
1.73333333333333,-4.50282049179077,-1.40443968772888,8.18857765197754,0.342989981174469,-0.769822001457214,0.129574000835419,-1020.30004882812,10.5,-902.100036621094,2.70118265899107,-0.495407050204577,0.169073220330219,ST
1.76666666666667,-4.32995700836182,-1.65147268772125,8.15268898010254,0.190549999475479,-0.861285984516144,0.914639949798584,-1029.90002441406,18.9000015258789,-902.100036621094,2.70853025670621,-0.478873194109736,0.19840270484239,ST
1.8,-4.2563853263855,-1.63532292842865,8.19216632843018,-0.0381099991500378,-0.990859985351562,0.121951997280121,-1029.90002441406,18.3000011444092,-911.700012207031,2.70545325556652,-0.469610819670311,0.196824963439344,ST
1.83333333333333,-4.28509616851807,-1.80160665512085,8.23702716827393,-0.0838419944047928,-0.708845973014832,0.221037998795509,-1034.70007324219,14.1000003814697,-911.700012207031,2.71082769725257,-0.469069467631266,0.215083151327047,ST
1.86666666666667,-4.21810436248779,-1.82553231716156,8.27470970153809,0.106707997620106,-0.609759986400604,0.282013982534409,-1029.90002441406,14.7000007629395,-904.500061035156,2.70913837950171,-0.46098782234449,0.216590423579688,ST
1.9,-4.39993953704834,-1.83928966522217,8.22745704650879,0.190549999475479,-0.640248000621796,0.0609759986400604,-1017.90002441406,11.7000007629395,-906.900024414062,2.70967162319037,-0.479903288415917,0.219418178800089,ST
1.93333333333333,-4.47291326522827,-1.86142086982727,8.24779319763184,0.282013982534409,-0.327746003866196,0.3125019967556,-1022.70001220703,11.1000003814697,-906.900024414062,2.70894990455794,-0.486113714110014,0.221119142753234,ST
1.96666666666667,-4.57220506668091,-1.80041038990021,8.45116233825684,0.411587983369827,-0.411587983369827,0.579271972179413,-1022.70001220703,20.7000007629395,-909.300048828125,2.70024169815324,-0.486194423368771,0.208647806576249,ST
2.0,-4.52255916595459,-2.04505085945129,8.3219633102417,0.342989981174469,-0.617381989955902,1.04421401023865,-1027.5,14.1000003814697,-906.900024414062,2.70762999153005,-0.484988091197917,0.239186444523351,ST
2.03333333333333,-4.76361083984375,-1.86560797691345,8.63598823547363,0.495429992675781,-0.434453994035721,-0.144817993044853,-1027.5,15.9000005722046,-909.300048828125,2.69711412452943,-0.493664458133876,0.212022484550188,ST
2.06666666666667,-4.85931348800659,-1.89790761470795,8.68443775177002,0.663114011287689,-0.533540010452271,0.739333987236023,-1029.90002441406,14.1000003814697,-899.700012207031,2.69455225695537,-0.49959171581246,0.213198168855481,ST
2.1,-4.95202589035034,-1.78904557228088,8.76339244842529,0.800309956073761,-0.571649968624115,0.221037998795509,-1037.10009765625,5.70000028610229,-909.300048828125,2.68884197181368,-0.504733512444976,0.199707734694125,ST
2.13333333333333,-4.87785577774048,-1.36017715930939,8.73288726806641,1.2500079870224,-1.08232402801514,0.3125019967556,-1022.70001220703,18.9000015258789,-918.900024414062,2.66721970016174,-0.502537982726638,0.152136137520566,ST
2.16666666666667,-4.58596229553223,-1.24593186378479,8.48764896392822,1.42531394958496,-1.76830399036407,0.640248000621796,-1037.10009765625,18.3000011444092,-914.100036621094,2.66180694019432,-0.488113843526731,0.142492606415738,ST
2.2,-4.49923133850098,-0.965402781963348,8.09227657318115,1.45580196380615,-2.21800184249878,0.396344006061554,-1025.10009765625,15.3000001907349,-911.700012207031,2.64994412196998,-0.500604231057391,0.115719028786272,ST
2.23333333333333,-4.34491062164307,-0.624461233615875,7.83686923980713,1.52439999580383,-1.99696397781372,0.304879993200302,-1039.5,17.1000003814697,-906.900024414062,2.63353525141774,-0.501453086378803,0.0766268719595494,ST
2.26666666666667,-3.8837423324585,-0.616685390472412,7.99657344818115,0.823175966739655,-2.37044191360474,1.02897000312805,-1037.10009765625,12.3000001907349,-914.100036621094,2.62723687159267,-0.447266535485995,0.0745273884029359,ST
2.3,-3.72044920921326,-0.619676113128662,8.05997657775879,0.198172003030777,-2.61434602737427,0.525918006896973,-1044.30004882812,12.3000001907349,-914.100036621094,2.62349041424654,-0.426966269894113,0.0758031994511933,ST
2.33333333333333,-3.94236040115356,-0.455186814069748,8.56361293792725,-0.0685980021953583,-2.25611186027527,0.129574000835419,-1051.5,17.1000003814697,-906.900024414062,2.61211839199316,-0.426982454054664,0.0531503472232513,ST
2.36666666666667,-3.34421730041504,-0.407933503389359,7.65144491195679,-0.0457319989800453,-1.08232402801514,1.15854394435883,-1053.90002441406,14.1000003814697,-914.100036621094,2.60336528519433,-0.409842957606841,0.0524259661570692,ST
2.4,-3.46205163002014,0.0137572884559631,7.94812393188477,0.533540010452271,0.731711983680725,0.3125019967556,-1044.30004882812,20.1000003814697,-914.100036621094,2.58077465289627,-0.412069278196968,-0.0027341372105045,ST
2.43333333333333,-3.80478739738464,0.297277063131332,8.53849124908447,1.14329993724823,1.2347639799118,2.25611186027527,-1056.30004882812,8.70000076293945,-918.900024414062,2.55414239978551,-0.420927177564939,-0.0383948236299675,ST
2.46666666666667,-3.83230209350586,-0.721958577632904,8.87883472442627,0.762199997901917,1.08232402801514,1.71494996547699,-1051.5,15.9000005722046,-904.500061035156,2.59127007872894,-0.408430539761895,0.0782258272824012,ST
2.5,-3.94236040115356,-0.318810194730759,9.28377723693848,0.762199997901917,1.265251994133,-1.27287399768829,-1041.90002441406,11.7000007629395,-911.700012207031,2.58527285286497,-0.403519702332202,0.0342196715688006,ST
2.53333333333333,-4.26356315612793,-0.0065795728005468,9.70367336273193,0.800309956073761,-0.419209986925125,-0.426831990480423,-1029.90002441406,11.7000007629395,-909.300048828125,2.57690303143196,-0.413199561857089,-0.0002020916619577,ST
2.56666666666667,-3.79820775985718,-0.157311603426933,8.56540775299072,0.350611984729767,-0.922261953353882,-0.724089980125427,-1056.30004882812,12.9000005722046,-906.900024414062,2.59097954548148,-0.415681116940805,0.0182509248255531,ST
2.6,-4.41848230361938,-0.111254595220089,8.56899642944336,-0.87652999162674,0.37347799539566,-1.18903195858002,-1032.30004882812,15.9000005722046,-904.500061035156,2.5949201949068,-0.47632959203604,0.015600475692506,ST
2.63333333333333,-4.21870231628418,-0.361278355121613,8.4415922164917,-1.40244793891907,0.137196004390717,-0.266770005226135,-1041.90002441406,17.1000003814697,-921.300048828125,2.60545999172311,-0.463374841948087,0.0452936626120405,ST
2.66666666666667,-3.82332992553711,-0.916355013847351,7.57787322998047,-2.42379593849182,-0.175305992364883,0.442075997591019,-1049.10009765625,15.9000005722046,-904.500061035156,2.62937110074482,-0.464151454943443,0.123736295593802,ST
2.7,-4.48308134078979,-1.34641981124878,7.76090526580811,-2.90398192405701,0.541162014007568,-1.37958192825317,-1049.10009765625,20.7000007629395,-914.100036621094,2.65389305320539,-0.517775913893731,0.178119810615624,ST
2.73333333333333,-4.97296047210693,-0.717771589756012,7.61555624008179,-1.85214591026306,0.830797970294952,-0.800309956073761,-1027.5,12.3000001907349,-916.500061035156,2.61047081357514,-0.577554688313501,0.0985096876697135,ST
2.76666666666667,-5.4580545425415,-1.28600740432739,8.02767658233643,-1.21951997280121,1.41006994247437,1.40244793891907,-1041.90002441406,21.9000015258789,-902.100036621094,2.63128998474877,-0.593978904622544,0.159328668336765,ST
2.8,-5.81574392318726,-1.72324991226196,8.57796859741211,-0.556405961513519,1.42531394958496,0.975615978240967,-1034.70007324219,15.3000001907349,-911.700012207031,2.64583574631477,-0.589432295374044,0.198317986981124,ST
2.83333333333333,-5.97126150131226,-1.03777801990509,9.22755146026611,0.541162014007568,0.579271972179413,-0.259148001670837,-1034.70007324219,20.7000007629395,-911.700012207031,2.60268064996626,-0.572536238973456,0.111883572060113,ST
2.86666666666667,-4.99748468399048,-1.11434030532837,8.85550689697266,1.08232402801514,-1.19665396213531,1.90549993515015,-1037.10009765625,17.1000003814697,-921.300048828125,2.59780862413074,-0.508995614695081,0.121265643960653,ST
2.9,-4.61287879943848,-2.06897664070129,7.4893479347229,-0.259148001670837,-1.61586391925812,0.442075997591019,-1039.5,11.7000007629395,-902.100036621094,2.66495553960631,-0.533142976844291,0.268278683742721,ST
2.93333333333333,-4.56921434402466,-1.12391066551208,7.90027236938477,0.640248000621796,0.457319974899292,-2.74391984939575,-1041.90002441406,13.5000009536743,-914.100036621094,2.62383038267741,-0.520184036066015,0.143438273613839,ST
2.96666666666667,-4.34790134429932,-1.85902833938599,7.24590396881104,-0.289635986089706,0.0533539988100529,1.72257196903229,-1032.30004882812,15.9000005722046,-909.300048828125,2.66436429337077,-0.527312220364002,0.249572771322353,ST
3.0,-4.97954034805298,-2.45238614082336,7.85600996017456,0.0381099991500378,1.61586391925812,-1.15854394435883,-1027.5,15.3000001907349,-914.100036621094,2.70240118109957,-0.546118266021784,0.303893625845918,ST
3.03333333333333,-4.7247314453125,-1.46305775642395,8.65931606292725,0.914639949798584,-0.663114011287689,-1.57775402069092,-1037.10009765625,17.1000003814697,-914.100036621094,2.64880881162857,-0.49212230673429,0.167461634654907,ST
3.06666666666667,-4.65175771713257,-2.3937680721283,7.84045791625977,0.0762199983000755,-1.18903195858002,0.525918006896973,-1041.90002441406,16.5,-906.900024414062,2.70516916107792,-0.514315071007284,0.294637476040736,ST
3.1,-5.21042346954346,-2.34591674804688,8.39194583892822,-0.0076219998300075,-0.0228659994900227,-2.14940404891968,-1027.5,15.3000001907349,-909.300048828125,2.70849284844495,-0.53773192523152,0.27485556523793,ST
3.13333333333333,-5.10455226898193,-1.64070618152618,8.35366439819336,0.99848198890686,0.685979962348938,-0.975615978240967,-1027.5,13.5000009536743,-904.500061035156,2.67832382514742,-0.540963254945799,0.193638497471502,ST
3.16666666666667,-4.95202589035034,-1.98104953765869,8.1245756149292,1.41006994247437,0.266770005226135,0.0609759986400604,-1027.5,19.5,-894.900024414062,2.70567898865313,-0.535151951505513,0.236475075033886,ST
3.2,-4.91793155670166,-1.73282015323639,7.46542263031006,1.71494996547699,0.411587983369827,-0.670735955238342,-1027.5,9.30000019073486,-911.700012207031,2.7117390393623,-0.570761118206586,0.225973182803542,ST
3.23333333333333,-4.95262384414673,-1.36615860462189,7.14362144470215,1.36433792114258,0.922261953353882,-0.236281991004944,-1029.90002441406,13.5000009536743,-904.500061035156,2.69862536285928,-0.599176908437866,0.187277783163864,ST
3.26666666666667,-5.22896575927734,-1.46963727474213,7.54796600341797,0.137196004390717,0.708845973014832,0.571649968624115,-1013.10003662109,15.9000005722046,-909.300048828125,2.69896053518962,-0.598581290328903,0.191530831244633,ST
3.3,-5.22776937484741,-1.6024249792099,7.30033493041992,-1.22714197635651,0.213415995240211,0.83841997385025,-1015.50006103516,12.9000005722046,-918.900024414062,2.70350432120985,-0.61096593289598,0.217128823475781,ST
3.33333333333333,-5.571702003479,-1.77169942855835,8.1431188583374,-2.11891603469849,0.388722002506256,1.32622802257538,-1025.10009765625,19.5,-902.100036621094,2.68525929250194,-0.590548819500613,0.216510052152225,ST
3.36666666666667,-5.19905853271484,-2.23346590995789,7.8775429725647,-2.72105383872986,-0.426831990480423,2.68294382095337,-1022.70001220703,15.9000005722046,-916.500061035156,2.69067807539239,-0.566422630508699,0.277690358706618,ST
3.4,-5.3838849067688,-2.67250275611877,7.90864658355713,-2.5076379776001,0.0381099991500378,1.86738991737366,-1032.30004882812,15.9000005722046,-894.900024414062,2.6959530954023,-0.573881242051823,0.328040270021988,ST
3.43333333333333,-5.37431478500366,-2.50801348686218,7.73518466949463,-1.36433792114258,0.221037998795509,2.5076379776001,-1032.30004882812,17.7000007629395,-899.700012207031,2.66594329115267,-0.585690887699091,0.313283756181219,ST
3.46666666666667,-5.36893129348755,-2.90458226203918,7.9636754989624,-1.07470202445984,0.228659987449646,1.85976791381836,-1027.5,26.7000007629395,-897.300048828125,2.67079370529428,-0.56618476685725,0.34956032864077,ST
3.5,-5.45446586608887,-2.50263023376465,7.41218757629395,-0.899396002292633,-0.586893975734711,1.6844619512558,-1027.5,17.7000007629395,-909.300048828125,2.64103398525877,-0.608691880587291,0.325098611987193,ST
3.53333333333333,-5.49155044555664,-2.64259552955627,7.24710035324097,-0.693601965904236,-0.480185985565186,3.26221585273743,-1034.70007324219,20.1000003814697,-906.900024414062,2.63006374125553,-0.619767556725735,0.346749956533691,ST
3.56666666666667,-5.87256765365601,-2.09469676017761,7.78662538528442,0.640248000621796,1.10518991947174,1.61586391925812,-1022.70001220703,20.7000007629395,-904.500061035156,2.57423043197124,-0.632026353559725,0.260310441236958,ST
3.6,-6.30024003982544,-2.08692073822021,8.46970462799072,0.160062000155449,0.594515979290009,3.55947399139404,-1032.30004882812,15.9000005722046,-897.300048828125,2.54127883750577,-0.628003488257845,0.237233043271599,ST
3.63333333333333,-6.06995487213135,-1.97446990013123,8.25198078155518,0.121951997280121,0.137196004390717,4.28356409072876,-1015.50006103516,26.1000003814697,-911.700012207031,2.5121375663522,-0.622943330812279,0.229502001430526,ST
3.66666666666667,-5.58904790878296,-1.29139065742493,7.16395854949951,0.236281991004944,-0.182927995920181,2.75916385650635,-1025.10009765625,18.9000015258789,-914.100036621094,2.46401363600298,-0.655145047041467,0.174563337865319,ST
3.7,-5.44070863723755,-1.38948607444763,6.62802219390869,-0.403965979814529,0.243903994560242,3.30794787406921,-1022.70001220703,18.9000015258789,-899.700012207031,2.45899754944714,-0.678321716518046,0.202782443768593,ST
3.73333333333333,-6.01193523406982,-1.22080981731415,6.84694242477417,-1.21189796924591,1.18903195858002,2.40855193138123,-1003.50006103516,18.3000011444092,-902.100036621094,2.42326903955909,-0.71537910832169,0.17544290228395,ST
3.76666666666667,-5.77148151397705,-1.11972367763519,7.65383768081665,-1.2423859834671,-0.0304879993200302,3.41465592384338,-1013.10003662109,29.7000007629395,-899.700012207031,2.37731255019654,-0.642219344168183,0.143168334835713,ST
3.8,-5.54478549957275,-1.3218959569931,7.19506168365479,-1.30336201190948,-1.6615959405899,3.55947399139404,-1025.10009765625,24.9000015258789,-899.700012207031,2.37015860299502,-0.64679329488271,0.178765943347918,ST
3.83333333333333,-4.90477228164673,-1.24892246723175,7.37809371948242,-0.37347799539566,-1.82927989959717,2.94971394538879,-1020.30004882812,21.3000011444092,-904.500061035156,2.34059879958711,-0.578272039674373,0.164737909794939,ST
3.86666666666667,-4.78574180603027,-0.859531462192535,7.88472080230713,1.35671591758728,-1.08232402801514,0.0838419944047928,-1015.50006103516,12.3000001907349,-904.500061035156,2.31353310253909,-0.541253941757626,0.106320164076758,ST
3.9,-5.11113166809082,-1.12989211082458,7.98102188110352,1.04421401023865,-0.777444005012512,2.73629784584045,-1013.10003662109,20.7000007629395,-904.500061035156,2.31356032519808,-0.564356566981774,0.135629178168158,ST
3.93333333333333,-5.44549369812012,-0.221312895417213,7.45046901702881,2.00458598136902,0.609759986400604,0.137196004390717,-1022.70001220703,18.9000015258789,-897.300048828125,2.26013125771054,-0.631664034731949,0.0266712209430378,ST
3.96666666666667,-5.23733997344971,-0.211742609739304,7.5371994972229,2.55336999893188,0.937505960464478,-0.0914639979600906,-1017.90002441406,23.7000007629395,-904.500061035156,2.27017065557316,-0.608848611005995,0.023790632752222,ST
4.0,-5.43353080749512,-0.546104550361633,7.12089204788208,1.12805593013763,1.01372599601746,0.0304879993200302,-1013.10003662109,18.9000015258789,-918.900024414062,2.3052510950521,-0.651918691673564,0.0743429338402536,ST
4.03333333333333,-5.3659405708313,-0.660947978496552,7.49353504180908,0.594515979290009,0.487807989120483,-0.388722002506256,-1017.90002441406,15.3000001907349,-906.900024414062,2.31822185282046,-0.620563409735883,0.0874046826192968,ST
4.06666666666667,-5.35577201843262,-0.733921408653259,8.67127895355225,1.13567793369293,0.640248000621796,-1.81403601169586,-1005.90002441406,18.9000015258789,-909.300048828125,2.33293003945023,-0.552917407065653,0.0844835774366081,ST
4.1,-4.63261747360229,-0.97557121515274,7.64127635955811,0.731711983680725,-1.28811800479889,-1.30336201190948,-1005.90002441406,16.5,-904.500061035156,2.36498528170966,-0.538998289561773,0.126656867987177,ST
4.13333333333333,-5.22896575927734,-1.18252861499786,8.8997688293457,0.975615978240967,-0.548784017562866,-4.17685604095459,-1008.30004882812,16.5,-909.300048828125,2.39891844481818,-0.52554179652496,0.134473606914349,ST
4.16666666666667,-4.46154832839966,-0.329576790332794,8.30820560455322,1.98171997070312,-1.37958192825317,-2.23324584960938,-1017.90002441406,23.7000007629395,-904.500061035156,2.37475989329214,-0.49005881819347,0.0385691832069721,ST
4.2,-3.84306859970093,-1.47502052783966,7.58684539794922,1.95123195648193,-0.282013982534409,0.152439996600151,-1015.50006103516,21.3000011444092,-914.100036621094,2.44882841227145,-0.461133313656122,0.187893700119826,ST
4.23333333333333,-4.41908025741577,-1.82613050937653,9.14560604095459,1.41006994247437,0.518296003341675,-2.90398192405701,-1013.10003662109,17.7000007629395,-909.300048828125,2.4787635484915,-0.442464122867531,0.197027713370882,ST
4.26666666666667,-4.03925943374634,-0.878672003746033,8.95300388336182,1.6844619512558,-1.60061991214752,-1.65397393703461,-1027.5,14.7000007629395,-911.700012207031,2.45232791157742,-0.419076127593,0.096500307377546,ST
4.3,-3.5972318649292,-1.22499680519104,7.6388840675354,2.16464805603027,-1.21951997280121,-0.937505960464478,-1034.70007324219,21.9000015258789,-909.300048828125,2.48860710448114,-0.432811686549681,0.155492709136041,ST
4.33333333333333,-4.42446374893188,-1.54380702972412,8.29385089874268,2.28659987449646,0.160062000155449,-1.57775402069092,-1020.30004882812,17.7000007629395,-906.900024414062,2.51836259284033,-0.482527754551998,0.181332542271978,ST
4.36666666666667,-5.06328010559082,-0.862522184848785,8.57916450500488,2.70580983161926,0.3125019967556,-3.97868394851685,-1015.50006103516,8.70000076293945,-914.100036621094,2.51484732990696,-0.530545421696548,0.100012566729752,ST
4.4,-4.86290216445923,-0.767417430877686,8.09825801849365,2.61434602737427,0.190549999475479,-2.11129403114319,-1015.50006103516,16.5,-914.100036621094,2.53449922482126,-0.538752759186216,0.0921718749998393,ST
4.43333333333333,-5.13984251022339,-1.46844100952148,8.41228294372559,1.44817996025085,0.0457319989800453,-1.38720393180847,-1010.70001220703,16.5,-909.300048828125,2.58962849514571,-0.54147570577774,0.171294835394032,ST
4.46666666666667,-4.83718204498291,-1.06768524646759,8.11799621582031,1.46342396736145,-0.67835795879364,-2.78202986717224,-1039.5,12.3000001907349,-911.700012207031,2.59183428963392,-0.531846433706956,0.131179551362174,ST
4.5,-5.30074310302734,-0.79672646522522,8.97334098815918,1.02134799957275,-1.31098401546478,-1.40244793891907,-1022.70001220703,18.3000011444092,-914.100036621094,2.58360025151755,-0.529361862722624,0.088187611943857,ST
4.53333333333333,-5.13984251022339,-0.626853823661804,8.83397388458252,1.08994603157043,-1.265251994133,-0.182927995920181,-1017.90002441406,7.50000047683716,-906.900024414062,2.57869737243797,-0.523665642769747,0.069136902869797,ST
4.56666666666667,-4.79351758956909,-0.578404247760773,8.93625640869141,0.556405961513519,-1.13567793369293,0.297257989645004,-1027.5,6.30000019073486,-911.700012207031,2.57544481789562,-0.489723328987909,0.063351265409058,ST
4.6,-4.12718629837036,-0.819455862045288,7.81234550476074,-0.609759986400604,-1.48628997802734,1.39482593536377,-1017.90002441406,9.90000057220459,-918.900024414062,2.58213228354194,-0.481483640458515,0.103944591569969,ST
4.63333333333333,-4.40352869033813,-1.02103006839752,7.53241443634033,-1.87501192092896,-0.548784017562866,-0.503051996231079,-1037.10009765625,16.5,-923.700012207031,2.59454721412361,-0.523769778468615,0.138238713061803,ST
4.66666666666667,-4.64158964157104,-1.63053774833679,7.08919048309326,-2.89635992050171,0.106707997620106,0.213415995240211,-1029.90002441406,11.1000003814697,-914.100036621094,2.62944802298704,-0.568025458212148,0.230494804203453,ST
4.7,-5.6823582649231,-1.9146556854248,8.4828634262085,-2.75916385650635,1.44817996025085,-1.36433792114258,-1022.70001220703,17.1000003814697,-918.900024414062,2.62752817013681,-0.580665072374015,0.22870071037878,ST
4.73333333333333,-5.3958477973938,-1.21363210678101,8.44039535522461,-1.82165801525116,-0.663114011287689,-0.282013982534409,-1020.30004882812,20.1000003814697,-916.500061035156,2.5768426834146,-0.563070951330552,0.146637648773654,ST
4.76666666666667,-4.99808263778687,-1.65565979480743,7.87814092636108,-1.03659200668335,-1.15854394435883,0.800309956073761,-1027.5,18.3000011444092,-909.300048828125,2.59860046091924,-0.55397878511588,0.207516001167335,ST
4.8,-5.51906538009644,-1.85843026638031,7.99896574020386,-0.99848198890686,-0.731711983680725,1.69970595836639,-1025.10009765625,17.1000003814697,-909.300048828125,2.59408889068592,-0.590955727104777,0.227783752137137,ST
4.83333333333333,-6.37141895294189,-1.734614610672,8.67008209228516,-0.403965979814529,0.830797970294952,0.830797970294952,-1034.70007324219,18.3000011444092,-909.300048828125,2.57089431043372,-0.625963858830707,0.197487015185525,ST
4.86666666666667,-5.5178689956665,-1.08862018585205,7.98879766464233,0.198172003030777,-0.0076219998300075,1.37195992469788,-1025.10009765625,15.9000005722046,-918.900024414062,2.5262103636918,-0.600569690308146,0.133692502650726,ST
4.9,-5.06567287445068,-1.24174475669861,7.47738552093506,-0.114329993724823,-0.472563982009888,2.78965187072754,-1017.90002441406,18.9000015258789,-911.700012207031,2.52202123377441,-0.589144793236815,0.161380016506869,ST
4.93333333333333,-4.77676963806152,-1.28540921211243,7.28777408599854,-0.304879993200302,-0.213415995240211,2.53050398826599,-1022.70001220703,23.1000003814697,-902.100036621094,2.51084254540785,-0.573670345854956,0.172202199918283,ST
4.96666666666667,-5.07285070419312,-1.40324342250824,7.34100866317749,-0.518296003341675,0.449698001146317,2.27897787094116,-1032.30004882812,21.3000011444092,-909.300048828125,2.50352028170645,-0.597692714928778,0.18713737602285,ST
5.0,-5.38926839828491,-1.51988124847412,7.90685176849365,-0.617381989955902,0.396344006061554,2.28659987449646,-1032.30004882812,20.7000007629395,-914.100036621094,2.48671229973945,-0.591297883592974,0.188436276781027,ST
5.03333333333333,-5.59742212295532,-0.99889874458313,7.95589971542358,0.144817993044853,-0.282013982534409,0.92988395690918,-1032.30004882812,20.7000007629395,-914.100036621094,2.44491196648127,-0.609055918538031,0.123843126894883,ST
5.06666666666667,-5.60639429092407,-0.946262180805206,7.89130020141602,0.815553963184357,-0.160062000155449,2.39330792427063,-1027.5,23.7000007629395,-914.100036621094,2.42766107354205,-0.61453014545018,0.114995823304637,ST
5.1,-5.40481996536255,-1.00069320201874,7.60778045654297,1.44055795669556,0.830797970294952,2.01220798492432,-1013.10003662109,18.9000015258789,-911.700012207031,2.42811365424716,-0.61553213877088,0.125908656916943,ST
5.13333333333333,-5.5806736946106,-1.10177934169769,8.17003440856934,1.31860601902008,0.983237981796265,1.6615959405899,-1017.90002441406,19.5,-909.300048828125,2.4265976644629,-0.597262026882457,0.129925175111565,ST
5.16666666666667,-5.09199094772339,-0.443822085857391,7.81114912033081,1.37195992469788,-0.6250039935112,0.586893975734711,-1017.90002441406,12.9000005722046,-911.700012207031,2.38632035742562,-0.576015948782858,0.0539366723568106,ST
5.2,-5.04533576965332,-0.810483753681183,7.73458671569824,0.87652999162674,-0.617381989955902,0.533540010452271,-1013.10003662109,18.9000015258789,-902.100036621094,2.41236446143628,-0.574531071602026,0.102057926371591,ST
5.23333333333333,-4.88323926925659,-0.683677434921265,7.8416543006897,0.541162014007568,0.266770005226135,-0.228659987449646,-1020.30004882812,14.1000003814697,-906.900024414062,2.40771773251944,-0.555801062225611,0.0863788908807092,ST
5.26666666666667,-4.57340097427368,-0.912168025970459,7.46602058410645,-0.182927995920181,0.190549999475479,0.266770005226135,-1020.30004882812,12.9000005722046,-909.300048828125,2.42381301389734,-0.546748659413134,0.121443537688316,ST
5.3,-4.3484992980957,-1.23875403404236,7.49712419509888,-0.541162014007568,-0.175305992364883,-0.0914639979600906,-1029.90002441406,15.9000005722046,-909.300048828125,2.44408319116882,-0.519599249799987,0.16452312871703,ST
5.33333333333333,-4.55246639251709,-1.90329098701477,7.23693180084229,-0.99848198890686,0.121951997280121,0.0076219998300075,-1022.70001220703,14.7000007629395,-918.900024414062,2.4881385282813,-0.546624024347499,0.258413829552673,ST
5.36666666666667,-5.34141683578491,-1.54500329494476,9.05767917633057,0.754577994346619,0.92988395690918,-1.72257196903229,-1015.50006103516,19.5,-902.100036621094,2.4577953002878,-0.527765970028927,0.170001146522269,ST
5.4,-4.91314649581909,-1.57072341442108,7.97862911224365,1.2500079870224,-1.12043392658234,-1.13567793369293,-1013.10003662109,11.1000003814697,-916.500061035156,2.48014371784603,-0.54112494133148,0.193011382410813,ST
5.43333333333333,-5.20264768600464,-1.29677391052246,8.13294982910156,1.35671591758728,0.701223969459534,-1.37958192825317,-1010.70001220703,17.1000003814697,-902.100036621094,2.47629294498611,-0.564119719186547,0.157570269461956,ST
5.46666666666667,-5.04832649230957,-1.22021162509918,8.09706115722656,0.655492007732391,0.0304879993200302,0.640248000621796,-1017.90002441406,19.5,-909.300048828125,2.46961279471939,-0.552734873294424,0.147787771336437,ST
5.5,-4.90297794342041,-1.50313329696655,8.55822944641113,0.381099998950958,-0.0762199983000755,-0.274392008781433,-1015.50006103516,10.5,-909.300048828125,2.485681490015,-0.513727896892695,0.173314362175213,ST
5.53333333333333,-3.88852739334106,-1.39726197719574,7.9457311630249,-0.25152599811554,-1.40244793891907,0.853663980960846,-1008.30004882812,15.9000005722046,-914.100036621094,2.47698091963788,-0.44718413433775,0.173599482469953,ST
5.56666666666667,-4.44838905334473,-1.37333631515503,8.70537281036377,0.640248000621796,-1.265251994133,-0.228659987449646,-1008.30004882812,11.7000007629395,-904.500061035156,2.47129381630038,-0.46509947091389,0.155476022536512,ST
5.6,-4.49025917053223,-1.3338588476181,8.60787582397461,1.36433792114258,-1.50153398513794,-0.800309956073761,-1032.30004882812,14.7000007629395,-918.900024414062,2.4780568258071,-0.473119491913964,0.151874580880136,ST
5.63333333333333,-4.90237998962402,-1.50732028484344,8.4116849899292,0.480185985565186,-1.14329993724823,-0.442075997591019,-1020.30004882812,13.5000009536743,-902.100036621094,2.49336588261149,-0.518565168900731,0.176610777323806,ST
5.66666666666667,-5.5926365852356,-0.976767480373383,8.01332092285156,0.213415995240211,0.106707997620106,-2.37806391716003,-1020.30004882812,14.1000003814697,-902.100036621094,2.482347230432,-0.605279109999063,0.123951995485389,ST
5.7,-6.1770224571228,-0.655564725399017,8.48824691772461,1.00610399246216,1.57013201713562,1.15092194080353,-1013.10003662109,17.1000003814697,-902.100036621094,2.45158407296315,-0.630481117696143,0.0741691580074346,ST
5.73333333333333,-5.47779321670532,-1.34941053390503,8.10543537139893,0.861285984516144,1.02897000312805,1.39482593536377,-1010.70001220703,11.7000007629395,-914.100036621094,2.49770730131101,-0.590383447273645,0.161585044047629,ST
5.76666666666667,-5.35696840286255,-1.21064138412476,8.1724271774292,-0.274392008781433,-0.403965979814529,1.15092194080353,-1020.30004882812,17.7000007629395,-914.100036621094,2.48037843462138,-0.574927576393916,0.146259903707477,ST
5.8,-4.72293710708618,-0.820053994655609,7.45166492462158,-0.670735955238342,-1.98934197425842,0.396344006061554,-1015.50006103516,21.3000011444092,-904.500061035156,2.45397994926457,-0.558878041672955,0.110243144282939,ST
5.83333333333333,-4.94963312149048,-1.27942776679993,7.0987606048584,-1.05945801734924,-0.289635986089706,2.00458598136902,-1027.5,13.5000009536743,-909.300048828125,2.47379209482704,-0.601287983218775,0.177367360167313,ST
5.86666666666667,-4.71994638442993,-1.40264523029327,7.84703779220581,-0.807931959629059,-0.739333987236023,0.815553963184357,-1032.30004882812,20.1000003814697,-916.500061035156,2.46355687291769,-0.533744691182994,0.177325597473188,ST
5.9,-5.27741527557373,-1.72085738182068,6.78353929519653,-1.12043392658234,-0.922261953353882,1.06708002090454,-1022.70001220703,15.3000001907349,-916.500061035156,2.4906322319032,-0.644400381816285,0.248327077734012,ST
5.93333333333333,-5.40900707244873,-1.05452609062195,8.16285705566406,0.175305992364883,0.342989981174469,-1.22714197635651,-1025.10009765625,15.3000001907349,-909.300048828125,2.43206948059752,-0.581880568986201,0.129896748129485,ST
5.96666666666667,-5.22358274459839,-1.80698990821838,7.18429517745972,-0.129574000835419,-0.685979962348938,3.13264203071594,-1013.10003662109,23.7000007629395,-906.900024414062,2.47447564420226,-0.61416617916593,0.242171271581607,ST
6.0,-5.99458885192871,-1.65984678268433,7.5407886505127,0.266770005226135,1.83690190315247,-1.21189796924591,-1017.90002441406,18.9000015258789,-909.300048828125,2.47102252211316,-0.662569651912603,0.218476667020968,ST
6.03333333333333,-6.1327600479126,-0.684873700141907,9.33102989196777,1.29574000835419,1.09756803512573,-0.861285984516144,-1022.70001220703,12.9000005722046,-916.500061035156,2.39803661419655,-0.582333117478498,0.0725977222025473,ST
6.06666666666667,-5.13685178756714,-1.57132160663605,7.9493203163147,-0.182927995920181,-2.66770005226135,3.06404399871826,-1017.90002441406,16.5,-904.500061035156,2.43955609854962,-0.561565008574625,0.190954375851144,ST
6.1,-4.35687351226807,-1.30754053592682,7.98879766464233,-0.754577994346619,-1.17378795146942,-0.967993974685669,-1020.30004882812,13.5000009536743,-904.500061035156,2.42853040876004,-0.491710789355178,0.164361018150177,ST
6.13333333333333,-4.50581121444702,-1.40623414516449,7.66759490966797,-1.44817996025085,-1.65397393703461,1.95123195648193,-1020.30004882812,21.9000015258789,-909.300048828125,2.41594347289472,-0.521750730733763,0.181624694960332,ST
6.16666666666667,-4.65056180953979,-1.55337727069855,8.36443138122559,-0.594515979290009,0.701223969459534,-0.0838419944047928,-1015.50006103516,21.9000015258789,-909.300048828125,2.41674084898137,-0.501552192596684,0.184841680455197,ST
6.2,-5.22118997573853,-1.62694883346558,7.81533622741699,-0.3125019967556,0.868907988071442,1.61586391925812,-1034.70007324219,16.5,-923.700012207031,2.41647040613194,-0.580834529297653,0.204072769251591,ST
6.23333333333333,-5.3599591255188,-1.09460163116455,7.87993574142456,1.22714197635651,2.08842802047729,0.716467976570129,-1020.30004882812,14.7000007629395,-904.500061035156,2.38129524060719,-0.596607230099212,0.135640618238745,ST
6.26666666666667,-5.85581970214844,-1.25610029697418,8.71434497833252,1.6920839548111,2.47714996337891,0.762199997901917,-1015.50006103516,19.5,-906.900024414062,2.38808846919832,-0.591415890637655,0.139710252180151,ST
6.3,-5.28997659683228,-0.999496877193451,8.38536643981934,1.6692179441452,0.792688012123108,1.03659200668335,-1015.50006103516,15.9000005722046,-911.700012207031,2.37536439688692,-0.561373900669366,0.114830256910076,ST
6.33333333333333,-4.08232593536377,-1.31053125858307,7.68075370788574,0.990859985351562,-0.396344006061554,-1.50153398513794,-1010.70001220703,12.3000001907349,-916.500061035156,2.41570906287577,-0.481787322565478,0.16837455257842,ST
6.36666666666667,-4.45736122131348,-1.57012534141541,8.72570991516113,0.609759986400604,-1.76068198680878,-1.80641400814056,-1010.70001220703,15.3000001907349,-916.500061035156,2.43205599195737,-0.462374636132397,0.178196340411079,ST
6.4,-3.99021172523499,-1.23755776882172,7.78662538528442,1.58537602424622,-2.61434602737427,-2.75916385650635,-1025.10009765625,9.90000057220459,-911.700012207031,2.44579773580299,-0.463245907189327,0.156918904550129,ST
6.43333333333333,-4.26894617080688,-1.54261076450348,8.28368186950684,1.90549993515015,-1.88263392448425,-1.59299790859222,-1017.90002441406,14.7000007629395,-914.100036621094,2.47203860678971,-0.465200972446499,0.181745208802297,ST
6.46666666666667,-4.71516084671021,-1.89850580692291,8.87225437164307,1.21951997280121,-2.88111591339111,-1.70732796192169,-1020.30004882812,14.7000007629395,-906.900024414062,2.49706940240057,-0.473709315968396,0.20954382935483,ST
6.5,-5.0973744392395,-1.43195426464081,8.87644195556641,0.769822001457214,-2.68294382095337,-1.61586391925812,-1022.70001220703,12.3000001907349,-923.700012207031,2.48446219189332,-0.510538820460563,0.159927065756203,ST
6.53333333333333,-4.16307497024536,-1.12151801586151,7.47140407562256,-0.129574000835419,-3.85673189163208,0.0762199983000755,-1039.5,15.9000005722046,-906.900024414062,2.47395538169586,-0.497044912317076,0.14864948579158,ST
6.56666666666667,-4.06438159942627,-1.01325416564941,7.51267576217651,-0.754577994346619,-2.60672402381897,0.685979962348938,-1034.70007324219,15.9000005722046,-916.500061035156,2.45658980625792,-0.487821776372534,0.134462817722182,ST
6.6,-4.46932411193848,-0.897214472293854,8.89797496795654,-0.350611984729767,-1.71494996547699,0.685979962348938,-1032.30004882812,20.1000003814697,-918.900024414062,2.43412324724568,-0.460742806828752,0.100547962809023,ST
6.63333333333333,-4.74805879592896,-1.05811488628387,8.77535533905029,0.121951997280121,-1.04421401023865,2.09605002403259,-1039.5,12.3000001907349,-906.900024414062,2.42779339365575,-0.491394932591247,0.117632606241532,ST
6.66666666666667,-5.14582395553589,-0.87388688325882,8.92548942565918,0.571649968624115,0.449698001146317,1.05945801734924,-1034.70007324219,15.9000005722046,-918.900024414062,2.4123945738849,-0.521769578819994,0.0956699170744201,ST
6.7,-4.52016639709473,-0.899607002735138,7.93855333328247,0.358233988285065,0.411587983369827,1.51677799224854,-1039.5,15.3000001907349,-916.500061035156,2.41091179831784,-0.51589714843711,0.110723104385277,ST
6.73333333333333,-4.49444627761841,-1.31950342655182,7.88890743255615,-0.396344006061554,0.716467976570129,0.137196004390717,-1034.70007324219,13.5000009536743,-911.700012207031,2.43653913185719,-0.513233627196838,0.166096269285825,ST
6.76666666666667,-4.85093927383423,-0.399559497833252,7.95709609985352,0.571649968624115,0.87652999162674,0.99848198890686,-1041.90002441406,14.1000003814697,-906.900024414062,2.37330652425547,-0.548358435271898,0.0488191755742655,ST
6.8,-4.47231483459473,-1.31651270389557,8.02648067474365,0.92988395690918,0.967993974685669,1.21189796924591,-1037.10009765625,15.3000001907349,-916.500061035156,2.42534897365695,-0.504986972931418,0.159352337578236,ST
6.83333333333333,-4.77856397628784,-1.05691862106323,7.65264129638672,0.503051996231079,0.655492007732391,0.259148001670837,-1046.70007324219,9.90000057220459,-911.700012207031,2.41459171535498,-0.554876785193115,0.136315296323639,ST
6.86666666666667,-5.22418069839478,-0.806296706199646,7.9517126083374,0.144817993044853,1.13567793369293,0.205793991684914,-1029.90002441406,21.3000011444092,-906.900024414062,2.39559586660203,-0.580819653974248,0.10086108366119,ST
6.9,-4.92271661758423,-0.667527556419373,8.33631896972656,-0.655492007732391,0.0457319989800453,-0.0533539988100529,-1020.30004882812,18.9000015258789,-899.700012207031,2.38283273836471,-0.53223752299943,0.0811635750916796,ST
6.93333333333333,-4.61826181411743,-0.824241042137146,8.06835079193115,-0.945127964019775,-0.266770005226135,1.09756803512573,-1017.90002441406,17.1000003814697,-916.500061035156,2.381966809515,-0.517423784619513,0.102263743745507,ST
6.96666666666667,-4.05540943145752,-1.29378318786621,8.381178855896,-1.12805593013763,0.175305992364883,1.00610399246216,-1029.90002441406,14.7000007629395,-909.300048828125,2.39570861421741,-0.447022165687004,0.15403774858323,ST
7.0,-3.92202353477478,-1.50193703174591,8.66110992431641,-1.28811800479889,0.274392008781433,-0.106707997620106,-1032.30004882812,17.7000007629395,-909.300048828125,2.40112327445093,-0.420254666379064,0.17396171849465,ST
7.03333333333333,-3.93458437919617,-0.946860313415527,8.27112102508545,-0.205793991684914,0.0762199983000755,0.0152439996600151,-1039.5,14.7000007629395,-918.900024414062,2.37565325961452,-0.441523219009079,0.114665869919747,ST
7.06666666666667,-3.5792875289917,-1.59225654602051,8.25556945800781,0.198172003030777,0.632625997066498,-0.365855991840363,-1020.30004882812,18.3000011444092,-918.900024414062,2.41042429098376,-0.403657352430212,0.190134058397121,ST
7.1,-3.80897450447083,-1.87637448310852,7.83148574829102,-0.541162014007568,0.647870004177094,-1.04421401023865,-1020.30004882812,24.9000015258789,-904.500061035156,2.43620802126761,-0.442330681299311,0.236890999703529,ST
7.13333333333333,-3.9417622089386,-1.21243584156036,8.59531402587891,0.388722002506256,0.503051996231079,-2.47714996337891,-1020.30004882812,14.1000003814697,-899.700012207031,2.41515907869392,-0.426586909456305,0.141885334681893,ST
7.16666666666667,-3.70669198036194,-2.02232146263123,7.59761190414429,0.396344006061554,-0.815553963184357,1.31860601902008,-1032.30004882812,17.1000003814697,-902.100036621094,2.45485252264976,-0.439716622228974,0.257707213491373,ST
7.2,-4.83239698410034,-2.41350698471069,8.01631164550781,0.282013982534409,0.358233988285065,-0.449698001146317,-1025.10009765625,13.5000009536743,-914.100036621094,2.4754050058129,-0.523418554399909,0.292284606497263,ST
7.23333333333333,-5.42037153244019,-1.37273812294006,9.03674411773682,1.55488801002502,1.53202199935913,-1.43293595314026,-1015.50006103516,24.9000015258789,-911.700012207031,2.4204003666204,-0.537471693911473,0.150539812939057,ST
7.26666666666667,-5.35876274108887,-1.86082279682159,8.23642826080322,0.579271972179413,-0.381099998950958,1.95885396003723,-1017.90002441406,20.7000007629395,-914.100036621094,2.44544179824528,-0.565459256124572,0.218662074683745,ST
7.3,-5.59383296966553,-1.95772194862366,8.79150581359863,-0.365855991840363,0.342989981174469,0.891773998737335,-1017.90002441406,17.7000007629395,-911.700012207031,2.43865783572463,-0.556719034726128,0.218881163645278,ST
7.33333333333333,-4.50282049179077,-0.936691880226135,8.06715393066406,-0.190549999475479,0.0685980021953583,0.922261953353882,-1034.70007324219,14.1000003814697,-916.500061035156,2.37942385839036,-0.506793388972948,0.115497008985895,ST
7.36666666666667,-3.95073437690735,-1.69453907012939,7.77765321731567,-0.426831990480423,-0.655492007732391,3.02593398094177,-1022.70001220703,24.3000011444092,-914.100036621094,2.40035587021272,-0.460829459115705,0.212291541111883,ST
7.4,-4.72174072265625,-2.06478953361511,7.64546346664429,-0.967993974685669,0.457319974899292,-0.46494197845459,-1013.10003662109,17.1000003814697,-921.300048828125,2.42606442165719,-0.537777194823275,0.265746400542969,ST
7.43333333333333,-4.94125890731812,-1.42836546897888,7.76210117340088,-0.632625997066498,0.640248000621796,-0.457319974899292,-1027.5,18.9000015258789,-911.700012207031,2.38462980894849,-0.560211884221545,0.184161408371832,ST
7.46666666666667,-4.82462120056152,-2.53851866722107,7.66280937194824,-0.967993974685669,0.0990860015153885,0.754577994346619,-1013.10003662109,20.1000003814697,-916.500061035156,2.44718487109189,-0.539377286526179,0.320371662659865,ST
7.5,-5.29595804214478,-2.08153748512268,7.42833757400513,-0.548784017562866,0.503051996231079,-1.01372599601746,-1017.90002441406,17.1000003814697,-914.100036621094,2.42771935738975,-0.60162939240317,0.275754543052366,ST
7.53333333333333,-5.95212078094482,-1.93858134746552,8.50320053100586,0.129574000835419,1.11281192302704,0.495429992675781,-1032.30004882812,14.1000003814697,-906.900024414062,2.39757534670294,-0.600960569410589,0.223928512320631,ST
7.56666666666667,-5.42934370040894,-1.81715834140778,8.05100440979004,0.731711983680725,-0.960371971130371,2.10367202758789,-1013.10003662109,27.9000015258789,-909.300048828125,2.38224498906282,-0.58107522925723,0.218131006165079,ST
7.6,-5.75473356246948,-2.24602675437927,7.9696569442749,0.800309956073761,0.182927995920181,1.48628997802734,-1029.90002441406,21.3000011444092,-906.900024414062,2.40688172105912,-0.608226010798776,0.271323851257279,ST
7.63333333333333,-6.04602909088135,-1.71726846694946,8.89797496795654,0.830797970294952,1.33385002613068,1.07470202445984,-1025.10009765625,15.9000005722046,-904.500061035156,2.35891631796042,-0.591097209650464,0.188710086857564,ST
7.66666666666667,-4.69063711166382,-1.14484560489655,7.86318731307983,0.724089980125427,-1.36433792114258,1.64635193347931,-1017.90002441406,17.1000003814697,-904.500061035156,2.32496123211093,-0.531644979479106,0.141686642132498,ST
7.7,-4.19118785858154,-2.06598591804504,6.98212289810181,-0.0914639979600906,-2.01220798492432,2.02745199203491,-1025.10009765625,20.1000003814697,-918.900024414062,2.38042933213768,-0.519993058146768,0.284547936650261,ST
7.73333333333333,-3.87118124961853,-2.2113344669342,7.11849927902222,-0.106707997620106,-0.564027965068817,-0.198172003030777,-1013.10003662109,13.5000009536743,-902.100036621094,2.38823342419262,-0.478186806407895,0.301310964696975,ST
7.76666666666667,-4.29945182800293,-1.59046220779419,7.83028984069824,0.663114011287689,-0.289635986089706,-1.10518991947174,-1015.50006103516,17.7000007629395,-911.700012207031,2.35030660420214,-0.492703455393562,0.200751834239477,ST
7.8,-4.80488252639771,-2.00676965713501,8.22805500030518,1.31098401546478,-0.327746003866196,0.579271972179413,-1022.70001220703,18.9000015258789,-902.100036621094,2.36812265537266,-0.515667356462455,0.236192234288844,ST
7.83333333333333,-5.32945394515991,-1.30873680114746,8.85849761962891,2.30184388160706,0.990859985351562,-0.792688012123108,-1025.10009765625,26.1000003814697,-918.900024414062,2.33664547249206,-0.538247149661893,0.144139725402208,ST
7.86666666666667,-4.4322395324707,-1.29497957229614,8.91532135009766,1.96647596359253,-0.701223969459534,1.05945801734924,-1020.30004882812,15.3000001907349,-911.700012207031,2.33370284464985,-0.456715004643255,0.139849302340838,ST
7.9,-4.0536150932312,-1.47382426261902,8.716139793396,1.77592599391937,-1.61586391925812,0.579271972179413,-1025.10009765625,20.1000003814697,-904.500061035156,2.34384934860444,-0.427468223491887,0.16363304042824,ST
7.93333333333333,-3.11692309379578,-1.34283101558685,6.94085121154785,0.670735955238342,-1.09756803512573,-0.480185985565186,-1027.5,24.9000015258789,-918.900024414062,2.35849470415565,-0.413295922842145,0.189993381030312,ST
7.96666666666667,-4.62185096740723,-1.17594909667969,8.88421726226807,-0.152439996600151,-0.495429992675781,-2.21800184249878,-1013.10003662109,17.7000007629395,-909.300048828125,2.34857163314893,-0.474503391460403,0.13403501527924,ST
8.0,-5.42455863952637,-0.355895072221756,9.33641338348389,0.632625997066498,-2.29422187805176,-1.35671591758728,-1027.5,14.7000007629395,-904.500061035156,2.3132604251079,-0.521678017077657,0.0388055606802012,ST
8.03333333333333,-4.75762939453125,-1.17654716968536,7.45824480056763,0.548784017562866,-3.25459384918213,2.32470989227295,-1029.90002441406,15.9000005722046,-906.900024414062,2.35492638094614,-0.557165594297572,0.152105113120753,ST
8.06666666666667,-5.21341419219971,-1.22559499740601,7.39902877807617,0.525918006896973,-1.22714197635651,0.891773998737335,-1041.90002441406,19.5,-899.700012207031,2.35557336736544,-0.60541316155658,0.161892579706013,ST
8.1,-5.82950162887573,-1.01803934574127,8.72451305389404,0.716467976570129,0.655492007732391,0.121951997280121,-1029.90002441406,18.9000015258789,-911.700012207031,2.33205203395998,-0.587190738365782,0.115113661796634,ST
8.13333333333333,-5.52265405654907,-0.712986409664154,8.55703353881836,0.525918006896973,-0.396344006061554,-0.106707997620106,-1025.10009765625,18.3000011444092,-914.100036621094,2.31696737873524,-0.570900496563514,0.0823922682225394,ST
8.16666666666667,-4.54289579391479,-0.924130916595459,7.58265829086304,0.0533539988100529,-0.762199997901917,0.769822001457214,-1037.10009765625,21.3000011444092,-906.900024414062,2.33139366355285,-0.53552668177287,0.120127967632633,ST
8.2,-4.35986423492432,-0.934299349784851,8.17601585388184,-0.221037998795509,0.106707997620106,0.6250039935112,-1025.10009765625,17.1000003814697,-914.100036621094,2.32312964859238,-0.487690665207567,0.113623814579186,ST
8.23333333333333,-3.60261511802673,-0.879270195960999,7.73578310012817,-0.0914639979600906,-0.746955990791321,1.02897000312805,-1039.5,18.3000011444092,-923.700012207031,2.31484012533172,-0.432597985075609,0.112447753586153,ST
8.26666666666667,-4.00097846984863,-1.53124594688416,8.16106224060059,0.0228659994900227,0.701223969459534,-0.0533539988100529,-1037.10009765625,20.1000003814697,-906.900024414062,2.34728653438972,-0.450143271901196,0.185311563763367,ST
8.3,-4.92510938644409,-1.28481113910675,8.37699222564697,0.0076219998300075,1.41769194602966,0.87652999162674,-1029.90002441406,16.5,-911.700012207031,2.32715957371842,-0.528757569113078,0.151671946188334,ST
8.33333333333333,-5.49693393707275,-1.03179657459259,9.27420711517334,0.579271972179413,2.21037983894348,-0.0381099991500378,-1034.70007324219,17.1000003814697,-916.500061035156,2.31051760240631,-0.53615027664719,0.11023478712639,ST
8.36666666666667,-5.39285707473755,-1.11015331745148,8.97692966461182,0.830797970294952,1.49391198158264,1.2423859834671,-1027.5,14.7000007629395,-914.100036621094,2.31214888403824,-0.54045074933863,0.120437050625706,ST
8.4,-4.36106061935425,-1.53603112697601,8.57976245880127,0.396344006061554,0.830797970294952,0.83841997385025,-1017.90002441406,20.7000007629395,-909.300048828125,2.33553553311743,-0.466018365719412,0.175572019135411,ST
8.43333333333333,-4.4202766418457,-0.788950562477112,8.20054054260254,0.3125019967556,-0.647870004177094,-0.243903994560242,-1020.30004882812,14.1000003814697,-914.100036621094,2.30105568664592,-0.491157340837496,0.0959796254769305,ST
8.46666666666667,-4.13137340545654,-1.32847559452057,8.02049922943115,0.46494197845459,-0.0304879993200302,0.647870004177094,-1017.90002441406,22.5,-904.500061035156,2.32889837440061,-0.470365396843188,0.162561657150845,ST
8.5,-3.9519305229187,-1.14664006233215,8.03126525878906,0.175305992364883,-0.792688012123108,-0.160062000155449,-1020.30004882812,18.9000015258789,-899.700012207031,2.32046419337452,-0.451990148357167,0.141661156270947,ST
8.53333333333333,-3.91125679016113,-1.43315052986145,7.75970888137817,-0.190549999475479,-0.83841997385025,0.388722002506256,-1027.5,13.5000009536743,-911.700012207031,2.33416077871459,-0.458820169161925,0.182280261415811,ST
8.56666666666667,-3.98961353302002,-1.31830716133118,7.57667684555054,-0.754577994346619,-1.72257196903229,0.282013982534409,-1010.70001220703,17.7000007629395,-904.500061035156,2.32341316433464,-0.475599087717408,0.173115205998089,ST
8.6,-4.69901132583618,-1.63891172409058,7.85421514511108,-0.541162014007568,-0.6250039935112,1.12043392658234,-1022.70001220703,21.9000015258789,-914.100036621094,2.32893270529127,-0.528848261362614,0.205231268552013,ST
8.63333333333333,-5.3982400894165,-1.08084440231323,9.18448543548584,0.182927995920181,-0.0609759986400604,1.06708002090454,-1027.5,16.5,-918.900024414062,2.27780916552597,-0.528495902997122,0.116225582416388,ST
8.66666666666667,-4.41967821121216,-1.35180306434631,8.405104637146,0.388722002506256,-0.335367977619171,3.19361782073975,-1022.70001220703,27.3000011444092,-914.100036621094,2.27703818848326,-0.479414681734632,0.155660059776163,ST
8.7,-4.12599039077759,-2.42307710647583,8.1544828414917,-0.411587983369827,-0.0762199983000755,1.64635193347931,-1005.90002441406,17.1000003814697,-916.500061035156,2.32318229833143,-0.452368128465787,0.287800505686584,ST
8.73333333333333,-4.77796602249146,-1.275838971138,8.1371374130249,0.25152599811554,0.640248000621796,-1.6768399477005,-1020.30004882812,19.5,-902.100036621094,2.27525703007772,-0.526083122676304,0.157276192444066,ST
8.76666666666667,-4.79172325134277,-2.17544603347778,8.62103462219238,-0.0838419944047928,0.266770005226135,1.20427596569061,-1025.10009765625,18.9000015258789,-909.300048828125,2.31055228085275,-0.495382317083192,0.245963080365205,ST
8.8,-5.32765960693359,-1.77289581298828,7.61555624008179,0.472563982009888,-0.708845973014832,-1.6615959405899,-1029.90002441406,19.5,-909.300048828125,2.31414321776664,-0.595932459995159,0.229673490754194,ST
8.83333333333333,-4.83598613739014,-1.15860295295715,7.35177516937256,1.73019397258759,0.983237981796265,-0.449698001146317,-1034.70007324219,10.5,-916.500061035156,2.2836683537358,-0.577880481906529,0.154307661847008,ST
8.86666666666667,-5.6584324836731,-1.77229762077332,7.8117470741272,1.13567793369293,0.815553963184357,0.92988395690918,-1008.30004882812,11.7000007629395,-909.300048828125,2.32083679293405,-0.616545294942878,0.219845205026208,ST
8.9,-5.59323501586914,-0.943271458148956,8.18080139160156,1.15092194080353,0.647870004177094,0.0457319989800453,-1015.50006103516,23.1000003814697,-897.300048828125,2.26521338802759,-0.597881232326473,0.113399958530496,ST
8.93333333333333,-5.18889045715332,-1.75794219970703,7.75013828277588,0.525918006896973,0.0685980021953583,2.9268479347229,-1015.50006103516,12.3000001907349,-909.300048828125,2.30782943889063,-0.57977194792703,0.218315939192505,ST
8.96666666666667,-5.42396068572998,-2.07376170158386,7.88890743255615,0.114329993724823,1.41006994247437,0.0381099991500378,-1010.70001220703,13.5000009536743,-909.300048828125,2.33158960899101,-0.589162668709313,0.257015367057925,ST
9.0,-5.50231742858887,-1.70111858844757,8.67008209228516,0.259148001670837,1.14329993724823,0.106707997620106,-1001.10003662109,15.3000001907349,-909.300048828125,2.29910667939703,-0.559150637112761,0.193759613821883,ST
9.03333333333333,-4.84196758270264,-2.04206013679504,8.55703353881836,0.396344006061554,-0.640248000621796,0.259148001670837,-1013.10003662109,18.9000015258789,-918.900024414062,2.31782640443753,-0.502419949933957,0.233011744129022,ST
9.06666666666667,-3.93159365653992,-2.29088759422302,7.22138023376465,0.0533539988100529,-1.89025592803955,-0.160062000155449,-1010.70001220703,16.5,-911.700012207031,2.3498927106143,-0.475617680804742,0.30632549768011,ST
9.1,-3.77308583259583,-1.92781484127045,7.36074733734131,0.327746003866196,-0.685979962348938,-1.29574000835419,-1022.70001220703,13.5000009536743,-909.300048828125,2.33583172049125,-0.45870037246208,0.256781471770082,ST
9.13333333333333,-4.99090480804443,-1.44690787792206,7.68912792205811,0.129574000835419,-1.265251994133,-0.182927995920181,-1025.10009765625,20.1000003814697,-914.100036621094,2.30108673093576,-0.565109700805135,0.18605764589992,ST
9.16666666666667,-4.94664239883423,-1.59823799133301,8.04681777954102,0.137196004390717,-0.777444005012512,0.701223969459534,-1020.30004882812,21.3000011444092,-909.300048828125,2.30048238965419,-0.541566680995925,0.194918237717628,ST
9.2,-4.36524724960327,-0.736912131309509,8.12936115264893,0.411587983369827,-1.50915598869324,0.503051996231079,-1013.10003662109,23.1000003814697,-904.500061035156,2.24540945538471,-0.488745928715828,0.0894683115810488,ST
9.23333333333333,-4.20434713363647,-1.13288283348083,8.94642448425293,0.602137982845306,-1.73019397258759,1.82927989959717,-1039.5,17.7000007629395,-914.100036621094,2.24835849489489,-0.433907572441507,0.123113079519385,ST
9.26666666666667,-3.86340546607971,-0.901999592781067,8.95180797576904,0.442075997591019,-2.99544596672058,0.480185985565186,-1017.90002441406,19.5,-911.700012207031,2.23455422577106,-0.400660177750042,0.0992046221556236,ST
9.3,-4.41967821121216,-0.282323479652405,8.14610958099365,0.983237981796265,-1.76068198680878,0.6250039935112,-1027.5,19.5,-914.100036621094,2.20423105372382,-0.493478824338377,0.0325440294804398,ST
9.33333333333333,-5.01782131195068,-0.852353751659393,8.4057035446167,0.426831990480423,1.04421401023865,2.09605002403259,-1027.5,19.5,-916.500061035156,2.22513388514815,-0.537858960082662,0.0978822782305942,ST
9.36666666666667,-5.64407730102539,-0.132787734270096,8.93206882476807,0.182927995920181,1.21951997280121,1.95123195648193,-1027.5,14.7000007629395,-914.100036621094,2.16912699495167,-0.56552450400847,0.0128833650612073,ST
9.4,-5.37850141525269,-0.460570096969604,9.02358531951904,0.0381099991500378,0.868907988071442,2.080806016922,-1032.30004882812,13.5000009536743,-914.100036621094,2.17379800442663,-0.538710428152243,0.0487002826918797,ST
9.43333333333333,-3.97286558151245,-0.257799625396729,7.96905899047852,0.0381099991500378,-0.160062000155449,0.304879993200302,-1015.50006103516,13.5000009536743,-911.700012207031,2.16377710725011,-0.462288956430935,0.0320604281468697,ST
9.46666666666667,-3.96209907531738,-0.278136491775513,7.6209397315979,0.670735955238342,-0.152439996600151,0.297257989645004,-1025.10009765625,9.90000057220459,-911.700012207031,2.16540327945605,-0.478826924389861,0.0350187153252866,ST
9.5,-4.68944072723389,-1.16877138614655,7.91821670532227,0.693601965904236,0.472563982009888,-0.922261953353882,-1034.70007324219,14.7000007629395,-911.700012207031,2.22853491965855,-0.530383195770668,0.145911267909428,ST
9.53333333333333,-4.81744337081909,-1.39965450763702,8.94881725311279,0.129574000835419,-0.228659987449646,-2.59148001670837,-1015.50006103516,5.10000038146973,-916.500061035156,2.25110942950338,-0.487948431257913,0.157206947826512,ST
9.56666666666667,-4.3843879699707,-0.266173630952835,8.19096946716309,1.05945801734924,-1.91312193870544,-2.62196803092957,-1017.90002441406,11.7000007629395,-909.300048828125,2.213384690868,-0.487760594090221,0.0336861192864194,ST
9.6,-4.33294773101807,-1.65745413303375,8.1544828414917,0.487807989120483,0.0228659994900227,-0.0457319989800453,-1029.90002441406,8.10000038146973,-902.100036621094,2.29235533599612,-0.480183408144113,0.198807148018433,ST
9.63333333333333,-5.18051624298096,-1.13886415958405,9.24489784240723,0.556405961513519,0.937505960464478,-0.259148001670837,-1029.90002441406,15.3000001907349,-918.900024414062,2.26069726172251,-0.509004263789261,0.122313283307554,ST
9.66666666666667,-4.56323289871216,-1.32369041442871,8.88182544708252,1.08994603157043,0.564027965068817,0.129574000835419,-1020.30004882812,12.9000005722046,-904.500061035156,2.27522926689263,-0.471370474746845,0.145876209252842,ST
9.7,-3.69712162017822,-1.0216281414032,8.39613246917725,0.853663980960846,-0.708845973014832,-0.67835795879364,-1017.90002441406,12.9000005722046,-911.700012207031,2.27145073140687,-0.410898213035623,0.120117786364045,ST
9.73333333333333,-3.8837423324585,-1.70590376853943,8.4709005355835,0.175305992364883,-1.45580196380615,0.0228659994900227,-1027.5,15.9000005722046,-914.100036621094,2.30139008786219,-0.419876206512049,0.19774790403236,ST
9.76666666666667,-3.92082715034485,-1.44451522827148,8.26274681091309,0.37347799539566,-1.05945801734924,-0.92988395690918,-1022.70001220703,15.9000005722046,-909.300048828125,2.29730351601844,-0.435068236888679,0.173152740870209,ST
9.8,-3.46863102912903,-1.18611752986908,6.62263917922974,0.495429992675781,-0.510673999786377,-0.442075997591019,-1032.30004882812,14.7000007629395,-916.500061035156,2.303188674852,-0.474876538963848,0.176654779592611,ST
9.83333333333333,-4.73011445999146,-1.71547400951385,8.24121379852295,0.693601965904236,1.70732796192169,0.205793991684914,-1020.30004882812,11.1000003814697,-899.700012207031,2.31981462288443,-0.51478794454358,0.20405608582229,ST
9.86666666666667,-5.50470972061157,-1.55876052379608,8.60368824005127,-0.342989981174469,0.78506600856781,0.37347799539566,-1020.30004882812,8.70000076293945,-914.100036621094,2.30425613629908,-0.563189896228926,0.179654343988633,ST
9.9,-4.87965059280396,-0.773997008800507,8.13893127441406,0.121951997280121,0.106707997620106,0.640248000621796,-1027.5,17.7000007629395,-909.300048828125,2.25609066264248,-0.538539984446451,0.0944066246229511,ST
9.93333333333333,-4.71815156936646,-1.56115317344666,7.9038610458374,-0.358233988285065,-0.243903994560242,3.25459384918213,-1001.10003662109,10.5,-916.500061035156,2.28339798383886,-0.530496842468845,0.191779668857052,ST
9.96666666666667,-5.70568561553955,-1.85244882106781,8.99068737030029,-0.83841997385025,0.327746003866196,0.792688012123108,-1017.90002441406,10.5,-899.700012207031,2.28157377231556,-0.556846188061004,0.203834718658964,ST
10.0,-4.84675264358521,-2.1269965171814,7.42893552780151,-1.44817996025085,0.739333987236023,1.38720393180847,-1017.90002441406,14.7000007629395,-906.900024414062,2.30881803289321,-0.56207252832187,0.279717945090972,ST
10.0333333333333,-4.36225652694702,-1.71068894863129,7.62452840805054,-1.265251994133,0.556405961513519,-0.213415995240211,-1013.10003662109,16.5,-911.700012207031,2.2775887314028,-0.510315903008292,0.223539879037634,ST
10.0666666666667,-4.58656024932861,-1.98164761066437,6.83497953414917,-1.12805593013763,-0.381099998950958,0.92988395690918,-1008.30004882812,24.3000011444092,-911.700012207031,2.29729642590934,-0.571974835927856,0.282701481000917,ST
10.1,-5.51128911972046,-2.13955736160278,7.30571842193604,-0.320124000310898,0.922261953353882,0.327746003866196,-1025.10009765625,18.9000015258789,-918.900024414062,2.29707967496833,-0.628030655165311,0.285368298608112,ST
10.1333333333333,-5.82890319824219,-1.67420220375061,7.90027236938477,1.00610399246216,1.63872992992401,-0.0685980021953583,-1015.50006103516,23.1000003814697,-904.500061035156,2.25866750107273,-0.627975746702339,0.208012983930283,ST
10.1666666666667,-6.44499063491821,-1.65386533737183,8.90814304351807,1.54726600646973,0.777444005012512,1.85214591026306,-1010.70001220703,15.9000005722046,-909.300048828125,2.2382196538402,-0.620255321480289,0.178932872656859,ST
10.2,-5.23315286636353,-1.43075799942017,9.36811542510986,1.21189796924591,-1.18140995502472,1.00610399246216,-1008.30004882812,14.7000007629395,-916.500061035156,2.21898962932665,-0.503407216480609,0.148465266289491,ST
10.2333333333333,-3.26167368888855,-2.14793133735657,8.24300861358643,0.0609759986400604,-3.23934984207153,2.11129403114319,-1025.10009765625,17.1000003814697,-911.700012207031,2.2435143507082,-0.361912243184584,0.252355507024995,ST
10.2666666666667,-3.52844548225403,-1.80818617343903,7.63649129867554,-0.274392008781433,-2.44666194915771,-1.31098401546478,-1017.90002441406,17.1000003814697,-906.900024414062,2.24061268534524,-0.417645804986045,0.233601136032959,ST
10.3,-4.13197183609009,-1.29737210273743,8.29863548278809,-0.0685980021953583,-0.647870004177094,-0.487807989120483,-1020.30004882812,16.5,-911.700012207031,2.21000477126488,-0.455722249502503,0.155962423131094,ST
10.3333333333333,-3.63371849060059,-1.40922486782074,7.77466249465942,0.221037998795509,-0.304879993200302,-0.0152439996600151,-1015.50006103516,15.3000001907349,-904.500061035156,2.22022780649358,-0.430655257240684,0.178770377709653,ST
10.3666666666667,-4.71635723114014,-1.03478729724884,8.65572738647461,0.106707997620106,-0.0990860015153885,-1.07470202445984,-1022.70001220703,20.7000007629395,-916.500061035156,2.20175037666953,-0.495295632554171,0.120017160193823,ST
10.4,-5.14044046401978,-0.480906963348389,8.15627765655518,1.22714197635651,-0.487807989120483,0.0762199983000755,-1025.10009765625,17.1000003814697,-909.300048828125,2.17402649846432,-0.560381926718498,0.0569963628887223,ST
10.4333333333333,-5.09797239303589,-0.952841758728027,7.66520214080811,1.2500079870224,0.632625997066498,2.08842802047729,-1027.5,15.9000005722046,-911.700012207031,2.2000725200014,-0.584775580075442,0.118840429686446,ST
10.4666666666667,-5.74875211715698,-0.685471832752228,9.41596698760986,0.99848198890686,0.983237981796265,0.160062000155449,-1020.30004882812,17.1000003814697,-916.500061035156,2.17788312813533,-0.548885553260456,0.0710913682342919,ST
10.5,-4.72712373733521,-0.232079476118088,8.62342739105225,1.02897000312805,-1.29574000835419,0.640248000621796,-1025.10009765625,11.7000007629395,-911.700012207031,2.15396447818622,-0.499330317411604,0.0247151266979343,ST
10.5333333333333,-5.03098058700562,-0.762034118175507,8.65213775634766,0.411587983369827,-1.47866797447205,1.02134799957275,-1022.70001220703,19.5,-902.100036621094,2.17751109168363,-0.52252124253523,0.085788940671646,ST
10.5666666666667,-5.29476165771484,0.410326063632965,8.03724670410156,1.41769194602966,0.510673999786377,1.05183601379395,-1020.30004882812,11.7000007629395,-916.500061035156,2.10302319176042,-0.582415140725766,-0.0539202360116843,ST
10.6,-4.77019023895264,0.28710862994194,7.97922706604004,2.5000159740448,0.92988395690918,1.81403601169586,-1017.90002441406,11.7000007629395,-914.100036621094,2.10714874442387,-0.540263374413584,-0.042324961628919,ST
10.6333333333333,-4.03028726577759,-0.209350034594536,7.9995641708374,1.92074394226074,0.884151995182037,1.58537602424622,-1013.10003662109,14.1000003814697,-909.300048828125,2.13367193409638,-0.468341768941607,0.0212811482584936,ST
10.6666666666667,-5.34081840515137,-0.421092659235001,9.39862060546875,0.541162014007568,-0.952749967575073,-1.34147191047668,-1027.5,12.9000005722046,-914.100036621094,2.1553584758807,-0.514302002696442,0.044970428207362,ST
10.7,-4.93707227706909,-0.273351341485977,8.09167766571045,0.586893975734711,-0.304879993200302,0.472563982009888,-1013.10003662109,18.3000011444092,-914.100036621094,2.14798499832531,-0.547004589496533,0.0322636941226774,ST
10.7333333333333,-4.41549158096313,-0.592161536216736,7.93915176391602,0.891773998737335,0.518296003341675,-0.693601965904236,-1015.50006103516,12.3000001907349,-914.100036621094,2.17746542645954,-0.507324214760021,0.0734810986997725,ST
10.7666666666667,-3.64747595787048,-1.73162388801575,8.9177131652832,-1.30336201190948,-0.945127964019775,-1.71494996547699,-1013.10003662109,12.9000005722046,-911.700012207031,2.23664876640038,-0.380106450979483,0.19469342407357,ST
10.8,-3.90049028396606,0.448009073734283,8.35904788970947,-0.152439996600151,-3.39178991317749,-4.83234786987305,-1017.90002441406,7.50000047683716,-911.700012207031,2.17287061855283,-0.430278602730021,-0.0478983718265345,ST
10.8333333333333,-3.83469462394714,-1.35658824443817,7.50848865509033,-0.632625997066498,-2.11129403114319,4.35978412628174,-1022.70001220703,18.3000011444092,-921.300048828125,2.23640245350741,-0.463239341223804,0.174532072578434,ST
10.8666666666667,-4.18939352035522,-1.16996765136719,7.59462118148804,-0.800309956073761,0.556405961513519,-1.46342396736145,-1034.70007324219,9.30000019073486,-921.300048828125,2.23523744342769,-0.499546585696155,0.155790911709927,ST
10.9,-3.87477016448975,-1.06768524646759,8.44637680053711,-2.14178204536438,-0.952749967575073,1.05945801734924,-1020.30004882812,15.3000001907349,-921.300048828125,2.20694854454291,-0.425923839689101,0.128625277319157,ST
10.9333333333333,-3.82332992553711,-1.58507883548737,8.5426778793335,-2.17989206314087,-1.80641400814056,-0.205793991684914,-1037.10009765625,15.3000001907349,-916.500061035156,2.22288571864887,-0.411437242011396,0.186953812377569,ST
10.9666666666667,-4.46872615814209,-1.79442894458771,8.1132116317749,-1.87501192092896,-0.434453994035721,1.17378795146942,-1032.30004882812,15.9000005722046,-918.900024414062,2.22162909998127,-0.492831223619829,0.219659851240689,ST
11.0,-4.60928964614868,-2.50861167907715,8.57079029083252,-1.2347639799118,1.20427596569061,-0.663114011287689,-1032.30004882812,15.9000005722046,-916.500061035156,2.25535217864262,-0.478249870592663,0.287405795149809,ST
11.0333333333333,-5.09258937835693,-1.62694883346558,8.54925727844238,-0.46494197845459,0.388722002506256,-1.76068198680878,-1027.5,17.1000003814697,-906.900024414062,2.21886996528939,-0.529257577358167,0.191249333209085,ST
11.0666666666667,-5.03217697143555,-2.51818180084229,8.3638334274292,0.37347799539566,1.02897000312805,0.358233988285065,-1032.30004882812,17.1000003814697,-904.500061035156,2.27009762824142,-0.524611500077305,0.291197359693697,ST
11.1,-5.34859466552734,-2.21253085136414,8.07552814483643,0.815553963184357,0.320124000310898,-1.11281192302704,-1032.30004882812,18.3000011444092,-906.900024414062,2.2683204687616,-0.568231568298029,0.267415768680998,ST
11.1333333333333,-6.39414834976196,-2.28191542625427,8.21369934082031,0.663114011287689,0.419209986925125,0.0304879993200302,-1017.90002441406,11.1000003814697,-906.900024414062,2.27316205627322,-0.643845281144543,0.269918389509785,ST
11.1666666666667,-5.94314861297607,-1.83390629291534,9.31547832489014,1.41769194602966,2.24086785316467,0.411587983369827,-1027.5,16.5,-906.900024414062,2.23548498450582,-0.563643441187333,0.192273142373085,ST
11.2,-4.98013830184937,-2.33096313476562,9.32624530792236,0.129574000835419,-2.04269599914551,2.27897787094116,-1022.70001220703,15.9000005722046,-916.500061035156,2.24296533693189,-0.47596304215247,0.241986622547751,ST
11.2333333333333,-3.88254594802856,-3.12410068511963,7.06406831741333,-0.724089980125427,-2.080806016922,-0.46494197845459,-1025.10009765625,21.3000011444092,-926.100036621094,2.31714262934515,-0.462197326499533,0.416645832242113,ST
11.2666666666667,-2.50920987129211,-1.91645002365112,7.56172323226929,0.198172003030777,-0.640248000621796,-3.04879999160767,-1037.10009765625,18.9000015258789,-914.100036621094,2.2741556161184,-0.309663243223788,0.250317148591665,ST
11.3,-2.4296567440033,-2.11024832725525,7.43491697311401,-0.342989981174469,-2.35519790649414,-0.350611984729767,-1027.5,14.7000007629395,-904.500061035156,2.27927011607035,-0.300519163505057,0.276843434324463,ST
11.3333333333333,-3.97406196594238,-1.7423905134201,8.83696460723877,0.952749967575073,-0.891773998737335,-0.922261953353882,-1032.30004882812,14.1000003814697,-914.100036621094,2.25872634471219,-0.413409111302476,0.193784159767169,ST
11.3666666666667,-5.32107973098755,-1.52227389812469,9.70068264007568,1.22714197635651,0.0762199983000755,-0.0304879993200302,-1037.10009765625,13.5000009536743,-909.300048828125,2.24562692564257,-0.496266932927775,0.153780464234257,ST
11.4,-4.54110145568848,-0.927121579647064,8.23882102966309,1.19665396213531,0.160062000155449,-0.190549999475479,-1029.90002441406,14.7000007629395,-916.500061035156,2.23054130800124,-0.501310835595002,0.110408616388993,ST
11.4333333333333,-4.22468376159668,-1.11194777488708,8.74724292755127,0.0533539988100529,0.0,0.37347799539566,-1037.10009765625,17.7000007629395,-904.500061035156,2.23533325565671,-0.447182998631346,0.125954155579034,ST
11.4666666666667,-4.06318521499634,-0.549693405628204,8.75681304931641,0.198172003030777,-0.617381989955902,-0.769822001457214,-1032.30004882812,15.9000005722046,-921.300048828125,2.21428942387376,-0.432595269688031,0.0632155235527974,ST
11.5,-3.06847333908081,-0.726145565509796,8.0115270614624,0.861285984516144,-0.236281991004944,1.89787793159485,-1039.5,17.7000007629395,-909.300048828125,2.2118374839945,-0.364493528670605,0.0875397120346817,ST
11.5333333333333,-3.84905004501343,-0.974973022937775,7.98520851135254,0.442075997591019,-0.0457319989800453,0.228659987449646,-1032.30004882812,15.3000001907349,-923.700012207031,2.22459237986463,-0.445875765462251,0.120374959394181,ST
11.5666666666667,-5.10634660720825,-0.454588651657104,9.14979267120361,1.32622802257538,0.304879993200302,0.342989981174469,-1022.70001220703,12.9000005722046,-916.500061035156,2.19371422810919,-0.508834879347322,0.0472884591118515,ST
11.6,-4.4262580871582,-0.869699895381927,8.49303245544434,1.50153398513794,0.358233988285065,0.152439996600151,-1025.10009765625,11.7000007629395,-911.700012207031,2.22270145947271,-0.479119430222307,0.0990411013212326,DLR
11.6333333333333,-4.34371423721313,-0.306847333908081,8.61266040802002,1.95885396003723,-0.960371971130371,-1.2576299905777,-1020.30004882812,16.5,-918.900024414062,2.20764340725916,-0.465187406932256,0.0336242928712726,DLR
11.6666666666667,-3.61996126174927,-1.62814521789551,8.26334476470947,2.08842802047729,-0.266770005226135,0.327746003866196,-1029.90002441406,23.1000003814697,-909.300048828125,2.27783724568968,-0.405837973315279,0.190049854302916,DLR
11.7,-3.11512851715088,-2.19039964675903,8.68383979797363,3.7728898525238,0.960371971130371,-5.09149599075317,-1029.90002441406,15.3000001907349,-916.500061035156,2.34318637068218,-0.334639407068369,0.243374816832255,DLR
11.7333333333333,-3.54459524154663,-2.15451097488403,8.52652835845947,6.29577207565308,0.480185985565186,-7.27900981903076,-1027.5,9.30000019073486,-918.900024414062,2.41785101532009,-0.380787007871769,0.241517608891508,DLR
11.7666666666667,-4.18460845947266,-2.80050539970398,8.61385726928711,8.39944362640381,1.41006994247437,-11.8293437957764,-1020.30004882812,9.90000057220459,-899.700012207031,2.55002560966606,-0.428628857578765,0.308572178652553,DLR
11.8,-4.46095037460327,-2.44341397285461,8.50439643859863,10.3811635971069,2.46190595626831,-13.0259981155396,-1017.90002441406,2.70000004768372,-916.500061035156,2.65765650713717,-0.464715385932714,0.273360324107441,DLR
11.8333333333333,-4.31081628799438,-1.8045973777771,8.29385089874268,11.5473299026489,2.95733594894409,-18.0870056152344,-1003.50006103516,5.70000028610229,-923.700012207031,2.79043286122695,-0.468252355921415,0.210571500120109,DLR
11.8666666666667,-3.31610465049744,-0.948056638240814,7.65981912612915,12.0198936462402,0.952749967575073,-15.7165632247925,-1013.10003662109,2.10000014305115,-906.900024414062,2.8936242043156,-0.404567603921419,0.114484390089195,DLR
11.9,-3.74557137489319,-0.485692083835602,7.17951011657715,11.2043399810791,0.350611984729767,-15.586989402771,-1003.50006103516,-3.90000009536743,-916.500061035156,3.01306141833103,-0.478358359576992,0.0622992933077552,DLR
11.9333333333333,-2.8142626285553,-0.0645994395017624,6.75064134597778,10.0000638961792,0.236281991004944,-12.4924573898315,-998.700012207031,-2.70000004768372,-909.300048828125,3.10307442603002,-0.395743156357408,0.0016190393697106,DLR
11.9666666666667,-3.83349823951721,-0.543711960315704,7.4869556427002,7.86590385437012,1.91312193870544,-11.5168418884277,-979.500061035156,-5.70000028610229,-887.700012207031,-3.04777240760907,-0.473709061918253,0.068716433837725,DLR
12.0,-4.81624698638916,-1.11075150966644,8.99906063079834,5.19058179855347,2.25611186027527,-8.67383575439453,-989.100036621094,-9.90000057220459,-897.300048828125,-2.94392451032284,-0.490273905736349,0.121771550609264,DLR
12.0333333333333,-4.53332567214966,-0.30325847864151,9.33880615234375,4.92381191253662,2.39330792427063,-9.39792537689209,-962.700012207031,-11.1000003814697,-890.100036621094,-2.90443624697329,-0.455504147502795,0.0324655101619068,DLR
12.0666666666667,-4.79531240463257,-1.36974740028381,9.1569709777832,4.29880809783936,1.21189796924591,-4.18447780609131,-965.100036621094,-14.1000003814697,-897.300048828125,-2.8092657050426,-0.478854116180609,0.144373066188284,DLR
12.1,-4.85213565826416,-1.02701151371002,9.63727951049805,4.6341757774353,3.27745985984802,-7.39333963394165,-969.900024414062,-14.1000003814697,-880.500061035156,-2.75184683743994,-0.468505365676592,0.104972631258781,DLR
12.1333333333333,-4.94903516769409,-0.233873903751373,8.55523872375488,4.67990779876709,1.32622802257538,-4.1311240196228,-965.100036621094,-11.7000007629395,-887.700012207031,-2.74214094208974,-0.52624281119403,0.0236264605680642,DLR
12.1666666666667,-4.25698375701904,-0.034094151109457,7.84344863891602,4.26832008361816,3.22410583496094,-4.90094566345215,-955.500061035156,-14.7000007629395,-887.700012207031,-2.70515539179873,-0.502982604403589,0.0017429402066433,DLR
12.2,-4.93109083175659,0.105871304869652,7.76090526580811,1.61586391925812,3.3460578918457,-6.92839765548706,-933.900024414062,-15.3000001907349,-873.300048828125,-2.6601505735201,-0.571548911932136,-0.0087031508769807,DLR
12.2333333333333,-4.67927265167236,0.138769164681435,7.8237099647522,0.114329993724823,2.12653803825378,-1.31860601902008,-945.900024414062,-8.70000076293945,-882.900024414062,-2.65563223871195,-0.54285076114804,-0.0165418790897759,DLR
12.2666666666667,-5.52145767211914,-0.112450875341892,8.64615631103516,-0.0685980021953583,1.79879200458527,-1.41769194602966,-948.300048828125,-12.3000001907349,-885.300048828125,-2.63040009742955,-0.57123294739336,0.0145647006340851,DLR
12.3,-5.3599591255188,0.309838056564331,8.37340354919434,0.327746003866196,1.29574000835419,-1.44055795669556,-929.100036621094,-11.1000003814697,-890.100036621094,-2.64739454879454,-0.571435462181699,-0.0357187208672553,DLR
12.3333333333333,-5.41857719421387,0.0657957270741463,9.24250507354736,0.640248000621796,-0.160062000155449,0.0762199983000755,-933.900024414062,-17.7000007629395,-875.700012207031,-2.63114291324529,-0.530198183304798,-0.0084581309104704,DLR
12.3666666666667,-4.48846483230591,0.119628593325615,7.51865720748901,1.10518991947174,0.236281991004944,-0.480185985565186,-926.700012207031,-11.7000007629395,-873.300048828125,-2.62834536378237,-0.538518998154373,-0.0172933591169022,DLR
12.4,-5.26963949203491,-0.401353925466537,8.32674789428711,-0.434453994035721,1.78354799747467,-1.17378795146942,-921.900024414062,-18.3000011444092,-882.900024414062,-2.58692385949786,-0.566566892256927,0.0499400375251578,DLR
12.4333333333333,-4.94484806060791,0.490477234125137,8.19156837463379,0.92988395690918,0.190549999475479,-1.19665396213531,-926.700012207031,-6.30000019073486,-868.500061035156,-2.63340937437078,-0.542905543297618,-0.0595840399616279,DLR
12.4666666666667,-4.65833759307861,-0.068188302218914,7.16754722595215,1.41769194602966,0.213415995240211,-1.87501192092896,-919.500061035156,-12.3000001907349,-880.500061035156,-2.57895784775944,-0.576501476590382,0.0088478346512666,DLR
12.5,-4.95860528945923,-0.01914057508111,7.80875635147095,-0.0762199983000755,-0.137196004390717,-0.266770005226135,-914.700012207031,-12.9000005722046,-882.900024414062,-2.58079330835322,-0.565580218130822,0.0029119472980681,DLR
12.5333333333333,-5.47540092468262,-0.35410064458847,7.21061372756958,-0.762199997901917,0.25152599811554,-0.121951997280121,-905.100036621094,-6.90000009536743,-885.300048828125,-2.55628560929903,-0.648851195777761,0.0503010829688297,DLR
12.5666666666667,-5.05969142913818,-0.973178625106812,9.04451942443848,-1.73019397258759,0.0228659994900227,-0.297257989645004,-933.900024414062,-9.30000019073486,-878.100036621094,-2.52827465692319,-0.508363462333817,0.110193118575761,DLR
12.6,-5.22059202194214,-0.64838695526123,7.66161346435547,-0.289635986089706,-0.442075997591019,-0.221037998795509,-924.300048828125,-11.7000007629395,-882.900024414062,-2.54142128447833,-0.595191223318936,0.0852963294412829,DLR
12.6333333333333,-5.76310729980469,-0.613694667816162,8.30641174316406,-0.884151995182037,1.11281192302704,-0.282013982534409,-921.900024414062,-10.5,-880.500061035156,-2.548450555298,-0.607152429798818,0.0757609487697066,DLR
12.6666666666667,-5.49274682998657,-0.863120317459106,8.50798606872559,-0.823175966739655,0.579271972179413,0.967993974685669,-917.100036621094,-12.9000005722046,-863.700012207031,-2.5437930699655,-0.572250795726277,0.101427372088703,DLR
12.7,-5.40900707244873,-0.658555388450623,8.26932621002197,0.0609759986400604,0.716467976570129,0.403965979814529,-929.100036621094,-9.90000057220459,-878.100036621094,-2.5578493368538,-0.579073991766283,0.0790934312295823,DLR
12.7333333333333,-4.76301240921021,-0.366063505411148,7.96008682250977,1.15854394435883,0.411587983369827,-0.762199997901917,-917.100036621094,-5.70000028610229,-873.300048828125,-2.56645441049404,-0.539623897764085,0.0449352086591127,DLR
12.7666666666667,-5.22657346725464,-0.877475738525391,7.91223526000977,0.952749967575073,0.853663980960846,-0.952749967575073,-907.500061035156,-14.7000007629395,-880.500061035156,-2.52062780046729,-0.582137091474547,0.109778328148512,DLR
12.8,-5.23016214370728,-0.441429525613785,7.87515020370483,1.05945801734924,0.282013982534409,-1.83690190315247,-914.700012207031,-8.10000038146973,-875.700012207031,-2.53264271764296,-0.585823339023996,0.0564494959788015,DLR
12.8333333333333,-5.20623636245728,-0.796128273010254,8.43142318725586,0.0076219998300075,-0.175305992364883,-1.51677799224854,-919.500061035156,-8.70000076293945,-873.300048828125,-2.50147018932558,-0.550767551532889,0.0955928763980511,DLR
12.8666666666667,-5.02200841903687,-1.02940404415131,7.64307069778442,0.213415995240211,0.884151995182037,-0.426831990480423,-900.300048828125,-14.1000003814697,-880.500061035156,-2.47673210385896,-0.578489331732102,0.133907087817684,DLR
12.9,-5.63570308685303,-1.24712812900543,8.75561714172363,-0.327746003866196,-0.0914639979600906,-1.03659200668335,-907.500061035156,-9.90000057220459,-875.700012207031,-2.46666545979379,-0.566997626145009,0.143133901024251,DLR
12.9333333333333,-4.61527109146118,-0.44023323059082,7.70767021179199,0.960371971130371,-0.83841997385025,1.12043392658234,-905.100036621094,-9.30000019073486,-861.300048828125,-2.51692471797018,-0.537633274546756,0.054642962913988,DLR
12.9666666666667,-3.44530344009399,-1.23995041847229,6.71056604385376,0.282013982534409,-0.594515979290009,-0.609759986400604,-912.300048828125,-11.7000007629395,-880.500061035156,-2.45061691364431,-0.466551756974028,0.182286630614925,DLR
13.0,-5.90008211135864,-1.26088535785675,10.6038789749146,-0.78506600856781,-2.83538389205933,-2.52288198471069,-924.300048828125,-7.50000047683716,-878.100036621094,-2.46737677797182,-0.499148245603244,0.122123791421825,DLR
13.0333333333333,-3.41061115264893,-0.759641587734222,7.37450456619263,1.74543797969818,-3.20886182785034,1.01372599601746,-905.100036621094,-12.3000001907349,-882.900024414062,-2.48133320081584,-0.426189348795453,0.0986652718417035,DLR
13.0666666666667,-4.07993316650391,-2.2232973575592,7.39663600921631,-0.975615978240967,0.67835795879364,1.10518991947174,-914.700012207031,-11.7000007629395,-868.500061035156,-2.40518473790746,-0.48737411370753,0.291796070740101,DLR
13.1,-5.68893766403198,-2.42905855178833,8.51516342163086,-1.72257196903229,0.510673999786377,-0.342989981174469,-926.700012207031,-8.10000038146973,-875.700012207031,-2.41418462799401,-0.571290065169427,0.281481838849478,DLR
13.1333333333333,-5.41080141067505,-1.66941702365875,8.51516342163086,-2.19513607025146,-0.442075997591019,-0.342989981174469,-909.900024414062,-10.5,-868.500061035156,-2.4664474855869,-0.556756740143992,0.198007727176916,DLR
13.1666666666667,-4.16008424758911,-1.03478729724884,8.12158489227295,-1.02897000312805,-1.39482593536377,2.40855193138123,-921.900024414062,-8.10000038146973,-875.700012207031,-2.52218080125208,-0.468736814152038,0.12661912834581,DLR
13.2,-6.14950799942017,-4.20135641098022,6.68604230880737,-1.63110792636871,1.21951997280121,4.72563982009888,-919.500061035156,-6.30000019073486,-885.300048828125,-2.31845494157391,-0.667320320468669,0.557753566819149,DLR
13.2333333333333,-5.27442455291748,-0.704014301300049,9.23831844329834,-1.18140995502472,0.541162014007568,1.03659200668335,-909.900024414062,5.10000038146973,-870.900024414062,-2.60134518300375,-0.519404771704528,0.0787551544748999,DLR
13.2666666666667,-4.85572481155396,-1.38111209869385,8.80945014953613,1.41769194602966,0.0533539988100529,2.21800184249878,-929.100036621094,-5.70000028610229,-882.900024414062,-2.57579058490283,-0.499415430132501,0.150634709606866,DLR
13.3,-3.61397981643677,-0.812876284122467,6.02868318557739,2.01220798492432,-1.34147191047668,-0.525918006896973,-924.300048828125,-1.5,-870.900024414062,-2.57574064073657,-0.533433872303928,0.130974820634,DLR
13.3333333333333,-3.86878871917725,-0.269762486219406,7.96846055984497,1.28811800479889,-1.09756803512573,-1.98934197425842,-924.300048828125,-3.90000009536743,-880.500061035156,-2.60399384956985,-0.450112741313826,0.0336689735730766,DLR
13.3666666666667,-4.10565328598022,-0.574815392494202,7.25607252120972,1.50915598869324,0.167683988809586,-0.708845973014832,-924.300048828125,-7.50000047683716,-880.500061035156,-2.57381579361774,-0.513424236761359,0.0768757379248539,DLR
13.4,-5.54059839248657,-1.14723825454712,8.55224800109863,0.0838419944047928,2.34757590293884,-0.472563982009888,-900.300048828125,-3.30000019073486,-875.700012207031,-2.53851301532525,-0.574604893206512,0.133936411204949,DLR
13.4333333333333,-5.81694030761719,-0.626255691051483,8.596510887146,1.04421401023865,1.47866797447205,0.442075997591019,-897.900024414062,-2.70000004768372,-870.900024414062,-2.57097018503324,-0.596179442112733,0.0708572445510895,DLR
13.4666666666667,-5.68415260314941,-0.656162858009338,8.70298004150391,1.6920839548111,1.50915598869324,-0.701223969459534,-914.700012207031,-4.5,-878.100036621094,-2.55616632930795,-0.579851935437344,0.0732235722767629,DLR
13.5,-4.87965059280396,-0.507225215435028,7.44388914108276,2.55336999893188,-0.0838419944047928,-0.746955990791321,-909.900024414062,-1.5,-878.100036621094,-2.54585826844142,-0.578964169607433,0.0644699596023969,DLR
13.5333333333333,-5.52923345565796,-0.901999592781067,6.5197582244873,-0.861285984516144,1.20427596569061,-0.899396002292633,-902.700012207031,-10.5,-875.700012207031,-2.49826427341362,-0.700202167012108,0.140278838087181,DLR
13.5666666666667,-5.91802644729614,-1.13049018383026,8.33033752441406,-1.81403601169586,-0.602137982845306,-1.11281192302704,-902.700012207031,-11.7000007629395,-873.300048828125,-2.50077056534344,-0.612560093606428,0.139307009900473,DLR
13.6,-6.03645896911621,-1.76033473014832,7.8117470741272,-1.71494996547699,-0.92988395690918,-0.190549999475479,-902.700012207031,-6.30000019073486,-873.300048828125,-2.45851509793792,-0.64413110067543,0.224134271673471,DLR
13.6333333333333,-4.92451095581055,-1.77768087387085,8.51456546783447,-2.24848985671997,-1.59299790859222,-1.11281192302704,-909.900024414062,-4.5,-866.100036621094,-2.47033050904198,-0.512367722028494,0.210529065166035,DLR
13.6666666666667,-5.48497104644775,-2.15092206001282,7.51805877685547,-1.08232402801514,0.342989981174469,-0.518296003341675,-902.700012207031,-4.5,-880.500061035156,-2.43364197961932,-0.611644990720844,0.280993756674479,DLR
13.7,-5.54418706893921,-2.131183385849,8.4589376449585,-1.72257196903229,0.792688012123108,0.160062000155449,-902.700012207031,-0.300000011920929,-873.300048828125,-2.4582738945418,-0.567705106944911,0.249947022057556,DLR
13.7333333333333,-5.02260637283325,-1.58388257026672,7.59641551971436,0.396344006061554,-0.693601965904236,1.98171997070312,-900.300048828125,-9.30000019073486,-882.900024414062,-2.4963622071871,-0.573944427142371,0.20266244974165,DLR
13.7666666666667,-5.32885551452637,-1.42058956623077,8.80825328826904,-0.266770005226135,0.198172003030777,2.14940404891968,-897.900024414062,-5.10000038146973,-885.300048828125,-2.53410993670669,-0.539536639423852,0.158418145353047,DLR
13.8,-4.22348737716675,-1.22320234775543,7.84404706954956,-0.0533539988100529,-0.807931959629059,2.67532205581665,-907.500061035156,-6.90000009536743,-863.700012207031,-2.55551867484261,-0.488517897346267,0.152246171782211,DLR
13.8333333333333,-4.88264083862305,-1.44870233535767,7.58923816680908,-1.35671591758728,-0.983237981796265,2.0731840133667,-905.100036621094,-2.10000014305115,-880.500061035156,-2.55802165964737,-0.562298212636495,0.188412975136024,DLR
13.8666666666667,-3.65405535697937,-1.14903259277344,6.39474630355835,-2.69818782806396,-1.98934197425842,0.556405961513519,-909.900024414062,-1.5,-875.700012207031,-2.57792581571763,-0.509323669688038,0.18164289525046,DLR
13.9,-4.78753614425659,-2.11264085769653,7.49353504180908,-3.37654590606689,-1.02134799957275,0.228659987449646,-907.500061035156,-5.10000038146973,-878.100036621094,-2.54449569989964,-0.549499884555286,0.279608707573829,DLR
13.9333333333333,-4.90237998962402,-1.58507883548737,8.94582653045654,-0.480185985565186,-2.09605002403259,1.82927989959717,-909.900024414062,-0.300000011920929,-880.500061035156,-2.61288963005353,-0.492118332973034,0.174729396674625,DLR
13.9666666666667,-4.37182712554932,-1.85962653160095,7.80516767501831,-0.266770005226135,0.0914639979600906,1.76068198680878,-914.700012207031,-0.900000035762787,-882.900024414062,-2.59754979282116,-0.49971639515896,0.232429764966394,DLR
14.0,-5.18948841094971,-2.44401216506958,8.07014465332031,-0.228659987449646,0.0304879993200302,-0.0076219998300075,-912.300048828125,0.900000035762787,-882.900024414062,-2.56735081931076,-0.551464016578914,0.294131612234785,DLR
14.0333333333333,-5.76789283752441,-1.27703523635864,9.72101974487305,0.289635986089706,-1.47866797447205,-0.716467976570129,-914.700012207031,-2.10000014305115,-887.700012207031,-2.64701234722212,-0.529196972385895,0.131530639978588,DLR
14.0666666666667,-4.76899385452271,-0.86790543794632,8.95240592956543,1.57775402069092,-1.52439999580383,1.03659200668335,-924.300048828125,-2.70000004768372,-882.900024414062,-2.66792154309766,-0.48529601282512,0.0930127602746208,DLR
14.1,-3.04335141181946,-1.68377244472504,5.6763768196106,3.08691000938416,-0.693601965904236,1.76068198680878,-931.500061035156,2.10000014305115,-880.500061035156,-2.58293982456795,-0.474548146909551,0.280715915129325,DLR
14.1333333333333,-5.66860103607178,-1.08144247531891,9.01700496673584,-0.449698001146317,1.82927989959717,-3.24697184562683,-900.300048828125,-2.10000014305115,-892.500061035156,-2.63951622914248,-0.560025426519649,0.124815561625533,DLR
14.1666666666667,-5.46882104873657,-1.11613476276398,8.91053581237793,1.32622802257538,0.663114011287689,-0.297257989645004,-919.500061035156,-11.7000007629395,-882.900024414062,-2.63302483518915,-0.548153840617989,0.122710792486174,DLR
14.2,-4.97236251831055,-1.12690138816833,6.83139085769653,2.9192259311676,0.137196004390717,1.00610399246216,-907.500061035156,-3.30000019073486,-878.100036621094,-2.60762682064121,-0.622924070670752,0.156970765805711,DLR
14.2333333333333,-5.02499914169312,-1.40862667560577,7.60538768768311,1.40244793891907,1.72257196903229,1.58537602424622,-914.700012207031,-2.70000004768372,-866.100036621094,-2.59710305495247,-0.57983396105405,0.179149824298196,DLR
14.2666666666667,-5.92460632324219,-1.68257617950439,9.25686073303223,1.16616594791412,1.21189796924591,0.3125019967556,-897.900024414062,-9.90000057220459,-870.900024414062,-2.59330203650537,-0.564193723813393,0.177670703274556,DLR
14.3,-5.88512849807739,-1.50851655006409,8.5785665512085,1.54726600646973,1.94360995292664,0.861285984516144,-890.700012207031,-8.10000038146973,-873.300048828125,-2.59383838906401,-0.597619530627648,0.170796971090496,DLR
14.3333333333333,-4.91314649581909,-0.933701157569885,7.35177516937256,0.503051996231079,0.0609759986400604,-0.922261953353882,-909.900024414062,-12.3000001907349,-878.100036621094,-2.6105614088065,-0.585408170532263,0.126758052103815,DLR
14.3666666666667,-4.73549795150757,-0.662144243717194,7.74954032897949,1.20427596569061,-1.77592599391937,-0.419209986925125,-890.700012207031,0.300000011920929,-887.700012207031,-2.6267638103834,-0.543878344622875,0.0835443506297181,DLR
14.4,-4.23365592956543,-0.747080564498901,6.53710460662842,1.04421401023865,-0.823175966739655,-1.18140995502472,-917.100036621094,-2.70000004768372,-875.700012207031,-2.59976761710962,-0.569978563783748,0.113037387741684,DLR
14.4333333333333,-4.61766386032104,-0.849961161613464,7.24889469146729,0.259148001670837,-0.403965979814529,-1.42531394958496,-907.500061035156,-3.90000009536743,-885.300048828125,-2.58665469209784,-0.563132827603737,0.117762575097699,DLR
14.4666666666667,-6.00774812698364,-1.80160665512085,7.96606826782227,-0.655492007732391,0.434453994035721,-0.731711983680725,-900.300048828125,-7.50000047683716,-887.700012207031,-2.52426772550128,-0.634464129469434,0.224261601406256,DLR
14.5,-5.89290475845337,-1.60601389408112,9.21857929229736,-1.03659200668335,-1.22714197635651,-1.98171997070312,-907.500061035156,-2.10000014305115,-870.900024414062,-2.54462684428427,-0.559713565386559,0.176451766951213,DLR
14.5333333333333,-5.35218334197998,-1.77648460865021,8.18498802185059,0.853663980960846,-1.47866797447205,-0.0838419944047928,-897.900024414062,-4.5,-885.300048828125,-2.52371884763824,-0.566035031905884,0.211784371838481,DLR
14.5666666666667,-4.95920324325562,-1.49715185165405,8.43860149383545,0.129574000835419,-0.87652999162674,-0.617381989955902,-897.900024414062,-3.30000019073486,-887.700012207031,-2.53870774727961,-0.523034040812789,0.175951872290544,DLR
14.6,-4.26535749435425,-1.1597992181778,7.53600311279297,0.739333987236023,-0.685979962348938,0.434453994035721,-917.100036621094,0.300000011920929,-890.100036621094,-2.55179056148761,-0.5090489821359,0.151028991846778,DLR
14.6333333333333,-4.52614784240723,-1.18731379508972,7.04672241210938,0.304879993200302,0.282013982534409,0.381099998950958,-914.700012207031,-0.300000011920929,-878.100036621094,-2.54507624276092,-0.564888596968807,0.165943351230827,DLR
14.6666666666667,-4.94604444503784,-1.24234294891357,7.95589971542358,-0.647870004177094,-0.137196004390717,1.63110792636871,-909.900024414062,-2.10000014305115,-882.900024414062,-2.56416092836482,-0.55110142094666,0.154343773206975,DLR
14.7,-5.11591672897339,-1.40683221817017,8.10304260253906,-0.983237981796265,-0.0228659994900227,1.98171997070312,-902.700012207031,-2.10000014305115,-875.700012207031,-2.5724965328289,-0.557003824842106,0.171430152006969,DLR
14.7333333333333,-4.94424962997437,-0.984543323516846,8.27291584014893,-0.579271972179413,-1.77592599391937,0.754577994346619,-909.900024414062,-10.5,-880.500061035156,-2.60831161408121,-0.532811252316553,0.118759171159748,DLR
14.7666666666667,-4.81863975524902,-1.21482837200165,8.27171897888184,-0.434453994035721,-1.08994603157043,1.90549993515015,-912.300048828125,-1.5,-873.300048828125,-2.61025343325492,-0.521513767346859,0.144389792241372,DLR
14.8,-4.86768770217896,-1.40563595294952,7.86318731307983,-0.983237981796265,1.11281192302704,0.647870004177094,-909.900024414062,-9.30000019073486,-885.300048828125,-2.59981706444698,-0.549252581363559,0.177950336893823,DLR
14.8333333333333,-5.3779034614563,-1.24533367156982,8.87584400177002,0.0228659994900227,-0.175305992364883,-0.0304879993200302,-914.700012207031,0.900000035762787,-878.100036621094,-2.61958553072558,-0.540180401780811,0.139572609697791,DLR
14.8666666666667,-5.139244556427,-1.15680849552155,7.50430154800415,1.34147191047668,0.960371971130371,1.11281192302704,-917.100036621094,-8.10000038146973,-878.100036621094,-2.61475287652854,-0.596654113758505,0.149420666338278,DLR
14.9,-5.19666624069214,-1.40743041038513,7.3523736000061,0.716467976570129,1.51677799224854,-0.495429992675781,-914.700012207031,-3.90000009536743,-878.100036621094,-2.58479662139599,-0.609193480458248,0.188607791424825,DLR
14.9333333333333,-5.43233442306519,-1.41042113304138,8.04681777954102,0.99848198890686,0.426831990480423,-1.05945801734924,-907.500061035156,-2.70000004768372,-878.100036621094,-2.58106388789543,-0.587284661131695,0.173108132363934,DLR
14.9666666666667,-5.47420454025269,-1.03000223636627,8.44278812408447,1.81403601169586,-0.182927995920181,-0.114329993724823,-902.700012207031,-5.10000038146973,-873.300048828125,-2.60229126465757,-0.571584061761412,0.118498856878175,DLR
15.0,-4.59254169464111,-0.818857729434967,7.85182285308838,2.60672402381897,-0.434453994035721,-0.167683988809586,-902.700012207031,-9.90000057220459,-875.700012207031,-2.60046271764961,-0.526246656485451,0.0995456178241755,DLR
15.0333333333333,-5.22358274459839,-1.24114668369293,7.61914539337158,1.42531394958496,1.11281192302704,-0.358233988285065,-900.300048828125,-3.90000009536743,-873.300048828125,-2.55891868228203,-0.596458382304938,0.159386422180063,DLR
15.0666666666667,-5.51846694946289,-1.2178190946579,8.46910667419434,0.800309956073761,-0.106707997620106,-1.77592599391937,-912.300048828125,-10.5,-894.900024414062,-2.55266511969526,-0.572289159906649,0.143438946343277,DLR
15.1,-4.67747783660889,-0.613694667816162,8.05040645599365,1.44817996025085,-1.76068198680878,-1.6692179441452,-888.300048828125,-2.70000004768372,-870.900024414062,-2.57108220321644,-0.521932133470833,0.0752593096582689,DLR
15.1333333333333,-4.06198883056641,-1.62276184558868,6.49164581298828,-0.0838419944047928,1.46342396736145,-1.44817996025085,-909.900024414062,-6.30000019073486,-878.100036621094,-2.47310280380757,-0.547358081620313,0.246017634408498,DLR
15.1666666666667,-5.35038900375366,-1.68437063694,8.45355415344238,-0.640248000621796,-0.0381099991500378,-3.11739802360535,-902.700012207031,-9.90000057220459,-880.500061035156,-2.47963630044694,-0.554323003923085,0.201333303386325,DLR
15.2,-5.90905427932739,-1.63651919364929,8.92668533325195,0.731711983680725,0.78506600856781,-0.396344006061554,-902.700012207031,-2.70000004768372,-875.700012207031,-2.48379943601111,-0.578300828375899,0.180706619605357,DLR
15.2333333333333,-5.06806516647339,-1.47920751571655,8.27291584014893,1.09756803512573,0.510673999786377,-0.297257989645004,-897.900024414062,-2.10000014305115,-863.700012207031,-2.47965718317221,-0.543600172719243,0.17544454849507,DLR
15.2666666666667,-4.63082265853882,-1.79084002971649,7.75193309783936,0.914639949798584,-0.533540010452271,-0.0457319989800453,-902.700012207031,0.300000011920929,-866.100036621094,-2.45120044473663,-0.526271251190555,0.225140670882749,DLR
15.3,-4.46573543548584,-1.16936945915222,8.14551067352295,-0.594515979290009,-0.0076219998300075,-1.10518991947174,-902.700012207031,1.5,-880.500061035156,-2.48540978879327,-0.49708316036173,0.145093404242625,DLR
15.3333333333333,-3.9537250995636,-1.51509618759155,7.09935903549194,0.228659987449646,-0.739333987236023,0.815553963184357,-883.500061035156,-0.300000011920929,-878.100036621094,-2.46047275486333,-0.497757536972331,0.20860673566231,DLR
15.3666666666667,-4.53811073303223,-1.64908015727997,7.39185094833374,-0.320124000310898,0.899396002292633,1.43293595314026,-888.300048828125,0.300000011920929,-868.500061035156,-2.46471524953622,-0.541709151667891,0.218751014272257,DLR
15.4,-5.14761829376221,-1.64309871196747,8.19156837463379,-0.884151995182037,1.29574000835419,1.34909391403198,-907.500061035156,-10.5,-880.500061035156,-2.48551916016675,-0.554807629055504,0.198459084766212,DLR
15.4333333333333,-5.3061261177063,-1.84347665309906,7.64426708221436,-0.701223969459534,0.807931959629059,1.49391198158264,-905.100036621094,-5.70000028610229,-878.100036621094,-2.47647462968555,-0.595432752170532,0.236228645944064,DLR
15.4666666666667,-5.73200416564941,-2.1730535030365,8.61325836181641,-1.18140995502472,-0.175305992364883,0.777444005012512,-897.900024414062,-2.70000004768372,-863.700012207031,-2.4796842354772,-0.57319984600797,0.248231754545479,DLR
15.5,-5.01483058929443,-1.71786665916443,8.79270172119141,-0.221037998795509,-1.20427596569061,1.41769194602966,-888.300048828125,-8.70000076293945,-878.100036621094,-2.52005612458595,-0.509073549018436,0.192042119889604,DLR
15.5333333333333,-4.64757108688354,-1.29497957229614,7.44030046463013,0.746955990791321,-0.121951997280121,2.65245604515076,-897.900024414062,-6.30000019073486,-878.100036621094,-2.5469354325992,-0.552074753100666,0.168281606834114,DLR
15.5666666666667,-4.3042368888855,-1.52705895900726,7.41697263717651,0.480185985565186,-0.0914639979600906,1.61586391925812,-890.700012207031,-6.90000009536743,-880.500061035156,-2.53912565408382,-0.517457783413206,0.200445783410632,DLR
15.6,-5.4257550239563,-1.18312680721283,8.49781703948975,0.0076219998300075,0.739333987236023,2.10367202758789,-897.900024414062,-5.70000028610229,-868.500061035156,-2.58460174146821,-0.565419212730539,0.136499407474256,DLR
15.6333333333333,-4.93767023086548,-1.35658824443817,7.70467948913574,-0.602137982845306,0.358233988285065,2.29422187805176,-890.700012207031,-3.90000009536743,-880.500061035156,-2.58300730746215,-0.56432157072927,0.172799679376851,DLR
15.6666666666667,-4.81505107879639,-1.54380702972412,7.4749927520752,-1.08232402801514,-0.899396002292633,1.28049600124359,-905.100036621094,-5.70000028610229,-866.100036621094,-2.58062780366232,-0.561712326784572,0.203862177411388,DLR
15.7,-5.67218971252441,-1.65745413303375,8.25078392028809,-1.73781597614288,-0.419209986925125,1.28811800479889,-885.900024414062,-3.30000019073486,-868.500061035156,-2.59943297981297,-0.592681713473241,0.1997160149462,DLR
15.7333333333333,-5.29715394973755,-2.2232973575592,8.22506427764893,-1.64635193347931,-1.01372599601746,0.670735955238342,-893.100036621094,-3.30000019073486,-873.300048828125,-2.57631898215945,-0.555004893850906,0.265591107322098,DLR
15.7666666666667,-5.47181177139282,-1.13348090648651,9.01580905914307,0.0762199983000755,-1.82165801525116,1.86738991737366,-895.500061035156,-5.10000038146973,-870.900024414062,-2.66451117444931,-0.53934738358348,0.123281945963258,DLR
15.8,-4.50521278381348,-1.4821982383728,7.89608526229858,0.114329993724823,-0.0609759986400604,3.93295192718506,-907.500061035156,-8.70000076293945,-878.100036621094,-2.66027205232603,-0.51235418808227,0.181228621798051,DLR
15.8333333333333,-3.64149451255798,-1.14245307445526,7.08978843688965,-0.365855991840363,-0.800309956073761,1.60061991214752,-905.100036621094,-2.70000004768372,-875.700012207031,-2.68375312554709,-0.46856197977136,0.158992089167525,DLR
15.8666666666667,-4.94305372238159,-1.64130425453186,8.11141681671143,-1.2576299905777,-0.670735955238342,0.503051996231079,-905.100036621094,-8.70000076293945,-885.300048828125,-2.67274800202592,-0.537197377462766,0.201034795708138,DLR
15.9,-5.63331031799316,-1.19688403606415,8.6264181137085,-0.647870004177094,-0.289635986089706,0.87652999162674,-907.500061035156,-6.90000009536743,-880.500061035156,-2.71418480286384,-0.573664213454386,0.138330502277758,DLR
15.9333333333333,-4.74626445770264,-2.48049879074097,6.94623422622681,-1.53202199935913,0.586893975734711,0.724089980125427,-902.700012207031,2.10000014305115,-882.900024414062,-2.6117022355131,-0.573228430131482,0.343979230448981,DLR
15.9666666666667,-6.07055282592773,-2.64139938354492,8.59471607208252,-2.5000159740448,0.327746003866196,-1.85214591026306,-902.700012207031,-4.5,-875.700012207031,-2.63199790066758,-0.593327943246845,0.304945869222265,DLR
16.0,-4.15171051025391,-2.10366892814636,6.89957904815674,1.94360995292664,-0.716467976570129,0.899396002292633,-897.900024414062,-2.10000014305115,-880.500061035156,-2.63799619053216,-0.521523812207289,0.291479887794756,DLR
16.0333333333333,-5.43592309951782,-2.32199096679688,8.56540775299072,0.320124000310898,1.28811800479889,-0.182927995920181,-902.700012207031,0.300000011920929,-887.700012207031,-2.64664724119845,-0.551576124044903,0.264801671633959,DLR
16.0666666666667,-4.86350059509277,-0.690257012844086,8.31777572631836,2.53812599182129,-2.40855193138123,0.632625997066498,-919.500061035156,0.900000035762787,-873.300048828125,-2.73846032648267,-0.523706855388275,0.0785433107376483,DLR
16.1,-4.12479400634766,-1.48578715324402,7.42474889755249,1.6844619512558,-1.61586391925812,2.31708788871765,-914.700012207031,-2.70000004768372,-882.900024414062,-2.69503964233206,-0.496880695702888,0.191837110635702,DLR
16.1333333333333,-4.54887723922729,-1.06648886203766,7.63529491424561,0.350611984729767,-1.47866797447205,1.12805593013763,-907.500061035156,2.10000014305115,-875.700012207031,-2.73001864439018,-0.530679286444356,0.136986503769395,DLR
16.1666666666667,-5.20803070068359,-1.27225005626678,8.43262004852295,-1.6615959405899,-1.18903195858002,0.739333987236023,-907.500061035156,-0.900000035762787,-878.100036621094,-2.7347653768149,-0.54630253328811,0.151599140717988,DLR
16.2,-5.16855335235596,-1.75136256217957,7.9158239364624,-2.24086785316467,-0.289635986089706,2.14940404891968,-917.100036621094,-2.70000004768372,-882.900024414062,-2.72314578626857,-0.567792230404185,0.218993851413198,DLR
16.2333333333333,-5.24631214141846,-2.37941265106201,7.26624059677124,-2.19513607025146,-1.63872992992401,1.74543797969818,-905.100036621094,-5.10000038146973,-878.100036621094,-2.6934315054192,-0.599512712677002,0.317397927828555,DLR
16.2666666666667,-5.83608102798462,-1.92243146896362,9.46022891998291,-3.31556987762451,-0.426831990480423,0.617381989955902,-914.700012207031,-3.30000019073486,-890.100036621094,-2.77234039368554,-0.543484009405514,0.205933249584244,DLR
16.3,-4.41728591918945,-1.61199533939362,7.20762300491333,-0.815553963184357,-0.426831990480423,3.29270386695862,-912.300048828125,1.5,-894.900024414062,-2.79126653939951,-0.539543526984394,0.217942426055933,DLR
16.3333333333333,-4.42865037918091,-2.07077097892761,7.44030046463013,-1.41006994247437,-0.480185985565186,0.884151995182037,-919.500061035156,1.5,-882.900024414062,-2.77524012952308,-0.520368198313635,0.272629034618788,DLR
16.3666666666667,-4.87127637863159,-1.11852741241455,7.96128273010254,-0.0457319989800453,-1.05945801734924,1.81403601169586,-919.500061035156,0.900000035762787,-880.500061035156,-2.85619124344396,-0.543276383751695,0.138367955989396,DLR
16.4,-4.86828565597534,-1.33625137805939,8.40689945220947,0.0304879993200302,-0.815553963184357,1.07470202445984,-919.500061035156,-8.70000076293945,-882.900024414062,-2.85513603593617,-0.518481631151876,0.156324145394028,DLR
16.4333333333333,-4.79591035842896,-0.976169347763062,7.64965057373047,0.754577994346619,-0.975615978240967,2.13416004180908,-924.300048828125,-0.300000011920929,-885.300048828125,-2.8841257672909,-0.555006446114158,0.123309994545012,DLR
16.4666666666667,-5.36474418640137,-1.80938243865967,7.86258935928345,-1.13567793369293,0.907018005847931,-0.716467976570129,-926.700012207031,2.10000014305115,-880.500061035156,-2.82596552838729,-0.587970816396953,0.228891161419761,DLR
16.5,-5.97425222396851,-1.61259341239929,9.58882999420166,-1.30336201190948,-0.487807989120483,-2.36281991004944,-917.100036621094,6.30000019073486,-894.900024414062,-2.84781580857878,-0.549626584998209,0.171604759016335,DLR
16.5333333333333,-4.45795965194702,-0.810483753681183,6.83438158035278,2.21037983894348,-0.861285984516144,2.56099200248718,-919.500061035156,-4.5,-890.100036621094,-2.88762468078959,-0.573677338854859,0.111535407727161,DLR
16.5666666666667,-3.77129149436951,-1.88654291629791,6.78712844848633,0.564027965068817,1.18140995502472,-1.85976791381836,-909.900024414062,-0.900000035762787,-887.700012207031,-2.79050044433128,-0.493144228005942,0.271282449399197,DLR
16.6,-5.26246166229248,-1.59046220779419,8.54925727844238,0.92988395690918,0.487807989120483,-2.98782396316528,-936.300048828125,-3.90000009536743,-882.900024414062,-2.80976241001489,-0.543799540444597,0.185980594619303,DLR
16.6333333333333,-5.95870018005371,-0.807493031024933,8.71135425567627,2.40855193138123,0.442075997591019,-0.564027965068817,-924.300048828125,-6.90000009536743,-894.900024414062,-2.84783605021361,-0.598365940828565,0.0893933229552118,DLR
16.6666666666667,-4.55426073074341,-0.599339246749878,7.03416156768799,3.01831197738647,0.0685980021953583,-1.37195992469788,-917.100036621094,-0.300000011920929,-894.900024414062,-2.83133283400323,-0.572996743584093,0.0813247900979551,DLR
16.7,-4.10864400863647,-1.78007352352142,7.12029409408569,0.739333987236023,0.670735955238342,-2.30184388160706,-917.100036621094,-1.5,-892.500061035156,-2.72832943393503,-0.510898018903262,0.245175023632208,DLR
16.7333333333333,-5.94195222854614,-1.722651720047,9.10971736907959,-1.30336201190948,0.457319974899292,-3.90246391296387,-914.700012207031,3.30000019073486,-885.300048828125,-2.73331400166727,-0.569259727144285,0.193703360329303,DLR
16.7666666666667,-4.99628829956055,-1.44152450561523,7.76389598846436,1.29574000835419,-0.807931959629059,-1.18140995502472,-921.900024414062,1.5,-882.900024414062,-2.72703662110661,-0.562392068865108,0.182475548178131,DLR
16.8,-4.62065458297729,-2.12460374832153,6.83677434921265,1.57775402069092,1.34909391403198,0.282013982534409,-921.900024414062,3.30000019073486,-868.500061035156,-2.65713544385906,-0.57550503484841,0.298260564800581,DLR
16.8333333333333,-5.46224164962769,-2.11264085769653,8.41646957397461,-0.525918006896973,1.73781597614288,-2.77440786361694,-902.700012207031,-3.30000019073486,-887.700012207031,-2.66366823744467,-0.563582142638039,0.250428369955948,DLR
16.8666666666667,-5.31330394744873,-2.29028940200806,8.46551704406738,-0.0,-0.708845973014832,-0.571649968624115,-905.100036621094,-5.70000028610229,-892.500061035156,-2.65382066680199,-0.543354055858969,0.264542117302126,DLR
16.9,-4.46035194396973,-1.57371413707733,7.4953293800354,1.74543797969818,-0.92988395690918,0.937505960464478,-924.300048828125,0.900000035762787,-887.700012207031,-2.68584782249324,-0.52616613740325,0.202967972352607,DLR
16.9333333333333,-4.25578737258911,-1.86142086982727,6.83916664123535,1.60824191570282,0.0990860015153885,1.38720393180847,-909.900024414062,-2.70000004768372,-873.300048828125,-2.6585071298748,-0.541448734124422,0.261225099419016,DLR
16.9666666666667,-4.73310518264771,-1.61558413505554,7.66819286346436,0.205793991684914,0.967993974685669,0.716467976570129,-912.300048828125,-1.5,-873.300048828125,-2.68883901171136,-0.545234941736928,0.207059042339742,DLR
17.0,-5.60938501358032,-1.34103655815125,9.13065242767334,-0.731711983680725,-0.815553963184357,1.90549993515015,-914.700012207031,-3.30000019073486,-887.700012207031,-2.75238081106347,-0.545224992996338,0.144984575382365,DLR
17.0333333333333,-4.46274471282959,-1.32249414920807,7.13704204559326,0.487807989120483,-1.99696397781372,3.3613018989563,-917.100036621094,-5.70000028610229,-882.900024414062,-2.75840908472311,-0.548852613607194,0.17835275751802,DLR
17.0666666666667,-5.49274682998657,-1.84287846088409,7.27640914916992,-1.73019397258759,1.40244793891907,-0.78506600856781,-919.500061035156,-2.70000004768372,-880.500061035156,-2.718052898194,-0.633451705998986,0.252198644368467,DLR
17.1,-6.11840438842773,-1.65565979480743,8.91532135009766,-1.80641400814056,-0.129574000835419,-0.403965979814529,-895.500061035156,-0.300000011920929,-858.900024414062,-2.76065299668358,-0.593451536442885,0.187554213060198,DLR
17.1333333333333,-5.35158538818359,-1.0054783821106,8.68862438201904,0.495429992675781,-1.18140995502472,2.0731840133667,-912.300048828125,-3.30000019073486,-890.100036621094,-2.81329272327384,-0.547708709658986,0.112407199874492,DLR
17.1666666666667,-4.62364530563354,-1.09340536594391,6.37381172180176,2.17989206314087,-1.73781597614288,2.10367202758789,-902.700012207031,4.5,-885.300048828125,-2.79094723583949,-0.618055720247087,0.162954377247299,DLR
17.2,-4.25877809524536,-0.783567309379578,7.02100229263306,-0.548784017562866,-2.75916385650635,-1.05183601379395,-926.700012207031,-1.5,-885.300048828125,-2.81577835801677,-0.537809442931801,0.113047648423632,DLR
17.2333333333333,-5.16376829147339,-1.42358028888702,8.25497150421143,-1.11281192302704,-1.33385002613068,0.564027965068817,-921.900024414062,-3.90000009536743,-890.100036621094,-2.79549889490746,-0.550254124152173,0.171697189648094,DLR
17.2666666666667,-4.68226337432861,-1.95233869552612,7.38886022567749,-0.891773998737335,-0.586893975734711,0.0838419944047928,-924.300048828125,-2.70000004768372,-885.300048828125,-2.75489583261181,-0.548739808304644,0.259308703637133,DLR
17.3,-5.57768297195435,-2.07077097892761,8.94462966918945,-1.04421401023865,-0.175305992364883,0.586893975734711,-931.500061035156,-0.900000035762787,-878.100036621094,-2.77872167416848,-0.545877250973851,0.228843799639508,DLR
17.3333333333333,-5.67338609695435,-2.33873891830444,8.50379848480225,0.46494197845459,0.190549999475479,0.815553963184357,-919.500061035156,-2.70000004768372,-882.900024414062,-2.76153202507786,-0.572185569387664,0.266537798598585,DLR
17.3666666666667,-4.92929601669312,-1.82852303981781,8.82081413269043,0.815553963184357,-0.525918006896973,-2.12653803825378,-926.700012207031,-6.30000019073486,-878.100036621094,-2.77664637760549,-0.499358756860123,0.205132709407936,DLR
17.4,-4.83060264587402,-1.57491040229797,8.73468208312988,1.89787793159485,-1.03659200668335,1.36433792114258,-924.300048828125,-5.70000028610229,-887.700012207031,-2.79522101934755,-0.497068521020581,0.173725899463227,DLR
17.4333333333333,-4.23784303665161,-0.983347058296204,7.36254167556763,2.85824990272522,-0.0914639979600906,0.602137982845306,-905.100036621094,-1.5,-892.500061035156,-2.81118770147957,-0.518333001932464,0.127437474377513,DLR
