seconds,sensor_accX_m_s_,sensor_accY_m_s_,sensor_accZ_m_s_,sensor_gyroX___s_,sensor_gyroY___s_,sensor_gyroZ___s_,sensor_magX__T_,sensor_magY__T_,sensor_magZ__T_,sensor_yaw___,sensor_pitch___,sensor_roll___,label4
0.0,-3.84964823722839,-2.0851263999939,8.4356107711792,0.236281991004944,-0.0990860015153885,0.266770005226135,-1044.30004882812,19.5,-899.700012207031,2.73499755301087,-0.416979982843183,0.241682322141011,ST
0.0333333333333333,-3.88912558555603,-1.94037580490112,8.41527366638184,0.228659987449646,-0.213415995240211,0.144817993044853,-1039.5,14.1000003814697,-897.300048828125,2.72791231571923,-0.42281630089638,0.226095404392497,ST
0.0666666666666667,-3.92860293388367,-2.01813435554504,8.37699222564697,0.228659987449646,-0.137196004390717,0.350611984729767,-1034.70007324219,20.7000007629395,-906.900024414062,2.72961807916567,-0.427677269273869,0.235697286988647,ST
0.1,-3.81316137313843,-2.01454544067383,8.393141746521,0.403965979814529,-0.274392008781433,0.541162014007568,-1025.10009765625,22.5,-902.100036621094,2.72563181077628,-0.415763526584532,0.234408688420157,ST
0.133333333333333,-3.89271450042725,-1.92960917949677,8.37938499450684,0.358233988285065,-0.3125019967556,0.190549999475479,-1037.10009765625,24.9000015258789,-885.300048828125,2.72113506850236,-0.424641257614627,0.225514776866421,ST
0.166666666666667,-3.89510703086853,-1.97387182712555,8.47389125823975,0.259148001670837,-0.37347799539566,0.297257989645004,-1039.5,15.9000005722046,-899.700012207031,2.71989893791154,-0.420405534161468,0.228107855314052,ST
0.2,-3.84366679191589,-1.94217026233673,8.58574390411377,0.198172003030777,-0.403965979814529,0.503051996231079,-1041.90002441406,22.5,-890.100036621094,2.71276324432607,-0.411207558813653,0.221682513059002,ST
0.233333333333333,-3.67199969291687,-2.02172327041626,8.4828634262085,0.297257989645004,-0.503051996231079,0.663114011287689,-1041.90002441406,23.7000007629395,-887.700012207031,2.7117799342938,-0.397979512768097,0.232869388237329,ST
0.266666666666667,-3.6791775226593,-2.07077097892761,8.33631896972656,0.167683988809586,-0.297257989645004,0.182927995920181,-1029.90002441406,23.7000007629395,-897.300048828125,2.71422658488903,-0.404247520649296,0.242980070876674,ST
0.3,-3.75873041152954,-2.03847122192383,8.51157474517822,0.213415995240211,0.0,0.243903994560242,-1037.10009765625,13.5000009536743,-902.100036621094,2.70966485416842,-0.405736826456912,0.234530148267815,ST
0.333333333333333,-3.82213354110718,-1.99779748916626,8.41527366638184,0.221037998795509,-0.236281991004944,-0.0685980021953583,-1039.5,17.1000003814697,-914.100036621094,2.70986094273692,-0.415658937464726,0.232713016343466,ST
0.366666666666667,-3.91065883636475,-1.9308055639267,8.33572006225586,0.365855991840363,-0.0685980021953583,0.221037998795509,-1034.70007324219,23.1000003814697,-899.700012207031,2.70689603023478,-0.428645108067279,0.226803452329318,ST
0.4,-3.79461908340454,-1.98045134544373,8.53131294250488,0.388722002506256,-0.137196004390717,0.609759986400604,-1037.10009765625,18.9000015258789,-904.500061035156,2.70276382879352,-0.408873481469992,0.226947773930271,ST
0.433333333333333,-3.7252345085144,-2.13477230072021,8.2980375289917,0.137196004390717,-0.205793991684914,0.472563982009888,-1027.5,21.3000011444092,-894.900024414062,2.70859969198117,-0.409974257660812,0.251136546211299,ST
0.466666666666667,-3.87656450271606,-1.97387182712555,8.47030258178711,0.190549999475479,0.350611984729767,0.182927995920181,-1046.70007324219,17.7000007629395,-897.300048828125,2.69939886017532,-0.419943530383291,0.228576450731342,ST
0.5,-3.9297993183136,-2.08273386955261,8.48764896392822,0.160062000155449,0.198172003030777,0.335367977619171,-1039.5,16.5,-902.100036621094,2.70222303161068,-0.423045675429168,0.240122210678547,ST
0.533333333333333,-3.9417622089386,-2.13836121559143,8.36921691894531,0.0838419944047928,0.144817993044853,0.25152599811554,-1034.70007324219,15.9000005722046,-892.500061035156,2.70471981790578,-0.428448498100771,0.24982944182434,ST
0.566666666666667,-3.99499678611755,-1.9589182138443,8.46671390533447,0.129574000835419,0.0533539988100529,0.0152439996600151,-1044.30004882812,17.1000003814697,-887.700012207031,2.695781193562,-0.430988378950233,0.227160966548701,ST
0.6,-3.87297582626343,-2.08871531486511,8.3100004196167,0.304879993200302,-0.3125019967556,0.564027965068817,-1034.70007324219,20.7000007629395,-906.900024414062,2.69919532469287,-0.424239306172003,0.245195341296508,ST
0.633333333333333,-3.86400365829468,-2.03906941413879,8.40091800689697,0.388722002506256,-0.243903994560242,0.419209986925125,-1037.10009765625,21.9000015258789,-902.100036621094,2.6933506114537,-0.420096956272268,0.237084672777662,ST
0.666666666666667,-3.89749956130981,-1.96131074428558,8.38058090209961,0.327746003866196,-0.320124000310898,0.617381989955902,-1034.70007324219,18.3000011444092,-899.700012207031,2.68526442977566,-0.424898599056529,0.228797027082151,ST
0.7,-3.841872215271,-1.92123520374298,8.47747993469238,0.228659987449646,-0.3125019967556,0.510673999786377,-1044.30004882812,28.5000019073486,-899.700012207031,2.67858317700453,-0.415841964741748,0.22203840462349,ST
0.733333333333333,-3.82213354110718,-1.9828439950943,8.49961185455322,0.205793991684914,-0.358233988285065,0.503051996231079,-1027.5,10.5,-892.500061035156,2.67707865370424,-0.412362425837,0.228381601784311,ST
0.766666666666667,-3.78564691543579,-1.98523652553558,8.34469223022461,0.205793991684914,-0.350611984729767,0.335367977619171,-1049.10009765625,16.5,-899.700012207031,2.67597818158256,-0.415167783499477,0.232886114812603,ST
0.8,-3.88912558555603,-1.88175773620605,8.41886234283447,0.289635986089706,-0.152439996600151,0.106707997620106,-1041.90002441406,21.3000011444092,-904.500061035156,2.6703873281198,-0.423310962711639,0.219311286070572,ST
0.833333333333333,-3.8998920917511,-2.00019001960754,8.38297367095947,0.304879993200302,-0.213415995240211,0.411587983369827,-1046.70007324219,23.7000007629395,-906.900024414062,2.67329744763441,-0.424744633932105,0.233323863492414,ST
0.866666666666667,-3.9579119682312,-1.89372062683105,8.57796859741211,0.37347799539566,-0.190549999475479,0.190549999475479,-1034.70007324219,18.3000011444092,-892.500061035156,2.66587136715035,-0.423065417388561,0.216477918225551,ST
0.9,-3.84306859970093,-2.02531218528748,8.42185306549072,0.289635986089706,-0.419209986925125,0.434453994035721,-1034.70007324219,15.3000001907349,-899.700012207031,2.67006613348036,-0.417052226042602,0.235069556075024,ST
0.933333333333333,-3.853835105896,-1.87577641010284,8.39613246917725,0.3125019967556,-0.365855991840363,0.228659987449646,-1044.30004882812,9.30000019073486,-902.100036621094,2.66212421471575,-0.420613647468456,0.219039070727268,ST
0.966666666666667,-3.88733124732971,-2.01693820953369,8.50020980834961,0.320124000310898,-0.3125019967556,0.46494197845459,-1037.10009765625,20.7000007629395,-890.100036621094,2.6638982508883,-0.418318339327416,0.231996497120497,ST
1.0,-3.88673305511475,-1.83629894256592,8.46312522888184,0.403965979814529,-0.388722002506256,0.266770005226135,-1044.30004882812,24.3000011444092,-897.300048828125,2.65466945772144,-0.421295961170157,0.212722974764459,ST
1.03333333333333,-3.82512426376343,-1.87398195266724,8.49183559417725,0.388722002506256,-0.381099998950958,0.6250039935112,-1027.5,21.3000011444092,-906.900024414062,2.65160284754134,-0.413989259561478,0.215984331800552,ST
1.06666666666667,-3.76650619506836,-1.88953363895416,8.48824691772461,0.282013982534409,-0.37347799539566,0.365855991840363,-1032.30004882812,14.7000007629395,-899.700012207031,2.64982355956962,-0.408248188839152,0.21820774635876,ST
1.1,-3.77009510993958,-1.87039303779602,8.42424583435059,0.228659987449646,-0.388722002506256,0.381099998950958,-1053.90002441406,15.9000005722046,-897.300048828125,2.64662316974291,-0.411374807071716,0.217735255675146,ST
1.13333333333333,-3.8358907699585,-1.9206371307373,8.51635932922363,0.358233988285065,-0.274392008781433,0.426831990480423,-1039.5,24.9000015258789,-897.300048828125,2.64516312723724,-0.413679044389903,0.22081682432685,ST
1.16666666666667,-3.86639618873596,-1.80998063087463,8.58574390411377,0.365855991840363,-0.320124000310898,0.266770005226135,-1041.90002441406,23.1000003814697,-899.700012207031,2.63815924097322,-0.414592540518916,0.206903299322155,ST
1.2,-3.75573968887329,-1.82732677459717,8.43680667877197,0.518296003341675,-0.518296003341675,0.46494197845459,-1041.90002441406,13.5000009536743,-906.900024414062,2.63733049851461,-0.409666615886116,0.211954790738072,ST
1.23333333333333,-3.77009510993958,-1.9146556854248,8.47269535064697,0.350611984729767,-0.320124000310898,0.282013982534409,-1039.5,19.5,-897.300048828125,2.63944193009886,-0.409054824880762,0.221357595328245,ST
1.26666666666667,-3.80837631225586,-1.80100846290588,8.6024923324585,0.327746003866196,-0.388722002506256,0.205793991684914,-1046.70007324219,16.5,-904.500061035156,2.63200410306005,-0.408300285337968,0.205619826025733,ST
1.3,-3.72643065452576,-1.90508532524109,8.46910667419434,0.297257989645004,-0.426831990480423,0.403965979814529,-1058.70007324219,20.1000003814697,-892.500061035156,2.63479211103934,-0.404919799163412,0.220354300083724,ST
1.33333333333333,-3.75693607330322,-1.84527111053467,8.49841499328613,0.342989981174469,-0.259148001670837,0.282013982534409,-1037.10009765625,24.9000015258789,-894.900024414062,2.6303297900002,-0.407449821922805,0.212976861475358,ST
1.36666666666667,-3.80179667472839,-1.9188426733017,8.50140571594238,0.289635986089706,-0.37347799539566,0.381099998950958,-1046.70007324219,19.5,-887.700012207031,2.63072229448025,-0.410843459257459,0.221127788231097,ST
1.4,-4.04404449462891,-1.91824448108673,8.79030895233154,0.205793991684914,-0.297257989645004,0.129574000835419,-1037.10009765625,18.3000011444092,-882.900024414062,2.62715617263481,-0.421943709489492,0.214357614899941,ST
1.43333333333333,-4.262366771698,-1.71786665916443,8.89917087554932,0.640248000621796,-0.228659987449646,0.0533539988100529,-1044.30004882812,23.7000007629395,-904.500061035156,2.61847930699544,-0.439187998977459,0.189536551039737,ST
1.46666666666667,-3.89211630821228,-1.80639171600342,8.75501823425293,0.975615978240967,-0.0304879993200302,0.342989981174469,-1044.30004882812,9.90000057220459,-894.900024414062,2.6241547890088,-0.410751453601303,0.201489039130728,ST
1.5,-3.75813221931458,-1.68377244472504,8.25138187408447,0.807931959629059,-0.960371971130371,0.114329993724823,-1044.30004882812,21.3000011444092,-899.700012207031,2.62387711995805,-0.418123158954484,0.199652951075555,ST
1.53333333333333,-3.79222655296326,-1.51748871803284,8.12158489227295,0.495429992675781,-0.510673999786377,-0.434453994035721,-1027.5,19.5,-882.900024414062,2.62217531790649,-0.429270137135371,0.184143647192519,ST
1.56666666666667,-3.86400365829468,-1.29139065742493,8.29983234405518,0.480185985565186,-0.426831990480423,0.266770005226135,-1041.90002441406,20.7000007629395,-887.700012207031,2.60839514636351,-0.430486296938566,0.153303732178248,ST
1.6,-3.66302752494812,-1.58089184761047,7.99537706375122,0.327746003866196,-0.754577994346619,0.266770005226135,-1034.70007324219,20.7000007629395,-897.300048828125,2.62317178175578,-0.421203306034622,0.194249313225493,ST
1.63333333333333,-3.58168005943298,-1.47143173217773,7.80277490615845,-0.106707997620106,-0.647870004177094,-0.221037998795509,-1053.90002441406,22.5,-911.700012207031,2.62046970122935,-0.422563458989909,0.186664159643873,ST
1.66666666666667,-4.05660581588745,-1.42178583145142,8.31957054138184,-0.533540010452271,-0.594515979290009,-0.0152439996600151,-1037.10009765625,18.3000011444092,-906.900024414062,2.61067665007079,-0.446964737190193,0.17014918138324,ST
1.7,-4.18700075149536,-2.09230422973633,8.40151596069336,-0.967993974685669,-0.426831990480423,0.78506600856781,-1046.70007324219,23.1000003814697,-902.100036621094,2.63208213273246,-0.450040179735148,0.244910289923923,ST
1.73333333333333,-4.17563629150391,-2.2352602481842,8.15089416503906,-1.02134799957275,0.0990860015153885,-0.67835795879364,-1044.30004882812,18.3000011444092,-899.700012207031,2.64456285554558,-0.458715065635755,0.269982252439886,ST
1.76666666666667,-4.73430156707764,-1.758540391922,8.87644195556641,-0.480185985565186,0.480185985565186,-1.34147191047668,-1034.70007324219,14.7000007629395,-902.100036621094,2.62135292490302,-0.482349307824845,0.197826909442562,ST
1.8,-4.07933521270752,-2.00019001960754,9.2287483215332,0.358233988285065,-0.304879993200302,-0.121951997280121,-1041.90002441406,20.7000007629395,-902.100036621094,2.62962021511761,-0.407339680113643,0.212826086146703,ST
1.83333333333333,-3.61697053909302,-1.77349388599396,8.18558692932129,0.503051996231079,-1.73019397258759,-0.647870004177094,-1044.30004882812,19.5,-904.500061035156,2.6336606535985,-0.404473511492858,0.212684422070777,ST
1.86666666666667,-3.99738955497742,-1.38948607444763,8.7221212387085,0.769822001457214,-0.990859985351562,-1.2347639799118,-1044.30004882812,24.9000015258789,-897.300048828125,2.62323452247633,-0.422935176924344,0.157561746548707,ST
1.9,-3.71506595611572,-1.36914920806885,9.04033279418945,1.02134799957275,-1.29574000835419,0.693601965904236,-1053.90002441406,14.7000007629395,-899.700012207031,2.61555033520509,-0.383941413102443,0.147919156717268,ST
1.93333333333333,-3.1767373085022,-1.62754702568054,8.429030418396,0.617381989955902,-1.77592599391937,0.525918006896973,-1049.10009765625,19.5,-894.900024414062,2.6251001501555,-0.351602050146483,0.189049805156242,ST
1.96666666666667,-3.35976910591125,-1.57790112495422,8.30282211303711,0.0533539988100529,-1.27287399768829,-0.0609759986400604,-1053.90002441406,18.3000011444092,-899.700012207031,2.62323169662971,-0.376139751598987,0.187591241427135,ST
2.0,-3.77069330215454,-1.32907366752625,8.59591293334961,-0.0609759986400604,-0.426831990480423,-0.0609759986400604,-1051.5,17.7000007629395,-894.900024414062,2.60989481583735,-0.408278794399182,0.153532306387472,ST
2.03333333333333,-4.08531665802002,-1.18851006031036,8.56241703033447,-0.106707997620106,0.0304879993200302,-0.0762199983000755,-1063.5,18.3000011444092,-911.700012207031,2.6038287645705,-0.441472290428132,0.138196361269424,ST
2.06666666666667,-4.17862701416016,-1.1376678943634,8.39732933044434,0.106707997620106,0.647870004177094,0.594515979290009,-1053.90002441406,14.7000007629395,-904.500061035156,2.5983007380225,-0.459349429344295,0.134047148720043,ST
2.1,-4.22468376159668,-1.08024621009827,8.40271282196045,0.259148001670837,0.739333987236023,0.724089980125427,-1049.10009765625,14.7000007629395,-902.100036621094,2.59078052884389,-0.464020166348482,0.126867980753539,ST
2.13333333333333,-4.45975399017334,-0.91575688123703,8.30282211303711,0.914639949798584,0.434453994035721,0.297257989645004,-1058.70007324219,15.3000001907349,-911.700012207031,2.58416729831825,-0.491180929123442,0.108042245484654,ST
2.16666666666667,-4.51897001266479,-1.52705895900726,8.76458930969238,0.640248000621796,0.297257989645004,1.89025592803955,-1041.90002441406,19.5,-904.500061035156,2.60047634476042,-0.471084304690727,0.169670211171185,ST
2.2,-4.41130447387695,-1.46844100952148,8.66948413848877,0.358233988285065,-0.769822001457214,-0.198172003030777,-1053.90002441406,13.5000009536743,-902.100036621094,2.60140623354565,-0.463625075122929,0.167225073413261,ST
2.23333333333333,-4.13914918899536,-1.52287197113037,8.54566860198975,-0.335367977619171,-1.00610399246216,-0.365855991840363,-1051.5,17.1000003814697,-897.300048828125,2.60591943211286,-0.4431448364439,0.177074106732549,ST
2.26666666666667,-4.18161773681641,-1.48339462280273,8.52114486694336,-0.92988395690918,-1.35671591758728,-0.243903994560242,-1058.70007324219,14.7000007629395,-894.900024414062,2.60092408545921,-0.447917656985971,0.17399119400656,ST
2.3,-3.94893980026245,-1.74119424819946,8.0414342880249,-1.05183601379395,-0.762199997901917,0.777444005012512,-1058.70007324219,19.5,-909.300048828125,2.60651787282162,-0.446471569990109,0.214235710151282,ST
2.33333333333333,-4.12180328369141,-2.2532045841217,8.2442045211792,-1.01372599601746,0.769822001457214,1.12805593013763,-1044.30004882812,23.1000003814697,-897.300048828125,2.6175697296677,-0.451179723753154,0.26775843104393,ST
2.36666666666667,-4.4681282043457,-2.32677626609802,8.30162620544434,-0.548784017562866,1.53964400291443,-0.342989981174469,-1044.30004882812,20.7000007629395,-906.900024414062,2.62469232850934,-0.480528619893472,0.274894677315966,ST
2.4,-4.80248975753784,-1.86022460460663,8.48346138000488,0.0381099991500378,1.63872992992401,0.0609759986400604,-1053.90002441406,26.1000003814697,-899.700012207031,2.59949537532232,-0.507887290870385,0.21617519737636,ST
2.43333333333333,-4.79710674285889,-2.14254808425903,8.18139934539795,0.0838419944047928,0.975615978240967,1.15854394435883,-1049.10009765625,21.9000015258789,-897.300048828125,2.6112910682663,-0.518114250256307,0.255082080817682,ST
2.46666666666667,-4.29526472091675,-2.06419134140015,7.76569032669067,-0.350611984729767,-0.0457319989800453,2.01220798492432,-1034.70007324219,18.3000011444092,-894.900024414062,2.59452965695494,-0.491748491633672,0.258580236640913,ST
2.5,-4.35866785049438,-2.03787302970886,8.12756633758545,-0.754577994346619,-0.0990860015153885,0.746955990791321,-1049.10009765625,23.1000003814697,-902.100036621094,2.57890637541579,-0.479823223091534,0.246320400848367,ST
2.53333333333333,-4.3161997795105,-2.0552191734314,8.53250980377197,-0.403965979814529,0.144817993044853,1.14329993724823,-1039.5,21.3000011444092,-904.500061035156,2.56345278158635,-0.457797936215063,0.236157650921799,ST
2.56666666666667,-4.26954460144043,-2.33455204963684,8.51157474517822,-0.472563982009888,-0.282013982534409,0.792688012123108,-1053.90002441406,12.3000001907349,-892.500061035156,2.56846293412905,-0.450466654310207,0.267760788428368,ST
2.6,-4.250403881073,-2.02830290794373,8.608473777771,0.0457319989800453,-0.419209986925125,-0.724089980125427,-1044.30004882812,20.7000007629395,-902.100036621094,2.55810354263689,-0.44700009675863,0.23188518445545,ST
2.63333333333333,-4.13615846633911,-2.31481337547302,7.66041707992554,0.525918006896973,-0.137196004390717,-0.37347799539566,-1046.70007324219,17.1000003814697,-902.100036621094,2.59006651488674,-0.476577821173935,0.2927200427646,ST
2.66666666666667,-4.25518894195557,-1.95652568340302,7.64366912841797,1.20427596569061,0.960371971130371,-2.13416004180908,-1049.10009765625,22.5,-906.900024414062,2.59588341658679,-0.495275891598482,0.25070079645828,ST
2.7,-5.12548732757568,-2.13417410850525,8.58694076538086,1.37195992469788,1.39482593536377,-1.43293595314026,-1041.90002441406,22.5,-902.100036621094,2.61342142272007,-0.526766131042197,0.242966823412505,ST
2.73333333333333,-5.01602697372437,-1.62336003780365,8.23583030700684,1.34909391403198,0.25152599811554,-0.907018005847931,-1041.90002441406,18.9000015258789,-906.900024414062,2.60199330189115,-0.538724339678294,0.19332132812399,ST
2.76666666666667,-4.83598613739014,-1.85125243663788,8.26274681091309,1.45580196380615,-0.259148001670837,0.25152599811554,-1041.90002441406,14.1000003814697,-894.900024414062,2.61849237101509,-0.518599792141886,0.217527192056477,ST
2.8,-4.79052686691284,-1.77349388599396,8.05459308624268,0.87652999162674,0.213415995240211,-0.46494197845459,-1056.30004882812,18.9000015258789,-904.500061035156,2.62561782866394,-0.526392372028131,0.215706028366759,ST
2.83333333333333,-4.73190927505493,-1.72205364704132,7.5730881690979,0.289635986089706,0.419209986925125,0.731711983680725,-1039.5,19.5,-904.500061035156,2.625527473131,-0.548173856882963,0.222411366779852,ST
2.86666666666667,-5.17513275146484,-2.0671820640564,7.76868104934692,-0.327746003866196,1.31098401546478,0.388722002506256,-1046.70007324219,21.3000011444092,-902.100036621094,2.64377608539275,-0.574323018458318,0.26054376609718,ST
2.9,-5.58306646347046,-2.09050965309143,8.22984886169434,-0.556405961513519,1.11281192302704,0.198172003030777,-1041.90002441406,17.7000007629395,-904.500061035156,2.63575673047488,-0.583589967277497,0.249837782786159,ST
2.93333333333333,-5.65484380722046,-2.26098036766052,8.1491003036499,-0.899396002292633,0.708845973014832,0.297257989645004,-1025.10009765625,12.3000001907349,-899.700012207031,2.64270543158073,-0.590703146816582,0.272063448452477,ST
2.96666666666667,-5.21640491485596,-2.43503999710083,8.2023344039917,-0.724089980125427,-0.236281991004944,1.2576299905777,-1027.5,19.5,-894.900024414062,2.63642889439454,-0.547752622112579,0.288482284666238,ST
3.0,-5.18231058120728,-2.39197373390198,7.67237997055054,-0.388722002506256,-0.952749967575073,0.701223969459534,-1039.5,12.9000005722046,-887.700012207031,2.63418269439987,-0.571474934665556,0.301801431579127,ST
3.03333333333333,-5.15240335464478,-2.30165410041809,8.11799621582031,0.586893975734711,-0.0381099991500378,0.586893975734711,-1041.90002441406,19.5,-911.700012207031,2.6181138822565,-0.548444993733939,0.274680864362747,ST
3.06666666666667,-5.00645685195923,-2.04026556015015,8.10364055633545,1.32622802257538,-0.37347799539566,0.510673999786377,-1034.70007324219,20.1000003814697,-902.100036621094,2.60377676347663,-0.539362176994344,0.243768712993316,ST
3.1,-4.81146192550659,-1.72624063491821,7.18788385391235,1.43293595314026,-0.830797970294952,1.82927989959717,-1032.30004882812,12.3000001907349,-897.300048828125,2.58881117617143,-0.576255870474788,0.230979920338125,ST
3.13333333333333,-4.79830312728882,-1.14723825454712,7.72681093215942,1.61586391925812,-0.190549999475479,0.83841997385025,-1027.5,18.9000015258789,-904.500061035156,2.54345752339182,-0.550739449709058,0.143711853926471,ST
3.16666666666667,-4.68465566635132,-1.38350474834442,7.40441179275513,1.03659200668335,-0.266770005226135,1.21189796924591,-1046.70007324219,17.1000003814697,-897.300048828125,2.55838384613917,-0.556302907939528,0.181524893125221,ST
3.2,-4.51358699798584,-1.08204066753387,7.6269211769104,0.830797970294952,-0.0533539988100529,0.594515979290009,-1046.70007324219,14.1000003814697,-904.500061035156,2.53555501694644,-0.530105718178406,0.138940033791112,ST
3.23333333333333,-4.79890108108521,-1.48997414112091,8.04023742675781,0.541162014007568,-0.160062000155449,0.891773998737335,-1025.10009765625,20.7000007629395,-892.500061035156,2.55230689588207,-0.530714233116985,0.181293480803683,ST
3.26666666666667,-4.99688625335693,-1.12510693073273,8.32854270935059,0.739333987236023,0.381099998950958,0.510673999786377,-1034.70007324219,16.5,-897.300048828125,2.52741696565707,-0.537185786488012,0.132594870164325,ST
3.3,-4.80548048019409,-0.942673325538635,8.04502296447754,1.44055795669556,0.571649968624115,1.60824191570282,-1034.70007324219,23.1000003814697,-894.900024414062,2.51183887343272,-0.536763622939469,0.11257181980152,ST
3.33333333333333,-4.51777362823486,-1.53543305397034,8.47389125823975,0.975615978240967,0.907018005847931,0.0533539988100529,-1032.30004882812,17.1000003814697,-902.100036621094,2.55435163754875,-0.48470697358177,0.177648518436731,ST
3.36666666666667,-4.65654325485229,-1.89730954170227,8.56839847564697,-0.419209986925125,0.922261953353882,-1.2423859834671,-1025.10009765625,15.9000005722046,-909.300048828125,2.58376756208357,-0.488922324795913,0.219887854649375,ST
3.4,-4.48427772521973,-1.70470750331879,8.15388488769531,0.266770005226135,-0.472563982009888,-1.06708002090454,-1032.30004882812,15.9000005722046,-902.100036621094,2.58658672032296,-0.492635235800244,0.206537982341649,ST
3.43333333333333,-4.11641979217529,-1.59704172611237,8.3757963180542,1.31860601902008,-0.556405961513519,-2.01220798492432,-1020.30004882812,19.5,-911.700012207031,2.60012506500817,-0.448202600964878,0.187701884334103,ST
3.46666666666667,-3.92262148857117,-2.47631192207336,7.73997020721436,0.571649968624115,-1.02134799957275,-0.37347799539566,-1027.5,12.9000005722046,-894.900024414062,2.65539005882147,-0.447821252413337,0.308486357106526,ST
3.5,-3.89211630821228,-2.09469676017761,8.11560344696045,0.647870004177094,-0.762199997901917,-1.36433792114258,-1034.70007324219,15.3000001907349,-914.100036621094,2.64338297166851,-0.432877643910298,0.252467704937645,ST
3.53333333333333,-4.13256978988647,-2.11383724212646,8.488844871521,0.609759986400604,-1.12043392658234,-0.510673999786377,-1037.10009765625,16.5,-897.300048828125,2.64371286531118,-0.439199966800567,0.24318541642122,ST
3.56666666666667,-4.11941051483154,-1.48877787590027,8.09765911102295,1.09756803512573,-1.21189796924591,0.327746003866196,-1034.70007324219,15.9000005722046,-897.300048828125,2.61588637720352,-0.461898132049861,0.179542603079469,ST
3.6,-3.81136703491211,-1.44032824039459,8.08091163635254,1.31098401546478,-1.18903195858002,1.2576299905777,-1034.70007324219,16.5,-902.100036621094,2.60610690055711,-0.433092077213276,0.172940755237173,ST
3.63333333333333,-4.52255916595459,-1.61319160461426,8.69640064239502,0.198172003030777,-0.487807989120483,0.701223969459534,-1034.70007324219,18.9000015258789,-906.900024414062,2.60463980664092,-0.471988186451809,0.182361391721516,ST
3.66666666666667,-4.42266893386841,-1.79143822193146,8.59531402587891,-0.556405961513519,0.221037998795509,0.708845973014832,-1037.10009765625,14.1000003814697,-918.900024414062,2.60760352644078,-0.467257287999391,0.205839776888966,ST
3.7,-3.99918389320374,-1.76452171802521,8.96795749664307,-0.807931959629059,-0.0228659994900227,0.0914639979600906,-1032.30004882812,16.5,-911.700012207031,2.59940956373423,-0.412536952689072,0.195630872266711,ST
3.73333333333333,-3.44709801673889,-1.98224580287933,7.98939561843872,-0.564027965068817,-0.960371971130371,0.221037998795509,-1039.5,18.9000015258789,-911.700012207031,2.61259108595766,-0.395071303051538,0.243779484411237,ST
3.76666666666667,-3.51109933853149,-1.45887064933777,8.44518089294434,0.274392008781433,-0.358233988285065,-1.15092194080353,-1034.70007324219,21.9000015258789,-904.500061035156,2.59503574908536,-0.387880158500845,0.171463341122012,ST
3.8,-3.65704607963562,-1.37991583347321,8.13474464416504,1.36433792114258,-0.335367977619171,0.396344006061554,-1039.5,16.5,-911.700012207031,2.5938833571357,-0.416697554328212,0.165316550038758,ST
3.83333333333333,-4.06258726119995,-1.81476581096649,9.02657604217529,1.63110792636871,-0.282013982534409,0.167683988809586,-1044.30004882812,12.9000005722046,-902.100036621094,2.61024282219741,-0.4151245152663,0.195336454531319,ST
3.86666666666667,-4.16427135467529,-1.60421943664551,9.00922966003418,1.64635193347931,-1.10518991947174,-0.243903994560242,-1046.70007324219,16.5,-902.100036621094,2.60850852548527,-0.42507783808547,0.173397656007643,ST
3.9,-4.52973651885986,-1.31053125858307,9.5385856628418,1.2347639799118,-1.52439999580383,-0.228659987449646,-1027.5,17.1000003814697,-904.500061035156,2.59712155944865,-0.437033610589392,0.134462761472828,ST
3.93333333333333,-4.16845846176147,-1.7124832868576,9.48834228515625,0.92988395690918,-2.53812599182129,1.03659200668335,-1049.10009765625,12.3000001907349,-909.300048828125,2.60518075182851,-0.404080934927328,0.175772082505663,ST
3.96666666666667,-4.04404449462891,-2.04445266723633,8.58753871917725,0.121951997280121,-2.04269599914551,1.60824191570282,-1053.90002441406,15.3000001907349,-914.100036621094,2.60931885688205,-0.426744124877587,0.231856678427552,ST
4.0,-4.14812135696411,-1.40982294082642,8.31957054138184,0.0152439996600151,-0.83841997385025,0.0533539988100529,-1051.5,15.3000001907349,-897.300048828125,2.58032433814399,-0.455424015744505,0.167780123735105,ST
4.03333333333333,-4.26057243347168,-0.977963745594025,8.06775283813477,0.167683988809586,-0.403965979814529,0.922261953353882,-1056.30004882812,17.7000007629395,-906.900024414062,2.55130832652582,-0.482317090816464,0.119537841310127,ST
4.06666666666667,-4.45855760574341,-0.925925314426422,7.96905899047852,-0.0381099991500378,-0.144817993044853,1.58537602424622,-1049.10009765625,19.5,-902.100036621094,2.53574886357137,-0.507266533980753,0.114203817497757,ST
4.1,-4.43283748626709,-0.873288750648499,7.71066093444824,0.0152439996600151,0.221037998795509,1.84452390670776,-1051.5,12.9000005722046,-909.300048828125,2.51842177763513,-0.519738258290177,0.110947419506914,ST
4.13333333333333,-4.71336650848389,-0.760239720344543,7.93077754974365,-0.350611984729767,0.213415995240211,1.265251994133,-1049.10009765625,17.7000007629395,-902.100036621094,2.49888186306329,-0.534776803086036,0.0949254118557886,ST
4.16666666666667,-4.706787109375,-1.34283101558685,7.99836778640747,-1.00610399246216,0.205793991684914,1.44817996025085,-1044.30004882812,15.3000001907349,-904.500061035156,2.51793009999137,-0.526622386747389,0.166621489558745,ST
4.2,-4.66372060775757,-1.34821426868439,8.54088306427002,-1.11281192302704,-0.190549999475479,0.708845973014832,-1046.70007324219,14.7000007629395,-914.100036621094,2.50281214041292,-0.494563137909295,0.157830951373961,ST
4.23333333333333,-4.40592098236084,-1.13527536392212,8.26155090332031,0.129574000835419,-1.265251994133,0.800309956073761,-1046.70007324219,15.9000005722046,-916.500061035156,2.48497503603744,-0.484079741388543,0.135486080999019,ST
4.26666666666667,-4.24801158905029,-1.10297560691833,7.74236249923706,0.853663980960846,-1.05183601379395,0.891773998737335,-1061.10009765625,18.9000015258789,-899.700012207031,2.48175273334631,-0.495984200201962,0.139040296565315,ST
4.3,-4.27552604675293,-1.03538548946381,7.95709609985352,1.2423859834671,0.137196004390717,0.556405961513519,-1051.5,20.7000007629395,-909.300048828125,2.47699483907925,-0.489937561084828,0.126748798348976,ST
4.33333333333333,-4.52794218063354,-1.2118376493454,8.72870063781738,0.868907988071442,0.0838419944047928,0.640248000621796,-1056.30004882812,8.70000076293945,-906.900024414062,2.47980357786026,-0.47495932621252,0.135861573613844,ST
4.36666666666667,-4.69542217254639,-0.973776757717133,8.64137172698975,0.289635986089706,-0.442075997591019,0.144817993044853,-1046.70007324219,15.9000005722046,-902.100036621094,2.46815371017073,-0.494322678057582,0.111567490980697,ST
4.4,-4.35986423492432,-1.11673295497894,9.0193977355957,-0.0152439996600151,-0.167683988809586,0.472563982009888,-1051.5,11.1000003814697,-914.100036621094,2.46913291057151,-0.447184352217744,0.122785938479842,ST
4.43333333333333,-4.19118785858154,-1.08981645107269,8.21848487854004,-0.190549999475479,-0.541162014007568,1.21951997280121,-1039.5,18.3000011444092,-897.300048828125,2.46144144247836,-0.467382266905246,0.131028183669815,ST
4.46666666666667,-4.13675689697266,-1.31950342655182,8.60966968536377,-0.266770005226135,0.571649968624115,0.434453994035721,-1046.70007324219,9.30000019073486,-906.900024414062,2.4668392085146,-0.444532370143519,0.152220813598078,ST
4.5,-4.01832437515259,-1.32309222221375,8.30521488189697,-0.266770005226135,0.564027965068817,0.190549999475479,-1034.70007324219,14.1000003814697,-906.900024414062,2.46747834092948,-0.446757821829057,0.158357274941106,ST
4.53333333333333,-3.75334715843201,-1.14065861701965,7.53839588165283,-0.342989981174469,0.449698001146317,0.525918006896973,-1058.70007324219,6.90000009536743,-909.300048828125,2.45855181385183,-0.458365230835044,0.150390980142022,ST
4.56666666666667,-3.96508979797363,-1.48997414112091,8.17900657653809,-0.716467976570129,0.78506600856781,0.213415995240211,-1044.30004882812,11.7000007629395,-904.500061035156,2.46860840517389,-0.446464504478874,0.181336268528659,ST
4.6,-4.27193689346313,-1.46365582942963,8.64854907989502,-0.663114011287689,0.914639949798584,-0.0685980021953583,-1046.70007324219,15.3000001907349,-902.100036621094,2.4623357474019,-0.454759641046732,0.169003791161371,ST
4.63333333333333,-3.9537250995636,-1.26267981529236,8.36443138122559,-0.228659987449646,0.152439996600151,0.472563982009888,-1037.10009765625,18.3000011444092,-906.900024414062,2.44949318537232,-0.437633763570702,0.149894125657954,ST
4.66666666666667,-3.67618680000305,-1.69752979278564,8.04442501068115,-0.411587983369827,0.0457319989800453,-0.137196004390717,-1044.30004882812,15.9000005722046,-899.700012207031,2.47360870441622,-0.420530075145284,0.208702402918893,ST
4.7,-4.22946882247925,-1.61259341239929,8.4236478805542,-0.564027965068817,0.205793991684914,0.236281991004944,-1041.90002441406,24.9000015258789,-906.900024414062,2.46178057693983,-0.458512633270863,0.189997710720245,ST
4.73333333333333,-3.79162836074829,-1.47322618961334,7.80636405944824,-0.198172003030777,-0.0838419944047928,-0.25152599811554,-1041.90002441406,16.5,-899.700012207031,2.46163529478075,-0.445107691051618,0.187070932905054,ST
4.76666666666667,-3.71207523345947,-1.89013183116913,8.07612609863281,-0.381099998950958,0.46494197845459,0.937505960464478,-1037.10009765625,12.9000005722046,-911.700012207031,2.4713463978781,-0.422009122724548,0.229863973696305,ST
4.8,-4.12658834457397,-2.04744338989258,8.84354400634766,-0.434453994035721,-0.274392008781433,-0.518296003341675,-1034.70007324219,18.9000015258789,-909.300048828125,2.47289832398265,-0.425992569535775,0.228621246488384,ST
4.83333333333333,-3.80598378181458,-1.32488667964935,8.54985523223877,-0.129574000835419,-1.21189796924591,-0.403965979814529,-1041.90002441406,11.7000007629395,-906.900024414062,2.44379140481478,-0.412250659261386,0.154248525515995,ST
4.86666666666667,-3.79222655296326,-1.75136256217957,8.39015102386475,-0.236281991004944,-0.144817993044853,0.411587983369827,-1041.90002441406,18.3000011444092,-904.500061035156,2.45962928166455,-0.416453040678692,0.205822892868367,ST
4.9,-3.98542666435242,-1.09460163116455,9.30710506439209,0.0838419944047928,-0.815553963184357,0.571649968624115,-1041.90002441406,20.7000007629395,-897.300048828125,2.41838971973037,-0.40083022183889,0.116524564851437,ST
4.93333333333333,-3.6492702960968,-1.44630968570709,8.75621509552002,0.0076219998300075,-0.708845973014832,1.44055795669556,-1061.10009765625,20.1000003814697,-911.700012207031,2.42228310240461,-0.389314638740081,0.162536727177784,ST
4.96666666666667,-3.48238849639893,-1.48578715324402,8.69759654998779,-0.236281991004944,-0.708845973014832,0.830797970294952,-1046.70007324219,16.5,-909.300048828125,2.41584138636636,-0.37494916585768,0.16895119588513,ST
5.0,-4.05540943145752,-1.39187872409821,8.81543064117432,0.388722002506256,-0.121951997280121,0.952749967575073,-1049.10009765625,14.7000007629395,-899.700012207031,2.4032190368961,-0.426518289719008,0.15517009799519,ST
5.03333333333333,-4.14871978759766,-1.66283750534058,8.32674789428711,1.15092194080353,0.884151995182037,0.0838419944047928,-1051.5,18.9000015258789,-904.500061035156,2.42558704873499,-0.45597568127988,0.195107046495845,ST
5.06666666666667,-4.7606201171875,-1.95413303375244,9.47996807098389,1.47104597091675,1.65397393703461,-1.83690190315247,-1041.90002441406,13.5000009536743,-897.300048828125,2.45247332051241,-0.459272369296153,0.202546584386967,ST
5.1,-4.59852313995361,-1.53782558441162,8.77176666259766,1.31098401546478,-0.0228659994900227,-2.40855193138123,-1044.30004882812,17.7000007629395,-914.100036621094,2.46576560829967,-0.475871426208975,0.173423207728368,ST
5.13333333333333,-4.54708290100098,-1.08802211284637,8.69340991973877,1.76068198680878,-0.792688012123108,-2.77440786361694,-1022.70001220703,5.70000028610229,-906.900024414062,2.47215303325727,-0.476756668799416,0.123909331286545,ST
5.16666666666667,-4.04524087905884,-1.56534016132355,7.46721696853638,1.13567793369293,-0.952749967575073,-0.205793991684914,-1041.90002441406,19.5,-894.900024414062,2.51455249378098,-0.485809822301959,0.204525249743261,ST
5.2,-4.05540943145752,-1.12630319595337,7.71125936508179,0.442075997591019,-0.213415995240211,-1.31098401546478,-1056.30004882812,17.1000003814697,-904.500061035156,2.49935894037505,-0.479133794942986,0.14550800781872,ST
5.23333333333333,-4.14752340316772,-0.64838695526123,7.6029953956604,0.609759986400604,-0.266770005226135,0.495429992675781,-1056.30004882812,15.3000001907349,-897.300048828125,2.46876841592218,-0.497449309050498,0.0836243445158473,ST
5.26666666666667,-4.49085760116577,-0.940878868103027,8.46432113647461,0.46494197845459,0.533540010452271,0.144817993044853,-1049.10009765625,13.5000009536743,-887.700012207031,2.48245148076939,-0.486228723796943,0.109780164796665,ST
5.3,-4.62843036651611,-1.60122871398926,8.09825801849365,-0.685979962348938,0.510673999786377,1.05183601379395,-1046.70007324219,20.1000003814697,-904.500061035156,2.51277445958725,-0.512194272530239,0.19534594228125,ST
5.33333333333333,-4.51837205886841,-1.26028728485107,8.67785835266113,-0.967993974685669,0.685979962348938,-1.2500079870224,-1032.30004882812,18.3000011444092,-909.300048828125,2.49672351729722,-0.476715946523687,0.147193627962111,ST
5.36666666666667,-4.54229784011841,-1.80100846290588,8.20412921905518,-1.56251001358032,0.106707997620106,-0.175305992364883,-1039.5,15.9000005722046,-904.500061035156,2.52501403300139,-0.495825956058048,0.218887553990136,ST
5.4,-4.48308134078979,-2.33634638786316,9.02119255065918,-1.47104597091675,0.533540010452271,-0.274392008781433,-1037.10009765625,18.3000011444092,-902.100036621094,2.53916680101985,-0.449224528387697,0.256282575854516,ST
5.43333333333333,-4.71396493911743,-2.80947756767273,8.40450668334961,-1.65397393703461,0.0457319989800453,0.304879993200302,-1046.70007324219,22.5,-904.500061035156,2.56045853214487,-0.489087147536311,0.325164884839955,ST
5.46666666666667,-4.70319795608521,-2.26576566696167,8.53011703491211,-0.327746003866196,0.617381989955902,-1.37958192825317,-1044.30004882812,14.1000003814697,-894.900024414062,2.5413422620272,-0.490026271656853,0.261690299012912,ST
5.5,-4.64577627182007,-2.64439010620117,7.9337682723999,0.0533539988100529,0.663114011287689,1.14329993724823,-1044.30004882812,16.5,-899.700012207031,2.56269813671096,-0.508772114695145,0.32068472082057,ST
5.53333333333333,-4.92391300201416,-1.73222208023071,8.36742210388184,1.2576299905777,0.792688012123108,-0.503051996231079,-1027.5,20.1000003814697,-892.500061035156,2.51585871733599,-0.523930351179406,0.202754157875055,ST
5.56666666666667,-4.60151386260986,-1.79203629493713,8.6981954574585,1.42531394958496,-0.152439996600151,1.36433792114258,-1037.10009765625,18.3000011444092,-902.100036621094,2.50881804811705,-0.47830192220379,0.199458685324955,ST
5.6,-3.84546113014221,-2.08632278442383,7.86199140548706,0.945127964019775,-0.685979962348938,1.41769194602966,-1044.30004882812,13.5000009536743,-904.500061035156,2.5250418041964,-0.441150038262278,0.256373018618092,ST
5.63333333333333,-3.89151811599731,-1.45288932323456,8.51935005187988,1.02897000312805,-0.632625997066498,0.807931959629059,-1034.70007324219,12.9000005722046,-899.700012207031,2.48373329418683,-0.4222714570415,0.166557646980914,ST
5.66666666666667,-3.67618680000305,-1.70470750331879,8.2860746383667,1.2347639799118,-1.44055795669556,2.20275783538818,-1032.30004882812,18.3000011444092,-911.700012207031,2.47973541418957,-0.408249104217371,0.19886454979158,ST
5.7,-3.63431668281555,-1.70710003376007,8.71793365478516,1.09756803512573,-0.731711983680725,0.586893975734711,-1037.10009765625,17.1000003814697,-906.900024414062,2.47415001644768,-0.387288437817877,0.190947113583913,ST
5.73333333333333,-3.2628698348999,-1.5623494386673,8.48585414886475,0.830797970294952,-1.96647596359253,0.243903994560242,-1034.70007324219,13.5000009536743,-904.500061035156,2.46784363510371,-0.358278795799773,0.180251067397187,ST
5.76666666666667,-3.41479825973511,-1.63472473621368,8.31418704986572,0.67835795879364,-1.85214591026306,-0.221037998795509,-1041.90002441406,17.1000003814697,-904.500061035156,2.47353486516852,-0.379811054874499,0.192839336793331,ST
5.8,-3.40941500663757,-1.62754702568054,8.3100004196167,0.426831990480423,-1.2347639799118,-1.2347639799118,-1046.70007324219,12.9000005722046,-914.100036621094,2.4835196598466,-0.380240937744402,0.193339817666506,ST
5.83333333333333,-3.72762703895569,-1.52406823635101,8.59232425689697,0.175305992364883,-1.41769194602966,-1.18140995502472,-1046.70007324219,12.9000005722046,-911.700012207031,2.48525399186216,-0.4008711927576,0.17594966455505,ST
5.86666666666667,-4.16008424758911,-1.48100197315216,8.3279447555542,0.342989981174469,-1.41769194602966,-0.182927995920181,-1049.10009765625,18.3000011444092,-904.500061035156,2.48589883223939,-0.454554459296649,0.175338922729624,ST
5.9,-4.97834396362305,-0.973178625106812,8.64914703369141,1.20427596569061,0.144817993044853,-0.0533539988100529,-1049.10009765625,14.7000007629395,-899.700012207031,2.46128973542853,-0.519695813863244,0.110124236847293,ST
5.93333333333333,-5.25588226318359,-0.763828575611115,9.66300010681152,1.89787793159485,-0.37347799539566,0.830797970294952,-1041.90002441406,12.3000001907349,-899.700012207031,2.44557338728444,-0.496356580727119,0.0748172135113191,ST
5.96666666666667,-4.96398830413818,-0.535936117172241,8.55942630767822,1.73781597614288,-1.84452390670776,0.92988395690918,-1046.70007324219,14.7000007629395,-914.100036621094,2.43717804483395,-0.521536415472538,0.0584798157822219,ST
6.0,-4.39993953704834,0.104675017297268,8.14790344238281,1.04421401023865,-0.716467976570129,0.990859985351562,-1056.30004882812,11.7000007629395,-902.100036621094,2.39780982885518,-0.493878302121298,-0.0154712393424272,ST
6.03333333333333,-4.00456714630127,0.449205368757248,8.57138919830322,0.685979962348938,-0.960371971130371,0.99848198890686,-1051.5,23.1000003814697,-909.300048828125,2.37524852057856,-0.434871511219536,-0.054263311874627,ST
6.06666666666667,-3.8478536605835,0.226696193218231,8.75501823425293,0.503051996231079,-1.43293595314026,2.34757590293884,-1053.90002441406,15.3000001907349,-906.900024414062,2.36829618307028,-0.411388838789047,-0.0285669114652834,ST
6.1,-3.09000658988953,-0.275743901729584,8.58215522766113,0.533540010452271,-0.716467976570129,1.6844619512558,-1063.5,14.1000003814697,-911.700012207031,2.37698625440277,-0.344384781198324,0.0300232713723134,ST
6.13333333333333,-3.53263235092163,-0.699229121208191,7.80098056793213,-0.434453994035721,0.0076219998300075,-0.640248000621796,-1046.70007324219,13.5000009536743,-902.100036621094,2.40387620493732,-0.423565832648329,0.0906048023068312,ST
6.16666666666667,-4.76600313186646,-0.171068891882896,8.73288726806641,-0.0762199983000755,1.14329993724823,-1.12043392658234,-1051.5,12.9000005722046,-909.300048828125,2.38185494043869,-0.50132284531109,0.020931137564531,ST
6.2,-4.56921434402466,-0.672312676906586,8.716139793396,0.571649968624115,0.350611984729767,0.0838419944047928,-1051.5,14.1000003814697,-899.700012207031,2.4098847523397,-0.482262047305001,0.0758770985724996,ST
6.23333333333333,-4.54648494720459,-1.00308573246002,8.64316558837891,0.221037998795509,0.0990860015153885,0.754577994346619,-1051.5,14.7000007629395,-909.300048828125,2.42235919728415,-0.481818954757151,0.114439834685378,ST
6.26666666666667,-3.78026366233826,-1.47382426261902,8.93386363983154,-0.701223969459534,-0.853663980960846,-0.160062000155449,-1046.70007324219,9.90000057220459,-914.100036621094,2.44130432942437,-0.39412782039639,0.164655506535929,ST
6.3,-3.42436861991882,-1.56414389610291,8.61565113067627,-1.2576299905777,-1.47866797447205,-0.533540010452271,-1056.30004882812,9.90000057220459,-899.700012207031,2.44563787352336,-0.370100309973148,0.181944918285097,ST
6.33333333333333,-2.76700949668884,-1.81955087184906,7.86857080459595,-0.983237981796265,-0.815553963184357,-0.0304879993200302,-1051.5,12.3000001907349,-892.500061035156,2.45714638264942,-0.328722588354466,0.228825681251087,ST
6.36666666666667,-2.91953587532043,-2.25679349899292,8.20412921905518,-1.17378795146942,-0.129574000835419,-0.571649968624115,-1065.90002441406,12.3000001907349,-906.900024414062,2.47172024617839,-0.330044195973936,0.270729115962976,ST
6.4,-3.01763129234314,-1.84706544876099,7.8296914100647,-1.28811800479889,-0.114329993724823,-1.63110792636871,-1063.5,15.9000005722046,-904.500061035156,2.46902227773839,-0.357967572752145,0.234996432085618,ST
6.43333333333333,-3.26167368888855,-2.03847122192383,8.05160236358643,-1.51677799224854,0.442075997591019,-0.983237981796265,-1063.5,20.1000003814697,-897.300048828125,2.47903458879675,-0.374503715917609,0.251319599422968,ST
6.46666666666667,-3.63670921325684,-1.93798327445984,8.76399040222168,-1.32622802257538,0.106707997620106,0.0533539988100529,-1065.90002441406,20.1000003814697,-894.900024414062,2.46260113687215,-0.385143527949632,0.219974360819685,ST
6.5,-3.54997849464417,-2.22868061065674,9.03494930267334,-1.21189796924591,0.0076219998300075,0.228659987449646,-1058.70007324219,23.7000007629395,-899.700012207031,2.46539836405382,-0.364584648553169,0.24377443366483,ST
6.53333333333333,-3.80060052871704,-2.21432518959045,9.66957950592041,-1.16616594791412,-0.46494197845459,-0.525918006896973,-1070.70007324219,15.9000005722046,-902.100036621094,2.45923532345614,-0.364881934235399,0.227452475539258,ST
6.56666666666667,-4.06677389144897,-2.47332119941711,9.87414455413818,-0.922261953353882,-0.83841997385025,1.6768399477005,-1049.10009765625,15.9000005722046,-906.900024414062,2.44480690971249,-0.379373985108594,0.24575959453236,ST
6.6,-3.67977547645569,-2.36087036132812,10.5949068069458,-0.426831990480423,-1.13567793369293,0.175305992364883,-1061.10009765625,21.9000015258789,-892.500061035156,2.43071393080326,-0.325046038752127,0.219780252832219,ST
6.63333333333333,-2.76760745048523,-1.62934148311615,9.27061748504639,-0.0914639979600906,-2.78202986717224,1.30336201190948,-1065.90002441406,12.9000005722046,-916.500061035156,2.40082883863459,-0.281652555994888,0.17331860341087,ST
6.66666666666667,-2.38539409637451,-2.23226952552795,7.51207780838013,-0.297257989645004,-0.884151995182037,1.15854394435883,-1056.30004882812,20.1000003814697,-904.500061035156,2.42088405345403,-0.2945513091233,0.288453126982292,ST
6.7,-3.63969993591309,-1.96729218959808,7.88113164901733,-0.533540010452271,1.06708002090454,0.129574000835419,-1068.30004882812,12.9000005722046,-904.500061035156,2.40497215649317,-0.423035209383633,0.245685252975212,ST
6.73333333333333,-4.2444224357605,-2.34113168716431,7.68852996826172,-0.556405961513519,0.907018005847931,-0.182927995920181,-1046.70007324219,21.3000011444092,-914.100036621094,2.42874342035308,-0.487217064407181,0.296885267717697,ST
6.76666666666667,-4.53571796417236,-3.2048499584198,8.46013450622559,-0.899396002292633,1.37958192825317,-0.419209986925125,-1061.10009765625,15.3000001907349,-906.900024414062,2.46333559317769,-0.466747774764058,0.364390051704061,ST
6.8,-4.34191989898682,-1.94934797286987,7.44687986373901,-0.160062000155449,0.0914639979600906,-0.541162014007568,-1068.30004882812,15.3000001907349,-909.300048828125,2.41668950571161,-0.513443926195136,0.256927311715629,ST
6.83333333333333,-4.23963737487793,-2.42666602134705,7.9935827255249,-0.358233988285065,0.175305992364883,0.243903994560242,-1063.5,20.7000007629395,-909.300048828125,2.43170327932462,-0.470125920116573,0.295136535574029,ST
6.86666666666667,-4.43762254714966,-2.46614336967468,8.34768295288086,-0.907018005847931,-0.846041977405548,0.899396002292633,-1056.30004882812,23.7000007629395,-906.900024414062,2.41555844281323,-0.470499381270173,0.287874055187521,ST
6.9,-4.60928964614868,-3.45307946205139,8.64675521850586,-1.76830399036407,0.266770005226135,1.69970595836639,-1061.10009765625,18.3000011444092,-906.900024414062,2.43809865773832,-0.461232320222078,0.381593747026903,ST
6.93333333333333,-4.48427772521973,-2.45118999481201,8.58095932006836,-0.586893975734711,0.586893975734711,-0.823175966739655,-1061.10009765625,11.1000003814697,-899.700012207031,2.39837961088276,-0.466217899441556,0.28023727219355,ST
6.96666666666667,-3.59962439537048,-2.99011659622192,7.99118995666504,-0.282013982534409,-0.746955990791321,0.922261953353882,-1049.10009765625,23.7000007629395,-899.700012207031,2.42000184602947,-0.398658044098583,0.35761482545155,ST
7.0,-3.50571584701538,-3.49494934082031,7.21659517288208,-0.487807989120483,-0.0457319989800453,0.777444005012512,-1061.10009765625,21.3000011444092,-916.500061035156,2.44904641362016,-0.412666811801318,0.451149384615606,ST
7.03333333333333,-3.68874764442444,-2.59534239768982,8.1371374130249,0.884151995182037,0.701223969459534,-1.63872992992401,-1056.30004882812,23.7000007629395,-902.100036621094,2.41048494807597,-0.407996149017601,0.308780809406417,ST
7.06666666666667,-3.81675028800964,-3.04634213447571,7.99657344818115,1.18140995502472,0.167683988809586,0.846041977405548,-1051.5,21.9000015258789,-897.300048828125,2.42964895143217,-0.42033636413981,0.361317293562683,ST
7.1,-3.95851016044617,-2.60909962654114,8.93984508514404,1.63110792636871,0.0990860015153885,0.800309956073761,-1056.30004882812,16.5,-909.300048828125,2.39710720527871,-0.402509439456458,0.280698484939743,ST
7.13333333333333,-3.29038453102112,-2.4236752986908,9.1450080871582,2.0655620098114,-0.800309956073761,1.08232402801514,-1063.5,20.7000007629395,-904.500061035156,2.38338912291263,-0.333949080903212,0.254749547318443,ST
7.16666666666667,-2.88304901123047,-2.01334929466248,8.69939136505127,2.14178204536438,-1.51677799224854,1.10518991947174,-1056.30004882812,12.9000005722046,-916.500061035156,2.36698674901765,-0.310195274969119,0.22295136007938,ST
7.2,-2.74368190765381,-2.36326289176941,8.61624908447266,1.54726600646973,-0.92988395690918,0.945127964019775,-1056.30004882812,14.7000007629395,-899.700012207031,2.37342750118914,-0.296836171775585,0.264309919511926,ST
7.23333333333333,-2.924320936203,-1.54021811485291,8.65213775634766,0.975615978240967,-0.739333987236023,0.175305992364883,-1056.30004882812,19.5,-899.700012207031,2.3461727792424,-0.319992449760182,0.174385006725259,ST
7.26666666666667,-3.13247466087341,-1.41819703578949,8.440993309021,0.891773998737335,-0.480185985565186,0.434453994035721,-1056.30004882812,17.1000003814697,-899.700012207031,2.3412712102241,-0.350092356921687,0.164591127254366,ST
7.3,-3.18032622337341,-0.645396292209625,7.84524297714233,1.57775402069092,0.518296003341675,0.762199997901917,-1061.10009765625,17.7000007629395,-909.300048828125,2.3097692715237,-0.384918841628429,0.078963770309421,ST
7.33333333333333,-3.96688413619995,-1.52466642856598,8.93027496337891,0.868907988071442,1.28811800479889,1.81403601169586,-1056.30004882812,19.5,-902.100036621094,2.33286296039953,-0.415433407309238,0.166283515602256,ST
7.36666666666667,-4.37721014022827,-0.896018147468567,9.70666408538818,1.15854394435883,0.358233988285065,0.282013982534409,-1053.90002441406,17.7000007629395,-918.900024414062,2.3042905635993,-0.422718076992873,0.0898927750484782,ST
7.4,-4.50222206115723,-1.20226740837097,9.67556095123291,1.12805593013763,-0.632625997066498,-0.0609759986400604,-1046.70007324219,12.3000001907349,-909.300048828125,2.3216496247318,-0.431474810184591,0.121588872750271,ST
7.43333333333333,-3.71267342567444,-0.971982300281525,8.10782814025879,1.18903195858002,-0.663114011287689,0.0457319989800453,-1056.30004882812,17.7000007629395,-899.700012207031,2.32330257149699,-0.425590214870278,0.117146307237118,ST
7.46666666666667,-4.15171051025391,-0.711192011833191,8.63718414306641,0.960371971130371,0.243903994560242,-0.403965979814529,-1070.70007324219,17.7000007629395,-902.100036621094,2.3152987121887,-0.447085706430392,0.0808930670353254,ST
7.5,-4.13137340545654,-0.928916037082672,7.8715615272522,0.830797970294952,0.327746003866196,0.708845973014832,-1053.90002441406,15.3000001907349,-902.100036621094,2.32874856800516,-0.481143530588169,0.115351405767998,ST
7.53333333333333,-4.03507232666016,-0.721360445022583,8.1491003036499,0.754577994346619,1.18140995502472,0.0685980021953583,-1061.10009765625,20.7000007629395,-909.300048828125,2.31936204373536,-0.460313863511385,0.0870505279382985,ST
7.56666666666667,-4.10146617889404,-1.01983380317688,8.43860149383545,0.617381989955902,0.739333987236023,0.411587983369827,-1053.90002441406,9.90000057220459,-904.500061035156,2.33315284290685,-0.450953033421636,0.11886991174495,ST
7.6,-4.32038688659668,-0.960019469261169,8.452956199646,0.487807989120483,0.37347799539566,0.701223969459534,-1041.90002441406,8.10000038146973,-909.300048828125,2.32658567239017,-0.47065584836217,0.111666948780858,ST
7.63333333333333,-4.51897001266479,-1.12091994285583,9.00444412231445,-0.0152439996600151,0.716467976570129,0.533540010452271,-1056.30004882812,18.3000011444092,-906.900024414062,2.32796716561669,-0.463422159505933,0.123478103216099,ST
7.66666666666667,-3.62773704528809,-1.14125680923462,9.1031379699707,-0.640248000621796,0.350611984729767,-0.289635986089706,-1056.30004882812,16.5,-892.500061035156,2.3295834328137,-0.377237866508347,0.12606109872922,ST
7.7,-3.41479825973511,-1.47801125049591,8.92668533325195,-0.777444005012512,-0.190549999475479,0.0381099991500378,-1044.30004882812,14.1000003814697,-904.500061035156,2.34052324912853,-0.360578252896852,0.165344541922506,ST
7.73333333333333,-3.28500127792358,-1.39307498931885,8.5067892074585,-0.586893975734711,0.884151995182037,-0.83841997385025,-1039.5,18.9000015258789,-916.500061035156,2.34706594982776,-0.365375969636543,0.163992813565138,ST
7.76666666666667,-3.04275321960449,-1.37572884559631,8.2202787399292,-0.0914639979600906,0.236281991004944,0.0838419944047928,-1039.5,16.5,-906.900024414062,2.34708159152512,-0.350496290180345,0.165949705750243,ST
7.8,-3.36694669723511,-1.75435328483582,8.476881980896,-0.0304879993200302,0.205793991684914,0.236281991004944,-1044.30004882812,20.7000007629395,-899.700012207031,2.35875393980019,-0.371344970518223,0.203937345722524,ST
7.83333333333333,-3.60022258758545,-2.59115529060364,9.89328479766846,-0.762199997901917,-0.670735955238342,-0.266770005226135,-1037.10009765625,19.5,-906.900024414062,2.3757745995316,-0.337290469219949,0.257453580493281,ST
7.86666666666667,-4.17922496795654,-2.28071904182434,9.6761589050293,-0.518296003341675,-1.38720393180847,-1.41769194602966,-1046.70007324219,8.70000076293945,-902.100036621094,2.37427014728565,-0.394936797374398,0.233197229688752,ST
7.9,-3.20843887329102,-0.454588651657104,8.11799621582031,1.76830399036407,0.937505960464478,0.0076219998300075,-1046.70007324219,16.5,-904.500061035156,2.31298740099481,-0.377522685775142,0.053179437615718,ST
7.93333333333333,-3.61218547821045,-0.773997008800507,8.87763786315918,2.40855193138123,0.777444005012512,3.70429182052612,-1037.10009765625,15.9000005722046,-906.900024414062,2.30033206809862,-0.386969642775338,0.0801404910506812,ST
7.96666666666667,-3.86161112785339,-1.65326714515686,8.00375080108643,0.78506600856781,-0.121951997280121,2.98782396316528,-1046.70007324219,15.9000005722046,-918.900024414062,2.32490244602609,-0.442191486991125,0.199791738881227,ST
8.0,-2.98533153533936,-2.59354782104492,7.11969566345215,-1.89025592803955,-0.0914639979600906,-0.0457319989800453,-1032.30004882812,19.5,-894.900024414062,2.37884990711031,-0.375202825575615,0.352492698421763,ST
8.03333333333333,-3.75095462799072,-3.35438585281372,7.97743272781372,-2.33995389938354,-0.701223969459534,-2.34757590293884,-1037.10009765625,14.1000003814697,-906.900024414062,2.40598561593098,-0.406216505401847,0.403458321999016,ST
8.06666666666667,-5.18829202651978,-2.77119636535645,8.55523872375488,-1.16616594791412,0.708845973014832,-5.24393606185913,-1041.90002441406,15.3000001907349,-894.900024414062,2.40557659488343,-0.521392739157072,0.320646530972503,ST
8.1,-5.05012130737305,-2.34651494026184,7.66520214080811,0.571649968624115,0.655492007732391,1.58537602424622,-1029.90002441406,14.7000007629395,-902.100036621094,2.38364471393324,-0.564045709896181,0.294624315864495,ST
8.13333333333333,-5.60160875320435,-2.93807816505432,8.71853160858154,1.265251994133,2.63721203804016,-1.57775402069092,-1034.70007324219,12.9000005722046,-899.700012207031,2.42496119442354,-0.55040260820076,0.325296037450618,ST
8.16666666666667,-5.02679347991943,-1.34103655815125,8.72451305389404,1.57775402069092,0.594515979290009,0.129574000835419,-1037.10009765625,17.1000003814697,-892.500061035156,2.34319556932184,-0.518768197831878,0.149860444063173,ST
8.2,-4.49564266204834,-2.72633576393127,7.90804815292358,0.46494197845459,-0.670735955238342,2.66770005226135,-1025.10009765625,11.1000003814697,-909.300048828125,2.40736954228211,-0.493568246965849,0.328499619238965,ST
8.23333333333333,-4.16606569290161,-2.29627084732056,8.62701606750488,0.609759986400604,-0.602137982845306,0.739333987236023,-1027.5,17.7000007629395,-897.300048828125,2.37115386701368,-0.436034418215962,0.258480803256146,ST
8.26666666666667,-3.74437499046326,-2.50203204154968,8.29086017608643,0.937505960464478,-0.975615978240967,0.0990860015153885,-1037.10009765625,19.5,-902.100036621094,2.38485152167146,-0.406552212710722,0.291129727268791,ST
8.3,-3.52605271339417,-2.10845398902893,8.46192836761475,1.44817996025085,-1.20427596569061,-1.39482593536377,-1039.5,15.9000005722046,-904.500061035156,2.38017695635043,-0.381652595908196,0.242493568456404,ST
8.33333333333333,-3.49853825569153,-2.04804158210754,7.54258298873901,1.03659200668335,-1.76830399036407,0.533540010452271,-1044.30004882812,15.3000001907349,-911.700012207031,2.3836226359708,-0.418083483634527,0.262536669354898,ST
8.36666666666667,-4.24920749664307,-1.34941053390503,8.56600570678711,1.15854394435883,-0.152439996600151,-0.266770005226135,-1049.10009765625,13.5000009536743,-911.700012207031,2.34487841150026,-0.455255429803922,0.154541206562445,ST
8.4,-3.5912504196167,-1.47083353996277,8.96317195892334,1.09756803512573,-0.960371971130371,1.44055795669556,-1032.30004882812,9.30000019073486,-911.700012207031,2.33737288481772,-0.375394796756788,0.159637816282347,ST
8.43333333333333,-2.8022997379303,-1.78725123405457,7.95290899276733,-0.282013982534409,-1.90549993515015,1.08994603157043,-1051.5,12.3000001907349,-911.700012207031,2.34480497585276,-0.328377675325058,0.220567864682561,ST
8.46666666666667,-3.35737657546997,-1.14125680923462,9.22515869140625,-0.129574000835419,-1.41769194602966,-0.655492007732391,-1049.10009765625,8.10000038146973,-902.100036621094,2.31633706400825,-0.343982985137239,0.123770741097766,ST
8.5,-3.19049453735352,-0.673509001731873,9.26523494720459,0.990859985351562,-3.10977602005005,0.670735955238342,-1056.30004882812,14.7000007629395,-906.900024414062,2.29343714883963,-0.325511742870474,0.0703618332073829,ST
8.53333333333333,-2.86331033706665,-1.20465993881226,7.10593843460083,1.41769194602966,-1.04421401023865,1.6844619512558,-1070.70007324219,18.3000011444092,-894.900024414062,2.314752484948,-0.376757990386146,0.164032907825117,ST
8.56666666666667,-4.53990507125854,-1.07904994487762,9.7419548034668,1.14329993724823,0.846041977405548,0.228659987449646,-1053.90002441406,16.5,-897.300048828125,2.2959915969994,-0.435178999428841,0.1083034008306,ST
8.6,-4.93049240112305,-0.584983825683594,8.93625640869141,1.40244793891907,-0.289635986089706,0.807931959629059,-1063.5,14.7000007629395,-911.700012207031,2.27449589241007,-0.502748954047707,0.0622078609490511,ST
8.63333333333333,-4.55426073074341,0.0257201474159956,9.39144325256348,1.05183601379395,0.182927995920181,0.830797970294952,-1051.5,16.5,-909.300048828125,2.24100303512448,-0.451922431786427,-0.0051710427603664,ST
8.66666666666667,-3.43872404098511,-0.744687974452972,9.0134162902832,0.0076219998300075,-1.2347639799118,2.36281991004944,-1049.10009765625,16.5,-904.500061035156,2.25415702231839,-0.361668448476672,0.080657089532226,ST
8.7,-3.37053561210632,-0.754258275032043,8.27470970153809,-0.716467976570129,-1.28049600124359,0.289635986089706,-1058.70007324219,12.3000001907349,-906.900024414062,2.25215558221106,-0.383158942306907,0.091852393835013,ST
8.73333333333333,-3.25808477401733,-0.789548695087433,8.75322437286377,-1.10518991947174,-0.0838419944047928,-0.564027965068817,-1051.5,13.5000009536743,-909.300048828125,2.25348522971967,-0.354815872115071,0.0922441388983011,ST
8.76666666666667,-2.86091780662537,-1.25490391254425,8.8937873840332,-0.647870004177094,-0.899396002292633,0.205793991684914,-1053.90002441406,18.9000015258789,-902.100036621094,2.26466226746369,-0.306936504271266,0.141042329142394,ST
8.8,-2.97935009002686,-1.48339462280273,8.51695823669434,-0.724089980125427,-1.43293595314026,-0.0457319989800453,-1058.70007324219,11.7000007629395,-914.100036621094,2.27100521029782,-0.329365127361784,0.173529808497328,ST
8.83333333333333,-4.01234292984009,-1.35539197921753,8.77296257019043,0.0228659994900227,-0.0533539988100529,0.594515979290009,-1051.5,15.9000005722046,-894.900024414062,2.25840183907152,-0.424417378819849,0.152811621365892,ST
8.86666666666667,-4.07634449005127,-1.64908015727997,8.76997184753418,0.297257989645004,1.22714197635651,0.0228659994900227,-1053.90002441406,17.1000003814697,-904.500061035156,2.27481565893048,-0.430600394347995,0.185469141875141,ST
8.9,-3.31730103492737,-1.27524077892303,9.09057712554932,0.0990860015153885,-0.167683988809586,-0.609759986400604,-1061.10009765625,15.3000001907349,-902.100036621094,2.26307179565292,-0.346422786548681,0.139610527131608,ST
8.93333333333333,-3.71147704124451,-1.1095552444458,9.11151218414307,0.533540010452271,-0.92988395690918,0.503051996231079,-1058.70007324219,13.5000009536743,-897.300048828125,2.25256510384308,-0.382687004303905,0.119850819077256,ST
8.96666666666667,-2.96977996826172,-1.35180306434631,8.93087291717529,0.274392008781433,-1.33385002613068,0.480185985565186,-1053.90002441406,19.5,-899.700012207031,2.25764743140062,-0.315584687001915,0.149311252455455,ST
9.0,-2.40094590187073,-1.25251138210297,7.90206670761108,-0.403965979814529,-2.4923939704895,-0.106707997620106,-1061.10009765625,13.5000009536743,-906.900024414062,2.25647806758047,-0.287252113752089,0.157743729669525,ST
9.03333333333333,-2.960209608078,-1.75196075439453,8.49841499328613,-0.190549999475479,-0.350611984729767,0.617381989955902,-1056.30004882812,24.3000011444092,-894.900024414062,2.2638020175326,-0.328320182686554,0.203158754531313,ST
9.06666666666667,-2.8902268409729,-1.91525375843048,8.58335208892822,-0.579271972179413,0.304879993200302,0.830797970294952,-1063.5,14.7000007629395,-909.300048828125,2.2609796523947,-0.318375045228093,0.220094164797131,ST
9.1,-2.97576117515564,-1.97387182712555,8.86029148101807,-0.449698001146317,-0.746955990791321,-0.121951997280121,-1056.30004882812,11.7000007629395,-909.300048828125,2.25926412773748,-0.315464202302984,0.219958210888031,ST
9.13333333333333,-3.70190691947937,-2.2591860294342,8.82619762420654,-0.922261953353882,-1.00610399246216,0.342989981174469,-1068.30004882812,17.7000007629395,-904.500061035156,2.26187850564997,-0.384304529728577,0.251741250328023,ST
9.16666666666667,-4.41369676589966,-2.12460374832153,9.39204120635986,-0.426831990480423,0.365855991840363,-1.36433792114258,-1075.5,17.7000007629395,-902.100036621094,2.26191553968696,-0.429830082205251,0.224370927305189,ST
9.2,-4.04583883285522,-2.86091780662537,8.98410701751709,-0.304879993200302,0.0838419944047928,1.265251994133,-1063.5,18.9000015258789,-909.300048828125,2.28366313212316,-0.406167179399638,0.307869428912457,ST
9.23333333333333,-2.84058094024658,-3.47221994400024,6.96477699279785,-0.731711983680725,-0.160062000155449,-0.769822001457214,-1063.5,17.1000003814697,-906.900024414062,2.34440610353881,-0.349232701964273,0.463895813042492,ST
9.26666666666667,-4.27492761611938,-1.99480676651001,8.46731185913086,1.19665396213531,0.25152599811554,-0.846041977405548,-1073.10009765625,17.1000003814697,-904.500061035156,2.2642887272359,-0.456689728552077,0.230442174188542,ST
9.3,-4.67927265167236,-3.1928870677948,8.33512210845947,1.18140995502472,0.365855991840363,1.43293595314026,-1056.30004882812,25.5000019073486,-904.500061035156,2.31907749763405,-0.484309731739717,0.362476635755031,ST
9.33333333333333,-4.73908662796021,-1.76571810245514,8.21669006347656,2.53050398826599,1.80641400814056,-0.853663980960846,-1065.90002441406,19.5,-904.500061035156,2.26667955092001,-0.516173607453015,0.208718260710215,ST
9.36666666666667,-4.4621467590332,-1.61498606204987,8.86089038848877,2.75154185295105,0.213415995240211,1.6768399477005,-1058.70007324219,14.7000007629395,-902.100036621094,2.24873782897999,-0.460947192726514,0.174137352293129,ST
9.4,-3.4913604259491,-1.71607220172882,8.42544174194336,2.0579400062561,-0.426831990480423,0.144817993044853,-1058.70007324219,17.1000003814697,-906.900024414062,2.26365316659645,-0.385155126346865,0.197140939997061,ST
9.43333333333333,-2.56842589378357,-1.92841291427612,8.12637042999268,0.861285984516144,-0.853663980960846,0.571649968624115,-1056.30004882812,14.7000007629395,-911.700012207031,2.27063834941232,-0.297210300533984,0.231053660046466,ST
9.46666666666667,-2.78973889350891,-2.31242084503174,8.92249870300293,-0.144817993044853,-0.548784017562866,0.167683988809586,-1056.30004882812,13.5000009536743,-906.900024414062,2.27419539758576,-0.293052156727743,0.253645492927935,ST
9.5,-2.94764852523804,-2.12400579452515,9.0672492980957,-0.0685980021953583,-1.10518991947174,-0.457319974899292,-1056.30004882812,11.7000007629395,-911.700012207031,2.268848807772,-0.304467310168545,0.230357370321097,ST
9.53333333333333,-3.06608080863953,-2.08393001556396,9.33701133728027,-0.243903994560242,-0.472563982009888,0.358233988285065,-1080.30004882812,9.30000019073486,-899.700012207031,2.26070467095397,-0.309477106899699,0.219775166450035,ST
9.56666666666667,-2.6156792640686,-1.44750595092773,9.29454326629639,0.160062000155449,-0.830797970294952,-0.602137982845306,-1063.5,21.9000015258789,-902.100036621094,2.24652102035642,-0.269688981692293,0.154548845206624,ST
9.6,-2.35608506202698,-1.05632042884827,8.32555198669434,0.693601965904236,-1.52439999580383,1.00610399246216,-1061.10009765625,17.7000007629395,-911.700012207031,2.2295773894577,-0.271274772749541,0.124464071199146,ST
9.63333333333333,-2.83878660202026,-1.91704821586609,8.90993785858154,-0.480185985565186,0.259148001670837,0.830797970294952,-1058.70007324219,17.1000003814697,-906.900024414062,2.2464062354385,-0.302652501937199,0.212206559912596,ST
9.66666666666667,-3.28260850906372,0.178844749927521,9.47099590301514,0.518296003341675,-0.487807989120483,-1.61586391925812,-1061.10009765625,12.9000005722046,-897.300048828125,2.18952634809088,-0.332743624988542,-0.0184196603513508,ST
9.7,-3.88673305511475,-0.980356335639954,8.99307918548584,0.236281991004944,-0.304879993200302,5.03814172744751,-1063.5,18.9000015258789,-904.500061035156,2.19173626111749,-0.406060620670419,0.104185443230418,ST
9.73333333333333,-4.20973014831543,-0.362474650144577,8.88900279998779,-0.358233988285065,1.49391198158264,2.11129403114319,-1063.5,11.7000007629395,-904.500061035156,2.14677455759124,-0.444666674976957,0.0397866191822315,ST
9.76666666666667,-4.84017276763916,-0.319408357143402,9.61873722076416,-0.342989981174469,1.14329993724823,2.29422187805176,-1053.90002441406,10.5,-909.300048828125,2.12325648742138,-0.468068629407639,0.0318181933336976,ST
9.8,-3.6534571647644,-0.383409649133682,8.54148197174072,0.495429992675781,0.533540010452271,3.32319188117981,-1051.5,11.7000007629395,-911.700012207031,2.10140613184767,-0.405093565544445,0.041507630186462,ST
9.83333333333333,-4.06797027587891,0.169872596859932,10.5183439254761,0.967993974685669,-1.12043392658234,1.57013201713562,-1061.10009765625,21.9000015258789,-916.500061035156,2.06855843172816,-0.36704777345369,-0.018782588232674,ST
9.86666666666667,-2.46076011657715,-0.576011657714844,7.57009744644165,1.80641400814056,-0.640248000621796,2.66007804870605,-1061.10009765625,13.5000009536743,-906.900024414062,2.08032269663807,-0.312748749113444,0.0711192358161969,ST
9.9,-3.81256318092346,-0.602329969406128,8.57737064361572,0.967993974685669,2.00458598136902,-0.884151995182037,-1058.70007324219,20.7000007629395,-904.500061035156,2.09179980169023,-0.420555803271732,0.0692167474357112,ST
9.93333333333333,-3.2006630897522,-0.879270195960999,9.7898063659668,0.487807989120483,1.49391198158264,-2.32470989227295,-1056.30004882812,21.3000011444092,-902.100036621094,2.12208142520816,-0.317203101433081,0.0900981217860585,ST
9.96666666666667,-2.2890932559967,-0.376830071210861,8.46671390533447,1.21951997280121,-1.70732796192169,-0.792688012123108,-1056.30004882812,14.7000007629395,-911.700012207031,2.1178460488195,-0.260858653622147,0.042760953202273,ST
10.0,-3.41300368309021,-1.05811488628387,8.92070388793945,0.868907988071442,-0.899396002292633,-1.40244793891907,-1063.5,18.9000015258789,-909.300048828125,2.15642090540051,-0.361179819238287,0.117344136394456,ST
10.0333333333333,-2.91116189956665,-1.07426476478577,8.56839847564697,0.868907988071442,0.426831990480423,-1.6920839548111,-1049.10009765625,11.7000007629395,-914.100036621094,2.17642577871233,-0.32558369753603,0.124218617921546,ST
10.0666666666667,-2.4757137298584,-1.4600670337677,9.06844520568848,0.106707997620106,-0.175305992364883,-1.75305998325348,-1056.30004882812,14.7000007629395,-897.300048828125,2.20224337325762,-0.262591058390318,0.160191584683075,ST
10.1,-2.9063766002655,-1.85125243663788,9.96386528015137,-0.594515979290009,-3.04117798805237,-0.365855991840363,-1063.5,14.1000003814697,-894.900024414062,2.20560576336027,-0.273934565668349,0.184603112135607,ST
10.1333333333333,-2.79871106147766,-1.72205364704132,8.09167766571045,-0.746955990791321,-3.13264203071594,0.403965979814529,-1058.70007324219,11.1000003814697,-911.700012207031,2.20093883882546,-0.320975691419707,0.210365420483047,ST
10.1666666666667,-2.62704396247864,-2.12460374832153,8.46611595153809,0.3125019967556,0.144817993044853,2.4847719669342,-1058.70007324219,18.3000011444092,-918.900024414062,2.18978435682052,-0.293665329843511,0.244042559129559,ST
10.2,-2.67908239364624,-2.22449374198914,7.53660154342651,0.3125019967556,0.457319974899292,1.41769194602966,-1065.90002441406,7.50000047683716,-902.100036621094,2.19265561442119,-0.32997967735398,0.285659601153058,ST
10.2333333333333,-3.22937393188477,-2.01454544067383,6.35526895523071,0.25152599811554,1.79879200458527,0.647870004177094,-1058.70007324219,14.7000007629395,-904.500061035156,2.20087717620286,-0.454208781827528,0.306430060389799,ST
10.2666666666667,-4.75942373275757,-1.50672209262848,8.36084270477295,0.3125019967556,2.37806391716003,-0.243903994560242,-1053.90002441406,6.90000009536743,-902.100036621094,2.14840961044171,-0.514575814399942,0.17862327091947,ST
10.3,-6.31878232955933,-2.09290218353271,10.2952365875244,0.0533539988100529,1.37195992469788,1.89025592803955,-1063.5,11.7000007629395,-916.500061035156,2.14627002981198,-0.544438979618252,0.198760600278175,ST
10.3333333333333,-5.03397130966187,-1.99121797084808,10.6002893447876,-0.0381099991500378,-0.198172003030777,-0.0609759986400604,-1053.90002441406,9.90000057220459,-914.100036621094,2.14020270629501,-0.436457420385005,0.185783051373607,ST
10.3666666666667,-3.35199332237244,-2.936283826828,9.66479396820068,-0.602137982845306,-2.67532205581665,1.6920839548111,-1051.5,19.5,-916.500061035156,2.15794531539966,-0.316998849435238,0.294452147689188,ST
10.4,-2.83639407157898,-3.05950140953064,7.74595165252686,-1.28049600124359,-1.73781597614288,-0.556405961513519,-1039.5,17.1000003814697,-916.500061035156,2.1798073410917,-0.32506399752502,0.378196718926694,ST
10.4333333333333,-1.94276833534241,-2.4655454158783,8.36443138122559,-0.396344006061554,0.830797970294952,-1.45580196380615,-1061.10009765625,12.9000005722046,-909.300048828125,2.17056695017407,-0.219960080727775,0.288047098952353,ST
10.4666666666667,-1.85723388195038,-2.12580013275146,7.83328056335449,0.3125019967556,-0.419209986925125,-0.868907988071442,-1046.70007324219,15.3000001907349,-916.500061035156,2.17260923887886,-0.223836749968918,0.264780700208761,ST
10.5,-3.66960716247559,-2.33574819564819,8.40450668334961,0.228659987449646,-0.0762199983000755,0.609759986400604,-1058.70007324219,12.3000001907349,-909.300048828125,2.16975636795818,-0.398072878388855,0.270222570627122,ST
10.5333333333333,-4.84136915206909,-2.02052688598633,9.66000938415527,0.442075997591019,1.09756803512573,0.274392008781433,-1044.30004882812,15.3000001907349,-906.900024414062,2.14442013816109,-0.457980656739878,0.205449836265411,ST
10.5666666666667,-3.61816692352295,-1.92183339595795,9.05887508392334,0.0457319989800453,0.609759986400604,1.10518991947174,-1065.90002441406,11.7000007629395,-892.500061035156,2.13710870789766,-0.37399781494915,0.20831226552503,ST
10.6,-3.82751679420471,-1.60721015930176,9.46680927276611,0.266770005226135,-0.282013982534409,0.434453994035721,-1049.10009765625,15.3000001907349,-899.700012207031,2.11890168615764,-0.378937344126907,0.167441216288431,ST
10.6333333333333,-2.4236752986908,-0.900803327560425,8.19156837463379,1.04421401023865,-0.685979962348938,-0.609759986400604,-1058.70007324219,20.7000007629395,-894.900024414062,2.10790605934562,-0.28478993800823,0.108011996844324,ST
10.6666666666667,-2.01454544067383,-0.553282260894775,8.15268898010254,1.58537602424622,-0.693601965904236,0.586893975734711,-1061.10009765625,15.3000001907349,-906.900024414062,2.0944645804261,-0.240619316859724,0.0647664573173306,ST
10.7,-3.02899599075317,-0.482701390981674,8.79090690612793,1.73019397258759,-0.0533539988100529,0.975615978240967,-1058.70007324219,11.1000003814697,-918.900024414062,2.08681480299289,-0.331261148824813,0.0512622360617195,ST
10.7333333333333,-3.51349186897278,-0.438438802957535,8.83397388458252,1.22714197635651,0.37347799539566,1.38720393180847,-1046.70007324219,11.7000007629395,-914.100036621094,2.07749568900963,-0.37880820062731,0.0465075473206957,ST
10.7666666666667,-3.59783005714417,-0.125610023736954,8.87464714050293,-0.449698001146317,0.556405961513519,0.640248000621796,-1032.30004882812,10.5,-906.900024414062,2.05863634334022,-0.386098622844843,0.0145421555274701,ST
10.8,-4.50521278381348,0.406737208366394,8.74305534362793,-0.259148001670837,0.289635986089706,1.73781597614288,-1056.30004882812,6.30000019073486,-911.700012207031,2.01670839526062,-0.475612174959739,-0.0475211938693822,ST
10.8333333333333,-4.47650194168091,-0.424083352088928,8.95599460601807,-0.983237981796265,1.00610399246216,2.24086785316467,-1058.70007324219,14.1000003814697,-906.900024414062,2.03726968598623,-0.465020637918523,0.0469587158764473,ST
10.8666666666667,-3.97406196594238,-0.169274464249611,9.08818435668945,-0.92988395690918,0.78506600856781,1.96647596359253,-1044.30004882812,22.5,-904.500061035156,2.00540677087197,-0.413680304934433,0.0187943247381833,ST
10.9,-3.77966547012329,-1.00368392467499,9.52423095703125,-1.14329993724823,0.945127964019775,0.739333987236023,-1053.90002441406,13.5000009536743,-911.700012207031,2.02967508714111,-0.377734145404604,0.106406060092548,ST
10.9333333333333,-3.83469462394714,-0.810483753681183,9.01222038269043,-0.282013982534409,-0.129574000835419,-0.274392008781433,-1049.10009765625,5.70000028610229,-904.500061035156,2.02485339839991,-0.400546643623023,0.0903969110603884,ST
10.9666666666667,-3.47820138931274,-0.953439891338348,8.50439643859863,0.0838419944047928,0.144817993044853,-1.55488801002502,-1058.70007324219,7.50000047683716,-902.100036621094,2.0469538395532,-0.386018777868289,0.11257039722069,ST
11.0,-3.09718441963196,-0.96958976984024,8.71135425567627,0.67835795879364,0.0381099991500378,-0.823175966739655,-1039.5,18.3000011444092,-906.900024414062,2.05535949339734,-0.339642888836205,0.110173600816343,ST
11.0333333333333,-2.20355868339539,-1.37333631515503,8.77057075500488,0.960371971130371,-0.983237981796265,-1.73781597614288,-1051.5,15.9000005722046,-909.300048828125,2.08429577839951,-0.241305828213213,0.154251802238984,ST
11.0666666666667,-2.02770471572876,-1.6143878698349,8.79688835144043,1.10518991947174,-1.71494996547699,-1.59299790859222,-1039.5,13.5000009536743,-897.300048828125,2.10384390825954,-0.219541843171944,0.18001742188885,ST
11.1,-3.17015767097473,-1.93618881702423,8.64196968078613,0.693601965904236,-1.12043392658234,-1.00610399246216,-1058.70007324219,7.50000047683716,-916.500061035156,2.12337461918449,-0.341255524130546,0.219580657990437,ST
11.1333333333333,-3.12828779220581,-2.14673519134521,9.07502555847168,0.830797970294952,0.0457319989800453,-1.18903195858002,-1039.5,12.3000001907349,-902.100036621094,2.14106278841172,-0.323275639830124,0.231507871137739,ST
11.1666666666667,-3.06309008598328,-2.2651674747467,7.77645683288574,0.266770005226135,-0.0381099991500378,-0.792688012123108,-1053.90002441406,19.5,-909.300048828125,2.1665287087926,-0.361071987205449,0.283429307146567,ST
11.2,-3.79820775985718,-2.15750169754028,8.07253742218018,-0.37347799539566,0.952749967575073,-1.59299790859222,-1049.10009765625,14.7000007629395,-904.500061035156,2.17328005937843,-0.427450487373497,0.263251271110755,ST
11.2333333333333,-4.51538133621216,-2.35728144645691,8.524733543396,0.823175966739655,0.182927995920181,0.426831990480423,-1058.70007324219,13.5000009536743,-909.300048828125,2.17575218495454,-0.472460459970663,0.268012859229489,ST
11.2666666666667,-4.54827928543091,-2.94166707992554,8.66110992431641,0.0152439996600151,0.320124000310898,-0.861285984516144,-1051.5,17.1000003814697,-899.700012207031,2.21043127435889,-0.461502856063635,0.328088503898845,ST
11.3,-4.5931396484375,-1.84766364097595,9.16055965423584,0.541162014007568,-0.304879993200302,-1.59299790859222,-1051.5,11.1000003814697,-897.300048828125,2.1679646216092,-0.455768891394086,0.199579052506105,ST
11.3333333333333,-4.17802858352661,-2.31242084503174,8.31059837341309,1.08232402801514,-0.983237981796265,0.952749967575073,-1049.10009765625,13.5000009536743,-897.300048828125,2.19271859957269,-0.44983645002591,0.26838660599494,ST
11.3666666666667,-3.52066946029663,-2.03248977661133,8.30461692810059,0.617381989955902,-0.0152439996600151,0.266770005226135,-1056.30004882812,8.70000076293945,-899.700012207031,2.18063366552897,-0.390758321694705,0.238780389250281,ST
11.4,-3.86101293563843,-2.16228675842285,8.24300861358643,-0.167683988809586,-0.0076219998300075,0.426831990480423,-1046.70007324219,12.9000005722046,-902.100036621094,2.18353541772276,-0.425522494651872,0.256472896137292,DLR
11.4333333333333,-3.67020535469055,-2.10665965080261,8.11680030822754,-0.175305992364883,0.358233988285065,1.13567793369293,-1061.10009765625,15.3000001907349,-892.500061035156,2.17315472419742,-0.413677286529171,0.253477379699284,DLR
11.4666666666667,-3.39147067070007,-2.07495808601379,9.4787712097168,-0.289635986089706,-0.0228659994900227,0.495429992675781,-1041.90002441406,18.3000011444092,-899.700012207031,2.15372299204505,-0.336454863227497,0.215741934411246,DLR
11.5,-2.29387831687927,-2.43324565887451,9.2048225402832,-0.243903994560242,-1.01372599601746,-0.190549999475479,-1044.30004882812,12.3000001907349,-904.500061035156,2.16461630821531,-0.234731052884388,0.258785164447132,DLR
11.5333333333333,-2.49605059623718,-2.15152025222778,8.46910667419434,-0.541162014007568,-1.31098401546478,-1.27287399768829,-1046.70007324219,13.5000009536743,-906.900024414062,2.16917826219048,-0.275406817168657,0.250188159843512,DLR
11.5666666666667,-2.53672432899475,-1.72923135757446,8.42484378814697,-0.205793991684914,-0.46494197845459,-1.37958192825317,-1053.90002441406,17.1000003814697,-899.700012207031,2.16774279702311,-0.285529217842404,0.203482877858026,DLR
11.6,-3.01583695411682,-1.02940404415131,8.71972846984863,-0.0304879993200302,0.0914639979600906,-2.13416004180908,-1053.90002441406,14.1000003814697,-902.100036621094,2.16059972544333,-0.330494284760976,0.118979789915276,DLR
11.6333333333333,-3.31371212005615,-0.778183996677399,8.92848014831543,0.556405961513519,0.335367977619171,-1.13567793369293,-1053.90002441406,15.3000001907349,-904.500061035156,2.16301425794465,-0.354545570431175,0.0867363347489547,DLR
11.6666666666667,-3.89271450042725,-0.448009073734283,9.3477783203125,1.85214591026306,0.411587983369827,-0.0838419944047928,-1049.10009765625,14.1000003814697,-902.100036621094,2.155889183143,-0.394872095340184,0.0447588223960303,DLR
11.7,-3.17314839363098,-0.753062009811401,8.57437992095947,1.48628997802734,0.487807989120483,-0.853663980960846,-1053.90002441406,12.3000001907349,-904.500061035156,2.18330259713676,-0.353986326598519,0.0855190455468504,DLR
11.7333333333333,-3.37053561210632,-0.353502482175827,8.94403171539307,1.82927989959717,0.670735955238342,-1.47866797447205,-1044.30004882812,9.90000057220459,-909.300048828125,2.18539248020597,-0.361192815115984,0.037381862671085,DLR
11.7666666666667,-3.11632490158081,-1.50193703174591,9.89029407501221,2.45428395271301,1.87501192092896,-3.47563195228577,-1046.70007324219,8.70000076293945,-911.700012207031,2.26093776698935,-0.304435962816732,0.148288003023636,DLR
11.8,-3.18989658355713,-1.47023546695709,10.2695169448853,3.86435389518738,2.24086785316467,-7.86590385437012,-1039.5,14.7000007629395,-899.700012207031,2.34022254645696,-0.300267233276946,0.139848203284341,DLR
11.8333333333333,-3.20126128196716,-1.22918379306793,8.71135425567627,5.29728984832764,1.57013201713562,-9.72567176818848,-1041.90002441406,3.90000009536743,-909.300048828125,2.44113879317565,-0.349286180368544,0.137184796406491,DLR
11.8666666666667,-3.73899173736572,-1.77708280086517,8.13893127441406,6.2881498336792,3.61282801628113,-11.8598318099976,-1041.90002441406,1.5,-918.900024414062,2.59728052257897,-0.423527650415298,0.21356164793328,DLR
11.9,-3.82332992553711,-1.44630968570709,7.74056816101074,6.96650791168213,5.02289772033691,-13.4604520797729,-1027.5,8.70000076293945,-909.300048828125,2.73474854062866,-0.456231122009699,0.184705868379508,DLR
11.9333333333333,-3.94295835494995,-1.72504436969757,7.83746719360352,6.97412967681885,4.75612783432007,-12.9650220870972,-1017.90002441406,8.10000038146973,-906.900024414062,2.8986000155455,-0.459913562318231,0.216263632020477,DLR
11.9666666666667,-3.60620403289795,-2.71138215065002,8.00614356994629,7.0732159614563,5.75461006164551,-13.9787473678589,-1010.70001220703,2.10000014305115,-902.100036621094,3.10692685557988,-0.405017268943901,0.32536630488619,DLR
12.0,-4.53033494949341,-2.09409856796265,9.04631423950195,8.75005626678467,6.28052806854248,-15.3125972747803,-984.300048828125,-3.30000019073486,-894.900024414062,-3.04157596778589,-0.458468633060757,0.226367930069667,DLR
12.0333333333333,-4.238440990448,-1.53962004184723,9.00205135345459,10.0457954406738,5.0152759552002,-16.6312026977539,-979.500061035156,3.30000019073486,-892.500061035156,-2.88438267725177,-0.438321582580261,0.166043010339686,DLR
12.0666666666667,-4.22348737716675,-1.37273812294006,8.17302513122559,10.3887853622437,2.78202986717224,-13.788197517395,-957.900024414062,3.30000019073486,-902.100036621094,-2.72782800111054,-0.472175057624907,0.160782054085606,DLR
12.1,-4.15350484848022,-0.938486337661743,6.77277278900146,8.78054428100586,2.5076379776001,-12.5915441513062,-967.500061035156,-5.10000038146973,-897.300048828125,-2.5969114290249,-0.547090166545473,0.135989610230324,DLR
12.1333333333333,-3.80658197402954,0.320604622364044,7.26982975006104,6.50918769836426,2.4923939704895,-11.3186693191528,-945.900024414062,-12.9000005722046,-885.300048828125,-2.56277451925884,-0.487228047639212,-0.0448429752854699,DLR
12.1666666666667,-3.79402089118958,-0.397166937589645,8.02049922943115,5.32777786254883,1.17378795146942,-7.62962198257446,-953.100036621094,-8.10000038146973,-887.700012207031,-2.43679589468019,-0.442887846363835,0.0463958704590357,DLR
12.2,-4.3520884513855,-1.50133883953094,9.68094444274902,4.00154972076416,0.937505960464478,-7.50004768371582,-933.900024414062,-6.30000019073486,-878.100036621094,-2.31369689345679,-0.417738853449067,0.152553344982133,DLR
12.2333333333333,-4.01653003692627,-0.697434723377228,8.656325340271,3.27745985984802,0.487807989120483,-6.98175191879272,-941.100036621094,-12.3000001907349,-880.500061035156,-2.26792582573878,-0.433045061951611,0.0803901252499644,DLR
12.2666666666667,-4.286292552948,-0.818259596824646,8.1251745223999,1.50915598869324,1.79879200458527,-5.54119396209717,-933.900024414062,-7.50000047683716,-880.500061035156,-2.20328148852889,-0.485412966899274,0.102938735469391,DLR
12.3,-5.88333415985107,-0.64838695526123,10.4651098251343,1.28049600124359,0.891773998737335,-1.6844619512558,-938.700012207031,-7.50000047683716,-878.100036621094,-2.20161273090926,-0.512683394767224,0.0613813344048512,DLR
12.3333333333333,-4.37960290908813,-0.671116411685944,8.72690582275391,1.29574000835419,-0.205793991684914,0.762199997901917,-929.100036621094,-8.10000038146973,-873.300048828125,-2.19671463442915,-0.463768564774888,0.0737924786378209,DLR
12.3666666666667,-4.23126316070557,-0.423485219478607,8.47030258178711,-0.213415995240211,-0.37347799539566,1.35671591758728,-936.300048828125,-11.1000003814697,-870.900024414062,-2.21992222278016,-0.462250076440047,0.0491733184126083,DLR
12.4,-4.33294773101807,-0.112450875341892,8.63778305053711,-0.701223969459534,-0.0533539988100529,1.35671591758728,-938.700012207031,-9.90000057220459,-866.100036621094,-2.25098262699335,-0.464850599208917,0.0130903173415995,DLR
12.4333333333333,-2.87288069725037,-0.0753660127520561,7.11431264877319,0.0990860015153885,-1.37195992469788,2.63721203804016,-936.300048828125,-12.3000001907349,-870.900024414062,-2.27500705623522,-0.381556398408061,0.0085666237324715,DLR
12.4666666666667,-4.18221569061279,-0.872092425823212,7.34998083114624,-1.07470202445984,0.571649968624115,1.33385002613068,-943.500061035156,-11.7000007629395,-873.300048828125,-2.24218881818043,-0.515366927520162,0.118542156008897,DLR
12.5,-4.90596866607666,-0.622666835784912,8.23463439941406,-1.79117000102997,1.58537602424622,-1.2500079870224,-938.700012207031,-9.90000057220459,-878.100036621094,-2.2589645058878,-0.53860298811646,0.0800872955564188,DLR
12.5333333333333,-5.47898960113525,-0.769810020923615,9.75571155548096,-1.28811800479889,1.40244793891907,-0.541162014007568,-931.500061035156,-5.10000038146973,-873.300048828125,-2.2588345803764,-0.512802628685768,0.0816296757708604,DLR
12.5666666666667,-5.37730550765991,-0.692051410675049,9.97164154052734,0.221037998795509,0.403965979814529,0.3125019967556,-931.500061035156,-11.7000007629395,-890.100036621094,-2.26641271405375,-0.49432845702159,0.0686592809094568,DLR
12.6,-4.87366914749146,-0.501841962337494,8.80885124206543,1.48628997802734,-0.594515979290009,0.46494197845459,-921.900024414062,-9.30000019073486,-878.100036621094,-2.27077428261575,-0.503663985964713,0.0538507100493183,DLR
12.6333333333333,-3.58766150474548,-0.275145769119263,7.95290899276733,0.899396002292633,-0.716467976570129,-1.265251994133,-914.700012207031,-11.7000007629395,-873.300048828125,-2.26581145134081,-0.422363798809995,0.0340198505127352,DLR
12.6666666666667,-3.74437499046326,-0.131591454148293,7.88651514053345,1.84452390670776,-0.914639949798584,-1.28049600124359,-929.100036621094,-11.7000007629395,-882.900024414062,-2.25621057881839,-0.441556218805306,0.0145399085389347,DLR
12.7,-4.02131509780884,-0.275145769119263,7.73219442367554,1.99696397781372,-0.106707997620106,-1.79879200458527,-921.900024414062,-8.10000038146973,-878.100036621094,-2.22459941179873,-0.478966375229598,0.0336753646956755,DLR
12.7333333333333,-4.77078819274902,-0.836802005767822,8.50499534606934,-0.274392008781433,1.40244793891907,-2.63721203804016,-926.700012207031,-10.5,-875.700012207031,-2.17155046712338,-0.511074017317493,0.101140791028122,DLR
12.7666666666667,-5.50171899795532,-1.39427125453949,9.37469482421875,0.137196004390717,0.350611984729767,-1.95123195648193,-931.500061035156,-11.1000003814697,-878.100036621094,-2.12968491062577,-0.526034072974942,0.149374287861271,DLR
12.8,-4.90776300430298,-1.12151801586151,8.88481616973877,0.411587983369827,0.350611984729767,-2.0731840133667,-929.100036621094,-4.5,-868.500061035156,-2.1219599245651,-0.501516632613245,0.126893684076621,DLR
12.8333333333333,-4.71336650848389,-1.50791847705841,9.40340518951416,1.34909391403198,-1.05945801734924,-1.18140995502472,-909.900024414062,-4.5,-870.900024414062,-2.09397261786215,-0.45749770839438,0.15746088324477,DLR
12.8666666666667,-4.29466676712036,-0.780576586723328,8.50918197631836,1.98171997070312,-0.6250039935112,-0.579271972179413,-917.100036621094,-5.10000038146973,-868.500061035156,-2.11111554920669,-0.464545069191282,0.0885278960546267,DLR
12.9,-3.20843887329102,-0.386998504400253,7.66161346435547,1.43293595314026,-0.442075997591019,-0.907018005847931,-921.900024414062,-12.3000001907349,-878.100036621094,-2.11467577490517,-0.395368634893389,0.0486628645200208,DLR
12.9333333333333,-4.09488677978516,-0.404942780733109,8.0115270614624,1.95885396003723,-0.830797970294952,0.0762199983000755,-917.100036621094,-3.30000019073486,-882.900024414062,-2.10839324977348,-0.470426766413601,0.0469800877604511,DLR
12.9666666666667,-3.47281813621521,-0.0466551519930363,7.70767021179199,0.777444005012512,-0.388722002506256,-0.830797970294952,-917.100036621094,-7.50000047683716,-875.700012207031,-2.11644394718001,-0.422710365785613,0.0054146162041964,DLR
13.0,-3.90826606750488,-1.11972367763519,7.47439479827881,-0.495429992675781,0.289635986089706,-0.0076219998300075,-921.900024414062,-5.10000038146973,-866.100036621094,-2.05535240402855,-0.477661379460032,0.149367838901044,DLR
13.0333333333333,-5.31569671630859,-0.96061760187149,10.6176357269287,-1.21189796924591,-0.419209986925125,-0.190549999475479,-919.500061035156,-6.90000009536743,-868.500061035156,-2.08486261906897,-0.461805656734455,0.0925683007626811,DLR
13.0666666666667,-4.72772216796875,-0.834409415721893,9.16833591461182,-0.0304879993200302,-0.701223969459534,1.49391198158264,-926.700012207031,-9.30000019073486,-878.100036621094,-2.09913696064153,-0.473412055036303,0.0894315081426573,DLR
13.1,-4.54588651657104,-1.65685606002808,7.89309453964233,-0.960371971130371,0.800309956073761,0.419209986925125,-921.900024414062,-15.9000005722046,-873.300048828125,-2.04918459036201,-0.514714896706192,0.208141228605032,DLR
13.1333333333333,-4.53930711746216,-0.868503570556641,9.07442665100098,-0.403965979814529,-0.716467976570129,0.259148001670837,-926.700012207031,-9.90000057220459,-870.900024414062,-2.10684160900463,-0.460844463562744,0.0959077425124465,DLR
13.1666666666667,-3.72164559364319,-0.24224790930748,8.58574390411377,1.89025592803955,-1.85214591026306,2.00458598136902,-917.100036621094,-9.90000057220459,-870.900024414062,-2.1476763793515,-0.405824608756638,0.0234822689719332,DLR
13.2,-3.57689499855042,-0.69863098859787,7.56232166290283,2.05031800270081,-0.152439996600151,2.30946588516235,-921.900024414062,-10.5,-868.500061035156,-2.13318719502536,-0.440198473415805,0.0865356822752017,DLR
13.2333333333333,-4.61467313766479,-0.55567479133606,8.89618015289307,1.41006994247437,0.746955990791321,0.129574000835419,-931.500061035156,0.900000035762787,-882.900024414062,-2.13977184736775,-0.478972067114945,0.059889576559812,DLR
13.2666666666667,-4.31739616394043,0.28710862994194,8.66469955444336,0.99848198890686,0.0914639979600906,-0.716467976570129,-921.900024414062,-7.50000047683716,-878.100036621094,-2.172382392262,-0.462278556277895,-0.0340914531044112,DLR
13.3,-4.12000894546509,-0.65735912322998,8.0713415145874,0.304879993200302,0.25152599811554,0.37347799539566,-912.300048828125,-9.90000057220459,-873.300048828125,-2.12253912281587,-0.471114797374058,0.0802298007435319,DLR
13.3333333333333,-3.99918389320374,-0.760239720344543,8.18857765197754,-0.0685980021953583,0.320124000310898,-1.45580196380615,-919.500061035156,-14.1000003814697,-870.900024414062,-2.10410909049774,-0.452965075159281,0.0939350525357694,DLR
13.3666666666667,-4.96099758148193,-1.30454981327057,9.43869590759277,-0.358233988285065,0.647870004177094,-0.891773998737335,-914.700012207031,-2.10000014305115,-868.500061035156,-2.07728961251645,-0.480902526776305,0.138793858839144,DLR
13.4,-4.90058517456055,-1.31471824645996,8.67546558380127,0.0762199983000755,0.960371971130371,-0.922261953353882,-919.500061035156,-7.50000047683716,-863.700012207031,-2.06250594656114,-0.510712666599432,0.151277828467036,DLR
13.4333333333333,-4.3724250793457,-0.748875021934509,8.82500171661377,0.907018005847931,-0.114329993724823,0.0533539988100529,-924.300048828125,-12.9000005722046,-866.100036621094,-2.09076153214512,-0.458433866069669,0.0830712623290532,DLR
13.4666666666667,-3.62474632263184,-0.378624498844147,8.68084907531738,1.96647596359253,-1.29574000835419,1.21189796924591,-919.500061035156,-14.1000003814697,-875.700012207031,-2.11259430385108,-0.393123560191697,0.0392940400043753,DLR
13.5,-3.27004766464233,-0.35110992193222,7.02638530731201,1.6920839548111,-0.846041977405548,0.655492007732391,-917.100036621094,-11.1000003814697,-868.500061035156,-2.10906594718303,-0.433645135418027,0.0464047794809351,DLR
13.5333333333333,-4.16486930847168,-0.327782362699509,8.1185941696167,-0.0152439996600151,0.632625997066498,-0.411587983369827,-924.300048828125,-17.7000007629395,-873.300048828125,-2.10799955101936,-0.474671900288911,0.0407799470600731,DLR
13.5666666666667,-5.16675901412964,-0.919943869113922,8.89318943023682,-0.815553963184357,0.388722002506256,-0.0609759986400604,-905.100036621094,-12.3000001907349,-873.300048828125,-2.08053887219771,-0.52462168937356,0.104535653209932,DLR
13.6,-4.86768770217896,-0.653770267963409,9.50808048248291,-1.08994603157043,-0.259148001670837,0.434453994035721,-902.700012207031,-6.90000009536743,-880.500061035156,-2.10607115041668,-0.471852758819699,0.0701777264114632,DLR
13.6333333333333,-4.58536386489868,-1.16996765136719,8.88003063201904,-0.160062000155449,-0.708845973014832,2.23324584960938,-929.100036621094,-14.1000003814697,-878.100036621094,-2.09939052000436,-0.472430956300021,0.129143110628193,DLR
13.6666666666667,-3.96688413619995,-0.524571359157562,8.26334476470947,-0.221037998795509,0.25152599811554,0.586893975734711,-909.900024414062,-9.90000057220459,-875.700012207031,-2.13485645092959,-0.447302324932341,0.0633452923365023,DLR
13.7,-3.77906727790833,-0.465953379869461,8.52413558959961,0.121951997280121,0.0685980021953583,0.708845973014832,-926.700012207031,-9.90000057220459,-863.700012207031,-2.14428241761084,-0.416983430725294,0.053866431782717,DLR
13.7333333333333,-3.81316137313843,-0.496458679437637,7.82550430297852,0.335367977619171,0.564027965068817,1.12043392658234,-905.100036621094,-11.7000007629395,-868.500061035156,-2.14906044012228,-0.453690721818093,0.0618417661920766,DLR
13.7666666666667,-4.37780857086182,-0.629246413707733,8.30940246582031,0.0914639979600906,0.655492007732391,0.320124000310898,-919.500061035156,-9.90000057220459,-873.300048828125,-2.14498119675841,-0.484869160793224,0.0751614814787059,DLR
13.8,-4.62543964385986,-0.657957255840302,8.67905426025391,-0.0381099991500378,0.663114011287689,-0.167683988809586,-914.700012207031,-6.90000009536743,-870.900024414062,-2.14301616003807,-0.489588957489282,0.0759323987125018,DLR
13.8333333333333,-4.25219821929932,-0.384605944156647,8.80765533447266,0.967993974685669,-0.0457319989800453,1.18140995502472,-924.300048828125,-3.90000009536743,-854.100036621094,-2.16539365572059,-0.449438819318728,0.0409755865630878,DLR
13.8666666666667,-4.2204966545105,-0.578404247760773,8.2621488571167,0.78506600856781,0.426831990480423,0.221037998795509,-907.500061035156,-6.90000009536743,-868.500061035156,-2.15156995510557,-0.472012125947431,0.0683066017776303,DLR
13.9,-3.95551943778992,-0.727341830730438,7.94154405593872,0.304879993200302,0.411587983369827,-0.167683988809586,-917.100036621094,-11.7000007629395,-870.900024414062,-2.13846053192872,-0.461152346441407,0.0909403478181198,DLR
13.9333333333333,-4.27014255523682,-0.655564725399017,8.48106956481934,-0.205793991684914,0.236281991004944,-0.381099998950958,-909.900024414062,-12.3000001907349,-858.900024414062,-2.14186521045094,-0.46559338564266,0.0778739678529603,DLR
13.9666666666667,-4.56323289871216,-1.02402079105377,8.38058090209961,-0.25152599811554,0.92988395690918,-0.830797970294952,-902.700012207031,-11.1000003814697,-861.300048828125,-2.1139550622963,-0.496914694602744,0.122876733111453,DLR
14.0,-4.72114229202271,-1.46485209465027,8.46432113647461,-0.243903994560242,1.19665396213531,-0.403965979814529,-907.500061035156,-6.90000009536743,-856.500061035156,-2.0865223360946,-0.504461878899989,0.172288541961541,DLR
14.0333333333333,-4.52734422683716,-1.06110560894012,9.29215145111084,-0.0,0.282013982534409,-0.769822001457214,-905.100036621094,-6.90000009536743,-866.100036621094,-2.10653817348197,-0.451251648156036,0.11446888779798,DLR
14.0666666666667,-4.32098484039307,-0.904990315437317,8.52054691314697,1.53202199935913,-0.0533539988100529,0.167683988809586,-914.700012207031,-9.90000057220459,-868.500061035156,-2.10671880487973,-0.466985751335073,0.103009278468452,DLR
14.1,-3.59304475784302,-0.793137550354004,7.24590396881104,1.98171997070312,-0.259148001670837,1.00610399246216,-900.300048828125,-15.3000001907349,-866.100036621094,-2.10636266175232,-0.457726963198229,0.104680445558229,DLR
14.1333333333333,-4.06378316879272,-0.652574002742767,8.32734680175781,0.426831990480423,0.335367977619171,-1.42531394958496,-902.700012207031,-3.90000009536743,-868.500061035156,-2.10405539276429,-0.453194714212777,0.0787331449909003,DLR
14.1666666666667,-4.21092653274536,-1.1556122303009,8.54566860198975,-0.0381099991500378,0.0381099991500378,0.564027965068817,-914.700012207031,-8.70000076293945,-866.100036621094,-2.08460279291976,-0.45444881846704,0.133915549210677,DLR
14.2,-4.14572906494141,-1.05572235584259,8.70238208770752,-0.0381099991500378,0.289635986089706,0.868907988071442,-905.100036621094,-6.90000009536743,-856.500061035156,-2.09760947166118,-0.442455880318101,0.120128754452053,DLR
14.2333333333333,-3.6612331867218,-1.20286548137665,8.03006935119629,0.274392008781433,0.304879993200302,1.86738991737366,-902.700012207031,-11.7000007629395,-868.500061035156,-2.10051448618963,-0.424642637631292,0.146744632148939,DLR
14.2666666666667,-4.33713483810425,-1.4941611289978,8.40929222106934,-0.457319974899292,0.891773998737335,1.18903195858002,-902.700012207031,-10.5,-866.100036621094,-2.09827339378864,-0.471686403418254,0.175691496642385,DLR
14.3,-4.35627508163452,-0.829026162624359,8.52832221984863,-0.190549999475479,0.137196004390717,2.08842802047729,-905.100036621094,-15.3000001907349,-866.100036621094,-2.15347334856093,-0.470938601902316,0.0954827851708857,DLR
14.3333333333333,-4.33593845367432,-1.1035737991333,8.64555835723877,-0.952749967575073,0.221037998795509,2.60672402381897,-897.900024414062,-12.9000005722046,-866.100036621094,-2.16461514958272,-0.462602305908539,0.12634452280352,DLR
14.3666666666667,-4.28689050674438,-1.04076874256134,8.72331714630127,-0.868907988071442,-0.731711983680725,2.63721203804016,-912.300048828125,-3.30000019073486,-858.900024414062,-2.19422034945131,-0.453264876089637,0.117976806174153,DLR
14.4,-4.44719314575195,-0.689060688018799,9.17431735992432,-0.823175966739655,-0.746955990791321,2.58385801315308,-907.500061035156,-13.5000009536743,-851.700012207031,-2.23844923762447,-0.449308536499991,0.0742594871162666,DLR
14.4333333333333,-3.81794667243958,-0.310436189174652,8.20472717285156,-0.472563982009888,-1.57775402069092,3.23934984207153,-914.700012207031,-10.5,-868.500061035156,-2.28508089131235,-0.43273473349763,0.0360329800603142,DLR
14.4666666666667,-3.80119848251343,-0.619676113128662,8.9177131652832,-1.2347639799118,-1.31098401546478,2.69056582450867,-909.900024414062,-5.70000028610229,-878.100036621094,-2.29949356143013,-0.400158126848898,0.0694262968440236,DLR
14.5,-3.80538558959961,-0.765024840831757,8.82440280914307,-1.44817996025085,-0.792688012123108,2.40092992782593,-926.700012207031,-18.3000011444092,-866.100036621094,-2.31863224521869,-0.404757247701049,0.0871362993970716,DLR
14.5333333333333,-3.90348100662231,-0.952841758728027,8.53789234161377,-1.57013201713562,-0.274392008781433,1.97409796714783,-912.300048828125,-6.90000009536743,-870.900024414062,-2.33116263859049,-0.426358691886752,0.11226130986659,DLR
14.5666666666667,-4.37362146377563,-1.35898077487946,8.24899005889893,-1.88263392448425,0.586893975734711,1.82927989959717,-917.100036621094,-9.90000057220459,-880.500061035156,-2.33000956546925,-0.483433720241406,0.164910744202593,DLR
14.6,-4.85452842712402,-1.21841728687286,9.36273193359375,-1.60061991214752,-0.0762199983000755,1.43293595314026,-921.900024414062,-10.5,-866.100036621094,-2.36412761896219,-0.475121134939708,0.130971754924495,DLR
14.6333333333333,-4.04882955551147,-0.733323276042938,8.30043029785156,-0.396344006061554,-0.205793991684914,3.00306797027588,-929.100036621094,-10.5,-868.500061035156,-2.41300688932012,-0.452411739712531,0.0862913959479338,DLR
14.6666666666667,-4.0237078666687,-0.573020994663239,7.67297792434692,-0.160062000155449,0.0457319989800453,1.47866797447205,-909.900024414062,-11.7000007629395,-868.500061035156,-2.43149307843669,-0.482054016485499,0.0735002147761379,DLR
14.7,-4.41608953475952,-0.842185318470001,8.71853160858154,-1.02897000312805,-0.594515979290009,1.35671591758728,-917.100036621094,-6.30000019073486,-870.900024414062,-2.43668728101595,-0.466200371992721,0.0968190917158576,DLR
14.7333333333333,-4.45795965194702,-0.665134966373444,8.26513957977295,-0.769822001457214,-0.884151995182037,1.54726600646973,-924.300048828125,-0.300000011920929,-880.500061035156,-2.46084173645148,-0.491933002160287,0.0801652830309672,DLR
14.7666666666667,-3.93099570274353,-0.90977543592453,8.35665512084961,-1.12043392658234,-1.27287399768829,-0.266770005226135,-933.900024414062,-6.30000019073486,-875.700012207031,-2.45094782245139,-0.435212490519964,0.110476736387491,DLR
14.8,-4.73549795150757,-1.72683870792389,8.59890365600586,-1.04421401023865,-1.14329993724823,0.762199997901917,-921.900024414062,-8.10000038146973,-870.900024414062,-2.42429061431945,-0.493326927373216,0.199002700091219,DLR
14.8333333333333,-4.19776725769043,-0.553880393505096,8.56839847564697,-0.388722002506256,-1.55488801002502,-1.94360995292664,-929.100036621094,-10.5,-868.500061035156,-2.47121150390263,-0.451860088531025,0.0670037948525418,DLR
14.8666666666667,-4.18101930618286,-1.06230187416077,9.40639591217041,0.731711983680725,-1.44817996025085,0.861285984516144,-926.700012207031,-14.7000007629395,-882.900024414062,-2.45925297129212,-0.413597424830916,0.110366344135007,DLR
14.9,-3.89271450042725,-0.519786238670349,8.49243354797363,1.93598794937134,-0.541162014007568,0.434453994035721,-929.100036621094,-10.5,-878.100036621094,-2.47744910356558,-0.428168258171929,0.0574667574554098,DLR
14.9333333333333,-3.26705694198608,-0.160900458693504,7.27042770385742,1.13567793369293,-0.236281991004944,-1.04421401023865,-929.100036621094,-10.5,-880.500061035156,-2.47946433968431,-0.421791614608106,0.0210186773070519,DLR
14.9666666666667,-4.04823160171509,-0.913364291191101,8.31418704986572,0.0076219998300075,-0.503051996231079,-1.13567793369293,-931.500061035156,-12.3000001907349,-875.700012207031,-2.43217567963745,-0.449645540703867,0.110216392276679,DLR
15.0,-4.29466676712036,-0.439036935567856,8.73348522186279,0.0990860015153885,-0.67835795879364,-0.746955990791321,-936.300048828125,-5.10000038146973,-868.500061035156,-2.451394076938,-0.455271353973176,0.0507109537413112,DLR
15.0333333333333,-3.98542666435242,-1.44511342048645,8.06894874572754,-1.12805593013763,0.92988395690918,-1.19665396213531,-921.900024414062,-6.90000009536743,-873.300048828125,-2.38783256889584,-0.453767668758821,0.180160163184121,DLR
15.0666666666667,-4.78334951400757,-1.96908664703369,8.22386741638184,-1.58537602424622,1.16616594791412,-2.04269599914551,-941.100036621094,-8.10000038146973,-868.500061035156,-2.34883861945395,-0.515817057781208,0.239909517241721,DLR
15.1,-6.02270174026489,-1.81476581096649,10.6768522262573,-1.21189796924591,-0.243903994560242,-1.21189796924591,-926.700012207031,-8.10000038146973,-875.700012207031,-2.37841924849338,-0.506762734790951,0.17170826584013,DLR
15.1333333333333,-3.68695330619812,-1.16099548339844,7.25906324386597,1.74543797969818,-2.18751406669617,1.59299790859222,-933.900024414062,-2.10000014305115,-873.300048828125,-2.39516175722231,-0.461608514789119,0.153910137276365,DLR
15.1666666666667,-3.69831800460815,-0.964804589748383,7.68075370788574,-0.0533539988100529,-1.00610399246216,1.2500079870224,-926.700012207031,-7.50000047683716,-878.100036621094,-2.42020627017208,-0.444240484081901,0.123955509704383,DLR
15.2,-4.09907388687134,-1.11852741241455,7.80217695236206,-0.739333987236023,0.0076219998300075,0.449698001146317,-933.900024414062,-11.1000003814697,-880.500061035156,-2.4187635294045,-0.47965463791769,0.14325834772324,DLR
15.2333333333333,-4.34311628341675,-0.268566191196442,9.52183818817139,0.266770005226135,-2.38568592071533,1.85976791381836,-921.900024414062,-6.30000019073486,-868.500061035156,-2.48665777819568,-0.423755025642312,0.0263048879065205,DLR
15.2666666666667,-2.77059817314148,0.119030453264713,7.08799409866333,1.45580196380615,-2.080806016922,4.1311240196228,-933.900024414062,-9.90000057220459,-875.700012207031,-2.53822006801424,-0.368836529362085,-0.0220603115428022,DLR
15.3,-4.12299966812134,-0.683079302310944,8.76817798614502,-1.63872992992401,0.518296003341675,0.922261953353882,-938.700012207031,-11.1000003814697,-873.300048828125,-2.51184097277754,-0.439294511964337,0.0797145050070682,DLR
15.3333333333333,-4.25758171081543,-0.650779545307159,8.59710884094238,-1.2576299905777,-1.32622802257538,1.37958192825317,-931.500061035156,-6.90000009536743,-880.500061035156,-2.5326559607988,-0.456557695427136,0.0764854138576158,DLR
15.3666666666667,-4.55007362365723,-0.824839174747467,9.29215145111084,-1.87501192092896,-0.823175966739655,1.15092194080353,-936.300048828125,-10.5,-878.100036621094,-2.54405618826836,-0.45255822858488,0.0907492364564417,DLR
15.4,-3.77488040924072,-1.97805881500244,7.70946455001831,-0.907018005847931,-0.46494197845459,2.13416004180908,-950.700012207031,-0.300000011920929,-887.700012207031,-2.49896696455398,-0.443005421082172,0.250833941280096,DLR
15.4333333333333,-5.03217697143555,-1.73999786376953,9.77664661407471,-1.64635193347931,0.701223969459534,-1.63110792636871,-945.900024414062,-11.7000007629395,-880.500061035156,-2.5217621536888,-0.469709561661703,0.180592075721386,DLR
15.4666666666667,-3.80000233650208,-0.882260859012604,8.09048175811768,1.44055795669556,-0.533540010452271,0.952749967575073,-943.500061035156,-6.90000009536743,-885.300048828125,-2.55738606118646,-0.436143966335966,0.105410348242012,DLR
15.5,-4.07455015182495,-0.65137767791748,9.13005447387695,1.50915598869324,-0.518296003341675,0.266770005226135,-941.100036621094,-10.5,-875.700012207031,-2.5693150458387,-0.41795651597904,0.0683840200473467,DLR
15.5333333333333,-3.51169729232788,-0.846372306346893,7.18429517745972,1.95123195648193,0.419209986925125,-0.670735955238342,-948.300048828125,-8.70000076293945,-882.900024414062,-2.53623008930108,-0.452475478857426,0.114390837659608,DLR
15.5666666666667,-4.41967821121216,-0.519786238670349,8.66170883178711,0.853663980960846,0.442075997591019,-1.82165801525116,-943.500061035156,-0.900000035762787,-870.900024414062,-2.54165159939142,-0.471636666568065,0.0601795528552814,DLR
15.6,-4.19956159591675,-0.540123105049133,8.54507064819336,1.08232402801514,0.510673999786377,-1.33385002613068,-933.900024414062,-5.70000028610229,-885.300048828125,-2.52497537344398,-0.456772478213847,0.062401940336914,DLR
15.6333333333333,-4.86529493331909,-1.27464270591736,9.23353290557861,1.27287399768829,1.39482593536377,-1.37958192825317,-938.700012207031,-8.10000038146973,-875.700012207031,-2.47125540210286,-0.483135586418442,0.136335372465553,DLR
15.6666666666667,-4.17264556884766,-0.711790144443512,8.84473991394043,1.73019397258759,0.495429992675781,-1.57775402069092,-914.700012207031,-8.10000038146973,-873.300048828125,-2.47660939140006,-0.440277239793577,0.0787039803950863,DLR
15.7,-4.39993953704834,-0.787156164646149,9.07681941986084,1.95123195648193,0.518296003341675,-1.16616594791412,-926.700012207031,-8.70000076293945,-882.900024414062,-2.4564699827762,-0.450614602127404,0.0841088513496153,DLR
15.7333333333333,-3.37890958786011,-0.0568235814571381,7.10653686523438,2.40855193138123,-0.884151995182037,-1.05183601379395,-931.500061035156,-5.70000028610229,-878.100036621094,-2.47258499937169,-0.442278435800642,0.0047863009090703,DLR
15.7666666666667,-3.88254594802856,-1.48160016536713,7.46781492233276,-0.0762199983000755,0.320124000310898,-0.297257989645004,-912.300048828125,-16.5,-887.700012207031,-2.38523900426249,-0.472007414209779,0.196050594699533,DLR
15.8,-4.3484992980957,-0.747080564498901,8.76159858703613,-0.289635986089706,-0.609759986400604,0.0304879993200302,-933.900024414062,-6.30000019073486,-875.700012207031,-2.43687420225467,-0.458214686682204,0.0856082911922907,DLR
15.8333333333333,-4.23963737487793,-1.20107114315033,7.81952285766602,-0.129574000835419,0.0304879993200302,0.396344006061554,-929.100036621094,-11.7000007629395,-873.300048828125,-2.41022863808425,-0.49206898397129,0.15218404394864,DLR
15.8666666666667,-4.75045156478882,-1.20465993881226,9.81133937835693,-2.33233189582825,0.6250039935112,0.0762199983000755,-917.100036621094,-9.30000019073486,-880.500061035156,-2.43169885379339,-0.449142239755614,0.126274080422594,DLR
15.9,-4.66013193130493,-0.668723821640015,9.09596061706543,-0.640248000621796,-1.64635193347931,3.24697184562683,-931.500061035156,-5.70000028610229,-882.900024414062,-2.48818052853379,-0.469890374499119,0.0715837538360755,DLR
15.9333333333333,-3.85443329811096,-0.906784772872925,8.55165004730225,-2.28659987449646,0.121951997280121,2.58385801315308,-933.900024414062,-3.90000009536743,-882.900024414062,-2.50287559667307,-0.422138412868825,0.10756628191078,DLR
15.9666666666667,-3.88613486289978,-1.26626861095428,7.80516767501831,-0.746955990791321,-0.990859985351562,2.77440786361694,-931.500061035156,-4.5,-892.500061035156,-2.50775286981508,-0.455801953317814,0.159572045198606,DLR
16.0,-4.83120059967041,-1.40264523029327,8.62522125244141,-2.09605002403259,1.19665396213531,1.41769194602966,-924.300048828125,-5.10000038146973,-870.900024414062,-2.52598750153578,-0.507449978754641,0.163694006593498,DLR
16.0333333333333,-4.69602060317993,-1.32428848743439,9.16594314575195,-1.03659200668335,-0.701223969459534,1.29574000835419,-926.700012207031,-3.90000009536743,-870.900024414062,-2.5508892095273,-0.468464997289834,0.144104436976519,DLR
16.0666666666667,-4.3724250793457,-0.934897482395172,8.62282943725586,0.632625997066498,-1.05945801734924,3.71953582763672,-931.500061035156,3.30000019073486,-885.300048828125,-2.59788220379718,-0.465781467858237,0.103616836892555,DLR
16.1,-3.54220271110535,-0.111852735280991,8.85191822052002,1.06708002090454,-0.594515979290009,2.0731840133667,-938.700012207031,-4.5,-875.700012207031,-2.65137495722774,-0.379707995558965,0.0094141958673127,DLR
16.1333333333333,-2.98473334312439,-0.268566191196442,6.94683265686035,2.37044191360474,-1.05183601379395,2.69056582450867,-941.100036621094,-6.30000019073486,-878.100036621094,-2.65717923607293,-0.403818934008932,0.0324304920772829,DLR
16.1666666666667,-5.37251996994019,-0.425877809524536,8.25377464294434,-1.82165801525116,2.38568592071533,-1.95885396003723,-943.500061035156,-9.30000019073486,-890.100036621094,-2.63723995218124,-0.580240380543302,0.0570878090108933,DLR
16.2,-5.03995275497437,-0.473729223012924,8.50200462341309,-0.823175966739655,-0.510673999786377,0.518296003341675,-948.300048828125,-5.70000028610229,-880.500061035156,-2.64625876008873,-0.533634550857032,0.0565358563417919,DLR
16.2333333333333,-4.98372745513916,-0.659751713275909,9.78442287445068,-0.655492007732391,-0.228659987449646,1.50153398513794,-931.500061035156,-14.1000003814697,-878.100036621094,-2.65633022634472,-0.470067614548836,0.0671097879450998,DLR
16.2666666666667,-3.88673305511475,-1.39068245887756,8.06894874572754,0.221037998795509,0.472563982009888,0.342989981174469,-943.500061035156,-5.70000028610229,-890.100036621094,-2.61224953733766,-0.44415757134277,0.169905848673044,DLR
16.3,-4.25279664993286,-0.257799625396729,9.69290637969971,0.586893975734711,-0.503051996231079,-1.38720393180847,-931.500061035156,-2.70000004768372,-866.100036621094,-2.6580942627386,-0.412445345942223,0.0268491636407432,DLR
16.3333333333333,-3.96150088310242,-0.0388792939484119,7.79739189147949,2.62196803092957,-0.830797970294952,0.0076219998300075,-933.900024414062,-9.90000057220459,-882.900024414062,-2.6578056783873,-0.468574845077742,0.0004202561598876,DLR
16.3666666666667,-3.49315500259399,-0.420494496822357,6.47011232376099,0.663114011287689,0.213415995240211,-1.31860601902008,-926.700012207031,-9.30000019073486,-880.500061035156,-2.61425006356499,-0.494351370247623,0.0648836570206819,DLR
16.4,-4.75164794921875,-0.423485219478607,9.78681564331055,-0.884151995182037,0.426831990480423,-2.11891603469849,-936.300048828125,-6.90000009536743,-866.100036621094,-2.608544815508,-0.45226829351251,0.0466286093900629,DLR
16.4333333333333,-4.79949903488159,-0.816465139389038,7.93556261062622,0.769822001457214,0.426831990480423,0.137196004390717,-943.500061035156,-8.10000038146973,-875.700012207031,-2.57979836415609,-0.542237760388456,0.100989572890227,DLR
16.4666666666667,-4.70140361785889,-1.32907366752625,8.620436668396,-0.365855991840363,0.762199997901917,-2.26373386383057,-941.100036621094,-6.90000009536743,-887.700012207031,-2.53316198440764,-0.49509923092725,0.155796900031876,DLR
16.5,-5.38627767562866,-1.58866775035858,10.5326995849609,0.152439996600151,0.121951997280121,-0.693601965904236,-929.100036621094,-9.90000057220459,-878.100036621094,-2.52940296598151,-0.468244294717175,0.150068625270486,DLR
16.5333333333333,-4.91793155670166,-0.863120317459106,8.90395641326904,1.6692179441452,0.167683988809586,-0.152439996600151,-919.500061035156,-8.70000076293945,-868.500061035156,-2.54689562619797,-0.502865471497944,0.0939764647771143,DLR
16.5666666666667,-3.22040176391602,-0.266771763563156,7.71903514862061,1.13567793369293,-1.34909391403198,-0.243903994560242,-926.700012207031,-6.90000009536743,-880.500061035156,-2.56767074399024,-0.392851390245916,0.0328046738940041,DLR
16.6,-3.84905004501343,-1.17834162712097,7.24650192260742,0.967993974685669,-0.746955990791321,1.54726600646973,-943.500061035156,-3.90000009536743,-882.900024414062,-2.52429132279825,-0.481903367251862,0.157835412299043,DLR
16.6333333333333,-4.00875425338745,-0.590367138385773,8.18797874450684,-1.07470202445984,1.22714197635651,-1.60061991214752,-931.500061035156,-11.7000007629395,-875.700012207031,-2.55104330496773,-0.456210428269385,0.075360634999427,DLR
16.6666666666667,-4.74925518035889,-0.988132178783417,7.9313759803772,-0.762199997901917,0.152439996600151,0.807931959629059,-938.700012207031,-6.30000019073486,-873.300048828125,-2.53803299777034,-0.536500702551778,0.124413289667665,DLR
16.7,-5.15958118438721,-1.82254159450531,7.59402322769165,-2.21037983894348,0.868907988071442,0.304879993200302,-933.900024414062,-4.5,-880.500061035156,-2.48888429853542,-0.585361430160109,0.239097010982671,DLR
16.7333333333333,-5.74336862564087,-1.57969558238983,10.572774887085,-3.07166600227356,-0.0304879993200302,-1.33385002613068,-933.900024414062,-7.50000047683716,-875.700012207031,-2.53539647629397,-0.492762037746595,0.155038256657653,DLR
16.7666666666667,-4.96219396591187,-0.494664251804352,9.02059459686279,1.6692179441452,-2.21800184249878,5.66314601898193,-921.900024414062,-11.7000007629395,-870.900024414062,-2.6265962186879,-0.498891087663726,0.0465556980185038,DLR
16.8,-3.44590163230896,-1.12809765338898,7.04552602767944,1.29574000835419,-1.85976791381836,2.86587190628052,-921.900024414062,-4.5,-882.900024414062,-2.59796370671654,-0.4475544852154,0.153714263970466,DLR
16.8333333333333,-3.82033920288086,0.334361910820007,8.02707862854004,-0.129574000835419,-1.19665396213531,0.746955990791321,-938.700012207031,-8.10000038146973,-885.300048828125,-2.68886833476276,-0.441757517587244,-0.0416556364324842,DLR
16.8666666666667,-4.39336013793945,0.0873288735747337,8.78552436828613,-0.716467976570129,-1.29574000835419,3.17837381362915,-941.100036621094,-10.5,-882.900024414062,-2.70470459677795,-0.461323000205116,-0.0114848628679605,DLR
16.9,-4.59613037109375,0.253612607717514,7.09935903549194,-0.510673999786377,-2.01982998847961,4.1997218132019,-962.700012207031,-8.70000076293945,-880.500061035156,-2.75449299865622,-0.570304765582211,-0.0393881681470526,DLR
16.9333333333333,-5.41857719421387,-1.04435765743256,8.37280559539795,-3.39941191673279,-0.571649968624115,6.77595806121826,-938.700012207031,-8.70000076293945,-882.900024414062,-2.73878519677922,-0.571299894915187,0.122187192042984,DLR
16.9666666666667,-6.49224376678467,-0.656760990619659,10.1193828582764,-4.45886993408203,-0.0076219998300075,4.72563982009888,-953.100036621094,-8.10000038146973,-882.900024414062,-2.82887724157692,-0.570013570418741,0.0673853619562557,DLR
17.0,-5.65544176101685,-0.394774347543716,8.89857292175293,-3.53660798072815,-4.28356409072876,10.9375696182251,-953.100036621094,-8.10000038146973,-890.100036621094,-2.95784007520326,-0.558964628550889,0.0383880365172287,DLR
17.0333333333333,-4.55246639251709,0.194396466016769,8.16943645477295,-4.45124769210815,-4.94667768478394,10.5869579315186,-953.100036621094,-9.30000019073486,-880.500061035156,-3.09480957361172,-0.499264421241781,-0.0258975266656674,DLR
17.0666666666667,-3.5033233165741,-0.745884299278259,7.07543325424194,-5.21344804763794,-6.50156593322754,14.6647272109985,-979.500061035156,-3.90000009536743,-894.900024414062,3.09571813665046,-0.448867012650578,0.101117237206744,DLR
17.1,-3.31012320518494,-1.43793570995331,6.92171049118042,-8.26986980438232,-3.43752193450928,13.0259981155396,-984.300048828125,4.5,-902.100036621094,2.99704910521841,-0.436704834587347,0.208114524545097,DLR
17.1333333333333,-3.5613431930542,-1.52347016334534,7.83088779449463,-8.55950546264648,-3.16313004493713,13.9787473678589,-998.700012207031,2.10000014305115,-894.900024414062,2.82061972841172,-0.419183179872289,0.195938281230941,DLR
17.1666666666667,-4.29646110534668,-2.60610890388489,9.60976505279541,-8.32322406768799,-1.37195992469788,12.256175994873,-1008.30004882812,-3.30000019073486,-897.300048828125,2.70445348189151,-0.410745024155794,0.270017684098106,DLR
17.2,-4.02490425109863,-1.72564244270325,10.6511316299438,-6.44058990478516,-2.39330792427063,11.0595216751099,-1001.10003662109,-0.900000035762787,-914.100036621094,2.54273793316277,-0.356156960760976,0.164639344353068,DLR
17.2333333333333,-3.34780621528625,-2.61328673362732,8.36084270477295,-5.19820404052734,-4.01679372787476,12.4619693756104,-1013.10003662109,7.50000047683716,-906.900024414062,2.46173398190918,-0.364789540927767,0.303056189192038,DLR
17.2666666666667,-2.77358889579773,-2.39616084098816,8.54207992553711,-4.72563982009888,-2.29422187805176,8.62048149108887,-1010.70001220703,5.70000028610229,-909.300048828125,2.3503486788429,-0.303295729029965,0.276866082055227,DLR
17.3,-2.68027853965759,-1.90329098701477,8.50798606872559,-3.65855979919434,-1.76068198680878,8.32322406768799,-1027.5,5.10000038146973,-906.900024414062,2.24141729112398,-0.298463672866,0.221941079191297,DLR
17.3333333333333,-3.29816031455994,-1.78126978874207,8.76578521728516,-2.68294382095337,-1.52439999580383,7.06559371948242,-1029.90002441406,5.10000038146973,-911.700012207031,2.16343207785155,-0.353010129645984,0.200556211690325,DLR
17.3666666666667,-3.45607018470764,-1.44032824039459,8.23583030700684,-1.38720393180847,-0.78506600856781,4.86283588409424,-1025.10009765625,9.90000057220459,-916.500061035156,2.10614164989431,-0.392014033518533,0.172053756358013,DLR
17.4,-4.25997447967529,-2.03189158439636,10.1762065887451,-0.617381989955902,0.419209986925125,4.61893177032471,-1015.50006103516,14.7000007629395,-897.300048828125,2.07473190802074,-0.391817448118314,0.194911863918858,DLR
17.4333333333333,-3.52904343605042,-2.23047518730164,8.92010593414307,-1.15854394435883,-1.33385002613068,2.40092992782593,-1034.70007324219,12.9000005722046,-897.300048828125,2.06430797429603,-0.365251163726638,0.245237237305049,DLR
17.4666666666667,-3.41719079017639,-1.43554317951202,7.83746719360352,-1.12805593013763,-1.15854394435883,1.57013201713562,-1032.30004882812,12.3000001907349,-909.300048828125,2.02093294250395,-0.403606026382222,0.181902960642623,DLR
