seconds,sensor_accX_m_s_,sensor_accY_m_s_,sensor_accZ_m_s_,sensor_gyroX___s_,sensor_gyroY___s_,sensor_gyroZ___s_,sensor_magX__T_,sensor_magY__T_,sensor_magZ__T_,sensor_yaw___,sensor_pitch___,sensor_roll___,label5
0.0,-3.76531004905701,-0.965402781963348,8.88302135467529,1.09756803512573,0.167683988809586,1.6920839548111,-1053.90002441406,15.3000001907349,-914.100036621094,0.270605095101301,-0.399417301268386,0.105118160429651,ST
0.0333333333333333,-3.24851441383362,-1.42238402366638,8.47030258178711,0.861285984516144,-0.0304879993200302,1.80641400814056,-1051.5,24.9000015258789,-911.700012207031,0.27592197331956,-0.362063450926045,0.163676506977002,ST
0.0666666666666667,-3.44410729408264,-1.31112945079803,8.4948263168335,0.0457319989800453,0.0228659994900227,0.114329993724823,-1056.30004882812,16.5,-909.300048828125,0.271013451563762,-0.381167773178274,0.152982077532097,ST
0.1,-3.60859656333923,-1.31531643867493,8.63658618927002,-0.121951997280121,0.121951997280121,0.769822001457214,-1051.5,15.3000001907349,-914.100036621094,0.261327414038703,-0.392127240241765,0.150811855774907,ST
0.133333333333333,-3.30952501296997,-1.70052051544189,8.52712631225586,-0.144817993044853,0.175305992364883,0.182927995920181,-1056.30004882812,18.3000011444092,-914.100036621094,0.27595996751581,-0.364056590306942,0.196993286275433,ST
0.166666666666667,-3.5792875289917,-1.83570075035095,8.51695823669434,-0.487807989120483,0.114329993724823,-1.01372599601746,-1051.5,14.7000007629395,-899.700012207031,0.291321098820929,-0.389613423489837,0.21386222143678,ST
0.2,-3.6654200553894,-1.74478304386139,8.644362449646,-0.282013982534409,-0.182927995920181,-0.807931959629059,-1051.5,18.3000011444092,-909.300048828125,0.29323874031394,-0.393323994736542,0.200207302103591,ST
0.233333333333333,-4.14273834228516,-1.83091568946838,8.87165641784668,-0.144817993044853,-0.243903994560242,-0.602137982845306,-1039.5,22.5,-906.900024414062,0.300550860125229,-0.428296400364941,0.204203787298327,ST
0.266666666666667,-3.58467078208923,-1.77827906608582,8.46013450622559,0.518296003341675,0.0457319989800453,-0.396344006061554,-1051.5,17.1000003814697,-906.900024414062,0.30835611170871,-0.39301753209716,0.206561493277939,ST
0.3,-4.10326099395752,-1.52646088600159,8.90993785858154,0.609759986400604,0.365855991840363,-0.114329993724823,-1049.10009765625,15.3000001907349,-914.100036621094,0.298702010970207,-0.426696558668146,0.16875137962339,ST
0.333333333333333,-3.72104740142822,-1.78904557228088,9.66240119934082,0.846041977405548,-0.228659987449646,1.12043392658234,-1041.90002441406,21.3000011444092,-906.900024414062,0.294186323893115,-0.361958379661326,0.180847036508148,ST
0.366666666666667,-3.39505958557129,-1.69154834747314,8.61146450042725,0.556405961513519,-1.6920839548111,-0.0533539988100529,-1044.30004882812,18.3000011444092,-909.300048828125,0.297811371765546,-0.366207225846899,0.192803296355039,ST
0.4,-3.36216163635254,-1.24952065944672,7.95350694656372,0.525918006896973,-0.495429992675781,-0.335367977619171,-1065.90002441406,18.9000015258789,-906.900024414062,0.289049610251836,-0.394639258211875,0.155104902790168,ST
0.433333333333333,-3.45666813850403,-1.70410931110382,8.18080139160156,-0.304879993200302,0.243903994560242,-0.266770005226135,-1053.90002441406,14.7000007629395,-897.300048828125,0.310912643124782,-0.392543831650147,0.20612277177945,ST
0.466666666666667,-4.00396919250488,-1.67539846897125,8.20472717285156,-0.632625997066498,0.609759986400604,-0.754577994346619,-1061.10009765625,12.3000001907349,-911.700012207031,0.315938708842464,-0.446772846800272,0.203254855682874,ST
0.5,-4.49743700027466,-1.4481041431427,8.87404918670654,-0.0152439996600151,1.15092194080353,0.419209986925125,-1056.30004882812,18.9000015258789,-906.900024414062,0.295099561507692,-0.465897091173686,0.161593942698448,ST
0.533333333333333,-3.97944521903992,-1.85723388195038,9.81851673126221,0.792688012123108,0.503051996231079,0.87652999162674,-1046.70007324219,12.9000005722046,-916.500061035156,0.299795505013038,-0.380150751908646,0.18502340584517,ST
0.566666666666667,-3.40582609176636,-1.92960917949677,8.83576774597168,0.388722002506256,-2.01220798492432,0.480185985565186,-1053.90002441406,12.9000005722046,-909.300048828125,0.301744300490598,-0.356909323375167,0.213740882698031,ST
0.6,-3.3047399520874,-1.43793570995331,8.27052307128906,0.609759986400604,-1.04421401023865,-0.37347799539566,-1041.90002441406,20.7000007629395,-909.300048828125,0.291300043484127,-0.373131372022887,0.171216445840064,ST
0.633333333333333,-3.5033233165741,-1.11434030532837,8.81782341003418,1.10518991947174,0.228659987449646,0.175305992364883,-1044.30004882812,22.5,-909.300048828125,0.277189713722267,-0.375900226587906,0.123688866388218,ST
0.666666666666667,-3.54220271110535,-1.46305775642395,8.29325199127197,0.6250039935112,0.426831990480423,1.53202199935913,-1056.30004882812,11.7000007629395,-911.700012207031,0.282069335302501,-0.399347545617624,0.172463273860633,ST
0.7,-3.75932860374451,-1.54141438007355,8.77475738525391,0.0685980021953583,0.472563982009888,0.6250039935112,-1041.90002441406,12.9000005722046,-911.700012207031,0.276626793005542,-0.400297083262532,0.173376351189219,ST
0.733333333333333,-3.57390427589417,-1.48877787590027,8.59232425689697,-0.320124000310898,-0.221037998795509,1.00610399246216,-1039.5,15.3000001907349,-906.900024414062,0.262877961235677,-0.388877847330241,0.171388191881653,ST
0.766666666666667,-3.33644151687622,-1.84527111053467,8.45833969116211,-0.708845973014832,-0.266770005226135,0.891773998737335,-1053.90002441406,12.3000001907349,-899.700012207031,0.265570046872596,-0.367732134162274,0.215397845282121,ST
0.8,-3.50272512435913,-1.86919677257538,8.5067892074585,-0.815553963184357,-0.167683988809586,-0.289635986089706,-1046.70007324219,14.7000007629395,-911.700012207031,0.265594609296701,-0.381971378431796,0.217888713479396,ST
0.833333333333333,-3.54638957977295,-1.70889449119568,8.50200462341309,-0.480185985565186,0.175305992364883,0.0762199983000755,-1049.10009765625,7.50000047683716,-899.700012207031,0.255921767172947,-0.388518566454121,0.199169521270413,ST
0.866666666666667,-3.67558860778809,-2.08572459220886,8.63120269775391,-0.365855991840363,0.282013982534409,0.259148001670837,-1041.90002441406,16.5,-902.100036621094,0.266773288765946,-0.393044912486035,0.237599535893251,ST
0.9,-3.97107124328613,-1.94336652755737,8.71853160858154,-0.213415995240211,-0.0304879993200302,-0.708845973014832,-1044.30004882812,19.5,-899.700012207031,0.266458757948556,-0.417997070967929,0.220222942416898,ST
0.933333333333333,-3.80658197402954,-1.722651720047,8.6264181137085,0.282013982534409,-0.190549999475479,-0.0762199983000755,-1039.5,15.3000001907349,-902.100036621094,0.258759634152917,-0.408046915723028,0.19664344051859,ST
0.966666666666667,-3.86340546607971,-1.91704821586609,8.54507064819336,0.182927995920181,-0.335367977619171,-0.0228659994900227,-1061.10009765625,17.1000003814697,-906.900024414062,0.268569321206326,-0.41489304771093,0.220327549566931,ST
1.0,-3.73958992958069,-1.67480027675629,8.70656871795654,0.182927995920181,-0.0914639979600906,-0.0152439996600151,-1046.70007324219,17.7000007629395,-906.900024414062,0.257288039742154,-0.39898278550097,0.189725046325221,ST
1.03333333333333,-3.65764427185059,-1.76691436767578,8.57916450500488,0.266770005226135,-0.198172003030777,0.388722002506256,-1049.10009765625,15.9000005722046,-904.500061035156,0.258720011296146,-0.395364260959679,0.202339225774341,ST
1.06666666666667,-3.76949691772461,-1.73939979076385,8.37459945678711,0.266770005226135,0.0,0.358233988285065,-1053.90002441406,18.9000015258789,-911.700012207031,0.256801975576989,-0.415219967062666,0.204051955851252,ST
1.1,-3.77129149436951,-1.79323267936707,8.63718414306641,0.152439996600151,0.350611984729767,0.457319974899292,-1037.10009765625,20.7000007629395,-902.100036621094,0.253283737302491,-0.404763849035515,0.204161865272483,ST
1.13333333333333,-3.74018788337708,-1.66941702365875,8.36084270477295,0.144817993044853,-0.0076219998300075,0.449698001146317,-1037.10009765625,17.7000007629395,-902.100036621094,0.246030275915035,-0.413544096353807,0.19648915467403,ST
1.16666666666667,-3.79103016853333,-1.86022460460663,8.5426778793335,0.0685980021953583,0.190549999475479,0.403965979814529,-1039.5,22.5,-906.900024414062,0.249436173153644,-0.409619654096015,0.214017467717638,ST
1.2,-3.73899173736572,-1.88833737373352,8.60608100891113,0.0762199983000755,-0.221037998795509,0.335367977619171,-1058.70007324219,11.7000007629395,-926.100036621094,0.246243439176372,-0.401082050893507,0.215585126168246,ST
1.23333333333333,-3.76291751861572,-1.76990509033203,8.47389125823975,0.144817993044853,-0.434453994035721,0.213415995240211,-1037.10009765625,18.9000015258789,-909.300048828125,0.239467404953734,-0.409373722789681,0.205428523738293,ST
1.26666666666667,-3.70489764213562,-1.84407472610474,8.55763149261475,0.205793991684914,-0.3125019967556,0.442075997591019,-1046.70007324219,19.5,-911.700012207031,0.237295718986064,-0.399993088600254,0.211515425527586,ST
1.3,-3.70370125770569,-1.94097399711609,8.488844871521,0.167683988809586,-0.480185985565186,0.25152599811554,-1041.90002441406,19.5,-904.500061035156,0.239136020121669,-0.401426649562695,0.22422934826106,ST
1.33333333333333,-3.75095462799072,-1.8327100276947,8.49781703948975,0.213415995240211,-0.274392008781433,-0.0228659994900227,-1044.30004882812,16.5,-914.100036621094,0.235030542943166,-0.406870800307218,0.212016446200449,ST
1.36666666666667,-3.82632064819336,-1.79323267936707,8.62881088256836,0.327746003866196,-0.335367977619171,0.144817993044853,-1037.10009765625,21.3000011444092,-914.100036621094,0.23116199579283,-0.409080559413298,0.2041734064002,ST
1.4,-3.69831800460815,-1.86680424213409,8.61864185333252,0.411587983369827,-0.442075997591019,0.388722002506256,-1053.90002441406,20.7000007629395,-906.900024414062,0.230985022924154,-0.39649398730404,0.212239533543427,ST
1.43333333333333,-3.73061776161194,-1.7806715965271,8.42125511169434,0.350611984729767,-0.274392008781433,0.0838419944047928,-1034.70007324219,14.1000003814697,-906.900024414062,0.229329513004303,-0.408537158296349,0.207664451685959,ST
1.46666666666667,-3.75573968887329,-1.68676316738129,8.68443775177002,0.342989981174469,-0.228659987449646,0.274392008781433,-1044.30004882812,14.7000007629395,-897.300048828125,0.220850850522125,-0.401176497359844,0.191012060626072,ST
1.5,-3.73540282249451,-1.85364508628845,8.65273666381836,0.198172003030777,-0.388722002506256,0.548784017562866,-1058.70007324219,20.1000003814697,-909.300048828125,0.222391713364311,-0.398969334523109,0.210231771693843,ST
1.53333333333333,-3.68755149841309,-1.79442894458771,8.55942630767822,0.129574000835419,-0.213415995240211,0.434453994035721,-1041.90002441406,14.7000007629395,-906.900024414062,0.216160496571315,-0.398821551852839,0.206080653962832,ST
1.56666666666667,-3.69592547416687,-1.76033473014832,8.58813667297363,0.121951997280121,-0.190549999475479,0.419209986925125,-1053.90002441406,14.1000003814697,-904.500061035156,0.210001119449157,-0.398797258954071,0.201630509416507,ST
1.6,-3.70250487327576,-1.75435328483582,8.58574390411377,0.282013982534409,-0.121951997280121,0.541162014007568,-1037.10009765625,14.1000003814697,-916.500061035156,0.204770361951319,-0.399738102593484,0.200657737772281,ST
1.63333333333333,-3.69173836708069,-1.77229762077332,8.54626655578613,0.274392008781433,-0.167683988809586,0.525918006896973,-1046.70007324219,15.9000005722046,-902.100036621094,0.200652205764044,-0.400050442544662,0.203594161062873,ST
1.66666666666667,-3.76531004905701,-1.64728569984436,8.59112739562988,0.243903994560242,-0.297257989645004,0.282013982534409,-1051.5,19.5,-904.500061035156,0.192295966582295,-0.406048983340141,0.188771138837946,ST
1.7,-3.70011234283447,-1.78605496883392,8.68443775177002,0.274392008781433,-0.350611984729767,0.525918006896973,-1046.70007324219,17.7000007629395,-916.500061035156,0.192178905906244,-0.394941692605081,0.201925393590628,ST
1.73333333333333,-3.67080330848694,-1.65984678268433,8.57079029083252,0.396344006061554,-0.571649968624115,0.388722002506256,-1044.30004882812,19.5,-904.500061035156,0.184053127993505,-0.397183998247451,0.19024701357802,ST
1.76666666666667,-3.62833523750305,-1.68736135959625,8.6144552230835,0.274392008781433,-0.37347799539566,0.190549999475479,-1044.30004882812,17.7000007629395,-897.300048828125,0.183251215497521,-0.391375020961995,0.192761131936282,ST
1.8,-3.74018788337708,-1.57132160663605,8.57318305969238,0.205793991684914,-0.510673999786377,0.190549999475479,-1041.90002441406,18.3000011444092,-914.100036621094,0.176438851042033,-0.404533461139553,0.180706079555502,ST
1.83333333333333,-3.78265619277954,-1.63950991630554,8.57019233703613,0.190549999475479,-0.320124000310898,0.518296003341675,-1046.70007324219,14.7000007629395,-916.500061035156,0.173697395786723,-0.408678443933205,0.188256276221285,ST
1.86666666666667,-3.71686053276062,-1.65745413303375,8.80705738067627,0.182927995920181,-0.259148001670837,0.609759986400604,-1049.10009765625,20.1000003814697,-904.500061035156,0.166145941481679,-0.392912944530531,0.18523358171573,ST
1.9,-3.6193630695343,-1.81237316131592,8.65572738647461,-0.0076219998300075,-0.449698001146317,0.457319974899292,-1039.5,17.7000007629395,-909.300048828125,0.167811112730525,-0.387869046399377,0.206027422719687,ST
1.93333333333333,-3.65226101875305,-1.50552582740784,8.584547996521,0.0685980021953583,-0.297257989645004,0.274392008781433,-1044.30004882812,12.3000001907349,-906.900024414062,0.152004920523874,-0.396390221760774,0.173263372594999,ST
1.96666666666667,-3.5733060836792,-1.69453907012939,8.6144552230835,0.160062000155449,-0.3125019967556,0.388722002506256,-1053.90002441406,17.1000003814697,-909.300048828125,0.155567251087875,-0.386127225725951,0.193631630880576,ST
2.0,-3.64269065856934,-1.58089184761047,8.58634281158447,0.365855991840363,-0.160062000155449,0.320124000310898,-1051.5,9.90000057220459,-909.300048828125,0.14849289601711,-0.395095862982043,0.181190151929212,ST
2.03333333333333,-3.61158728599548,-1.76990509033203,8.67785835266113,0.129574000835419,-0.0304879993200302,-0.0457319989800453,-1053.90002441406,26.1000003814697,-899.700012207031,0.157070682262444,-0.387136618299543,0.20099392510847,ST
2.06666666666667,-3.57749319076538,-1.64728569984436,8.65512847900391,0.0762199983000755,-0.205793991684914,-0.0533539988100529,-1049.10009765625,14.7000007629395,-914.100036621094,0.152672196928796,-0.385340277401353,0.18795437443136,ST
2.1,-3.60022258758545,-1.75315701961517,8.60966968536377,0.0152439996600151,-0.0838419944047928,-0.190549999475479,-1034.70007324219,18.3000011444092,-911.700012207031,0.159680237749254,-0.38867449888955,0.200973499424499,ST
2.13333333333333,-3.6833643913269,-1.71427774429321,8.59710884094238,0.144817993044853,-0.0076219998300075,-0.175305992364883,-1056.30004882812,8.10000038146973,-909.300048828125,0.160618071978671,-0.397698014489524,0.196693316175549,ST
2.16666666666667,-3.85144257545471,-1.68137991428375,8.76758003234863,0.3125019967556,0.0381099991500378,-0.152439996600151,-1070.70007324219,17.1000003814697,-916.500061035156,0.160858710516833,-0.407309750770927,0.189046460748908,ST
2.2,-3.78983378410339,-1.62874329090118,8.55224800109863,0.350611984729767,-0.365855991840363,-0.0152439996600151,-1061.10009765625,15.9000005722046,-904.500061035156,0.161357481278805,-0.409942049372383,0.187540428350279,ST
2.23333333333333,-3.82691884040833,-1.46844100952148,8.35725402832031,0.304879993200302,-0.228659987449646,0.0076219998300075,-1049.10009765625,24.9000015258789,-904.500061035156,0.156607201573932,-0.423297036078735,0.173367118062817,ST
2.26666666666667,-3.95551943778992,-1.4241783618927,8.46133041381836,0.0457319989800453,0.129574000835419,0.716467976570129,-1063.5,14.1000003814697,-902.100036621094,0.146306767605253,-0.43238957926294,0.166123163917946,ST
2.3,-4.11821413040161,-1.36436414718628,8.60189437866211,0.350611984729767,0.205793991684914,1.13567793369293,-1046.70007324219,15.3000001907349,-909.300048828125,0.131824378729603,-0.442349799766933,0.155791472250082,ST
2.33333333333333,-3.94953799247742,-1.36256968975067,8.1903715133667,0.777444005012512,0.274392008781433,1.02897000312805,-1056.30004882812,15.3000001907349,-911.700012207031,0.128218939023025,-0.444766480400809,0.162687277715313,ST
2.36666666666667,-4.02550220489502,-1.33266258239746,8.1724271774292,0.823175966739655,0.6250039935112,0.884151995182037,-1049.10009765625,16.5,-911.700012207031,0.122799372603529,-0.453827295545237,0.159552111520895,ST
2.4,-4.13615846633911,-1.41640257835388,8.15268898010254,0.541162014007568,0.342989981174469,0.564027965068817,-1046.70007324219,15.9000005722046,-904.500061035156,0.125239746693983,-0.464282083734151,0.170636034195847,ST
2.43333333333333,-4.274329662323,-1.34283101558685,8.15807151794434,-0.266770005226135,-0.0914639979600906,-0.556405961513519,-1053.90002441406,15.9000005722046,-906.900024414062,0.126537054316372,-0.476822045356945,0.164087339190269,ST
2.46666666666667,-4.41668748855591,-1.03837621212006,8.44278812408447,-0.487807989120483,-0.472563982009888,-0.449698001146317,-1051.5,13.5000009536743,-902.100036621094,0.109387640496533,-0.477989361146374,0.123584535356999,ST
2.5,-4.07275533676147,-1.47681498527527,8.05279922485352,-1.11281192302704,-0.914639949798584,0.487807989120483,-1049.10009765625,12.3000001907349,-904.500061035156,0.123215568785935,-0.460203024514322,0.182747308835956,ST
2.53333333333333,-4.26954460144043,-1.21363210678101,8.5307149887085,-1.13567793369293,-0.586893975734711,0.0,-1051.5,14.7000007629395,-911.700012207031,0.0986505195313484,-0.459029669144458,0.143237461243073,ST
2.56666666666667,-4.09727954864502,-1.48100197315216,8.74305534362793,-0.655492007732391,-0.967993974685669,0.647870004177094,-1041.90002441406,16.5,-918.900024414062,0.0973508713126685,-0.431359693283663,0.168294444698897,ST
2.6,-3.81076884269714,-1.8949168920517,8.60309028625488,-0.922261953353882,-0.853663980960846,0.579271972179413,-1058.70007324219,20.7000007629395,-916.500061035156,0.104805184591104,-0.407046516826518,0.217833125796272,ST
2.63333333333333,-3.87895727157593,-2.13417410850525,8.79748725891113,-0.945127964019775,-0.670735955238342,-1.12043392658234,-1053.90002441406,24.9000015258789,-897.300048828125,0.119895837369532,-0.403220774723137,0.24033147775802,ST
2.66666666666667,-3.9537250995636,-1.8949168920517,8.78672027587891,-0.289635986089706,-0.190549999475479,-1.18903195858002,-1041.90002441406,21.9000015258789,-899.700012207031,0.12035503049006,-0.413617160211657,0.213775044886858,ST
2.7,-4.18759870529175,-2.40214228630066,8.50619125366211,-0.342989981174469,0.388722002506256,-0.358233988285065,-1039.5,16.5,-904.500061035156,0.14951549240484,-0.442922867602309,0.276193353195127,ST
2.73333333333333,-4.45975399017334,-2.26038217544556,8.39732933044434,-0.0533539988100529,0.457319974899292,-1.50915598869324,-1056.30004882812,19.5,-899.700012207031,0.16204115318909,-0.473943480942526,0.264451683019717,ST
2.76666666666667,-4.46932411193848,-2.04744338989258,7.98640489578247,-0.198172003030777,0.327746003866196,-0.228659987449646,-1049.10009765625,18.9000015258789,-906.900024414062,0.158139624801931,-0.497196518873002,0.251596884091453,ST
2.8,-4.61048603057861,-2.11802434921265,8.1485013961792,-0.327746003866196,0.266770005226135,-0.480185985565186,-1044.30004882812,20.1000003814697,-906.900024414062,0.1641454993258,-0.501246106179505,0.25538110127071,ST
2.83333333333333,-4.64876699447632,-1.99719941616058,8.18977355957031,-0.320124000310898,0.0152439996600151,0.739333987236023,-1044.30004882812,16.5,-906.900024414062,0.146563685089398,-0.504301698095546,0.239069271159721,ST
2.86666666666667,-4.67927265167236,-1.99660122394562,8.18020343780518,-0.282013982534409,-0.121951997280121,0.952749967575073,-1041.90002441406,19.5,-914.100036621094,0.134762808216172,-0.507403098978633,0.238962626454967,ST
2.9,-4.65953397750854,-1.79741966724396,7.98461055755615,0.0685980021953583,-0.160062000155449,1.41006994247437,-1061.10009765625,20.7000007629395,-911.700012207031,0.1109863478823,-0.517815761501292,0.219901510377549,ST
2.93333333333333,-4.77258253097534,-1.88714110851288,8.03664875030518,0.0609759986400604,0.0762199983000755,1.64635193347931,-1049.10009765625,19.5,-909.300048828125,0.0982516405844169,-0.524962910137953,0.228928458379192,ST
2.96666666666667,-4.78873252868652,-1.96729218959808,7.99178838729858,-0.358233988285065,0.228659987449646,0.868907988071442,-1061.10009765625,17.1000003814697,-906.900024414062,0.0930253137394314,-0.527706927506727,0.241186773286586,ST
3.0,-4.81325626373291,-1.83809340000153,8.24540042877197,-0.442075997591019,0.25152599811554,1.27287399768829,-1051.5,21.9000015258789,-890.100036621094,0.0667924159070416,-0.518804188434327,0.218930024768153,ST
3.03333333333333,-4.54289579391479,-2.29387831687927,8.11560344696045,-0.708845973014832,-0.0381099991500378,1.83690190315247,-1053.90002441406,22.5,-902.100036621094,0.0689095261895502,-0.494910796904348,0.275022239263083,ST
3.06666666666667,-4.23066520690918,-2.23645663261414,7.61196756362915,-0.952749967575073,-0.602137982845306,1.2423859834671,-1041.90002441406,22.5,-906.900024414062,0.0536154337475769,-0.489498498470844,0.286161252076534,ST
3.1,-4.55485868453979,-2.69762468338013,7.9337682723999,-1.43293595314026,-0.243903994560242,1.74543797969818,-1053.90002441406,18.9000015258789,-909.300048828125,0.0470524249440108,-0.49845519343759,0.328601746541235,ST
3.13333333333333,-4.71336650848389,-2.27593398094177,8.3339262008667,-0.967993974685669,-0.815553963184357,0.533540010452271,-1051.5,23.7000007629395,-909.300048828125,0.0032403384652334,-0.498320943558967,0.267593908763154,ST
3.16666666666667,-4.83778047561646,-2.71855974197388,8.22446632385254,-1.2423859834671,-0.975615978240967,2.62959003448486,-1053.90002441406,17.7000007629395,-906.900024414062,-0.011259865764648,-0.509163765117955,0.318670622885786,ST
3.2,-4.60031747817993,-2.41829204559326,8.07074356079102,-0.670735955238342,-0.0381099991500378,0.503051996231079,-1053.90002441406,29.7000007629395,-909.300048828125,-0.0339146833082821,-0.49996852376427,0.291827500139242,ST
3.23333333333333,-4.49624061584473,-2.55825757980347,8.00315284729004,-0.716467976570129,-0.282013982534409,2.33995389938354,-1034.70007324219,26.1000003814697,-911.700012207031,-0.0547698361501831,-0.492130596692911,0.308471806955472,ST
3.26666666666667,-4.50640916824341,-2.9303023815155,7.99657344818115,-0.602137982845306,0.205793991684914,0.579271972179413,-1041.90002441406,27.9000015258789,-921.300048828125,-0.0438803109290423,-0.487368757616076,0.351859800367017,ST
3.3,-4.78574180603027,-2.2651674747467,8.37280559539795,-0.0609759986400604,-0.190549999475479,0.236281991004944,-1044.30004882812,18.9000015258789,-911.700012207031,-0.08898945716633,-0.503966558279498,0.264072532271579,ST
3.33333333333333,-4.62185096740723,-2.83340334892273,8.2980375289917,-0.190549999475479,-1.11281192302704,1.65397393703461,-1056.30004882812,19.5,-892.500061035156,-0.0804520918264626,-0.484186886901639,0.327593340091022,ST
3.36666666666667,-4.64458036422729,-2.34830927848816,8.1245756149292,0.221037998795509,-0.579271972179413,0.449698001146317,-1044.30004882812,23.7000007629395,-904.500061035156,-0.108426896987798,-0.501466117438577,0.28041949461388,ST
3.4,-4.79411602020264,-2.43922710418701,8.488844871521,0.419209986925125,0.503051996231079,3.67380380630493,-1051.5,23.7000007629395,-904.500061035156,-0.144245155504379,-0.499886416168916,0.275842514738915,ST
3.43333333333333,-4.76600313186646,-2.19817543029785,7.70348310470581,0.777444005012512,0.419209986925125,2.5152599811554,-1034.70007324219,19.5,-904.500061035156,-0.166048205713299,-0.538579520766213,0.274202106824269,ST
3.46666666666667,-5.08481359481812,-2.0671820640564,8.1012487411499,1.12805593013763,1.6615959405899,1.31860601902008,-1051.5,28.5000019073486,-904.500061035156,-0.181975514574652,-0.549779933537725,0.246947157643409,ST
3.5,-5.35816478729248,-2.05282664299011,8.46252632141113,1.02134799957275,1.2576299905777,1.61586391925812,-1029.90002441406,24.3000011444092,-897.300048828125,-0.195771541614819,-0.554399921707022,0.234823111620019,ST
3.53333333333333,-5.17513275146484,-2.43503999710083,8.80107593536377,1.20427596569061,0.304879993200302,-0.327746003866196,-1034.70007324219,24.3000011444092,-904.500061035156,-0.166630229622851,-0.515956350841173,0.268210574410155,ST
3.56666666666667,-4.71396493911743,-2.27892470359802,8.48525619506836,1.64635193347931,-0.472563982009888,-1.37958192825317,-1032.30004882812,14.1000003814697,-902.100036621094,-0.145912222289114,-0.491031162707754,0.260639113946995,ST
3.6,-4.78035879135132,-1.54560148715973,7.55394744873047,2.66770005226135,-0.190549999475479,-2.5152599811554,-1039.5,20.7000007629395,-894.900024414062,-0.13451262038127,-0.553773949559589,0.199797974611805,ST
3.63333333333333,-4.53153133392334,-1.35957896709442,6.92470121383667,2.84300589561462,0.830797970294952,-0.846041977405548,-1034.70007324219,17.7000007629395,-904.500061035156,-0.111119338187231,-0.571975051713619,0.190024123948088,ST
3.66666666666667,-4.635009765625,-1.44331896305084,6.90675687789917,2.5152599811554,1.85214591026306,-1.56251001358032,-1046.70007324219,15.3000001907349,-894.900024414062,-0.0676455939162139,-0.583818404802171,0.203814529020072,ST
3.7,-5.08660793304443,-0.713584542274475,6.54787111282349,1.60824191570282,1.78354799747467,-0.442075997591019,-1029.90002441406,19.5,-904.500061035156,-0.10624680148537,-0.660593868532209,0.106624944648267,ST
3.73333333333333,-5.3360333442688,-1.06050753593445,7.06287240982056,1.42531394958496,2.37044191360474,0.83841997385025,-1037.10009765625,15.3000001907349,-906.900024414062,-0.0767607184349822,-0.645973109963313,0.145914938467777,ST
3.76666666666667,-5.55076694488525,-1.24533367156982,7.64127635955811,0.853663980960846,2.16464805603027,0.952749967575073,-1022.70001220703,15.9000005722046,-899.700012207031,-0.0686096987108327,-0.626017518927719,0.159314091424525,ST
3.8,-5.28937816619873,-1.35299944877625,7.47200202941895,0.807931959629059,1.2423859834671,1.44055795669556,-1017.90002441406,18.9000015258789,-902.100036621094,-0.0650688050804919,-0.61099812445326,0.176258785075994,ST
3.83333333333333,-5.55435562133789,-1.68496870994568,7.78961610794067,0.228659987449646,1.2576299905777,0.716467976570129,-1008.30004882812,20.7000007629395,-906.900024414062,-0.0473123336336681,-0.611070469839524,0.212089391142219,ST
3.86666666666667,-5.98980379104614,-1.35000872612,8.44518089294434,0.548784017562866,1.34147191047668,-0.266770005226135,-1032.30004882812,24.3000011444092,-909.300048828125,-0.0691881759714403,-0.613209448726577,0.158146535820785,ST
3.9,-5.27741527557373,-1.77708280086517,7.71604442596436,0.685979962348938,0.0457319989800453,0.685979962348938,-1010.70001220703,24.9000015258789,-904.500061035156,-0.0337286781153145,-0.588241698078506,0.224384833664799,ST
3.93333333333333,-5.41678285598755,-1.56773269176483,8.22925090789795,0.503051996231079,-0.0152439996600151,-1.50915598869324,-1017.90002441406,17.7000007629395,-914.100036621094,-0.0348156468864354,-0.573467925645426,0.189049349122118,ST
3.96666666666667,-4.96159601211548,-1.69274461269379,8.55404281616211,0.754577994346619,-0.388722002506256,-1.76830399036407,-1020.30004882812,26.1000003814697,-909.300048828125,-0.0094091625406004,-0.516057215318588,0.195689070689171,ST
4.0,-4.75643301010132,-1.46545028686523,7.70348310470581,1.27287399768829,-1.60061991214752,0.503051996231079,-1027.5,12.9000005722046,-904.500061035156,-0.0151521063115035,-0.542641845226507,0.184931895541256,ST
4.03333333333333,-4.6290283203125,-1.68437063694,8.27650451660156,1.53964400291443,-1.35671591758728,-0.160062000155449,-1029.90002441406,20.7000007629395,-902.100036621094,-6.94027505577898e-05,-0.498983611754882,0.197974104149262,ST
4.06666666666667,-3.97406196594238,-1.24772620201111,7.61316394805908,1.05945801734924,-2.34757590293884,-0.449698001146317,-1017.90002441406,15.9000005722046,-902.100036621094,-0.0110148123022713,-0.471512028184971,0.160662600852268,ST
4.1,-3.94236040115356,-1.37692511081696,7.80397129058838,0.236281991004944,-1.98934197425842,0.335367977619171,-1032.30004882812,17.7000007629395,-906.900024414062,-0.0113732159568467,-0.458320689306261,0.173645065031585,ST
4.13333333333333,-4.28928327560425,-1.36855113506317,8.00315284729004,-0.708845973014832,-1.31098401546478,-0.0533539988100529,-1034.70007324219,23.1000003814697,-911.700012207031,-0.0189619780180643,-0.483742083889612,0.170446545329924,ST
4.16666666666667,-4.37302303314209,-1.52646088600159,7.84285068511963,-0.861285984516144,-0.342989981174469,0.221037998795509,-1027.5,14.7000007629395,-906.900024414062,-0.0160630154746839,-0.50025952796863,0.193456219365255,ST
4.2,-5.01841974258423,-1.33146619796753,8.56540775299072,-0.937505960464478,0.548784017562866,0.0381099991500378,-1032.30004882812,20.1000003814697,-904.500061035156,-0.0397753309541797,-0.525744017197185,0.155902409185542,ST
4.23333333333333,-5.16974973678589,-1.25610029697418,9.05827713012695,-0.533540010452271,0.228659987449646,1.02897000312805,-1037.10009765625,15.3000001907349,-902.100036621094,-0.0623710686782177,-0.515167164630972,0.13774915516705,ST
4.26666666666667,-4.27851676940918,-1.50492775440216,9.00504207611084,0.663114011287689,-0.381099998950958,2.080806016922,-1032.30004882812,11.7000007629395,-899.700012207031,-0.0704628323671423,-0.43818497133996,0.162697413133245,ST
4.3,-3.80000233650208,-2.36924433708191,8.50020980834961,0.411587983369827,-1.6768399477005,-0.442075997591019,-1029.90002441406,11.7000007629395,-904.500061035156,-0.0240172472569405,-0.4036103761711,0.271079435047952,ST
4.33333333333333,-3.85024619102478,-1.60362136363983,8.37699222564697,0.846041977405548,-1.18140995502472,-1.98171997070312,-1032.30004882812,15.3000001907349,-911.700012207031,-0.0339178372521125,-0.421358668494035,0.189033812784049,ST
4.36666666666667,-3.97645449638367,-1.64848208427429,8.98051834106445,1.64635193347931,-1.36433792114258,-1.6692179441452,-1037.10009765625,21.9000015258789,-911.700012207031,-0.014243428064846,-0.40787906580095,0.179722141668628,ST
4.4,-3.63371849060059,-1.40503787994385,8.58036136627197,2.39330792427063,-1.71494996547699,-1.58537602424622,-1034.70007324219,12.9000005722046,-909.300048828125,0.0032225420182569,-0.392475510524854,0.159067587224538,ST
4.43333333333333,-3.61876487731934,-1.45946884155273,8.30940246582031,2.4847719669342,-1.15092194080353,-0.78506600856781,-1044.30004882812,17.1000003814697,-911.700012207031,0.0262047568865839,-0.40298962434833,0.169955825937348,ST
4.46666666666667,-3.79940414428711,-1.73401641845703,8.27112102508545,1.03659200668335,-0.525918006896973,-1.53964400291443,-1039.5,10.5,-906.900024414062,0.0612167703489324,-0.421056257978837,0.205930260775811,ST
4.5,-4.90417432785034,-0.721958577632904,9.12825965881348,0.762199997901917,-0.266770005226135,-2.9268479347229,-1041.90002441406,9.90000057220459,-914.100036621094,0.0431736234858442,-0.490822354006369,0.0803129303344661,ST
4.53333333333333,-4.55426073074341,-0.549095273017883,9.28018856048584,1.35671591758728,0.0228659994900227,-1.14329993724823,-1041.90002441406,14.1000003814697,-909.300048828125,0.0531417321503367,-0.455461044464901,0.057712305784352,ST
4.56666666666667,-4.25698375701904,-0.787156164646149,8.72331714630127,1.33385002613068,0.0304879993200302,0.891773998737335,-1044.30004882812,8.70000076293945,-906.900024414062,0.0633701947255995,-0.45259655725091,0.0869061926341143,ST
4.6,-4.0296893119812,-0.865512907505035,8.06356525421143,1.15092194080353,0.457319974899292,0.823175966739655,-1046.70007324219,9.90000057220459,-914.100036621094,0.0687818354381423,-0.462096755579206,0.104246240566079,ST
4.63333333333333,-4.15948629379272,-0.886447906494141,8.29145812988281,0.83841997385025,0.365855991840363,-1.265251994133,-1044.30004882812,19.5,-909.300048828125,0.0898921472132702,-0.463101285156163,0.106173223922955,ST
4.66666666666667,-4.41608953475952,-0.302062213420868,8.41467571258545,1.07470202445984,-0.670735955238342,-0.967993974685669,-1044.30004882812,14.7000007629395,-923.700012207031,0.073972593853135,-0.481799902584885,0.0348784936646521,ST
4.7,-4.16247701644897,-0.503636360168457,8.35306644439697,1.46342396736145,-0.541162014007568,1.15854394435883,-1034.70007324219,12.3000001907349,-926.100036621094,0.0787914944936922,-0.460754049049028,0.0566328961472065,ST
4.73333333333333,-4.38020086288452,-1.18791198730469,8.65871810913086,1.17378795146942,0.289635986089706,0.121951997280121,-1039.5,8.70000076293945,-906.900024414062,0.119379472418786,-0.46511905233578,0.134214825885364,ST
4.76666666666667,-4.72233867645264,-0.551487803459167,8.66350269317627,0.945127964019775,0.182927995920181,-0.0990860015153885,-1029.90002441406,13.5000009536743,-911.700012207031,0.0931359596575435,-0.498517679972466,0.0620323432876405,ST
4.8,-4.93587589263916,-1.20047295093536,8.29504680633545,0.282013982534409,0.37347799539566,0.884151995182037,-1039.5,13.5000009536743,-916.500061035156,0.125629532619447,-0.533079683723523,0.142372215749659,ST
4.83333333333333,-4.30603122711182,-1.68855762481689,7.83746719360352,-1.02134799957275,0.762199997901917,1.80641400814056,-1032.30004882812,7.50000047683716,-911.700012207031,0.137030155460945,-0.494852923282635,0.212458312418224,ST
4.86666666666667,-4.73789024353027,-2.39556264877319,7.37988805770874,-2.75916385650635,-0.503051996231079,1.00610399246216,-1039.5,16.5,-916.500061035156,0.160689508217921,-0.54790738212866,0.317483527726652,ST
4.9,-5.20204925537109,-2.5056209564209,7.63469696044922,-1.98934197425842,-0.0914639979600906,-0.830797970294952,-1039.5,16.5,-914.100036621094,0.157545017379198,-0.573931394478104,0.321443002475622,ST
4.93333333333333,-6.19317245483398,-2.50442457199097,8.70836353302002,-1.12043392658234,0.160062000155449,2.03507399559021,-1032.30004882812,18.3000011444092,-904.500061035156,0.105284736192303,-0.600794384420359,0.27970435550658,ST
4.96666666666667,-5.88572692871094,-2.50920987129211,8.69759654998779,-0.0304879993200302,-0.0228659994900227,2.44666194915771,-1034.70007324219,12.9000005722046,-906.900024414062,0.0804188809587669,-0.577650429083708,0.278240093632642,ST
5.0,-5.40481996536255,-1.9589182138443,7.49832010269165,-0.297257989645004,-0.6250039935112,2.5076379776001,-1027.5,12.3000001907349,-909.300048828125,0.038506936638891,-0.609011397373974,0.252915438178831,ST
5.03333333333333,-5.53282260894775,-1.86201906204224,7.84703779220581,-0.647870004177094,0.0152439996600151,2.19513607025146,-1039.5,17.1000003814697,-904.500061035156,0.0006688715577845,-0.602198920973246,0.231557748921323,ST
5.06666666666667,-5.07404661178589,-0.66633129119873,8.08749103546143,-0.335367977619171,-0.503051996231079,2.08842802047729,-1027.5,14.7000007629395,-916.500061035156,-0.106270537563079,-0.558227844508354,0.0805086520364501,ST
5.1,-3.901686668396,-1.29438138008118,6.65912580490112,-1.37195992469788,-1.47866797447205,5.74698781967163,-1020.30004882812,15.9000005722046,-909.300048828125,-0.120946821667914,-0.521301551512461,0.188415621229231,ST
5.13333333333333,-4.43403387069702,-1.44152450561523,7.72920370101929,-1.74543797969818,-0.823175966739655,0.602137982845306,-1039.5,17.7000007629395,-911.700012207031,-0.141664238929058,-0.512274413309271,0.186702597554722,ST
5.16666666666667,-4.86350059509277,-0.581394970417023,8.17601585388184,-1.43293595314026,-1.01372599601746,1.6692179441452,-1037.10009765625,17.1000003814697,-911.700012207031,-0.228658805574984,-0.533959292635368,0.071708791106658,ST
5.2,-4.47829627990723,-1.89312255382538,8.23941898345947,-1.17378795146942,-1.17378795146942,3.74240183830261,-1044.30004882812,20.1000003814697,-902.100036621094,-0.206675747070732,-0.486598339233296,0.224269299138961,ST
5.23333333333333,-4.35507917404175,-1.2698575258255,8.24300861358643,-0.144817993044853,-1.18140995502472,-0.259148001670837,-1039.5,21.3000011444092,-916.500061035156,-0.239828294387332,-0.479125899978064,0.153188709942882,ST
5.26666666666667,-4.68106698989868,-0.804502308368683,8.83457183837891,0.495429992675781,-0.3125019967556,2.81251788139343,-1041.90002441406,15.3000001907349,-911.700012207031,-0.297857406864776,-0.485427885318686,0.0873574961291941,ST
5.3,-3.98841738700867,-1.25310957431793,8.46372318267822,0.670735955238342,0.381099998950958,1.85214591026306,-1032.30004882812,18.9000015258789,-911.700012207031,-0.289414603825814,-0.437337310030094,0.144361848014556,ST
5.33333333333333,-4.28988122940063,-0.915158748626709,8.28308391571045,0.320124000310898,1.17378795146942,0.282013982534409,-1041.90002441406,15.9000005722046,-911.700012207031,-0.304688175836584,-0.477479968946584,0.109351486444028,ST
5.36666666666667,-4.24920749664307,-0.641807436943054,8.78193473815918,1.11281192302704,1.62348592281342,0.0990860015153885,-1039.5,18.3000011444092,-911.700012207031,-0.314941494129215,-0.452448169156143,0.0710296333902375,ST
5.4,-3.93757510185242,-0.964206457138062,8.2382230758667,0.830797970294952,0.289635986089706,-0.0304879993200302,-1032.30004882812,15.9000005722046,-916.500061035156,-0.290842134090141,-0.443721378944065,0.115103787466163,ST
5.43333333333333,-3.65405535697937,-1.12211620807648,8.31478500366211,0.525918006896973,-0.335367977619171,-2.08842802047729,-1027.5,17.7000007629395,-902.100036621094,-0.25770446545536,-0.409682632482248,0.13475647023999,ST
5.46666666666667,-2.85134744644165,-1.17056584358215,7.84464502334595,0.411587983369827,-0.6250039935112,-2.0731840133667,-1034.70007324219,13.5000009536743,-899.700012207031,-0.22862346731879,-0.343510109716418,0.148627036543785,ST
5.5,-2.93807816505432,-1.14065861701965,7.21898746490479,0.320124000310898,-1.44817996025085,-2.080806016922,-1041.90002441406,14.7000007629395,-904.500061035156,-0.202160991671455,-0.379164488775384,0.157424684757477,ST
5.53333333333333,-4.59493446350098,-1.20645439624786,7.98042345046997,0.0990860015153885,-0.335367977619171,-1.12805593013763,-1041.90002441406,18.3000011444092,-906.900024414062,-0.192006293564315,-0.51665891113184,0.150924342609231,ST
5.56666666666667,-5.73738718032837,-1.13946235179901,9.95668792724609,0.739333987236023,0.952749967575073,-0.137196004390717,-1039.5,17.1000003814697,-914.100036621094,-0.20338472849355,-0.521576671854326,0.112905639312143,ST
5.6,-4.92810010910034,-1.64848208427429,9.5206413269043,0.160062000155449,0.0762199983000755,2.24086785316467,-1029.90002441406,15.9000005722046,-911.700012207031,-0.199229641906366,-0.4724438558658,0.169198619363119,ST
5.63333333333333,-4.30722761154175,-1.76153099536896,8.87165641784668,0.487807989120483,-0.777444005012512,-0.152439996600151,-1020.30004882812,18.3000011444092,-914.100036621094,-0.185184327664492,-0.443057352861247,0.195149221074732,ST
5.66666666666667,-3.82751679420471,-0.824839174747467,8.02289199829102,0.754577994346619,-0.693601965904236,-0.922261953353882,-1032.30004882812,18.3000011444092,-904.500061035156,-0.211713024780147,-0.441732220538305,0.101847537729997,ST
5.7,-3.72224378585815,-1.59943425655365,8.08749103546143,-0.0076219998300075,-0.403965979814529,0.632625997066498,-1037.10009765625,17.1000003814697,-906.900024414062,-0.181149492832816,-0.42362605059527,0.194702305227224,ST
5.73333333333333,-4.07873678207397,-1.53004968166351,8.62402534484863,0.320124000310898,0.541162014007568,-2.60672402381897,-1027.5,16.5,-914.100036621094,-0.155741658622721,-0.435941923310402,0.177196823125875,ST
5.76666666666667,-4.14871978759766,-1.48638522624969,8.56899642944336,0.541162014007568,0.198172003030777,-1.62348592281342,-1037.10009765625,17.7000007629395,-923.700012207031,-0.136606943745611,-0.444958246409778,0.172167563023755,ST
5.8,-4.95860528945923,-2.35548710823059,9.09954929351807,0.25152599811554,0.693601965904236,-2.16464805603027,-1039.5,17.1000003814697,-911.700012207031,-0.0729592662780459,-0.485649859164626,0.254935229791168,ST
5.83333333333333,-4.84136915206909,-1.38230836391449,9.16953182220459,1.265251994133,-0.198172003030777,-3.54422998428345,-1029.90002441406,20.1000003814697,-909.300048828125,-0.0772281749503607,-0.479890333441083,0.150595066638079,ST
5.86666666666667,-4.64637470245361,-1.42058956623077,8.51695823669434,0.967993974685669,-0.792688012123108,-0.693601965904236,-1027.5,15.9000005722046,-904.500061035156,-0.0594697751191742,-0.492103704270622,0.164099504566597,ST
5.9,-4.19836568832397,-1.36974740028381,7.96606826782227,0.556405961513519,-1.00610399246216,-0.236281991004944,-1037.10009765625,18.9000015258789,-914.100036621094,-0.053108243983622,-0.477255872473538,0.169366915923729,ST
5.93333333333333,-4.10984039306641,-1.88534665107727,7.23573541641235,-1.21951997280121,-1.34147191047668,1.63110792636871,-1051.5,12.9000005722046,-911.700012207031,-0.0400770871490728,-0.50101471566975,0.255170253432587,ST
5.96666666666667,-4.9693717956543,-2.08273386955261,7.76688671112061,-1.85214591026306,0.0838419944047928,0.693601965904236,-1034.70007324219,20.1000003814697,-918.900024414062,-0.0553652678247183,-0.553991446120176,0.264523938495693,ST
6.0,-5.28220081329346,-2.11622977256775,8.06416320800781,-1.52439999580383,0.632625997066498,1.58537602424622,-1034.70007324219,17.1000003814697,-914.100036621094,-0.0828206227923555,-0.566508163397719,0.25777528445611,ST
6.03333333333333,-5.19008636474609,-2.2890932559967,8.35246849060059,-1.05183601379395,0.655492007732391,1.27287399768829,-1039.5,19.5,-899.700012207031,-0.0948324457922853,-0.541591029740353,0.26822015925013,ST
6.06666666666667,-4.84555625915527,-2.39257192611694,7.91462802886963,-1.03659200668335,-0.37347799539566,1.61586391925812,-1032.30004882812,7.50000047683716,-906.900024414062,-0.105446020267319,-0.530283548875834,0.293673317766014,ST
6.1,-4.84735059738159,-2.04206013679504,8.59710884094238,-0.182927995920181,-0.205793991684914,-0.6250039935112,-1044.30004882812,23.1000003814697,-906.900024414062,-0.129594793283858,-0.501146555790009,0.23406713775733,ST
6.13333333333333,-4.65833759307861,-2.26098036766052,8.28487873077393,-0.259148001670837,-1.33385002613068,1.48628997802734,-1032.30004882812,14.1000003814697,-897.300048828125,-0.135147681505976,-0.49544995622842,0.265178653380687,ST
6.16666666666667,-4.32995700836182,-2.01574182510376,8.40331077575684,0.632625997066498,-0.0685980021953583,0.106707997620106,-1037.10009765625,13.5000009536743,-904.500061035156,-0.147281366125903,-0.464424659225274,0.234224452987483,ST
6.2,-4.28150749206543,-1.66881883144379,8.05818176269531,1.06708002090454,-0.518296003341675,0.106707997620106,-1037.10009765625,15.3000001907349,-909.300048828125,-0.158191456825412,-0.478891851383844,0.202164258910963,ST
6.23333333333333,-4.54528856277466,-1.79682147502899,8.07014465332031,1.19665396213531,0.510673999786377,0.701223969459534,-1039.5,17.1000003814697,-904.500061035156,-0.150636812231757,-0.503788802979189,0.216433466641238,ST
6.26666666666667,-4.41549158096313,-1.60421943664551,8.41048812866211,1.02134799957275,0.144817993044853,0.213415995240211,-1037.10009765625,20.7000007629395,-909.300048828125,-0.160737172558922,-0.476450786800767,0.186532900898073,ST
6.3,-4.13256978988647,-1.47741317749023,8.03066730499268,0.815553963184357,-0.716467976570129,1.02134799957275,-1044.30004882812,19.5,-909.300048828125,-0.171699841509052,-0.467610852374293,0.179515611550002,ST
6.33333333333333,-3.44470548629761,-1.81656014919281,7.8859167098999,0.274392008781433,-1.11281192302704,1.11281192302704,-1041.90002441406,20.1000003814697,-921.300048828125,-0.165961436564202,-0.400992726927904,0.224929300261667,ST
6.36666666666667,-4.0057635307312,-1.81237316131592,8.15328693389893,-0.236281991004944,-0.602137982845306,-0.25152599811554,-1029.90002441406,20.7000007629395,-909.300048828125,-0.168263108326196,-0.446066700451307,0.219240298098851,ST
6.4,-4.274329662323,-1.5802937746048,8.62582015991211,0.0685980021953583,0.175305992364883,1.58537602424622,-1037.10009765625,20.7000007629395,-909.300048828125,-0.203143642407755,-0.45432462689164,0.17977693196916,ST
6.43333333333333,-4.04284811019897,-2.30584120750427,8.90156364440918,0.304879993200302,0.350611984729767,0.945127964019775,-1032.30004882812,14.7000007629395,-916.500061035156,-0.180506023186665,-0.415234251866429,0.252286446333737,ST
6.46666666666667,-4.18879508972168,-1.63592100143433,8.560622215271,0.3125019967556,-0.297257989645004,-0.320124000310898,-1025.10009765625,19.5,-904.500061035156,-0.202365747771824,-0.447400820367139,0.188498524932346,ST
6.5,-3.93936967849731,-1.98882532119751,8.9655647277832,0.144817993044853,0.0228659994900227,0.777444005012512,-1027.5,23.1000003814697,-911.700012207031,-0.198504885535927,-0.405557993579896,0.217473308234576,ST
6.53333333333333,-3.15699863433838,-2.63123083114624,8.2800931930542,-0.663114011287689,-1.20427596569061,-0.259148001670837,-1041.90002441406,12.3000001907349,-916.500061035156,-0.16890590215503,-0.346409281046316,0.308749200538173,ST
6.56666666666667,-3.70071053504944,-2.05581736564636,8.07433223724365,-0.259148001670837,-0.3125019967556,-1.82927989959717,-1049.10009765625,20.7000007629395,-902.100036621094,-0.172873807688691,-0.416649625225236,0.251089040844475,ST
6.6,-3.79940414428711,-1.72923135757446,8.10483741760254,0.221037998795509,0.106707997620106,-1.28049600124359,-1044.30004882812,10.5,-916.500061035156,-0.174274830303771,-0.429581282572033,0.210848368955994,ST
6.63333333333333,-3.9716694355011,-1.8446729183197,8.20891380310059,0.685979962348938,0.259148001670837,0.182927995920181,-1041.90002441406,15.3000001907349,-906.900024414062,-0.168328746923585,-0.44154906501535,0.219744323423326,ST
6.66666666666667,-4.20315074920654,-1.81596207618713,8.05399513244629,0.449698001146317,0.129574000835419,0.266770005226135,-1034.70007324219,15.9000005722046,-921.300048828125,-0.1679300364917,-0.471210359159519,0.22077386084302,ST
6.7,-4.47470760345459,-2.14553880691528,9.2108039855957,0.586893975734711,0.0685980021953583,-0.304879993200302,-1032.30004882812,23.1000003814697,-904.500061035156,-0.158228396128664,-0.441935838032015,0.228088392408963,ST
6.73333333333333,-4.44061326980591,-1.34223282337189,8.76458930969238,1.2576299905777,-1.41006994247437,-0.426831990480423,-1044.30004882812,14.1000003814697,-914.100036621094,-0.183504337120281,-0.461751328930483,0.149965639536485,ST
6.76666666666667,-4.06497955322266,-1.65625786781311,8.43800258636475,1.34147191047668,-1.44055795669556,1.18903195858002,-1041.90002441406,20.7000007629395,-906.900024414062,-0.17464926077019,-0.439522415845217,0.190285950387071,ST
6.8,-4.06737232208252,-1.37273812294006,8.48346138000488,1.47104597091675,-0.87652999162674,0.0076219998300075,-1046.70007324219,21.3000011444092,-911.700012207031,-0.182562140930575,-0.440545487767584,0.157741319092417,ST
6.83333333333333,-3.87895727157593,-1.08862018585205,8.37878704071045,1.44817996025085,-0.434453994035721,-0.419209986925125,-1046.70007324219,17.1000003814697,-916.500061035156,-0.183590707603226,-0.429545699089759,0.126965652731536,ST
6.86666666666667,-3.66422390937805,-0.630442678928375,8.46551704406738,1.53202199935913,0.274392008781433,0.99848198890686,-1049.10009765625,17.7000007629395,-928.500061035156,-0.209991613189216,-0.408092151331581,0.0709312434241094,ST
6.9,-3.61039090156555,-1.27942776679993,8.37818813323975,0.92988395690918,0.327746003866196,1.02134799957275,-1037.10009765625,20.1000003814697,-911.700012207031,-0.185411952060641,-0.403540787348834,0.149182724296001,ST
6.93333333333333,-3.70908451080322,-1.37273812294006,8.79030895233154,0.3125019967556,-0.175305992364883,0.541162014007568,-1046.70007324219,16.5,-914.100036621094,-0.188363839970378,-0.394833332953845,0.153958672496602,ST
6.96666666666667,-4.35687351226807,-0.552085936069489,8.35844993591309,1.19665396213531,0.342989981174469,0.152439996600151,-1041.90002441406,11.7000007629395,-909.300048828125,-0.221430091695864,-0.480210573014732,0.0637700445751173,ST
7.0,-4.24262809753418,-1.49595558643341,8.13414669036865,0.533540010452271,1.02134799957275,1.82927989959717,-1032.30004882812,9.30000019073486,-914.100036621094,-0.182790116880991,-0.476303238095579,0.179467495144649,ST
7.03333333333333,-4.33892917633057,-1.54081630706787,8.24599933624268,-0.228659987449646,0.975615978240967,-0.792688012123108,-1032.30004882812,14.1000003814697,-914.100036621094,-0.16967703884407,-0.478757129526506,0.185992843413047,ST
7.06666666666667,-4.77736806869507,-0.804502308368683,8.42843246459961,-0.571649968624115,0.182927995920181,-0.67835795879364,-1032.30004882812,15.9000005722046,-909.300048828125,-0.207828514463762,-0.513919715663278,0.0968506115939381,ST
7.1,-4.32935905456543,-1.53004968166351,8.20652198791504,-0.830797970294952,-0.266770005226135,0.518296003341675,-1027.5,17.1000003814697,-911.700012207031,-0.176345071881983,-0.478145151362802,0.185252274225038,ST
7.13333333333333,-4.30124616622925,-1.3278774023056,8.00195693969727,-0.792688012123108,0.0990860015153885,0.556405961513519,-1034.70007324219,23.7000007629395,-911.700012207031,-0.195762739507833,-0.487899915319676,0.165340132591169,ST
7.16666666666667,-4.52255916595459,-1.46844100952148,7.8978796005249,-0.800309956073761,0.449698001146317,0.571649968624115,-1034.70007324219,17.1000003814697,-921.300048828125,-0.196540936680334,-0.513705727018802,0.184750539414893,ST
7.2,-4.16786003112793,-1.93140363693237,8.53490161895752,-1.02134799957275,1.07470202445984,1.41769194602966,-1032.30004882812,18.3000011444092,-909.300048828125,-0.197163853424854,-0.446887145380251,0.223364630819458,ST
7.23333333333333,-4.11522340774536,-1.66523003578186,9.32145977020264,-0.0914639979600906,-1.2347639799118,-1.13567793369293,-1032.30004882812,9.90000057220459,-904.500061035156,-0.206705476895314,-0.407509555290262,0.177628336146992,ST
7.26666666666667,-4.16905641555786,-1.64788389205933,8.58095932006836,0.205793991684914,-2.21037983894348,1.12805593013763,-1039.5,20.7000007629395,-911.700012207031,-0.218443468528471,-0.441759090220927,0.188110388449673,ST
7.3,-3.51708078384399,-2.30584120750427,9.20900917053223,0.78506600856781,-1.14329993724823,0.0228659994900227,-1029.90002441406,14.7000007629395,-899.700012207031,-0.196725538489283,-0.352895781467596,0.243770536890064,ST
7.33333333333333,-2.46016192436218,-1.79143822193146,8.65393257141113,0.746955990791321,-2.69818782806396,-1.44817996025085,-1039.5,16.5,-909.300048828125,-0.196626431860029,-0.26640298388588,0.203245658582508,ST
7.36666666666667,-3.04036068916321,-1.37333631515503,8.29923343658447,1.03659200668335,-1.49391198158264,-0.571649968624115,-1037.10009765625,16.5,-909.300048828125,-0.201229291236415,-0.344067232053469,0.162391590296707,ST
7.4,-3.09658622741699,-1.49954438209534,8.20353126525879,1.34909391403198,-0.198172003030777,1.01372599601746,-1063.5,23.1000003814697,-902.100036621094,-0.202387219829472,-0.355510813942706,0.177770792508356,ST
7.43333333333333,-3.71805667877197,-1.95413303375244,9.04392147064209,0.67835795879364,0.670735955238342,0.190549999475479,-1046.70007324219,21.3000011444092,-911.700012207031,-0.187693139752065,-0.383298235631268,0.211577033902153,ST
7.46666666666667,-3.82572245597839,-1.01564681529999,8.27590656280518,1.11281192302704,0.0457319989800453,0.213415995240211,-1051.5,19.5,-911.700012207031,-0.220373545931826,-0.430293418460179,0.12001322473108,ST
7.5,-3.66900897026062,-1.77947533130646,9.23592567443848,0.990859985351562,0.731711983680725,0.731711983680725,-1044.30004882812,13.5000009536743,-911.700012207031,-0.195830468299153,-0.373432457718835,0.188195663111383,ST
7.53333333333333,-3.20724272727966,-1.35838270187378,8.19096946716309,0.884151995182037,-0.365855991840363,0.457319974899292,-1041.90002441406,22.5,-906.900024414062,-0.207071230952551,-0.368126105096236,0.162461899456402,ST
7.56666666666667,-3.58048391342163,-1.722651720047,7.35596227645874,0.0762199983000755,0.663114011287689,-0.144817993044853,-1049.10009765625,20.1000003814697,-904.500061035156,-0.176813506793142,-0.443622347746393,0.230132507916142,ST
7.6,-4.00815582275391,-1.7304276227951,7.59342479705811,-0.266770005226135,2.72867584228516,0.518296003341675,-1037.10009765625,8.10000038146973,-916.500061035156,-0.179616792426552,-0.480136132257872,0.224617344801533,ST
7.63333333333333,-5.13984251022339,-1.46903908252716,7.93855333328247,-0.442075997591019,2.76678586006165,0.144817993044853,-1044.30004882812,11.1000003814697,-914.100036621094,-0.198815031188076,-0.571708067009979,0.184165298402515,ST
7.66666666666667,-5.50770044326782,-1.59464919567108,8.644362449646,0.266770005226135,3.28508186340332,1.79117000102997,-1037.10009765625,14.1000003814697,-909.300048828125,-0.211526929797785,-0.565932072847027,0.180664452313613,ST
7.7,-5.51248550415039,-1.88594484329224,9.44826602935791,-0.205793991684914,1.69970595836639,2.15702605247498,-1025.10009765625,13.5000009536743,-892.500061035156,-0.224946293788992,-0.523338365068482,0.195580229733161,ST
7.73333333333333,-4.46035194396973,-2.37343120574951,8.26454162597656,-1.08994603157043,-1.02134799957275,1.18903195858002,-1015.50006103516,21.9000015258789,-911.700012207031,-0.205591938240907,-0.477390617847491,0.280253714584928,ST
7.76666666666667,-4.3724250793457,-2.47691011428833,7.47977781295776,-1.57013201713562,-1.02897000312805,-0.236281991004944,-1039.5,16.5,-902.100036621094,-0.196771072651831,-0.504786213485108,0.322423205717315,ST
7.8,-4.56741952896118,-2.4595639705658,7.64606142044067,-1.40244793891907,1.08994603157043,-0.419209986925125,-1025.10009765625,18.3000011444092,-906.900024414062,-0.201327979216973,-0.518637403391897,0.31440322430313,ST
7.83333333333333,-5.10814094543457,-2.13357591629028,8.18379211425781,-0.815553963184357,0.762199997901917,0.0762199983000755,-1020.30004882812,17.7000007629395,-911.700012207031,-0.23441438878138,-0.544662934230837,0.256592486498616,ST
7.86666666666667,-5.0590934753418,-2.41470313072205,7.81593418121338,-0.381099998950958,0.129574000835419,1.74543797969818,-1027.5,14.7000007629395,-921.300048828125,-0.231732031023278,-0.554976514617985,0.298536560793119,ST
7.9,-5.10515022277832,-2.52296710014343,7.98341417312622,-0.190549999475479,0.487807989120483,0.685979962348938,-1027.5,18.9000015258789,-916.500061035156,-0.235102188123742,-0.54872740309403,0.305885038298375,ST
7.93333333333333,-4.97654962539673,-1.61678040027618,8.13235187530518,0.579271972179413,-0.0838419944047928,0.282013982534409,-1025.10009765625,16.5,-904.500061035156,-0.292071229073158,-0.540519852490797,0.194956266697475,ST
7.96666666666667,-5.07225227355957,-1.99540495872498,8.2142972946167,0.396344006061554,-0.655492007732391,1.76830399036407,-1029.90002441406,13.5000009536743,-916.500061035156,-0.288085799233859,-0.540058954206584,0.235641967991577,ST
8.0,-4.87725782394409,-1.80399918556213,8.10902404785156,0.655492007732391,-0.663114011287689,1.78354799747467,-1032.30004882812,21.9000015258789,-911.700012207031,-0.31524386825735,-0.5304247762255,0.215831288296075,ST
8.03333333333333,-5.37251996994019,-1.73341834545135,8.53131294250488,0.449698001146317,-0.358233988285065,0.891773998737335,-1022.70001220703,12.9000005722046,-916.500061035156,-0.331004678740425,-0.552611077968914,0.198655942153693,ST
8.06666666666667,-4.87187433242798,-1.5802937746048,8.8997688293457,0.907018005847931,-0.167683988809586,1.56251001358032,-1017.90002441406,12.9000005722046,-911.700012207031,-0.355332869177079,-0.494542121251567,0.172680905452982,ST
8.1,-4.02550220489502,-1.77229762077332,8.79030895233154,0.708845973014832,-1.61586391925812,0.99848198890686,-1025.10009765625,16.5,-916.500061035156,-0.355321059875101,-0.419543056585056,0.196699191362877,ST
8.13333333333333,-3.45607018470764,-1.97387182712555,8.32495403289795,-0.137196004390717,-2.74391984939575,0.0914639979600906,-1025.10009765625,20.1000003814697,-921.300048828125,-0.349934104591987,-0.379289555998855,0.232533202863467,ST
8.16666666666667,-3.33046007156372,-1.58627510070801,7.42056179046631,-0.106707997620106,-1.80641400814056,-1.39482593536377,-1027.5,27.9000015258789,-906.900024414062,-0.347643693720621,-0.409983727828506,0.211536944053853,ST
8.2,-3.48478102684021,-2.09230422973633,7.9337682723999,-0.106707997620106,-0.190549999475479,-0.830797970294952,-1044.30004882812,15.9000005722046,-906.900024414062,-0.321162788869299,-0.400937592004902,0.258584825641362,ST
8.23333333333333,-3.86161112785339,-2.05342483520508,8.14790344238281,-0.0381099991500378,1.31098401546478,-1.78354799747467,-1037.10009765625,20.1000003814697,-906.900024414062,-0.302806066785893,-0.432228764824215,0.248596773746014,ST
8.26666666666667,-3.98123955726624,-2.119220495224,8.62163257598877,0.350611984729767,0.891773998737335,-0.945127964019775,-1025.10009765625,19.5,-918.900024414062,-0.291610228852863,-0.422662876779344,0.241301635615668,ST
8.3,-4.05481100082397,-1.98463833332062,8.45056343078613,1.01372599601746,0.365855991840363,-1.86738991737366,-1025.10009765625,16.5,-914.100036621094,-0.270104613960685,-0.436871762328071,0.230455190770693,ST
8.33333333333333,-4.33175134658813,-1.51389980316162,8.07433223724365,1.2500079870224,0.655492007732391,-1.74543797969818,-1032.30004882812,15.9000005722046,-909.300048828125,-0.263701469479369,-0.485798628493732,0.184864007993587,ST
8.36666666666667,-4.69003915786743,-1.58268630504608,8.88481616973877,1.35671591758728,-0.335367977619171,-1.28049600124359,-1029.90002441406,22.5,-904.500061035156,-0.247803805630453,-0.478311966229614,0.175006535852695,ST
8.4,-4.39096736907959,-1.25550210475922,8.70238208770752,1.76830399036407,-0.83841997385025,-1.34909391403198,-1034.70007324219,18.3000011444092,-906.900024414062,-0.240398188059608,-0.461391881186581,0.14125844051234,ST
8.43333333333333,-4.55127000808716,-0.512608528137207,7.76987743377686,1.92074394226074,-0.907018005847931,-0.945127964019775,-1025.10009765625,16.5,-902.100036621094,-0.256641969158248,-0.527237338431691,0.0634412403048068,ST
8.46666666666667,-4.00157642364502,-1.03478729724884,8.07313537597656,1.52439999580383,0.259148001670837,1.57775402069092,-1015.50006103516,17.1000003814697,-902.100036621094,-0.236487879787847,-0.457746794076955,0.123490674224403,ST
8.5,-4.334144115448,-0.566441416740417,8.14371681213379,1.18903195858002,-0.510673999786377,0.701223969459534,-1022.70001220703,9.30000019073486,-906.900024414062,-0.263553780766175,-0.487267356455431,0.0667016848117389,ST
8.53333333333333,-4.74207735061646,-0.326586067676544,8.67307281494141,1.28811800479889,-0.503051996231079,1.45580196380615,-1032.30004882812,15.3000001907349,-906.900024414062,-0.287271749803801,-0.499262170892652,0.0339938616091456,ST
8.56666666666667,-4.43283748626709,-0.805100440979004,8.70118618011475,0.861285984516144,-0.46494197845459,1.51677799224854,-1029.90002441406,12.3000001907349,-911.700012207031,-0.273414876063983,-0.468895247889795,0.0893762677639634,ST
8.6,-4.3161997795105,-0.616087257862091,8.53191089630127,0.518296003341675,-0.830797970294952,0.868907988071442,-1029.90002441406,12.3000001907349,-897.300048828125,-0.289177542318638,-0.465962565536246,0.0703710624255773,ST
8.63333333333333,-4.11761617660522,-0.985141456127167,8.90515232086182,0.259148001670837,-0.449698001146317,0.952749967575073,-1027.5,18.9000015258789,-916.500061035156,-0.282047778704215,-0.430202601373818,0.108919177162287,ST
8.66666666666667,-4.55964374542236,-0.536534249782562,8.56540775299072,0.160062000155449,-0.708845973014832,-1.53202199935913,-1037.10009765625,14.1000003814697,-911.700012207031,-0.285323063818225,-0.486948707268287,0.063660717777424,ST
8.7,-4.07514810562134,-0.86491471529007,8.41886234283447,0.289635986089706,0.213415995240211,1.51677799224854,-1034.70007324219,20.7000007629395,-911.700012207031,-0.28328612808843,-0.449396213122089,0.100610662918057,ST
8.73333333333333,-4.34311628341675,-1.77827906608582,8.536696434021,-0.739333987236023,-0.221037998795509,0.129574000835419,-1025.10009765625,11.1000003814697,-916.500061035156,-0.242657306278301,-0.461767177847991,0.206496720168391,ST
8.76666666666667,-4.54110145568848,-0.712388277053833,8.63299751281738,-0.701223969459534,-0.320124000310898,-0.160062000155449,-1034.70007324219,15.9000005722046,-916.500061035156,-0.3012615089887,-0.482265295051787,0.0836929030215904,ST
8.8,-4.3640513420105,-1.26028728485107,8.31418704986572,-0.510673999786377,-0.167683988809586,1.22714197635651,-1032.30004882812,12.3000001907349,-911.700012207031,-0.287142799121439,-0.478734956539483,0.150196158764363,ST
8.83333333333333,-3.80957269668579,-1.42597281932831,7.77167177200317,-0.46494197845459,0.640248000621796,1.73781597614288,-1025.10009765625,10.5,-909.300048828125,-0.294400142181578,-0.45090471361654,0.180925958388549,ST
8.86666666666667,-4.14273834228516,-2.03189158439636,8.42245101928711,-1.32622802257538,0.746955990791321,0.762199997901917,-1025.10009765625,16.5,-914.100036621094,-0.282551895228685,-0.447598638528466,0.238551558821365,ST
8.9,-4.34730291366577,-1.64309871196747,8.89558219909668,-1.32622802257538,-0.144817993044853,0.0762199983000755,-1025.10009765625,13.5000009536743,-914.100036621094,-0.314342480996109,-0.447763731806032,0.184887019981086,ST
8.93333333333333,-4.22229146957397,-1.77110135555267,8.78372955322266,-0.990859985351562,-0.586893975734711,-0.586893975734711,-1037.10009765625,20.1000003814697,-914.100036621094,-0.307480761100022,-0.439146970224332,0.201068886176873,ST
8.96666666666667,-3.84127426147461,-1.74777376651764,8.18917560577393,-0.701223969459534,-0.358233988285065,0.289635986089706,-1034.70007324219,13.5000009536743,-916.500061035156,-0.310690432275733,-0.429591791582877,0.211205458751751,ST
9.0,-3.89331269264221,-1.57909739017487,8.72271919250488,-0.221037998795509,-0.442075997591019,-1.02897000312805,-1025.10009765625,12.9000005722046,-914.100036621094,-0.313311338376379,-0.412759393258384,0.18019513218964,ST
9.03333333333333,-3.8358907699585,-1.48638522624969,7.98221778869629,0.304879993200302,-0.541162014007568,0.198172003030777,-1032.30004882812,13.5000009536743,-914.100036621094,-0.313818183380866,-0.440484357326634,0.183329296137955,ST
9.06666666666667,-4.15589714050293,-1.16697692871094,8.61266040802002,1.18140995502472,0.289635986089706,-0.0609759986400604,-1039.5,16.5,-911.700012207031,-0.328066351100611,-0.446513606633282,0.132704608221462,ST
9.1,-3.77129149436951,-2.06897664070129,8.74006462097168,1.61586391925812,-0.510673999786377,1.31860601902008,-1027.5,17.7000007629395,-914.100036621094,-0.297085684095217,-0.39719658838543,0.228587478630616,ST
9.13333333333333,-3.13426923751831,-2.44401216506958,7.89309453964233,1.05183601379395,-1.87501192092896,-2.00458598136902,-1027.5,11.1000003814697,-899.700012207031,-0.250169224000306,-0.358402730588252,0.299318866177374,ST
9.16666666666667,-3.81256318092346,-2.02471399307251,7.66280937194824,0.25152599811554,-1.34909391403198,-2.84300589561462,-1044.30004882812,19.5,-911.700012207031,-0.23807135224521,-0.444789325077264,0.259891820037523,ST
9.2,-4.23186159133911,-1.8506543636322,8.55404281616211,0.327746003866196,0.236281991004944,-1.73781597614288,-1041.90002441406,11.7000007629395,-914.100036621094,-0.237182664530202,-0.450145834004633,0.213977534566232,ST
9.23333333333333,-4.3281626701355,-1.99779748916626,8.6862325668335,0.899396002292633,0.0076219998300075,0.190549999475479,-1032.30004882812,18.3000011444092,-906.900024414062,-0.229920325783369,-0.452148741325377,0.224336421184106,ST
9.26666666666667,-4.26595544815063,-1.86919677257538,8.98171520233154,1.14329993724823,0.0076219998300075,-0.0609759986400604,-1037.10009765625,15.3000001907349,-904.500061035156,-0.232445244265359,-0.435251336417231,0.203241573496482,ST
9.3,-4.03327798843384,-2.40094590187073,8.29684162139893,0.87652999162674,0.304879993200302,0.945127964019775,-1029.90002441406,15.9000005722046,-914.100036621094,-0.204953558127534,-0.437837695528668,0.27947126705989,ST
9.33333333333333,-4.29646110534668,-2.07615423202515,8.43800258636475,0.579271972179413,0.510673999786377,-0.967993974685669,-1044.30004882812,20.7000007629395,-906.900024414062,-0.206937607179009,-0.459641479821953,0.241170721876441,ST
9.36666666666667,-4.73729228973389,-2.2292788028717,8.4415922164917,-0.320124000310898,0.0609759986400604,0.990859985351562,-1039.5,17.1000003814697,-918.900024414062,-0.211135576957563,-0.497666908819478,0.257849866179736,ST
9.4,-4.51119422912598,-2.27832651138306,8.55224800109863,-0.518296003341675,-0.0457319989800453,0.282013982534409,-1039.5,12.3000001907349,-904.500061035156,-0.215589964657933,-0.471440796014458,0.261005169564473,ST
9.43333333333333,-4.51657772064209,-2.19877362251282,7.71963310241699,-1.65397393703461,-1.14329993724823,1.50153398513794,-1027.5,24.9000015258789,-909.300048828125,-0.237245421417784,-0.511336798264621,0.278644475683504,ST
9.46666666666667,-5.0375599861145,-2.19638109207153,8.05997657775879,-1.32622802257538,1.77592599391937,2.56099200248718,-1041.90002441406,23.7000007629395,-906.900024414062,-0.272484687336731,-0.546796016669547,0.266233502678231,ST
9.5,-5.05131721496582,-1.69812786579132,9.14441013336182,-0.480185985565186,1.39482593536377,1.91312193870544,-1041.90002441406,20.1000003814697,-909.300048828125,-0.335248754751743,-0.50054416502147,0.182904417387059,ST
9.53333333333333,-4.706787109375,-1.30694234371185,8.73946666717529,0.266770005226135,0.0381099991500378,3.47563195228577,-1017.90002441406,11.7000007629395,-911.700012207031,-0.388423411857144,-0.490366866480446,0.144789680582946,ST
9.56666666666667,-4.03387641906738,-1.83928966522217,8.65213775634766,1.19665396213531,0.0685980021953583,3.45276594161987,-1025.10009765625,17.7000007629395,-916.500061035156,-0.392621698931486,-0.429223796671379,0.204675355186392,ST
9.6,-3.27961802482605,-2.93090057373047,7.50370359420776,0.182927995920181,-0.335367977619171,0.914639949798584,-1022.70001220703,19.5,-906.900024414062,-0.337318542855061,-0.386661266982901,0.371345957972412,ST
9.63333333333333,-4.37362146377563,-2.52296710014343,7.58146238327026,-0.327746003866196,1.19665396213531,-2.84300589561462,-1022.70001220703,17.7000007629395,-916.500061035156,-0.326229265908274,-0.501194978792981,0.32477607648593,ST
9.66666666666667,-5.09438371658325,-1.672407746315,8.76458930969238,0.442075997591019,1.04421401023865,-0.289635986089706,-1029.90002441406,21.9000015258789,-909.300048828125,-0.385167373103385,-0.520473549913766,0.188287147314077,ST
9.7,-4.91972589492798,-1.25550210475922,8.84593677520752,1.47104597091675,-0.548784017562866,0.99848198890686,-1013.10003662109,16.5,-916.500061035156,-0.412851798937338,-0.502628675322755,0.137406372684375,ST
9.73333333333333,-4.06497955322266,-1.66822075843811,8.85072135925293,1.41769194602966,-1.74543797969818,3.15550804138184,-1013.10003662109,17.7000007629395,-921.300048828125,-0.423554791409532,-0.421981985886912,0.181130894794445,ST
9.76666666666667,-3.06727719306946,-1.60182690620422,7.37988805770874,0.716467976570129,-3.30032587051392,1.44817996025085,-1037.10009765625,13.5000009536743,-904.500061035156,-0.433932527461229,-0.380714795490289,0.211006815800323,ST
9.8,-3.79043197631836,-0.995309889316559,7.44687986373901,0.586893975734711,-0.144817993044853,0.525918006896973,-1027.5,18.3000011444092,-916.500061035156,-0.469461307584985,-0.467100023244112,0.131385773367673,ST
9.83333333333333,-3.81914281845093,-1.39486944675446,8.75501823425293,-0.0381099991500378,0.571649968624115,0.579271972179413,-1032.30004882812,14.7000007629395,-906.900024414062,-0.463851580356384,-0.407921907903782,0.157691487842143,ST
9.86666666666667,-4.48367977142334,-0.919345736503601,8.57198715209961,-0.137196004390717,-0.647870004177094,0.106707997620106,-1029.90002441406,17.7000007629395,-921.300048828125,-0.488310045150134,-0.478461687646784,0.106934299672889,ST
9.9,-4.33294773101807,-1.81536388397217,9.57686710357666,-0.114329993724823,0.594515979290009,0.800309956073761,-1022.70001220703,20.7000007629395,-916.500061035156,-0.46233086589089,-0.419574343549638,0.187001419825866,ST
9.93333333333333,-3.78744125366211,-1.03777801990509,7.95111465454102,-0.0228659994900227,-1.30336201190948,-0.602137982845306,-1032.30004882812,11.1000003814697,-909.300048828125,-0.481528312181131,-0.43887527220912,0.130189772754298,ST
9.96666666666667,-3.89809775352478,-0.817063271999359,7.65742635726929,0.0076219998300075,0.381099998950958,0.182927995920181,-1029.90002441406,14.7000007629395,-904.500061035156,-0.493537017779667,-0.469273981974535,0.106166834245842,ST
10.0,-3.97047305107117,-1.63532292842865,8.43620872497559,0.0533539988100529,0.579271972179413,1.03659200668335,-1017.90002441406,13.5000009536743,-909.300048828125,-0.466690333367005,-0.434167303174232,0.190630008834778,ST
10.0333333333333,-4.49205350875854,-0.82364284992218,8.43142318725586,0.3125019967556,-0.525918006896973,0.0076219998300075,-1017.90002441406,16.5,-916.500061035156,-0.507260481399912,-0.486638093919162,0.0967869037707144,ST
10.0666666666667,-4.59074735641479,-0.785361707210541,8.3339262008667,0.83841997385025,0.243903994560242,1.02134799957275,-1029.90002441406,12.9000005722046,-914.100036621094,-0.515442191907074,-0.502214548884082,0.0915443746553959,ST
10.1,-4.28210544586182,-1.48698341846466,8.72391510009766,0.769822001457214,-0.144817993044853,0.800309956073761,-1022.70001220703,17.1000003814697,-911.700012207031,-0.48559452431955,-0.450654181901801,0.16677986170966,ST
10.1333333333333,-4.66312265396118,-0.510215938091278,8.09586524963379,0.586893975734711,-0.922261953353882,-0.0152439996600151,-1008.30004882812,17.7000007629395,-914.100036621094,-0.531684884780198,-0.520096784783269,0.0618957862144445,ST
10.1666666666667,-4.31500339508057,-1.55935871601105,9.00384616851807,-0.0457319989800453,-0.327746003866196,0.861285984516144,-1029.90002441406,11.7000007629395,-904.500061035156,-0.49127353696516,-0.440879764103792,0.170798432244811,ST
10.2,-4.70260000228882,-1.29378318786621,8.83516979217529,-0.335367977619171,-1.58537602424622,-1.64635193347931,-1027.5,18.9000015258789,-906.900024414062,-0.488660542143334,-0.481566719192398,0.147268972788682,ST
10.2333333333333,-4.05899810791016,-1.29677391052246,8.16824054718018,-0.228659987449646,-1.15092194080353,-0.807931959629059,-1037.10009765625,19.5,-906.900024414062,-0.478167926116797,-0.45404321607195,0.158366742671941,ST
10.2666666666667,-4.44659471511841,-1.17475283145905,8.18797874450684,-0.137196004390717,0.884151995182037,0.846041977405548,-1020.30004882812,17.1000003814697,-909.300048828125,-0.494221660679776,-0.494971727618278,0.142071946818767,ST
10.3,-4.64816904067993,-2.13297772407532,9.17132663726807,-0.37347799539566,0.579271972179413,0.762199997901917,-1039.5,16.5,-911.700012207031,-0.463149175430215,-0.459841593491463,0.228612665752344,ST
10.3333333333333,-3.93877148628235,-1.39546751976013,8.01332092285156,-0.381099998950958,-1.16616594791412,-1.61586391925812,-1029.90002441406,21.3000011444092,-909.300048828125,-0.472810541279894,-0.448468684953668,0.174253048350996,ST
10.3666666666667,-4.26416110992432,-1.62754702568054,8.52413558959961,-0.503051996231079,-0.78506600856781,0.304879993200302,-1027.5,17.7000007629395,-914.100036621094,-0.473814435408914,-0.455471869422145,0.189155989572684,ST
10.4,-3.21202778816223,-1.79442894458771,8.03006935119629,-0.0762199983000755,-0.495429992675781,-0.175305992364883,-1027.5,15.9000005722046,-911.700012207031,-0.460947323860965,-0.37127338378626,0.220025743293986,ST
10.4333333333333,-3.4973418712616,-1.64309871196747,7.69451141357422,-0.487807989120483,-0.594515979290009,-0.350611984729767,-1032.30004882812,21.3000011444092,-914.100036621094,-0.464201126925181,-0.417119871049908,0.211404354555867,ST
10.4666666666667,-4.42326736450195,-1.37752330303192,8.54985523223877,-0.0,0.693601965904236,0.670735955238342,-1037.10009765625,16.5,-914.100036621094,-0.492562894011876,-0.473589501020161,0.159262207359671,ST
10.5,-4.60749530792236,-2.26815819740295,9.36572265625,-0.640248000621796,0.548784017562866,1.16616594791412,-1020.30004882812,17.1000003814697,-902.100036621094,-0.472013681968983,-0.447416697866975,0.23786086986173,ST
10.5333333333333,-3.31849718093872,-1.66702449321747,8.37818813323975,-0.388722002506256,-0.853663980960846,-0.0228659994900227,-1032.30004882812,16.5,-911.700012207031,-0.491989414799304,-0.369067399463486,0.196991317589304,ST
10.5666666666667,-3.81555390357971,-1.82852303981781,8.04801368713379,-0.503051996231079,-0.830797970294952,0.121951997280121,-1029.90002441406,17.1000003814697,-926.100036621094,-0.487430278806679,-0.431672305635402,0.224039080927404,ST
10.6,-3.66422390937805,-1.88175773620605,8.44518089294434,0.388722002506256,-0.129574000835419,0.846041977405548,-1027.5,18.9000015258789,-918.900024414062,-0.497540497223904,-0.40070314012872,0.217930236430436,ST
10.6333333333333,-3.60082077980042,-1.81596207618713,8.61266040802002,0.487807989120483,-0.983237981796265,0.205793991684914,-1032.30004882812,18.3000011444092,-906.900024414062,-0.504363598658025,-0.386713555043798,0.206666490862088,ST
10.6666666666667,-3.39206886291504,-1.99181604385376,7.9014687538147,0.487807989120483,-0.388722002506256,0.167683988809586,-1034.70007324219,18.3000011444092,-902.100036621094,-0.49003599503853,-0.393867993214192,0.245889981467228,ST
10.7,-3.98123955726624,-1.60721015930176,7.39603805541992,0.419209986925125,1.31860601902008,-0.213415995240211,-1037.10009765625,18.9000015258789,-902.100036621094,-0.496114265997655,-0.486393235167894,0.213706659094498,ST
10.7333333333333,-4.44480037689209,-1.66463184356689,7.84584140777588,0.457319974899292,1.85976791381836,-0.609759986400604,-1027.5,17.7000007629395,-918.900024414062,-0.483974676096234,-0.508999530842115,0.209226180367912,ST
10.7666666666667,-4.44659471511841,-1.32309222221375,7.92419815063477,0.769822001457214,1.15092194080353,0.297257989645004,-1015.50006103516,17.1000003814697,-897.300048828125,-0.502490124571596,-0.50757778789452,0.164008268568796,ST
10.8,-4.99269914627075,-2.06957459449768,8.18199729919434,0.693601965904236,0.342989981174469,0.137196004390717,-1025.10009765625,15.9000005722046,-916.500061035156,-0.457740032866806,-0.534834778697175,0.246466261800721,ST
10.8333333333333,-5.14223527908325,-1.94217026233673,9.09954929351807,0.396344006061554,0.990859985351562,-0.602137982845306,-1017.90002441406,17.7000007629395,-918.900024414062,-0.464917527975276,-0.50636184513017,0.210367055914755,ST
10.8666666666667,-5.04413986206055,-1.5964435338974,9.03076267242432,0.510673999786377,-0.533540010452271,-0.724089980125427,-1015.50006103516,17.1000003814697,-909.300048828125,-0.471486277553865,-0.501724243547345,0.174675260286939,ST
10.9,-4.77617168426514,-1.89730954170227,8.38416957855225,0.594515979290009,-0.381099998950958,0.190549999475479,-1022.70001220703,18.9000015258789,-914.100036621094,-0.448295234117543,-0.506568932818776,0.221243701382554,ST
10.9333333333333,-4.65654325485229,-1.99959194660187,8.14132404327393,0.846041977405548,0.282013982534409,-0.632625997066498,-1017.90002441406,18.3000011444092,-906.900024414062,-0.427005620381304,-0.507237687484676,0.240023111010121,ST
10.9666666666667,-4.31799411773682,-1.76691436767578,7.93556261062622,1.02134799957275,0.853663980960846,-1.33385002613068,-1015.50006103516,23.1000003814697,-906.900024414062,-0.415490901339608,-0.489190332426619,0.218688099448058,ST
11.0,-4.02909088134766,-1.89013183116913,7.29674625396729,0.320124000310898,-0.655492007732391,0.327746003866196,-1013.10003662109,17.1000003814697,-906.900024414062,-0.403097415098856,-0.48992670294165,0.252455398763556,ST
11.0333333333333,-4.36285495758057,-2.14434266090393,7.55693817138672,0.800309956073761,0.213415995240211,-0.92988395690918,-1032.30004882812,15.3000001907349,-921.300048828125,-0.377069618046147,-0.506894931639003,0.276011428674306,ST
11.0666666666667,-5.11113166809082,-2.17664217948914,7.94214248657227,0.46494197845459,0.137196004390717,0.518296003341675,-1025.10009765625,18.3000011444092,-906.900024414062,-0.383893120189614,-0.555929867160772,0.266182367198655,ST
11.1,-5.27681732177734,-1.95592749118805,9.42075157165527,1.55488801002502,1.27287399768829,-0.594515979290009,-1008.30004882812,13.5000009536743,-909.300048828125,-0.397790815663335,-0.503617498080069,0.202819418633228,ST
11.1333333333333,-4.83957481384277,-1.8889354467392,9.34119892120361,0.937505960464478,-0.87652999162674,1.73781597614288,-1022.70001220703,17.7000007629395,-909.300048828125,-0.415884718573451,-0.468977521669489,0.196230018526132,ST
11.1666666666667,-4.16606569290161,-1.81237316131592,9.09596061706543,1.6844619512558,-1.18140995502472,-0.548784017562866,-1017.90002441406,9.90000057220459,-911.700012207031,-0.403569810069932,-0.419970790206873,0.193974365481658,ST
11.2,-3.40702247619629,-1.36914920806885,7.9014687538147,1.95123195648193,-1.15854394435883,0.0762199983000755,-1020.30004882812,15.9000005722046,-914.100036621094,-0.407161549585151,-0.399782598957099,0.167969551790255,ST
11.2333333333333,-3.29098272323608,-1.24473547935486,8.01870441436768,2.17989206314087,-0.121951997280121,-0.792688012123108,-1025.10009765625,8.70000076293945,-904.500061035156,-0.39523008080729,-0.384873932196937,0.150739685269785,ST
11.2666666666667,-4.274329662323,-0.97258049249649,7.6029953956604,1.37958192825317,0.472563982009888,0.350611984729767,-1029.90002441406,12.9000005722046,-921.300048828125,-0.401441372572445,-0.509575739418418,0.124544398726903,ST
11.3,-4.346107006073,-1.03777801990509,8.08509826660156,1.52439999580383,0.861285984516144,0.0,-1022.70001220703,11.7000007629395,-904.500061035156,-0.390690634665281,-0.491326056724975,0.125100625561871,ST
11.3333333333333,-4.55844736099243,-1.12091994285583,8.2501859664917,0.457319974899292,-0.0076219998300075,-0.106707997620106,-1022.70001220703,11.1000003814697,-914.100036621094,-0.382188978532907,-0.500880235526369,0.13434022635995,ST
11.3666666666667,-4.84017276763916,-0.74648243188858,8.39553451538086,0.807931959629059,0.190549999475479,-0.304879993200302,-1027.5,15.3000001907349,-911.700012207031,-0.396337472079269,-0.521554560807619,0.0875979374654596,ST
11.4,-4.72832012176514,-0.709397554397583,8.61804389953613,0.426831990480423,-0.602137982845306,0.693601965904236,-1010.70001220703,14.1000003814697,-918.900024414062,-0.405079406834794,-0.499441675431779,0.080681467528189,ST
11.4333333333333,-4.87366914749146,-0.837998330593109,8.79270172119141,0.46494197845459,-1.21189796924591,0.792688012123108,-1022.70001220703,12.3000001907349,-909.300048828125,-0.405841602912667,-0.502235874892209,0.0933381943979914,ST
11.4666666666667,-4.50401639938354,-0.343932211399078,7.66998720169067,0.884151995182037,-0.891773998737335,0.693601965904236,-1015.50006103516,6.30000019073486,-914.100036621094,-0.43324453307278,-0.529027243868635,0.0425319055093715,ST
11.5,-4.22707653045654,-1.22918379306793,9.12825965881348,-0.320124000310898,0.0533539988100529,3.3460578918457,-1034.70007324219,9.90000057220459,-911.700012207031,-0.429806883190317,-0.431140006158564,0.13173379428383,ST
11.5333333333333,-3.65226101875305,-2.19279217720032,10.0176982879639,-0.640248000621796,-2.35519790649414,0.396344006061554,-1015.50006103516,15.3000001907349,-902.100036621094,-0.411734970732727,-0.338282995533775,0.216056462947752,ST
11.5666666666667,-4.29347038269043,0.785361707210541,7.45286130905151,0.983237981796265,-2.05031800270081,-2.66007804870605,-1034.70007324219,8.70000076293945,-909.300048828125,-0.510653498050954,-0.51714666902763,-0.103788661292646,ST
11.6,-3.88254594802856,-0.845176041126251,8.29624271392822,0.388722002506256,1.03659200668335,4.34454011917114,-1037.10009765625,6.90000009536743,-911.700012207031,-0.462128862883809,-0.438291873921734,0.0973517113342342,ST
11.6333333333333,-4.38558435440063,-1.5743123292923,8.77356147766113,-0.518296003341675,0.472563982009888,0.92988395690918,-1022.70001220703,17.1000003814697,-911.700012207031,-0.43915561708453,-0.458325944435795,0.177719005425171,ST
11.6666666666667,-4.71994638442993,-1.02222633361816,8.84832859039307,-0.579271972179413,-0.175305992364883,-0.480185985565186,-1003.50006103516,14.7000007629395,-914.100036621094,-0.465425967829244,-0.486876196202959,0.116464756521285,ST
11.7,-4.95621252059937,-0.844577848911285,7.82071924209595,-0.556405961513519,1.21951997280121,0.800309956073761,-1029.90002441406,14.7000007629395,-899.700012207031,-0.481063681250292,-0.564493137103961,0.107812747666923,ST
11.7333333333333,-4.43762254714966,-1.91704821586609,9.17312049865723,-1.2576299905777,1.84452390670776,1.93598794937134,-1025.10009765625,17.7000007629395,-916.500061035156,-0.456427461311938,-0.446122374037179,0.206926799702439,ST
11.7666666666667,-4.56084012985229,-1.50732028484344,8.45774173736572,-1.265251994133,-2.45428395271301,-1.98171997070312,-1015.50006103516,11.7000007629395,-911.700012207031,-0.459438339537981,-0.483210411185693,0.179972833371896,ST
11.8,-5.44250297546387,-1.13706982135773,7.83507490158081,-0.693601965904236,-0.442075997591019,-0.243903994560242,-1020.30004882812,11.7000007629395,-909.300048828125,-0.48016288970972,-0.601397010516352,0.145549240847341,ST
11.8333333333333,-4.00157642364502,-1.88654291629791,9.07083797454834,-0.152439996600151,0.556405961513519,0.518296003341675,-1027.5,15.3000001907349,-916.500061035156,-0.456298140471629,-0.408882544749067,0.205011623371869,ST
11.8666666666667,-3.66003680229187,-1.5001425743103,8.07552814483643,-0.724089980125427,-2.84300589561462,0.442075997591019,-1017.90002441406,8.70000076293945,-902.100036621094,-0.479668226552179,-0.41445359538941,0.184204187372625,ST
11.9,-3.54220271110535,-1.48638522624969,8.14132404327393,-0.304879993200302,-2.78202986717224,0.381099998950958,-1027.5,8.70000076293945,-918.900024414062,-0.492336348091494,-0.399766945585341,0.180471916894299,ST
11.9333333333333,-2.8663010597229,-1.24712812900543,7.58026599884033,0.243903994560242,-1.77592599391937,0.236281991004944,-1022.70001220703,11.1000003814697,-918.900024414062,-0.504515949025595,-0.354124019599518,0.16230112550542,ST
11.9666666666667,-3.09359550476074,-1.48100197315216,7.65802431106567,0.228659987449646,-0.830797970294952,0.594515979290009,-1034.70007324219,15.3000001907349,-916.500061035156,-0.501884062623942,-0.37635571807417,0.190117160387993,ST
12.0,-4.56682157516479,-1.55756425857544,9.39682579040527,1.32622802257538,0.518296003341675,0.297257989645004,-1034.70007324219,15.9000005722046,-906.900024414062,-0.50871056754358,-0.448038022970261,0.161777664921729,ST
12.0333333333333,-4.29586267471313,-1.67898726463318,9.32325458526611,1.36433792114258,-0.0685980021953583,0.342989981174469,-1029.90002441406,9.30000019073486,-906.900024414062,-0.499878272730545,-0.425732056540552,0.175515194791269,ST
12.0666666666667,-3.3167028427124,-1.75674593448639,8.07971572875977,1.32622802257538,-0.701223969459534,-0.167683988809586,-1029.90002441406,12.3000001907349,-909.300048828125,-0.478988426012043,-0.38022452430767,0.211786007901323,ST
12.1,-3.2245888710022,-1.97925508022308,9.21379470825195,0.46494197845459,-0.602137982845306,-2.28659987449646,-1034.70007324219,17.7000007629395,-911.700012207031,-0.450590678131081,-0.327818104023842,0.212039139344012,ST
12.1333333333333,-3.15161538124084,-1.35060679912567,8.0294713973999,0.137196004390717,-2.26373386383057,-1.96647596359253,-1037.10009765625,13.5000009536743,-911.700012207031,-0.44764854613361,-0.364832990726452,0.167458993556112,ST
12.1666666666667,-3.71865487098694,-1.79323267936707,7.86139297485352,0.0381099991500378,-0.243903994560242,-0.800309956073761,-1044.30004882812,14.1000003814697,-923.700012207031,-0.41694246952136,-0.431376446857019,0.224776026792875,ST
12.2,-4.9394645690918,-2.20595121383667,8.03485488891602,-0.846041977405548,1.6692179441452,0.67835795879364,-1041.90002441406,11.1000003814697,-914.100036621094,-0.404100680836344,-0.538233009233547,0.269195732079487,ST
12.2333333333333,-4.62603759765625,-2.13237977027893,8.96855545043945,-0.0762199983000755,1.05183601379395,-1.07470202445984,-1029.90002441406,13.5000009536743,-914.100036621094,-0.40642478449881,-0.466458363119092,0.234697292095164,ST
12.2666666666667,-4.35926580429077,-1.85603761672974,7.9313759803772,-1.00610399246216,-1.76830399036407,0.609759986400604,-1032.30004882812,17.7000007629395,-918.900024414062,-0.42461760545464,-0.488616303543066,0.230707725843652,ST
12.3,-4.58656024932861,-2.34890747070312,6.26973485946655,-1.92074394226074,-0.655492007732391,2.33233189582825,-1032.30004882812,16.5,-914.100036621094,-0.395280587802809,-0.600949893425789,0.358890747882231,ST
12.3333333333333,-4.79471397399902,-1.93917953968048,8.54207992553711,-0.609759986400604,2.44666194915771,-0.0228659994900227,-1027.5,8.70000076293945,-906.900024414062,-0.463163428129977,-0.505004032870174,0.224867926107787,ST
12.3666666666667,-5.09438371658325,-2.21851229667664,7.51028299331665,-1.74543797969818,-0.442075997591019,3.69666981697083,-1020.30004882812,18.3000011444092,-916.500061035156,-0.480426958150059,-0.577813399375606,0.286083314742874,ST
12.4,-6.35586738586426,-2.71616721153259,10.7994709014893,-0.304879993200302,1.53964400291443,1.92074394226074,-1025.10009765625,23.7000007629395,-914.100036621094,-0.519509988971813,-0.522072313275722,0.245443532895381,ST
12.4333333333333,-4.53452205657959,-2.11024832725525,10.1104106903076,0.282013982534409,-2.85824990272522,0.937505960464478,-1022.70001220703,12.9000005722046,-909.300048828125,-0.553354447474333,-0.409173912712916,0.204145673628251,ST
12.4666666666667,-2.63123083114624,-2.46255469322205,7.31708288192749,-0.221037998795509,-4.48173570632935,2.84300589561462,-1037.10009765625,12.9000005722046,-904.500061035156,-0.561027285299492,-0.322636136227979,0.322606288239585,ST
12.5,-2.96678924560547,-2.22150301933289,7.90206670761108,0.419209986925125,-1.16616594791412,-1.02897000312805,-1041.90002441406,24.3000011444092,-902.100036621094,-0.567457227490717,-0.344375501218926,0.273754447918914,ST
12.5333333333333,-3.64089632034302,-1.53304040431976,8.82440280914307,0.952749967575073,-0.442075997591019,-0.350611984729767,-1037.10009765625,19.5,-906.900024414062,-0.596639743263186,-0.385233185199824,0.170550971715968,ST
12.5666666666667,-1.98762905597687,-2.22808265686035,8.35246849060059,0.99848198890686,-1.14329993724823,1.54726600646973,-1044.30004882812,11.1000003814697,-909.300048828125,-0.588050113979325,-0.22479739673605,0.258210800791939,ST
12.6,-2.59594058990479,-1.91704821586609,8.16345500946045,1.2423859834671,-0.327746003866196,-2.36281991004944,-1039.5,15.9000005722046,-918.900024414062,-0.563559017119978,-0.298712382266207,0.229684157676233,ST
12.6333333333333,-3.05411791801453,-1.03299295902252,7.88531875610352,1.20427596569061,1.18140995502472,-1.88263392448425,-1041.90002441406,18.9000015258789,-904.500061035156,-0.568238368685899,-0.368273235930919,0.129541183788394,ST
12.6666666666667,-5.24092864990234,-1.48877787590027,9.11270809173584,-0.0381099991500378,0.403965979814529,-0.0762199983000755,-1034.70007324219,12.9000005722046,-904.500061035156,-0.55300568690636,-0.516894662387469,0.16214102023494,ST
12.7,-5.87974548339844,-1.31232571601868,9.09536170959473,-0.381099998950958,1.21951997280121,0.899396002292633,-1027.5,24.3000011444092,-906.900024414062,-0.57316529230838,-0.571516539850985,0.143160070806071,ST
12.7333333333333,-4.55784940719604,-1.49894630908966,9.47219181060791,-0.358233988285065,-0.350611984729767,0.236281991004944,-1032.30004882812,17.1000003814697,-911.700012207031,-0.571301391671064,-0.443155739372945,0.157329056423595,ST
12.7666666666667,-3.41479825973511,-0.696836590766907,7.28717565536499,-0.556405961513519,-1.99696397781372,1.28049600124359,-1029.90002441406,18.9000015258789,-914.100036621094,-0.617925538378199,-0.433214587231962,0.0951310301198143,ST
12.8,-3.05052924156189,-1.48698341846466,7.72860527038574,-0.731711983680725,-0.335367977619171,2.76678586006165,-1039.5,15.3000001907349,-911.700012207031,-0.615532401323303,-0.370117375407059,0.189450239564618,ST
12.8333333333333,-3.70788836479187,-1.03239476680756,8.44338607788086,0.320124000310898,0.3125019967556,0.922261953353882,-1022.70001220703,12.3000001907349,-911.700012207031,-0.650505016682442,-0.411797686351951,0.120449334073405,ST
12.8666666666667,-3.97047305107117,-1.20705246925354,8.3997220993042,0.861285984516144,-0.0914639979600906,1.10518991947174,-1044.30004882812,18.3000011444092,-923.700012207031,-0.650090254461007,-0.437733951633953,0.140312509590928,ST
12.9,-4.49743700027466,-1.96190893650055,9.23652362823486,0.289635986089706,0.685979962348938,2.12653803825378,-1032.30004882812,15.3000001907349,-911.700012207031,-0.641268566675124,-0.44643656909387,0.207157786464267,ST
12.9333333333333,-4.48308134078979,-1.51150727272034,8.97334098815918,1.21189796924591,-0.426831990480423,-1.53202199935913,-1032.30004882812,18.3000011444092,-909.300048828125,-0.636506654481653,-0.456579976043802,0.166003395801114,ST
12.9666666666667,-4.33294773101807,-1.52347016334534,8.9595832824707,1.265251994133,-0.472563982009888,0.282013982534409,-1034.70007324219,13.5000009536743,-914.100036621094,-0.633665275882446,-0.444159704542243,0.165922170753416,ST
13.0,-3.5553617477417,-1.77947533130646,8.06356525421143,0.724089980125427,-1.05183601379395,-0.358233988285065,-1049.10009765625,25.5000019073486,-904.500061035156,-0.608056854591443,-0.404650418061419,0.216017128959204,ST
13.0333333333333,-3.1528115272522,-1.95353496074677,7.8895058631897,0.335367977619171,-0.983237981796265,-0.708845973014832,-1034.70007324219,17.7000007629395,-921.300048828125,-0.591472078108108,-0.368082743171,0.242442722470949,ST
13.0666666666667,-4.06976461410522,-0.703416109085083,7.63649129867554,1.13567793369293,-0.426831990480423,-2.57623600959778,-1032.30004882812,20.1000003814697,-914.100036621094,-0.618579356408445,-0.486726898676327,0.0922223313935782,ST
13.1,-4.250403881073,-1.22858572006226,8.1485013961792,-0.167683988809586,0.777444005012512,3.45276594161987,-1037.10009765625,17.7000007629395,-906.900024414062,-0.632947030068641,-0.478424870268449,0.14694936946872,ST
13.1333333333333,-4.37661218643188,-2.0552191734314,8.57976245880127,-0.846041977405548,0.358233988285065,1.73781597614288,-1027.5,12.9000005722046,-914.100036621094,-0.615674818258718,-0.461819904693439,0.235179086410503,ST
13.1666666666667,-4.38259363174438,-1.49176859855652,9.09596061706543,-0.632625997066498,0.274392008781433,0.617381989955902,-1034.70007324219,18.9000015258789,-906.900024414062,-0.656629217674322,-0.444480148823036,0.163206736797988,ST
13.2,-4.08232593536377,-1.68018364906311,9.12347507476807,-1.01372599601746,-0.137196004390717,1.93598794937134,-1041.90002441406,17.1000003814697,-909.300048828125,-0.674934087044992,-0.414935189607099,0.182401631383443,ST
13.2333333333333,-3.78684306144714,-2.09290218353271,8.91591930389404,-0.762199997901917,-0.83841997385025,1.07470202445984,-1015.50006103516,16.5,-904.500061035156,-0.673192949363797,-0.39109074343132,0.230991895637489,ST
13.2666666666667,-3.68216824531555,-1.79323267936707,8.13893127441406,-0.396344006061554,-0.114329993724823,-0.289635986089706,-1034.70007324219,9.90000057220459,-918.900024414062,-0.677423558119395,-0.415720608734483,0.217755834761421,ST
13.3,-3.73899173736572,-1.77409207820892,8.37220764160156,-0.129574000835419,-0.739333987236023,-0.556405961513519,-1032.30004882812,15.3000001907349,-916.500061035156,-0.676997403905396,-0.410439000971583,0.209338192588542,ST
13.3333333333333,-3.43872404098511,-1.80220472812653,7.60837841033936,-0.442075997591019,-0.922261953353882,0.525918006896973,-1037.10009765625,22.5,-911.700012207031,-0.678675314487083,-0.41298109320971,0.232799957581351,ST
13.3666666666667,-3.35917091369629,-1.72205364704132,8.10902404785156,0.0076219998300075,-1.03659200668335,-0.708845973014832,-1037.10009765625,12.3000001907349,-906.900024414062,-0.682009534057421,-0.382970118621915,0.209579494318445,ST
13.4,-2.99310731887817,-1.78186786174774,8.16106224060059,0.0609759986400604,-0.746955990791321,1.34147191047668,-1025.10009765625,18.3000011444092,-914.100036621094,-0.697905221044555,-0.343289661474551,0.213940107910107,ST
13.4333333333333,-3.28978633880615,-2.50143384933472,8.36203861236572,-0.411587983369827,-0.160062000155449,0.907018005847931,-1039.5,23.1000003814697,-914.100036621094,-0.683536496367706,-0.360631859528794,0.290768053143241,ST
13.4666666666667,-4.16546773910522,-2.09948182106018,8.58095932006836,-0.0762199983000755,0.960371971130371,-0.419209986925125,-1027.5,21.9000015258789,-911.700012207031,-0.696452257518579,-0.44204334884432,0.240622983756262,ST
13.5,-4.60211181640625,-2.34531855583191,8.6144552230835,-0.503051996231079,1.12043392658234,1.27287399768829,-1034.70007324219,22.5,-914.100036621094,-0.698133714576608,-0.47840837045982,0.265838448274735,ST
13.5333333333333,-4.4142951965332,-2.2771303653717,8.49422836303711,-0.236281991004944,0.350611984729767,-0.320124000310898,-1022.70001220703,19.5,-911.700012207031,-0.696164567514405,-0.4656592221037,0.262684565984536,ST
13.5666666666667,-4.22588014602661,-2.11563158035278,7.81653213500977,-0.37347799539566,-0.137196004390717,-0.0609759986400604,-1037.10009765625,23.7000007629395,-921.300048828125,-0.69705420072108,-0.480718883923396,0.265000479360742,ST
13.6,-4.57160663604736,-2.11563158035278,7.95948839187622,-0.632625997066498,0.221037998795509,0.884151995182037,-1037.10009765625,20.1000003814697,-911.700012207031,-0.712236919875513,-0.507505945998131,0.260123541261084,ST
13.6333333333333,-4.91912794113159,-2.05701375007629,8.44996547698975,-0.411587983369827,0.556405961513519,1.92074394226074,-1027.5,20.1000003814697,-916.500061035156,-0.745740948354091,-0.51649631475304,0.237790672591686,ST
13.6666666666667,-5.12668323516846,-1.89611327648163,8.74544811248779,0.525918006896973,0.342989981174469,1.20427596569061,-1020.30004882812,20.7000007629395,-911.700012207031,-0.767194995764653,-0.521281797925799,0.211488107137185,ST
13.7,-5.18171262741089,-2.07077097892761,9.13603591918945,0.861285984516144,0.647870004177094,1.28049600124359,-1041.90002441406,17.7000007629395,-923.700012207031,-0.769491965450523,-0.506848878026592,0.220316966223999,ST
13.7333333333333,-4.12718629837036,-1.57670485973358,8.63897895812988,1.28811800479889,-0.632625997066498,0.503051996231079,-1029.90002441406,15.3000001907349,-911.700012207031,-0.78878033045854,-0.438427026001762,0.177786699867686,ST
13.7666666666667,-4.02729654312134,-1.92302966117859,8.10902404785156,0.525918006896973,-1.37958192825317,-0.46494197845459,-1032.30004882812,20.7000007629395,-921.300048828125,-0.761180471009279,-0.447619302287345,0.232027779083905,ST
13.8,-4.01653003692627,-1.8907299041748,8.27590656280518,0.655492007732391,-0.457319974899292,-0.952749967575073,-1027.5,17.1000003814697,-911.700012207031,-0.752139682516104,-0.44078131639431,0.224145673787478,ST
13.8333333333333,-3.34660983085632,-1.58627510070801,8.37759017944336,1.27287399768829,-0.701223969459534,-1.95885396003723,-1039.5,17.1000003814697,-923.700012207031,-0.741348398239637,-0.372201864144246,0.186141462382221,ST
13.8666666666667,-3.83708715438843,-1.8907299041748,8.73587799072266,0.99848198890686,-0.87652999162674,0.213415995240211,-1020.30004882812,18.3000011444092,-911.700012207031,-0.731544398195728,-0.404077484724274,0.211102799786868,ST
13.9,-3.75753402709961,-2.2310733795166,9.06246376037598,1.05945801734924,-0.106707997620106,-0.442075997591019,-1046.70007324219,13.5000009536743,-904.500061035156,-0.71117898266416,-0.382391123722672,0.239816078456533,ST
13.9333333333333,-3.72284173965454,-1.34103655815125,8.03246212005615,0.868907988071442,-0.388722002506256,-1.46342396736145,-1034.70007324219,15.9000005722046,-921.300048828125,-0.720029348008583,-0.427687522664057,0.165016037448308,ST
13.9666666666667,-4.06139087677002,-1.72564244270325,9.26822566986084,0.282013982534409,0.297257989645004,1.16616594791412,-1027.5,14.7000007629395,-906.900024414062,-0.723926576142682,-0.40765860953723,0.182763009561203,ST
14.0,-3.96688413619995,-1.97446990013123,8.59890365600586,-0.221037998795509,-0.914639949798584,-0.609759986400604,-1041.90002441406,21.3000011444092,-906.900024414062,-0.702990925091045,-0.420744336178893,0.226389220394106,ST
14.0333333333333,-3.45188307762146,-1.19628596305847,8.07493019104004,0.358233988285065,0.541162014007568,-0.327746003866196,-1034.70007324219,13.5000009536743,-902.100036621094,-0.728006336192968,-0.400914327640307,0.146758350702497,ST
14.0666666666667,-3.94654726982117,-1.67599666118622,8.31478500366211,-0.190549999475479,0.609759986400604,0.92988395690918,-1041.90002441406,21.3000011444092,-909.300048828125,-0.716941561477136,-0.436848847124671,0.198582389687478,ST
14.1,-3.72762703895569,-1.49356305599213,8.19396018981934,0.731711983680725,0.0304879993200302,-2.11891603469849,-1037.10009765625,14.1000003814697,-916.500061035156,-0.696904113845659,-0.420204897286334,0.18065230266073,ST
14.1333333333333,-4.11821413040161,-0.463560789823532,7.79619550704956,0.83841997385025,-0.106707997620106,0.92988395690918,-1029.90002441406,17.1000003814697,-914.100036621094,-0.756879806198977,-0.485152826231289,0.0570776890014395,ST
14.1666666666667,-4.88742637634277,-1.09340536594391,8.87584400177002,1.03659200668335,0.182927995920181,1.44055795669556,-1041.90002441406,23.7000007629395,-911.700012207031,-0.736645916656353,-0.500777736109366,0.119407530213341,ST
14.2,-4.48487615585327,-1.53483486175537,9.15158748626709,1.00610399246216,0.0,1.71494996547699,-1022.70001220703,18.9000015258789,-904.500061035156,-0.729673048162103,-0.45070972129479,0.162971817977775,ST
14.2333333333333,-4.98372745513916,-0.99889874458313,8.3100004196167,0.182927995920181,-1.33385002613068,-0.846041977405548,-1046.70007324219,13.5000009536743,-904.500061035156,-0.74185690948298,-0.534553130064101,0.120024552377037,ST
14.2666666666667,-4.34431219100952,-1.29677391052246,8.14610958099365,-0.236281991004944,0.533540010452271,0.0914639979600906,-1037.10009765625,15.9000005722046,-918.900024414062,-0.724658590676863,-0.485706065770355,0.158265163551417,ST
14.3,-4.19118785858154,-1.03538548946381,8.77715015411377,-0.0533539988100529,-0.708845973014832,-0.495429992675781,-1025.10009765625,13.5000009536743,-914.100036621094,-0.738361682625659,-0.441489270824434,0.117856232995145,ST
14.3333333333333,-3.54040813446045,-1.3099330663681,7.92958116531372,0.731711983680725,-0.548784017562866,-0.0076219998300075,-1039.5,12.9000005722046,-916.500061035156,-0.71715341586219,-0.413994002708501,0.162367514211038,ST
14.3666666666667,-3.37711524963379,-1.16518247127533,7.74774599075317,1.18140995502472,-0.327746003866196,-0.983237981796265,-1029.90002441406,17.7000007629395,-911.700012207031,-0.705557806856092,-0.406154745067206,0.147903656925188,ST
14.4,-4.08591461181641,-1.52107763290405,8.88541412353516,1.2347639799118,0.480185985565186,-1.02897000312805,-1034.70007324219,15.3000001907349,-916.500061035156,-0.679134514752861,-0.426076285012929,0.168252491401705,ST
14.4333333333333,-4.41848230361938,-1.41460812091827,9.92020130157471,1.16616594791412,-0.0914639979600906,-1.43293595314026,-1037.10009765625,16.5,-914.100036621094,-0.669136541271911,-0.414789527414091,0.140694801466086,ST
14.4666666666667,-3.6552517414093,-1.46664655208588,9.17670917510986,1.2576299905777,-0.777444005012512,0.129574000835419,-1025.10009765625,11.7000007629395,-914.100036621094,-0.660355177459265,-0.373445174992525,0.156112676438076,ST
14.5,-3.24193501472473,-1.38709354400635,8.464919090271,1.04421401023865,-0.0076219998300075,-1.18903195858002,-1025.10009765625,12.9000005722046,-909.300048828125,-0.639648622097585,-0.361004506046588,0.1613695329823,ST
14.5333333333333,-3.77727293968201,-1.47860944271088,8.75561714172363,0.259148001670837,0.365855991840363,-1.13567793369293,-1037.10009765625,13.5000009536743,-911.700012207031,-0.622900973793592,-0.40248892826195,0.167720459826605,ST
14.5666666666667,-3.64867210388184,-1.32608294487,8.13833332061768,-0.0838419944047928,0.92988395690918,0.259148001670837,-1037.10009765625,16.5,-916.500061035156,-0.626921711032694,-0.418267072923832,0.16158860123139,ST
14.6,-3.59424114227295,-1.40443968772888,7.6448655128479,-0.762199997901917,1.10518991947174,-0.114329993724823,-1027.5,15.3000001907349,-914.100036621094,-0.618435339029837,-0.434986988763099,0.183265219270596,ST
14.6333333333333,-3.70071053504944,-1.46305775642395,7.87634658813477,-0.617381989955902,0.167683988809586,0.693601965904236,-1029.90002441406,14.1000003814697,-914.100036621094,-0.628632576162677,-0.433256060699084,0.184211607583952,ST
14.6666666666667,-4.36165857315063,-2.27832651138306,7.89608526229858,-1.60061991214752,0.830797970294952,2.01220798492432,-1025.10009765625,17.7000007629395,-916.500061035156,-0.612418550298838,-0.49028688330708,0.282093724699164,ST
14.7,-4.55904579162598,-2.02650833129883,9.33162879943848,-0.213415995240211,1.05183601379395,-1.07470202445984,-1029.90002441406,17.7000007629395,-916.500061035156,-0.629802915849952,-0.446831960223798,0.21529716772679,ST
14.7333333333333,-4.08112955093384,-1.84407472610474,8.46551704406738,-0.144817993044853,-0.518296003341675,0.899396002292633,-1022.70001220703,17.7000007629395,-906.900024414062,-0.641957538010888,-0.43966521429884,0.213924047287101,ST
14.7666666666667,-4.00038003921509,-2.90518045425415,7.13345289230347,-0.457319974899292,-0.830797970294952,0.655492007732391,-1029.90002441406,14.1000003814697,-923.700012207031,-0.577620479408194,-0.478104917496836,0.386676767047875,ST
14.8,-5.24691009521484,-2.15211844444275,8.15209102630615,0.541162014007568,1.98934197425842,-0.426831990480423,-1027.5,12.9000005722046,-902.100036621094,-0.626587776133553,-0.559822496224812,0.258177691454709,ST
14.8333333333333,-5.35876274108887,-2.13237977027893,8.6264181137085,0.769822001457214,0.37347799539566,0.457319974899292,-1020.30004882812,26.1000003814697,-909.300048828125,-0.634549193212187,-0.543486783549294,0.240618718353181,ST
14.8666666666667,-4.58656024932861,-2.51220059394836,8.38536643981934,0.137196004390717,-1.39482593536377,2.25611186027527,-1025.10009765625,18.3000011444092,-904.500061035156,-0.637520981602784,-0.4814350461795,0.288497674517989,ST
14.9,-4.11821413040161,-2.29507446289062,7.74654960632324,0.381099998950958,-1.92836594581604,-0.510673999786377,-1022.70001220703,18.3000011444092,-904.500061035156,-0.636589247115235,-0.467915414604049,0.287315606676297,ST
14.9333333333333,-4.63859891891479,-2.32557988166809,8.38297367095947,0.175305992364883,-0.503051996231079,0.830797970294952,-1037.10009765625,15.9000005722046,-899.700012207031,-0.654374579998476,-0.489389768391619,0.269438919548948,ST
14.9666666666667,-4.57699012756348,-2.23645663261414,8.60727691650391,0.701223969459534,-0.442075997591019,0.457319974899292,-1022.70001220703,17.7000007629395,-906.900024414062,-0.66441905616137,-0.474768020613167,0.252493166129873,ST
15.0,-4.69123554229736,-2.43204927444458,8.72870063781738,0.708845973014832,-0.259148001670837,0.602137982845306,-1041.90002441406,10.5,-904.500061035156,-0.659657934813066,-0.477574407497762,0.269908822364937,ST
15.0333333333333,-4.07574605941772,-2.0731635093689,8.29863548278809,1.06708002090454,-0.617381989955902,1.59299790859222,-1027.5,16.5,-916.500061035156,-0.68593691774653,-0.444288709548937,0.241541442768634,ST
15.0666666666667,-4.26416110992432,-1.9648996591568,8.47867679595947,1.19665396213531,-0.952749967575073,0.3125019967556,-1037.10009765625,11.7000007629395,-911.700012207031,-0.692352026799967,-0.454069870741697,0.225198578055227,ST
15.1,-4.14453268051147,-1.78844749927521,8.57737064361572,1.07470202445984,-0.99848198890686,-0.0685980021953583,-1029.90002441406,24.9000015258789,-909.300048828125,-0.69764521504746,-0.440105244031494,0.203579223200899,ST
15.1333333333333,-3.67558860778809,-1.60122871398926,8.65871810913086,1.11281192302704,-1.02897000312805,1.08994603157043,-1034.70007324219,15.9000005722046,-918.900024414062,-0.715975884201753,-0.394016849709998,0.180010254449881,ST
15.1666666666667,-3.44829416275024,-1.87757074832916,9.06366062164307,0.960371971130371,-0.952749967575073,1.46342396736145,-1027.5,15.9000005722046,-914.100036621094,-0.722350478035108,-0.355506872782304,0.20152963687646,ST
15.2,-3.67618680000305,-1.69633340835571,8.55942630767822,0.525918006896973,-1.21189796924591,0.579271972179413,-1039.5,11.7000007629395,-894.900024414062,-0.731621177069453,-0.396839979441599,0.194143812727568,ST
15.2333333333333,-3.53502488136292,-1.29079258441925,8.86687183380127,0.304879993200302,0.388722002506256,0.815553963184357,-1029.90002441406,17.7000007629395,-923.700012207031,-0.757759869242685,-0.376652710142453,0.143519815390482,ST
15.2666666666667,-2.99729442596436,-1.31531643867493,8.26155090332031,0.198172003030777,-0.945127964019775,0.685979962348938,-1029.90002441406,12.9000005722046,-923.700012207031,-0.761558137917805,-0.342604803076279,0.157021131606587,ST
15.3,-2.96379852294922,-0.73751026391983,6.88881254196167,0.449698001146317,-0.78506600856781,-0.198172003030777,-1044.30004882812,13.5000009536743,-906.900024414062,-0.776858676189585,-0.402818179149999,0.105964054146816,ST
15.3333333333333,-5.25289154052734,-1.22080981731415,8.85251617431641,-0.0838419944047928,2.27897787094116,1.73781597614288,-1032.30004882812,16.5,-918.900024414062,-0.778881210462708,-0.53573367280287,0.135719629263538,ST
15.3666666666667,-4.64458036422729,-1.08802211284637,9.77425384521484,0.83841997385025,1.03659200668335,1.17378795146942,-1020.30004882812,20.7000007629395,-909.300048828125,-0.799069573146155,-0.443249488262195,0.108526745759663,ST
15.4,-4.41728591918945,-0.998300611972809,8.56600570678711,0.419209986925125,-1.98171997070312,1.265251994133,-1020.30004882812,15.3000001907349,-909.300048828125,-0.810388863652305,-0.470177105591557,0.113967748971001,ST
15.4333333333333,-4.18819713592529,-1.03538548946381,8.76937389373779,0.449698001146317,-0.762199997901917,1.44055795669556,-1037.10009765625,15.3000001907349,-918.900024414062,-0.823947965664613,-0.44185174904114,0.115483948214906,ST
15.4666666666667,-3.80837631225586,-1.28899812698364,9.38486289978027,0.0152439996600151,-1.12805593013763,1.36433792114258,-1041.90002441406,18.9000015258789,-911.700012207031,-0.832707790799812,-0.380635748359968,0.135412156360185,ST
15.5,-3.59005403518677,-0.674705266952515,8.33332824707031,-0.106707997620106,-1.65397393703461,-0.25152599811554,-1027.5,17.7000007629395,-911.700012207031,-0.852798444570754,-0.402675354663128,0.0810740826963036,ST
15.5333333333333,-3.18929839134216,-1.17116391658783,8.47269535064697,-0.327746003866196,0.632625997066498,0.868907988071442,-1032.30004882812,11.1000003814697,-911.700012207031,-0.842088628411376,-0.358218018810329,0.137411371884364,ST
15.5666666666667,-3.62893342971802,-1.4241783618927,8.92848014831543,-0.228659987449646,0.0304879993200302,-0.358233988285065,-1032.30004882812,11.7000007629395,-914.100036621094,-0.831247824878882,-0.381637377494394,0.158823781219521,ST
15.6,-3.9579119682312,-0.967795312404633,8.25497150421143,0.0457319989800453,0.274392008781433,-0.121951997280121,-1032.30004882812,14.1000003814697,-909.300048828125,-0.846097795858399,-0.44486757054357,0.116757788757733,DLL
15.6333333333333,-4.28509616851807,-0.65735912322998,7.95649766921997,-0.0076219998300075,1.20427596569061,0.282013982534409,-1039.5,21.9000015258789,-918.900024414062,-0.863627800252732,-0.494727548281527,0.0822819182511086,DLL
15.6666666666667,-4.59373807907104,-1.40144896507263,8.75382232666016,-0.655492007732391,1.58537602424622,1.95123195648193,-1034.70007324219,14.7000007629395,-921.300048828125,-0.849798662086299,-0.4813507265411,0.158347502219492,DLL
15.7,-4.94843673706055,-1.45887064933777,9.29035663604736,-1.12043392658234,0.0381099991500378,-0.46494197845459,-1027.5,20.7000007629395,-914.100036621094,-0.851218954826541,-0.484321090006065,0.158141454004546,DLL
15.7333333333333,-4.14931774139404,-1.00308573246002,7.70467948913574,-0.990859985351562,0.182927995920181,0.472563982009888,-1037.10009765625,19.5,-906.900024414062,-0.874725130160156,-0.49092940914613,0.130782190265955,DLL
15.7666666666667,-3.9716694355011,-2.34950566291809,9.33043193817139,-1.84452390670776,-0.25152599811554,-0.25152599811554,-1039.5,14.1000003814697,-916.500061035156,-0.830775193002459,-0.390956923964454,0.250019528723928,DLL
15.8,-4.07813882827759,-1.69274461269379,9.05887508392334,-1.74543797969818,-1.41769194602966,-1.64635193347931,-1037.10009765625,14.7000007629395,-906.900024414062,-0.848346483478308,-0.413646336620611,0.188830473702851,DLL
15.8333333333333,-4.16486930847168,-1.99959194660187,8.70238208770752,-1.65397393703461,-0.83841997385025,-0.25152599811554,-1025.10009765625,17.1000003814697,-906.900024414062,-0.83961753992982,-0.434908902281515,0.228779206422912,DLL
15.8666666666667,-4.05780172348022,-1.15501403808594,8.43022727966309,-1.18903195858002,-0.518296003341675,0.777444005012512,-1029.90002441406,20.7000007629395,-911.700012207031,-0.893867245190772,-0.444273743563002,0.137558182788376,DLL
15.9,-4.46633338928223,-1.62216377258301,8.04382705688477,-1.98171997070312,-2.88873791694641,5.20582580566406,-1025.10009765625,20.1000003814697,-911.700012207031,-0.938517421131916,-0.495273709609268,0.197090791402874,DLL
15.9333333333333,-4.61287879943848,-1.79143822193146,7.44269275665283,-3.37654590606689,-1.95123195648193,8.81103134155273,-1037.10009765625,21.9000015258789,-909.300048828125,-1.04240904749514,-0.542538843356615,0.232591930399356,DLL
15.9666666666667,-3.92082715034485,-1.53184413909912,6.35287666320801,-4.87807989120483,-2.43141794204712,9.32170581817627,-1039.5,18.9000015258789,-911.700012207031,-1.17910586701653,-0.540064200007735,0.235033254184193,DLL
16.0,-4.79949903488159,-1.59823799133301,6.17642450332642,-6.01375770568848,-1.28811800479889,12.7516059875488,-1046.70007324219,26.7000007629395,-902.100036621094,-1.33883571421562,-0.648203805467393,0.24694068966668,DLL
16.0333333333333,-5.18530130386353,-1.92003893852234,8.34170150756836,-6.3567476272583,0.304879993200302,13.0183753967285,-1029.90002441406,26.1000003814697,-916.500061035156,-1.5217440994304,-0.550231308098548,0.223796651133406,DLL
16.0666666666667,-5.14283323287964,-2.9063766002655,6.75841760635376,-8.96347141265869,-2.55336999893188,14.3903360366821,-1041.90002441406,29.1000003814697,-902.100036621094,-1.62609191557937,-0.615840315037639,0.404120478010615,DLL
16.1,-4.58476591110229,-3.11213779449463,6.48506593704224,-9.51225566864014,-0.975615978240967,12.0046501159668,-1027.5,27.9000015258789,-892.500061035156,-1.77634802189059,-0.575061211562623,0.451269025665968,DLL
16.1333333333333,-6.26973485946655,-2.51877999305725,7.60000467300415,-9.22262001037598,0.693601965904236,9.84762382507324,-1020.30004882812,36.9000015258789,-890.100036621094,-2.00534814757969,-0.670923399690719,0.323484529635313,DLL
16.1666666666667,-5.23554563522339,-3.62355017662048,7.5192551612854,-9.07780170440674,-1.03659200668335,13.3613653182983,-1025.10009765625,36.3000030517578,-885.300048828125,-2.11823978658219,-0.568756384244686,0.450907685898595,DLL
16.2,-4.87426710128784,-2.86331033706665,7.08320903778076,-7.64486598968506,-0.3125019967556,8.97109413146973,-1010.70001220703,44.1000022888184,-873.300048828125,-2.28748845946761,-0.573298860732441,0.387989460576554,DLL
16.2333333333333,-4.53811073303223,-3.31969356536865,6.85830736160278,-7.80492782592773,-0.990859985351562,9.75615978240967,-998.700012207031,41.7000007629395,-870.900024414062,-2.39653503755346,-0.54309397711189,0.454675488865791,DLL
16.2666666666667,-6.26554775238037,-2.41709566116333,8.36562728881836,-6.95888566970825,-0.899396002292633,8.4985294342041,-993.900024414062,42.9000015258789,-878.100036621094,-2.6306325779113,-0.62632597164322,0.282800824479722,DLL
16.3,-5.40123081207275,-3.03378105163574,7.73039960861206,-6.2729058265686,0.0914639979600906,11.2653160095215,-991.500061035156,45.3000030517578,-878.100036621094,-2.73608993162105,-0.58395777338001,0.372838916318054,DLL
16.3333333333333,-4.30483484268188,-3.63072776794434,7.36493444442749,-8.17840576171875,-1.60824191570282,6.85217761993408,-991.500061035156,44.7000007629395,-858.900024414062,-2.81605335285254,-0.48574672734246,0.465940570827567,DLL
16.3666666666667,-4.24561882019043,-3.36634874343872,8.14192199707031,-6.28052806854248,-0.884151995182037,7.33236360549927,-972.300048828125,38.7000007629395,-866.100036621094,-2.95759805342406,-0.452583650492136,0.396983211068022,DLL
16.4,-4.38558435440063,-3.23714971542358,8.12337970733643,-3.88721990585327,-0.655492007732391,5.02289772033691,-972.300048828125,49.5000038146973,-858.900024414062,-3.0474647787697,-0.467060753616548,0.381671608764473,DLL
16.4333333333333,-4.27373170852661,-3.39805030822754,7.91402959823608,-2.56099200248718,-1.41769194602966,1.80641400814056,-979.500061035156,47.7000007629395,-851.700012207031,-3.07688965311073,-0.459594089148561,0.408115895801283,DLL
16.4666666666667,-4.62005615234375,-3.71386981010437,8.44518089294434,-1.45580196380615,-1.36433792114258,0.716467976570129,-977.100036621094,46.5,-849.300048828125,-3.09437449554462,-0.462597606406224,0.415797445090958,DLL
16.5,-4.50999784469604,-2.70240998268127,8.1425199508667,0.579271972179413,-1.14329993724823,-0.739333987236023,-979.500061035156,47.7000007629395,-844.500061035156,-3.13134669500915,-0.481681099238081,0.319771957499466,DLL
16.5333333333333,-4.298255443573,-3.36515235900879,8.04203224182129,0.0076219998300075,-1.18903195858002,-2.79727387428284,-972.300048828125,51.9000015258789,-854.100036621094,-3.07271396178412,-0.454272535092485,0.398083387869379,DLL
16.5666666666667,-3.68456077575684,-3.308926820755,7.71425008773804,-0.0457319989800453,-1.13567793369293,-1.19665396213531,-989.100036621094,52.5000038146973,-861.300048828125,-3.06186624129777,-0.410987935805295,0.405775707640381,DLL
16.6,-4.04284811019897,-2.58816456794739,7.40560817718506,1.21951997280121,0.205793991684914,-1.85976791381836,-989.100036621094,50.7000007629395,-858.900024414062,-3.06404140030355,-0.475114211700008,0.335734363601428,DLL
16.6333333333333,-4.25518894195557,-2.81366443634033,7.41757106781006,1.92836594581604,0.716467976570129,0.0457319989800453,-986.700012207031,45.9000015258789,-856.500061035156,-3.03982474579984,-0.493516237765369,0.359383629440716,DLL
16.6666666666667,-5.14223527908325,-2.07735061645508,7.69750165939331,2.00458598136902,0.884151995182037,-1.41006994247437,-986.700012207031,51.9000015258789,-849.300048828125,-3.06021889154872,-0.573662949645767,0.261911898528578,DLL
16.7,-5.48975610733032,-1.71009075641632,7.9074501991272,1.82165801525116,0.396344006061554,-0.37347799539566,-986.700012207031,58.5000038146973,-854.100036621094,-3.07187204875921,-0.596730817514726,0.210347445409558,DLL
16.7333333333333,-5.42515659332275,-2.54629468917847,7.75432538986206,0.884151995182037,-0.0152439996600151,-0.137196004390717,-979.500061035156,47.7000007629395,-858.900024414062,-3.00574930609078,-0.586550639856956,0.315856932512044,DLL
16.7666666666667,-5.19427347183228,-3.24791622161865,7.61077117919922,-0.602137982845306,0.228659987449646,-0.0609759986400604,-986.700012207031,45.3000030517578,-856.500061035156,-2.96006379697454,-0.560882473192001,0.40455081299836,DLL
16.8,-5.30672454833984,-2.65754914283752,7.68015575408936,0.411587983369827,0.0457319989800453,-3.3613018989563,-993.900024414062,58.5000038146973,-856.500061035156,-2.95987003744166,-0.576605748511448,0.336043162680862,DLL
16.8333333333333,-5.05670070648193,-2.57081842422485,7.3463921546936,1.60824191570282,0.327746003866196,0.92988395690918,-991.500061035156,46.5,-861.300048828125,-2.9587665072874,-0.577232834370979,0.332943250400013,DLL
16.8666666666667,-5.62374019622803,-3.3268711566925,7.57607889175415,1.08232402801514,0.754577994346619,-1.80641400814056,-986.700012207031,50.7000007629395,-861.300048828125,-2.8842943505157,-0.59687800772485,0.414201130896281,DLL
16.9,-5.34679985046387,-2.1150336265564,7.57069540023804,1.43293595314026,-0.0685980021953583,-0.846041977405548,-993.900024414062,42.3000030517578,-856.500061035156,-2.94721820345346,-0.596806434601947,0.27090069083529,DLL
16.9333333333333,-5.10455226898193,-2.81665515899658,7.1047420501709,1.2576299905777,-0.175305992364883,-0.259148001670837,-986.700012207031,44.7000007629395,-854.100036621094,-2.87722474591611,-0.588406261486384,0.375443780636127,DLL
16.9666666666667,-5.23674154281616,-3.04694032669067,7.45046901702881,0.0609759986400604,-0.274392008781433,0.0076219998300075,-993.900024414062,48.9000015258789,-861.300048828125,-2.87109332480523,-0.576341024504974,0.387972458074901,DLL
17.0,-5.02679347991943,-2.73590588569641,7.48815202713013,0.487807989120483,-0.327746003866196,2.25611186027527,-989.100036621094,47.7000007629395,-863.700012207031,-2.91341015188231,-0.563373275525196,0.346991200415937,DLL
17.0333333333333,-5.45267152786255,-3.92022895812988,7.16694927215576,-1.22714197635651,-0.594515979290009,1.71494996547699,-989.100036621094,48.3000030517578,-858.900024414062,-2.8582136670789,-0.589088526954731,0.500567343839637,DLL
17.0666666666667,-5.17094612121582,-3.13725996017456,7.23214673995972,-1.27287399768829,0.266770005226135,0.457319974899292,-984.300048828125,50.7000007629395,-863.700012207031,-2.91914778525601,-0.581286608120536,0.411177258128783,DLL
17.1,-4.84256553649902,-3.11632490158081,6.59811496734619,-0.205793991684914,-0.0838419944047928,2.37044191360474,-991.500061035156,50.1000022888184,-861.300048828125,-2.92714731777445,-0.587526508293691,0.439066909948241,DLL
17.1333333333333,-5.091392993927,-3.46743488311768,6.77935266494751,-1.09756803512573,-0.907018005847931,1.90549993515015,-979.500061035156,49.5000038146973,-861.300048828125,-2.93733084615759,-0.589463920546241,0.472226533053151,DLL
17.1666666666667,-5.07105588912964,-2.73231720924377,7.25607252120972,-1.53964400291443,-0.518296003341675,1.95885396003723,-981.900024414062,51.3000030517578,-851.700012207031,-3.02950862055842,-0.57957114981772,0.360542204482478,DLL
17.2,-5.39046430587769,-2.3877866268158,7.90266513824463,-0.137196004390717,-0.67835795879364,2.15702605247498,-986.700012207031,48.9000015258789,-861.300048828125,-3.09129702656943,-0.578396098341519,0.291105796861437,DLL
17.2333333333333,-5.28997659683228,-2.71018576622009,7.36613082885742,0.67835795879364,-0.609759986400604,3.20886182785034,-989.100036621094,53.7000007629395,-856.500061035156,-3.08789167747141,-0.593955707565499,0.347559122660111,DLL
17.2666666666667,-5.42635297775269,-2.40812349319458,7.44209480285645,0.106707997620106,-0.243903994560242,0.365855991840363,-969.900024414062,50.7000007629395,-863.700012207031,-3.11131144603703,-0.60629318447041,0.312257850365364,DLL
17.3,-5.34679985046387,-2.82742190361023,7.82550430297852,-0.282013982534409,-0.472563982009888,0.167683988809586,-996.300048828125,48.9000015258789,-851.700012207031,-3.09764625854248,-0.570479394922069,0.346846403982829,DLL
17.3333333333333,-4.7366943359375,-2.49246168136597,7.22915601730347,0.617381989955902,-0.602137982845306,1.88263392448425,-984.300048828125,51.3000030517578,-846.900024414062,-3.12360770602163,-0.554661345167847,0.328805550730328,DLL
17.3666666666667,-5.96228933334351,-3.22518682479858,7.55155515670776,-0.807931959629059,-0.434453994035721,-1.18140995502472,-977.100036621094,50.1000022888184,-863.700012207031,-3.0769871447464,-0.626500268182348,0.406187590512978,DLL
17.4,-5.29236888885498,-2.62345504760742,7.75432538986206,1.12043392658234,0.419209986925125,2.9192259311676,-977.100036621094,49.5000038146973,-866.100036621094,3.1374280476525,-0.576229138734518,0.321300456079168,DLL
17.4333333333333,-5.25229358673096,-2.88065648078918,6.85053157806396,1.31860601902008,-0.282013982534409,0.160062000155449,-984.300048828125,48.3000030517578,-851.700012207031,-3.09710985000833,-0.614896433944383,0.395426824272075,DLL
17.4666666666667,-5.09258937835693,-3.24193501472473,7.39843034744263,0.198172003030777,-0.724089980125427,1.69970595836639,-979.500061035156,51.9000015258789,-868.500061035156,-3.10727375896186,-0.562549718643477,0.410610359906068,DLL
