seconds,sensor_accX_m_s_,sensor_accY_m_s_,sensor_accZ_m_s_,sensor_gyroX___s_,sensor_gyroY___s_,sensor_gyroZ___s_,sensor_magX__T_,sensor_magY__T_,sensor_magZ__T_,sensor_yaw___,sensor_pitch___,sensor_roll___,label1
0.0,1.59704172611237,-3.19827055931091,8.92190074920654,0.320124000310898,-0.190549999475479,0.556405961513519,-1200.30004882812,22.5,-875.700012207031,-1.6984112435838,0.166489088964698,0.343969002018061,ST
0.0333333333333333,1.61678040027618,-3.12529706954956,8.83756256103516,0.342989981174469,-0.274392008781433,0.426831990480423,-1221.90002441406,23.1000003814697,-866.100036621094,-1.69960589164247,0.170591042627018,0.339869235495849,ST
0.0666666666666667,1.55337727069855,-3.08940839767456,8.88541412353516,0.228659987449646,-0.0838419944047928,0.358233988285065,-1224.30004882812,20.7000007629395,-856.500061035156,-1.70014357712187,0.164216403531911,0.334827796873949,ST
0.1,1.57790112495422,-3.17733550071716,8.92249870300293,0.160062000155449,-0.121951997280121,0.396344006061554,-1212.30004882812,26.7000007629395,-858.900024414062,-1.70270705995112,0.164976098674702,0.341299045114341,ST
0.133333333333333,1.53782558441162,-3.11991381645203,8.84174919128418,0.160062000155449,-0.160062000155449,0.182927995920181,-1229.10009765625,24.9000015258789,-875.700012207031,-1.70322700143407,0.162929459000092,0.339214684368992,ST
0.166666666666667,1.56713461875916,-3.13845610618591,8.92429351806641,0.152439996600151,-0.0838419944047928,0.282013982534409,-1197.90002441406,21.3000011444092,-858.900024414062,-1.70416412944628,0.164041429672347,0.338087108759418,ST
0.2,1.54380702972412,-3.13725996017456,8.9057502746582,0.160062000155449,-0.182927995920181,0.297257989645004,-1214.70007324219,17.1000003814697,-863.700012207031,-1.70551906838047,0.162348577213871,0.338481618051115,ST
0.233333333333333,1.53782558441162,-3.14922285079956,8.85490894317627,0.190549999475479,-0.129574000835419,0.342989981174469,-1229.10009765625,29.7000007629395,-851.700012207031,-1.70744828316442,0.162214702463587,0.341263578631556,ST
0.266666666666667,1.53722739219666,-3.13008213043213,8.90455436706543,0.228659987449646,-0.0152439996600151,0.434453994035721,-1209.90002441406,25.5000019073486,-863.700012207031,-1.70851650835408,0.161302754136732,0.338033516369582,ST
0.3,1.50791847705841,-3.11153984069824,8.85670280456543,0.274392008781433,-0.167683988809586,0.480185985565186,-1219.5,23.7000007629395,-866.100036621094,-1.71044043288594,0.159423776691353,0.337553865605995,ST
0.333333333333333,1.59883618354797,-3.14623212814331,8.83098316192627,0.335367977619171,-0.213415995240211,0.480185985565186,-1221.90002441406,30.9000015258789,-854.100036621094,-1.71324423132107,0.168335877815986,0.341526185379426,ST
0.366666666666667,1.53842377662659,-3.12051177024841,8.90694713592529,0.137196004390717,-0.304879993200302,0.282013982534409,-1209.90002441406,21.3000011444092,-856.500061035156,-1.71394276386612,0.162408618770774,0.337201512250183,ST
0.4,1.53962004184723,-3.11094164848328,8.8997688293457,0.167683988809586,-0.266770005226135,0.457319974899292,-1219.5,23.7000007629395,-856.500061035156,-1.71576221856054,0.162079916990885,0.336212981050483,ST
0.433333333333333,1.5180869102478,-3.19587779045105,8.95240592956543,0.190549999475479,-0.144817993044853,0.388722002506256,-1214.70007324219,23.1000003814697,-875.700012207031,-1.71837990280647,0.15863089411369,0.342224470630791,ST
0.466666666666667,1.49057233333588,-3.09957695007324,8.9356575012207,0.297257989645004,-0.274392008781433,0.358233988285065,-1214.70007324219,25.5000019073486,-861.300048828125,-1.71883507885084,0.156716681900702,0.334148373321266,ST
0.5,1.5503865480423,-3.14742827415466,8.82859039306641,0.213415995240211,-0.228659987449646,0.419209986925125,-1207.5,27.9000015258789,-870.900024414062,-1.72185540983228,0.163506639244044,0.341609796638001,ST
0.533333333333333,1.58806955814362,-3.14802646636963,8.87046051025391,0.167683988809586,-0.25152599811554,0.381099998950958,-1217.10009765625,21.3000011444092,-849.300048828125,-1.72334976220871,0.166989842288012,0.340928387763696,ST
0.566666666666667,1.54560148715973,-3.11572670936584,8.78313159942627,0.282013982534409,-0.182927995920181,0.6250039935112,-1219.5,23.7000007629395,-866.100036621094,-1.72596154305298,0.16445725271705,0.340609056522271,ST
0.6,1.53004968166351,-3.11453056335449,8.92848014831543,0.198172003030777,-0.228659987449646,0.358233988285065,-1217.10009765625,26.7000007629395,-856.500061035156,-1.72679608788509,0.160877410718964,0.335797059907441,ST
0.633333333333333,1.53124594688416,-3.15520405769348,8.91233062744141,0.228659987449646,-0.304879993200302,0.396344006061554,-1221.90002441406,21.9000015258789,-846.900024414062,-1.7293276419974,0.160842097235926,0.339704726775189,ST
0.666666666666667,1.60362136363983,-3.14025068283081,8.81902027130127,0.274392008781433,-0.274392008781433,0.480185985565186,-1221.90002441406,16.5,-861.300048828125,-1.73164605951455,0.169012455192119,0.341573724581216,ST
0.7,1.54560148715973,-3.12469887733459,8.94821929931641,0.182927995920181,-0.121951997280121,0.365855991840363,-1202.70007324219,23.7000007629395,-868.500061035156,-1.7323364085924,0.162099038390028,0.336115260857036,ST
0.733333333333333,1.53662931919098,-3.20425200462341,8.88900279998779,0.198172003030777,-0.236281991004944,0.403965979814529,-1205.10009765625,29.1000003814697,-849.300048828125,-1.73549045398291,0.161426555516093,0.344962458341454,ST
0.766666666666667,1.50253510475159,-3.11512851715088,8.90754508972168,0.228659987449646,-0.121951997280121,0.198172003030777,-1214.70007324219,29.7000007629395,-854.100036621094,-1.73510738778803,0.158297361385217,0.336890338054587,ST
0.8,1.51629245281219,-3.11333417892456,8.86567497253418,0.289635986089706,-0.160062000155449,0.457319974899292,-1207.5,21.9000015258789,-851.700012207031,-1.73704013450031,0.159849333979049,0.337307215233005,ST
0.833333333333333,1.5061240196228,-3.14742827415466,8.87584400177002,0.167683988809586,-0.144817993044853,0.442075997591019,-1207.5,26.1000003814697,-851.700012207031,-1.73919506444506,0.158684586506821,0.340310987956044,ST
0.866666666666667,1.52885341644287,-3.15998935699463,8.95121002197266,0.167683988809586,-0.190549999475479,0.434453994035721,-1207.5,21.3000011444092,-858.900024414062,-1.74074189704463,0.159650833188924,0.339306101638716,ST
0.9,1.4941611289978,-3.12709140777588,8.87105846405029,0.266770005226135,-0.198172003030777,0.358233988285065,-1207.5,19.5,-854.100036621094,-1.74229238094253,0.157790080347766,0.338603225957019,ST
0.933333333333333,1.48339462280273,-3.13725996017456,8.91352653503418,0.289635986089706,-0.182927995920181,0.365855991840363,-1205.10009765625,27.3000011444092,-849.300048828125,-1.74375248022142,0.155979670022626,0.33808323969759,ST
0.966666666666667,1.52825534343719,-3.10137128829956,8.84414196014404,0.259148001670837,-0.282013982534409,0.381099998950958,-1217.10009765625,28.5000019073486,-861.300048828125,-1.74532642061511,0.161396927680847,0.337040759393614,ST
1.0,1.56952714920044,-3.08223080635071,8.88361930847168,0.259148001670837,-0.320124000310898,0.381099998950958,-1205.10009765625,24.9000015258789,-868.500061035156,-1.74655597813836,0.165310816073667,0.33395100268361,ST
1.03333333333333,1.60481762886047,-3.15998935699463,8.98889255523682,0.182927995920181,-0.3125019967556,0.297257989645004,-1217.10009765625,21.9000015258789,-858.900024414062,-1.74855372057349,0.167034895812115,0.337490700445303,ST
1.06666666666667,1.58149003982544,-3.12350249290466,8.91831207275391,0.221037998795509,-0.320124000310898,0.3125019967556,-1214.70007324219,29.1000003814697,-858.900024414062,-1.7500023076819,0.166237958812879,0.336681588725798,ST
1.1,1.58149003982544,-3.13307285308838,8.83277702331543,0.266770005226135,-0.121951997280121,0.411587983369827,-1217.10009765625,26.1000003814697,-854.100036621094,-1.75235666928765,0.167071639778475,0.340260682427383,ST
1.13333333333333,1.50911474227905,-3.07983827590942,8.92489147186279,0.243903994560242,-0.0609759986400604,0.358233988285065,-1217.10009765625,24.9000015258789,-851.700012207031,-1.75248926391924,0.159180963208336,0.332714062092582,ST
1.16666666666667,1.51988124847412,-3.09957695007324,8.86746978759766,0.266770005226135,-0.221037998795509,0.472563982009888,-1214.70007324219,18.9000015258789,-854.100036621094,-1.75512146294705,0.160420150131991,0.335747462395916,ST
1.2,1.49535739421844,-3.09419369697571,8.81902027130127,0.0228659994900227,-0.228659987449646,0.304879993200302,-1207.5,18.3000011444092,-866.100036621094,-1.75670670308639,0.158972483739287,0.337365870796033,ST
1.23333333333333,1.57491040229797,-3.18570947647095,8.88242340087891,0.129574000835419,-0.236281991004944,0.442075997591019,-1226.70007324219,22.5,-854.100036621094,-1.75954560509875,0.164962451193962,0.343707397330335,ST
1.26666666666667,1.51330173015594,-3.23954224586487,8.90335845947266,0.0533539988100529,-0.221037998795509,0.198172003030777,-1214.70007324219,20.7000007629395,-854.100036621094,-1.76123581605013,0.159205311167759,0.348472504263935,ST
1.3,1.52227389812469,-3.24911260604858,8.97214412689209,0.289635986089706,-0.282013982534409,0.3125019967556,-1205.10009765625,23.7000007629395,-858.900024414062,-1.76251920744332,0.15853887073362,0.347175279320538,ST
1.33333333333333,1.54679775238037,-3.2006630897522,8.84713268280029,0.350611984729767,-0.320124000310898,0.274392008781433,-1233.90002441406,23.1000003814697,-866.100036621094,-1.7638838594789,0.162880960346879,0.346668338666378,ST
1.36666666666667,1.46485209465027,-3.08402514457703,8.90156364440918,0.335367977619171,-0.160062000155449,0.297257989645004,-1214.70007324219,23.1000003814697,-868.500061035156,-1.76323979539127,0.155123235584967,0.334255883973209,ST
1.4,1.56534016132355,-3.20185923576355,8.85012340545654,0.282013982534409,-0.129574000835419,0.6250039935112,-1219.5,27.9000015258789,-866.100036621094,-1.76736774316934,0.163797223640666,0.345685243235761,ST
1.43333333333333,1.54560148715973,-3.10555839538574,8.75741100311279,0.282013982534409,0.152439996600151,0.632625997066498,-1217.10009765625,23.7000007629395,-849.300048828125,-1.7686061548721,0.164173846398256,0.340924204027754,ST
1.46666666666667,1.58986401557922,-3.13546538352966,8.91292858123779,0.472563982009888,0.846041977405548,1.11281192302704,-1200.30004882812,24.9000015258789,-856.500061035156,-1.77100614780568,0.164624468406569,0.337960142911758,ST
1.5,1.57072341442108,-3.12290453910828,8.90993785858154,0.670735955238342,0.830797970294952,1.31860601902008,-1217.10009765625,26.7000007629395,-858.900024414062,-1.77443212963311,0.162898846018699,0.336382368615755,ST
1.53333333333333,1.41460812091827,-3.35378766059875,8.96915340423584,0.411587983369827,1.14329993724823,1.47104597091675,-1205.10009765625,21.9000015258789,-868.500061035156,-1.78136208341987,0.145219820721788,0.355925549637578,ST
1.56666666666667,1.22320234775543,-3.2126259803772,9.00265026092529,0.663114011287689,1.20427596569061,1.30336201190948,-1202.70007324219,25.5000019073486,-868.500061035156,-1.78295890536658,0.125951454530811,0.342765824108749,ST
1.6,1.00607645511627,-3.25629043579102,9.17132663726807,0.708845973014832,1.57775402069092,1.71494996547699,-1200.30004882812,15.9000005722046,-870.900024414062,-1.78704983196998,0.101239285009175,0.340313709015359,ST
1.63333333333333,0.967197179794312,-3.1827187538147,9.36033916473389,0.907018005847931,1.6615959405899,1.56251001358032,-1209.90002441406,25.5000019073486,-856.500061035156,-1.78932343073865,0.0945564113284637,0.3275977126765,ST
1.66666666666667,0.973776757717133,-3.13426923751831,9.05887508392334,1.02897000312805,1.6615959405899,1.93598794937134,-1209.90002441406,27.3000011444092,-854.100036621094,-1.7944552842756,0.0971418892931164,0.331163401505445,ST
1.7,0.821250319480896,-3.02600526809692,9.16833591461182,1.18140995502472,2.02745199203491,1.93598794937134,-1193.10009765625,25.5000019073486,-882.900024414062,-1.7977539878473,0.0819460482815301,0.318198100139404,ST
1.73333333333333,0.748875021934509,-2.89680647850037,9.09536170959473,1.21951997280121,2.05031800270081,1.96647596359253,-1181.10009765625,29.1000003814697,-863.700012207031,-1.80151999359025,0.074572459752197,0.307442766185727,ST
1.76666666666667,0.702817976474762,-2.91176009178162,8.97094821929932,1.28049600124359,2.0579400062561,1.94360995292664,-1193.10009765625,17.1000003814697,-868.500061035156,-1.80647926416266,0.0703075367799319,0.311407674534957,ST
1.8,0.431261092424393,-3.01404237747192,8.98889255523682,1.08232402801514,2.5076379776001,1.55488801002502,-1195.5,26.1000003814697,-880.500061035156,-1.80977133941678,0.0427050198361146,0.320920653399953,ST
1.83333333333333,0.154919028282166,-2.8663010597229,9.04093074798584,1.08232402801514,2.61434602737427,1.21189796924591,-1173.90002441406,27.3000011444092,-875.700012207031,-1.81066622532968,0.0141804220201247,0.306564483426886,ST
1.86666666666667,-0.0837400183081627,-2.67130661010742,8.95420074462891,1.28049600124359,2.43903994560242,1.18140995502472,-1183.5,23.1000003814697,-890.100036621094,-1.81216947271286,-0.0115337567900805,0.289109140722542,ST
1.9,-0.193798318505287,-2.60850143432617,8.83277702331543,1.33385002613068,2.42379593849182,1.31098401546478,-1176.30004882812,24.9000015258789,-880.500061035156,-1.81412633661515,-0.0244575071205488,0.285197915748925,ST
1.93333333333333,-0.37324121594429,-2.37642192840576,9.03195858001709,1.34147191047668,2.45428395271301,1.11281192302704,-1171.5,20.7000007629395,-880.500061035156,-1.81634172198384,-0.0427640444891197,0.257651258008977,ST
1.96666666666667,-0.203368604183197,-2.52655601501465,8.92907810211182,1.08994603157043,1.95123195648193,1.97409796714783,-1166.70007324219,24.3000011444092,-882.900024414062,-1.82050232188925,-0.0276197575371613,0.272315763417399,ST
2.0,-0.235668331384659,-2.31840205192566,9.02298641204834,0.952749967575073,1.39482593536377,0.914639949798584,-1164.30004882812,15.9000005722046,-875.700012207031,-1.82279381869235,-0.0280116609895304,0.25184985417856,ST
2.03333333333333,-0.415111213922501,-2.54450011253357,8.90515232086182,0.457319974899292,1.02897000312805,1.07470202445984,-1161.90002441406,27.9000015258789,-880.500061035156,-1.82473324595028,-0.0457157742577765,0.275700822280214,ST
2.06666666666667,-0.860727727413177,-2.75085949897766,9.36990928649902,-0.137196004390717,1.14329993724823,1.18903195858002,-1164.30004882812,18.9000015258789,-890.100036621094,-1.82717012761765,-0.0870326788883724,0.284933985426672,ST
2.1,-0.616087257862091,-2.56483697891235,8.88122653961182,0.167683988809586,1.18903195858002,1.55488801002502,-1145.10009765625,19.5,-892.500061035156,-1.83155361430351,-0.0707619437981358,0.28105106643692,ST
2.13333333333333,-0.682481110095978,-2.85254383087158,9.00922966003418,0.205793991684914,1.63110792636871,1.35671591758728,-1152.30004882812,20.1000003814697,-880.500061035156,-1.83281657743861,-0.0751565084525335,0.304277897010174,ST
2.16666666666667,-0.809885561466217,-2.71377468109131,9.18209266662598,0.320124000310898,1.78354799747467,0.823175966739655,-1135.5,23.1000003814697,-894.900024414062,-1.83494024421722,-0.0866382966908623,0.28835502523634,ST
2.2,-0.999496877193451,-2.43982529640198,9.4075927734375,0.701223969459534,1.53964400291443,1.09756803512573,-1130.70007324219,17.1000003814697,-878.100036621094,-1.84004566876914,-0.103863894101077,0.255671187070764,ST
2.23333333333333,-1.1035737991333,-2.48528409004211,9.38306903839111,0.884151995182037,1.30336201190948,1.29574000835419,-1128.30004882812,17.7000007629395,-904.500061035156,-1.84272598163888,-0.114884739288962,0.257060043058613,ST
2.26666666666667,-1.12929391860962,-2.32617807388306,8.96018123626709,0.739333987236023,1.30336201190948,0.937505960464478,-1147.5,17.7000007629395,-887.700012207031,-1.84499930390417,-0.123315682522024,0.252928437599251,ST
2.3,-1.58268630504608,-2.00318074226379,9.11569881439209,0.670735955238342,1.45580196380615,0.922261953353882,-1137.90002441406,22.5,-875.700012207031,-1.85174674037212,-0.167234644182448,0.217864933905851,ST
2.33333333333333,-1.45767438411713,-1.96310520172119,9.01222038269043,0.640248000621796,1.15092194080353,1.38720393180847,-1135.5,24.9000015258789,-885.300048828125,-1.85599475759649,-0.159882252110526,0.213442537336412,ST
2.36666666666667,-1.6263507604599,-2.18441820144653,9.11270809173584,0.144817993044853,0.121951997280121,0.792688012123108,-1123.5,23.1000003814697,-906.900024414062,-1.85525241678223,-0.171236674055153,0.232861534423018,ST
2.4,-1.51988124847412,-2.22987699508667,9.29155254364014,0.129574000835419,-0.221037998795509,0.503051996231079,-1128.30004882812,19.5,-890.100036621094,-1.85673052465552,-0.158697590157138,0.234967079864822,ST
2.43333333333333,-1.42298209667206,-2.19398832321167,9.43809795379639,0.160062000155449,-0.640248000621796,-0.487807989120483,-1125.90002441406,19.5,-887.700012207031,-1.85645874488492,-0.14581106246104,0.228821422072205,ST
2.46666666666667,-1.36316788196564,-1.81416761875153,8.90395641326904,0.480185985565186,-0.0609759986400604,-0.0381099991500378,-1128.30004882812,26.7000007629395,-897.300048828125,-1.85995367749173,-0.148521481581811,0.202759089293523,ST
2.5,-1.31770896911621,-1.99600315093994,8.85610485076904,0.594515979290009,0.960371971130371,0.701223969459534,-1125.90002441406,21.3000011444092,-885.300048828125,-1.85893143534029,-0.146269686225128,0.218911899402047,ST
2.53333333333333,-1.66822075843811,-1.88235592842102,9.10553073883057,0.335367977619171,2.17227005958557,0.586893975734711,-1128.30004882812,18.9000015258789,-882.900024414062,-1.8614524975212,-0.178265972120627,0.204658008604108,ST
2.56666666666667,-1.60182690620422,-2.00318074226379,9.00683689117432,0.228659987449646,2.37806391716003,1.03659200668335,-1130.70007324219,17.7000007629395,-899.700012207031,-1.86086992229814,-0.176508009494054,0.217057988377999,ST
2.6,-1.84706544876099,-2.08692073822021,9.33102989196777,0.205793991684914,2.88111591339111,0.853663980960846,-1121.10009765625,22.5,-899.700012207031,-1.86102057321655,-0.194288550020063,0.21937402775799,ST
2.63333333333333,-1.9008983373642,-2.17066073417664,9.19764423370361,0.167683988809586,2.75154185295105,1.2423859834671,-1121.10009765625,20.7000007629395,-894.900024414062,-1.86078829601434,-0.202818555519164,0.230185312544517,ST
2.66666666666667,-2.18082928657532,-2.35728144645691,9.17252254486084,0.114329993724823,3.14788603782654,0.243903994560242,-1111.5,23.7000007629395,-914.100036621094,-1.85479472427466,-0.229144513600741,0.249623631964293,ST
2.7,-2.50861167907715,-2.02770471572876,9.17072772979736,0.198172003030777,2.9344699382782,0.358233988285065,-1113.90002441406,14.1000003814697,-887.700012207031,-1.86069243113412,-0.263085375481824,0.220083137746445,ST
2.73333333333333,-2.70839142799377,-2.31720590591431,8.96915340423584,0.0609759986400604,2.69056582450867,1.19665396213531,-1104.30004882812,29.7000007629395,-904.500061035156,-1.85440090114186,-0.287120053317286,0.249520762550179,ST
2.76666666666667,-2.8663010597229,-2.25141024589539,8.57497787475586,0.0076219998300075,2.85824990272522,0.823175966739655,-1094.70007324219,24.9000015258789,-890.100036621094,-1.85271114659898,-0.315342858917709,0.256110726691803,ST
2.8,-2.99011659622192,-2.21671795845032,8.49841499328613,-0.121951997280121,2.78202986717224,0.983237981796265,-1089.90002441406,26.1000003814697,-894.900024414062,-1.85394606181544,-0.331792947190465,0.255293631195251,ST
2.83333333333333,-3.2227942943573,-2.29507446289062,8.38416957855225,-0.388722002506256,2.45428395271301,1.34147191047668,-1097.10009765625,21.3000011444092,-899.700012207031,-1.85295780396532,-0.357861164222522,0.266614191559022,ST
2.86666666666667,-3.26645874977112,-2.32318735122681,8.32076644897461,-0.449698001146317,2.13416004180908,1.29574000835419,-1087.5,24.9000015258789,-890.100036621094,-1.8539806247451,-0.365147632392553,0.272193922817186,ST
2.9,-3.73899173736572,-2.49186372756958,8.51695823669434,-0.609759986400604,2.00458598136902,1.49391198158264,-1075.5,16.5,-902.100036621094,-1.85324225523123,-0.39943803564713,0.283891436077025,ST
2.93333333333333,-3.75514149665833,-2.46255469322205,8.91472244262695,-0.358233988285065,2.14940404891968,1.2576299905777,-1070.70007324219,22.5,-890.100036621094,-1.86091881369655,-0.390614891972188,0.270745247821752,ST
2.96666666666667,-3.21202778816223,-2.51818180084229,8.560622215271,0.0533539988100529,0.419209986925125,1.60824191570282,-1065.90002441406,30.3000011444092,-906.900024414062,-1.86073835214678,-0.350951087665037,0.283799801327805,ST
3.0,-3.19587779045105,-2.69642853736877,8.04023742675781,-0.0152439996600151,0.274392008781433,1.15092194080353,-1070.70007324219,24.3000011444092,-890.100036621094,-1.85164019637964,-0.360622316434489,0.319698761514381,ST
3.03333333333333,-3.60620403289795,-2.64020299911499,8.37160873413086,0.457319974899292,1.21951997280121,0.0,-1056.30004882812,16.5,-890.100036621094,-1.85475593334665,-0.389005280322023,0.306314696339962,ST
3.06666666666667,-3.83110570907593,-2.19099760055542,8.16106224060059,1.02897000312805,0.685979962348938,0.266770005226135,-1075.5,20.1000003814697,-902.100036621094,-1.87001144334117,-0.423536789223612,0.264648771782064,ST
3.1,-3.90348100662231,-2.83459949493408,8.55224800109863,0.434453994035721,0.647870004177094,1.12805593013763,-1065.90002441406,18.3000011444092,-909.300048828125,-1.85228796345215,-0.411741235654851,0.313774090503847,ST
3.13333333333333,-4.03387641906738,-2.66532516479492,8.85311412811279,-0.0914639979600906,0.0304879993200302,1.2500079870224,-1061.10009765625,25.5000019073486,-897.300048828125,-1.86475189394749,-0.412073433292926,0.293202325391651,ST
3.16666666666667,-3.82751679420471,-2.39735698699951,8.75442028045654,0.167683988809586,-0.190549999475479,0.945127964019775,-1056.30004882812,24.3000011444092,-887.700012207031,-1.87773811125508,-0.400074637026313,0.268127764166328,ST
3.2,-3.48358464241028,-2.49485445022583,8.65333461761475,0.0762199983000755,-0.792688012123108,1.76068198680878,-1063.5,17.1000003814697,-894.900024414062,-1.88010046808185,-0.371202453675533,0.278345927637635,ST
3.23333333333333,-3.30354356765747,-2.35429072380066,8.24181175231934,0.0990860015153885,-0.830797970294952,1.31098401546478,-1068.30004882812,23.1000003814697,-887.700012207031,-1.88533900757919,-0.367438498850827,0.277172833348047,ST
3.26666666666667,-3.31550645828247,-2.40034770965576,8.4236478805542,-0.0381099991500378,-0.274392008781433,1.05183601379395,-1058.70007324219,20.1000003814697,-899.700012207031,-1.88907802247826,-0.362358582519132,0.276960890474069,ST
3.3,-3.62594270706177,-2.80708503723145,8.40331077575684,-0.83841997385025,0.114329993724823,1.14329993724823,-1075.5,22.5,-899.700012207031,-1.87819930685933,-0.38685085962482,0.318901503867009,ST
3.33333333333333,-3.88553667068481,-2.48109698295593,8.83038425445557,-0.617381989955902,0.396344006061554,0.144817993044853,-1065.90002441406,17.7000007629395,-906.900024414062,-1.89440183107138,-0.400148512243169,0.278968571889637,ST
3.36666666666667,-3.58287644386292,-2.4517879486084,8.6623067855835,-0.0685980021953583,0.3125019967556,1.63872992992401,-1056.30004882812,19.5,-902.100036621094,-1.90083213490679,-0.381729422684111,0.275227912258487,ST
3.4,-3.70848631858826,-2.84895491600037,8.44518089294434,-0.274392008781433,0.167683988809586,1.13567793369293,-1051.5,23.7000007629395,-904.500061035156,-1.88735212422369,-0.39400180354952,0.32056267484367,ST
3.43333333333333,-3.92860293388367,-2.39317011833191,8.13414669036865,0.160062000155449,0.388722002506256,-0.243903994560242,-1056.30004882812,21.9000015258789,-909.300048828125,-1.89855209158883,-0.430778669068623,0.289309996416562,ST
3.46666666666667,-4.08531665802002,-2.81187009811401,8.18199729919434,-0.0685980021953583,0.739333987236023,1.20427596569061,-1068.30004882812,29.1000003814697,-897.300048828125,-1.88574397686041,-0.441964057450566,0.326662927423786,ST
3.5,-4.18042135238647,-2.55526685714722,8.47807884216309,0.213415995240211,0.449698001146317,0.37347799539566,-1058.70007324219,21.3000011444092,-909.300048828125,-1.89988522308201,-0.442039118525222,0.294548422015586,ST
3.53333333333333,-4.27133893966675,-2.30464482307434,8.54746341705322,0.967993974685669,-0.297257989645004,1.38720393180847,-1070.70007324219,25.5000019073486,-899.700012207031,-1.91619526395793,-0.449007165534838,0.263581540196022,ST
3.56666666666667,-3.96329522132874,-2.72753190994263,7.98042345046997,1.34147191047668,-0.129574000835419,0.983237981796265,-1070.70007324219,22.5,-902.100036621094,-1.89211332359433,-0.440276766520462,0.322294926755567,ST
3.6,-4.16068267822266,-2.26337289810181,8.31239318847656,1.34909391403198,0.403965979814529,-0.411587983369827,-1056.30004882812,14.1000003814697,-904.500061035156,-1.91135379017241,-0.449533106058983,0.269219250815689,ST
3.63333333333333,-4.16845846176147,-2.39795517921448,8.2202787399292,1.86738991737366,0.228659987449646,0.800309956073761,-1053.90002441406,23.7000007629395,-906.900024414062,-1.90646935240306,-0.453424226239243,0.279001908144753,ST
3.66666666666667,-4.07813882827759,-2.36685180664062,7.92958116531372,1.37195992469788,0.716467976570129,0.3125019967556,-1063.5,19.5,-902.100036621094,-1.90124916131142,-0.458711360061793,0.28680896313527,ST
3.7,-4.12838268280029,-1.89192616939545,8.49721908569336,1.40244793891907,0.571649968624115,-0.632625997066498,-1058.70007324219,24.9000015258789,-904.500061035156,-1.9244382291411,-0.444980302846705,0.223508358617038,ST
3.73333333333333,-4.12419557571411,-1.51689052581787,8.48465824127197,1.85214591026306,-0.46494197845459,0.503051996231079,-1049.10009765625,15.9000005722046,-890.100036621094,-1.94320834632479,-0.445625758727137,0.177753496162951,ST
3.76666666666667,-4.04105377197266,-1.68137991428375,8.03186416625977,1.44817996025085,-0.3125019967556,1.09756803512573,-1061.10009765625,19.5,-904.500061035156,-1.93461033808844,-0.456383155482825,0.200572352948957,ST
3.8,-4.06497955322266,-0.989926636219025,7.89429092407227,1.6920839548111,0.0533539988100529,0.503051996231079,-1039.5,21.9000015258789,-904.500061035156,-1.96569465937848,-0.471194688342799,0.128588804235568,ST
3.83333333333333,-3.80957269668579,-1.38709354400635,7.53779792785645,1.6692179441452,1.03659200668335,0.907018005847931,-1061.10009765625,17.1000003814697,-904.500061035156,-1.94490197136858,-0.464107355439747,0.173964719883444,ST
3.86666666666667,-4.57160663604736,-1.75375521183014,8.00614356994629,-0.152439996600151,2.20275783538818,-0.205793991684914,-1049.10009765625,16.5,-904.500061035156,-1.92473990066696,-0.508859894342613,0.213270027295096,ST
3.9,-4.21272087097168,-0.951645493507385,7.95051622390747,0.37347799539566,0.510673999786377,0.693601965904236,-1037.10009765625,15.9000005722046,-894.900024414062,-1.96745873282195,-0.487658124049796,0.12643573513335,ST
3.93333333333333,-4.85991144180298,-2.0612006187439,8.60966968536377,-0.0228659994900227,1.2576299905777,0.0762199983000755,-1049.10009765625,11.1000003814697,-899.700012207031,-1.91913562935881,-0.503157764563595,0.226958604169542,ST
3.96666666666667,-4.60629892349243,-1.45288932323456,8.97692966461182,0.602137982845306,0.92988395690918,-0.396344006061554,-1049.10009765625,15.3000001907349,-892.500061035156,-1.94539786861908,-0.472876716649995,0.164875690630537,ST
4.0,-4.48966121673584,-1.08981645107269,8.86986255645752,1.80641400814056,0.0838419944047928,-0.937505960464478,-1049.10009765625,18.3000011444092,-894.900024414062,-1.958181586885,-0.466184020293465,0.123984710693855,ST
4.03333333333333,-3.9818377494812,-1.64788389205933,8.31179428100586,1.17378795146942,0.411587983369827,-0.663114011287689,-1039.5,12.3000001907349,-897.300048828125,-1.92604444888788,-0.442282415820223,0.188018267239577,ST
4.06666666666667,-4.11522340774536,-1.3900842666626,8.31777572631836,0.480185985565186,0.259148001670837,-1.05183601379395,-1029.90002441406,16.5,-902.100036621094,-1.93075374965767,-0.453058190500592,0.167700466065992,ST
4.1,-3.55775427818298,-1.36675667762756,8.65752124786377,1.12043392658234,0.327746003866196,-0.983237981796265,-1041.90002441406,20.7000007629395,-904.500061035156,-1.930347003482,-0.390948439805925,0.156303822018648,ST
4.13333333333333,-3.03736996650696,-1.7926344871521,8.26513957977295,1.57775402069092,-0.586893975734711,-0.769822001457214,-1034.70007324219,19.5,-897.300048828125,-1.90745184637447,-0.346830738637644,0.207548149428625,ST
4.16666666666667,-3.56553030014038,-1.99480676651001,8.0833044052124,0.868907988071442,0.114329993724823,-1.05183601379395,-1032.30004882812,15.3000001907349,-894.900024414062,-1.89137263499652,-0.400056534003566,0.238591867172056,ST
4.2,-3.9519305229187,-1.28241848945618,9.40041446685791,1.63110792636871,1.21951997280121,-2.32470989227295,-1037.10009765625,9.90000057220459,-906.900024414062,-1.91792628237138,-0.396644531168546,0.143955755271702,ST
4.23333333333333,-3.34361910820007,-1.82493424415588,8.50858402252197,1.77592599391937,-0.83841997385025,0.701223969459534,-1037.10009765625,15.3000001907349,-906.900024414062,-1.89611704209715,-0.367644552752295,0.203678670596808,ST
4.26666666666667,-3.43094801902771,-2.25798964500427,8.33691692352295,0.708845973014832,0.274392008781433,-2.4847719669342,-1034.70007324219,11.7000007629395,-918.900024414062,-1.86696321177937,-0.376672696780099,0.259398048656001,ST
4.3,-3.59005403518677,-1.96310520172119,8.26454162597656,0.426831990480423,0.121951997280121,-0.358233988285065,-1046.70007324219,15.9000005722046,-892.500061035156,-1.87434456860131,-0.397829321085741,0.235175793311446,ST
4.33333333333333,-3.8478536605835,-2.13895916938782,8.68324184417725,0.533540010452271,0.0838419944047928,0.0,-1041.90002441406,15.3000001907349,-909.300048828125,-1.87162878977258,-0.405690140722102,0.240113447172397,ST
4.36666666666667,-4.29466676712036,-2.27055072784424,8.692214012146,0.548784017562866,-0.426831990480423,-0.434453994035721,-1039.5,20.1000003814697,-914.100036621094,-1.86426542380578,-0.441765971653762,0.253568955505331,ST
4.4,-3.74258065223694,-2.42188096046448,8.75322437286377,0.594515979290009,-0.541162014007568,0.342989981174469,-1039.5,12.3000001907349,-904.500061035156,-1.85938046981923,-0.394798898069695,0.267233244488669,ST
4.43333333333333,-3.42197585105896,-2.65994191169739,8.6862325668335,-0.320124000310898,-1.11281192302704,-0.868907988071442,-1027.5,11.7000007629395,-923.700012207031,-1.84773509099344,-0.361299794698807,0.295311214386353,ST
4.46666666666667,-3.87058305740356,-1.99779748916626,8.76518726348877,-0.144817993044853,-1.84452390670776,0.586893975734711,-1034.70007324219,21.9000015258789,-899.700012207031,-1.87660502666442,-0.401077568773634,0.22821338493596,ST
4.5,-3.853835105896,-1.97327363491058,7.69929647445679,0.106707997620106,-1.29574000835419,-0.0381099991500378,-1044.30004882812,17.7000007629395,-906.900024414062,-1.86901567718635,-0.444902227170292,0.248421319720085,ST
4.53333333333333,-4.27014255523682,-1.36077523231506,7.78901767730713,-0.289635986089706,0.907018005847931,1.19665396213531,-1046.70007324219,17.7000007629395,-899.700012207031,-1.90358398651382,-0.492499747503562,0.179604470188438,ST
4.56666666666667,-4.3006477355957,-1.41580438613892,7.71724081039429,-0.594515979290009,0.724089980125427,3.06404399871826,-1053.90002441406,18.3000011444092,-904.500061035156,-1.91385807650593,-0.502766726112385,0.17971328628194,ST
4.6,-4.48308134078979,-1.19329524040222,8.63718414306641,-1.28049600124359,0.167683988809586,2.40092992782593,-1039.5,13.5000009536743,-894.900024414062,-1.94250791173323,-0.477694135189294,0.140246735980277,ST
4.63333333333333,-4.19298219680786,-1.38350474834442,8.63957691192627,-1.22714197635651,-0.175305992364883,3.17837381362915,-1034.70007324219,15.9000005722046,-906.900024414062,-1.94776482448969,-0.449519754816419,0.157014986784248,ST
4.66666666666667,-3.28799200057983,-1.68137991428375,8.6623067855835,-1.01372599601746,-0.602137982845306,2.72105383872986,-1032.30004882812,17.7000007629395,-902.100036621094,-1.94616806252821,-0.362931452403043,0.189297843535885,ST
4.7,-2.9320969581604,-2.67549347877502,8.72630786895752,-1.37958192825317,-1.32622802257538,1.71494996547699,-1039.5,18.3000011444092,-897.300048828125,-1.92105189087847,-0.314412476625468,0.288990525168975,ST
4.73333333333333,-3.37352633476257,-2.20355868339539,8.68922328948975,-1.18903195858002,-0.815553963184357,-1.36433792114258,-1034.70007324219,23.7000007629395,-911.700012207031,-1.93010008944104,-0.354035494831447,0.254639818530595,ST
4.76666666666667,-3.72822523117065,-2.00856399536133,8.40091800689697,0.114329993724823,-0.342989981174469,0.0838419944047928,-1041.90002441406,21.9000015258789,-899.700012207031,-1.93727025580812,-0.402135884970503,0.236250893312544,ST
4.8,-3.9178364276886,-1.54679775238037,8.52951908111572,1.07470202445984,0.0228659994900227,0.114329993724823,-1034.70007324219,18.9000015258789,-909.300048828125,-1.95752917134117,-0.422577080248361,0.182812629385507,ST
4.83333333333333,-3.94355654716492,-1.89970207214355,8.53430366516113,1.55488801002502,0.0762199983000755,0.754577994346619,-1039.5,18.3000011444092,-914.100036621094,-1.9452972779205,-0.424012590305037,0.212763594579224,ST
4.86666666666667,-3.93099570274353,-1.68736135959625,8.68862438201904,1.65397393703461,-0.259148001670837,0.289635986089706,-1039.5,22.5,-918.900024414062,-1.95298089218209,-0.418200564654094,0.190845528977885,ST
4.9,-3.89749956130981,-1.7806715965271,9.05229568481445,1.14329993724823,-0.342989981174469,-0.533540010452271,-1046.70007324219,12.9000005722046,-899.700012207031,-1.94894959852443,-0.400153192660091,0.192471212846904,ST
4.93333333333333,-4.02071714401245,-1.89611327648163,9.16175556182861,0.716467976570129,-0.739333987236023,-0.342989981174469,-1041.90002441406,19.5,-906.900024414062,-1.94363746786625,-0.404114221952625,0.20201511778142,ST
4.96666666666667,-3.80658197402954,-1.52646088600159,8.47807884216309,0.792688012123108,-0.617381989955902,-0.701223969459534,-1032.30004882812,19.5,-906.900024414062,-1.94969072498159,-0.413927337759212,0.179259307588951,ST
5.0,-4.34909772872925,-1.96549785137177,8.38416957855225,-0.0,0.160062000155449,-1.47866797447205,-1032.30004882812,24.9000015258789,-909.300048828125,-1.92493402925382,-0.462579782969999,0.226694521016913,ST
5.03333333333333,-3.91006064414978,-1.85962653160095,7.84524297714233,0.358233988285065,0.289635986089706,1.11281192302704,-1051.5,14.1000003814697,-911.700012207031,-1.92577418755986,-0.453315468649741,0.230877474290443,ST
5.06666666666667,-4.38618230819702,-1.69693160057068,8.15149211883545,-0.0914639979600906,0.137196004390717,0.175305992364883,-1041.90002441406,11.7000007629395,-916.500061035156,-1.9368356569356,-0.4822787772458,0.207633178535997,ST
5.1,-4.28090906143188,-1.80639171600342,8.36502933502197,-0.0304879993200302,0.0,1.45580196380615,-1029.90002441406,14.7000007629395,-909.300048828125,-1.93966725208632,-0.465985621387532,0.211133169605127,ST
5.13333333333333,-3.93099570274353,-1.66822075843811,8.54746341705322,0.152439996600151,-0.442075997591019,2.08842802047729,-1051.5,19.5,-914.100036621094,-1.95412938087689,-0.427763503983404,0.192574349904872,ST
5.16666666666667,-4.00815582275391,-1.91046869754791,8.21609210968018,-0.259148001670837,-0.548784017562866,2.45428395271301,-1041.90002441406,16.5,-904.500061035156,-1.9496860532391,-0.442509488609248,0.224475986802316,ST
5.2,-4.06976461410522,-1.5743123292923,8.45056343078613,-0.320124000310898,-0.182927995920181,2.14178204536438,-1041.90002441406,16.5,-902.100036621094,-1.97368191856335,-0.442603961387119,0.186108972990881,ST
5.23333333333333,-4.08950328826904,-1.67300593852997,8.72989654541016,-0.609759986400604,-0.228659987449646,1.43293595314026,-1039.5,12.9000005722046,-899.700012207031,-1.97790930434727,-0.432302697608443,0.188954021439056,ST
5.26666666666667,-3.73001956939697,-2.01095676422119,8.37160873413086,-0.777444005012512,-0.731711983680725,1.63872992992401,-1041.90002441406,24.9000015258789,-899.700012207031,-1.96711770725246,-0.410428582458828,0.231558391082159,ST
5.3,-3.80777812004089,-2.11802434921265,8.31478500366211,-1.02134799957275,-0.0914639979600906,0.945127964019775,-1049.10009765625,22.5,-930.900024414062,-1.96466443539569,-0.417300520274733,0.248915253740526,ST
5.33333333333333,-3.90407919883728,-1.65685606002808,8.05459308624268,-0.182927995920181,0.0762199983000755,1.94360995292664,-1037.10009765625,23.7000007629395,-914.100036621094,-1.9893737340986,-0.44210833565223,0.205265940042705,ST
5.36666666666667,-4.44480037689209,-1.99420869350433,8.46013450622559,-0.411587983369827,0.37347799539566,1.265251994133,-1041.90002441406,24.3000011444092,-909.300048828125,-1.98327061627845,-0.471441091596084,0.229218614392143,ST
5.4,-4.46035194396973,-1.55337727069855,8.74305534362793,0.0990860015153885,0.724089980125427,1.46342396736145,-1039.5,15.9000005722046,-911.700012207031,-2.01076524420068,-0.467495550727342,0.177921717956243,ST
5.43333333333333,-4.4262580871582,-1.63173401355743,8.76159858703613,0.503051996231079,0.205793991684914,1.90549993515015,-1034.70007324219,17.1000003814697,-897.300048828125,-2.01414342400034,-0.462421232370005,0.181313825004578,ST
5.46666666666667,-3.98722100257874,-1.43434679508209,8.79629039764404,0.663114011287689,-0.182927995920181,0.754577994346619,-1034.70007324219,15.9000005722046,-911.700012207031,-2.02408959133038,-0.424032066080136,0.161613918981109,ST
5.5,-3.76531004905701,-0.863718450069427,8.44458293914795,1.08994603157043,-0.823175966739655,0.0914639979600906,-1034.70007324219,18.3000011444092,-914.100036621094,-2.04609182045829,-0.416859184045213,0.105460492441964,ST
5.53333333333333,-3.49315500259399,-1.36496222019196,8.30700969696045,1.22714197635651,-0.0076219998300075,0.769822001457214,-1049.10009765625,18.9000015258789,-897.300048828125,-2.0271575049516,-0.395681591612189,0.155267214064589,ST
5.56666666666667,-3.55775427818298,-1.47083353996277,8.48106956481934,0.99848198890686,0.106707997620106,-0.358233988285065,-1041.90002441406,20.1000003814697,-902.100036621094,-2.019418535626,-0.392357038131979,0.168891939545716,ST
5.6,-3.84486293792725,-1.23516523838043,8.72032642364502,0.92988395690918,0.442075997591019,-1.01372599601746,-1029.90002441406,15.3000001907349,-902.100036621094,-2.02505795925496,-0.410341035644397,0.142530140648302,ST
5.63333333333333,-3.82990956306458,-1.14843451976776,9.12526893615723,1.52439999580383,0.327746003866196,-1.18140995502472,-1037.10009765625,23.1000003814697,-899.700012207031,-2.02595858327301,-0.396282748585209,0.125146124036476,ST
5.66666666666667,-3.39864826202393,-1.19867849349976,8.66290473937988,1.79117000102997,-0.525918006896973,-1.43293595314026,-1044.30004882812,17.1000003814697,-904.500061035156,-2.01584699682877,-0.371848913666697,0.134400382429468,ST
5.7,-3.35857272148132,-1.62395811080933,8.49363040924072,1.35671591758728,-0.106707997620106,-1.87501192092896,-1025.10009765625,12.3000001907349,-899.700012207031,-1.99062645058741,-0.369951994421252,0.182964291891763,ST
5.73333333333333,-3.69233655929565,-1.14006054401398,8.45176029205322,1.19665396213531,0.800309956073761,-2.33995389938354,-1039.5,10.5,-899.700012207031,-1.99816406635457,-0.40584134347913,0.138302603261766,ST
5.76666666666667,-4.16187858581543,-1.44032824039459,8.74365425109863,1.44817996025085,0.807931959629059,-1.37195992469788,-1032.30004882812,15.3000001907349,-909.300048828125,-1.98210695693724,-0.437528373208616,0.160117803225951,ST
5.8,-4.14213991165161,-1.69812786579132,8.78313159942627,1.04421401023865,0.670735955238342,-1.63110792636871,-1037.10009765625,13.5000009536743,-909.300048828125,-1.96347724010357,-0.434581928830095,0.18781653879028,ST
5.83333333333333,-3.90826606750488,-1.61139714717865,8.46133041381836,0.800309956073761,0.0762199983000755,-1.73019397258759,-1025.10009765625,11.7000007629395,-899.700012207031,-1.95680985079955,-0.42634593933066,0.188126356675237,ST
5.86666666666667,-3.88553667068481,-1.6143878698349,8.45235824584961,0.937505960464478,-0.411587983369827,-1.38720393180847,-1032.30004882812,12.9000005722046,-906.900024414062,-1.9514347917764,-0.423277169903241,0.188103907363126,ST
5.9,-3.73779535293579,-1.96848857402802,7.68314647674561,0.365855991840363,-0.342989981174469,-1.27287399768829,-1037.10009765625,18.9000015258789,-902.100036621094,-1.92332616519675,-0.437919236693059,0.245370067277264,ST
5.93333333333333,-4.3401255607605,-1.47382426261902,7.93915176391602,-0.144817993044853,0.449698001146317,-0.83841997385025,-1039.5,21.3000011444092,-911.700012207031,-1.94575298750717,-0.489894810726951,0.188952618925497,ST
5.96666666666667,-4.32935905456543,-1.77588653564453,8.26454162597656,-0.609759986400604,0.365855991840363,0.647870004177094,-1034.70007324219,15.9000005722046,-906.900024414062,-1.93861454684985,-0.475612670280729,0.210134157191287,ST
6.0,-3.90946245193481,-1.78904557228088,8.20592308044434,-1.05945801734924,-1.22714197635651,0.304879993200302,-1015.50006103516,15.9000005722046,-897.300048828125,-1.93974274567249,-0.436838910766446,0.215607873838425,ST
6.03333333333333,-3.79222655296326,-2.13836121559143,8.22566223144531,-1.53964400291443,-1.33385002613068,1.72257196903229,-1037.10009765625,16.5,-906.900024414062,-1.93340402225788,-0.41958749621097,0.25246537038146,ST
6.06666666666667,-3.99858570098877,-2.64498829841614,9.14560604095459,-1.55488801002502,-0.67835795879364,2.72867584228516,-1041.90002441406,16.5,-909.300048828125,-1.93470323179725,-0.399160966298172,0.280312102514627,ST
6.1,-3.90228486061096,-2.28012108802795,8.99606990814209,-0.830797970294952,-1.11281192302704,1.77592599391937,-1029.90002441406,17.1000003814697,-892.500061035156,-1.95446050705497,-0.397106864917733,0.250424251052786,ST
6.13333333333333,-3.52605271339417,-1.99959194660187,8.4415922164917,0.289635986089706,-0.731711983680725,1.95885396003723,-1037.10009765625,17.1000003814697,-914.100036621094,-1.96760028428154,-0.386657428988169,0.232387029928576,ST
6.16666666666667,-3.40702247619629,-1.8045973777771,8.22925090789795,0.541162014007568,-1.12043392658234,1.79117000102997,-1032.30004882812,23.1000003814697,-902.100036621094,-1.97995285567818,-0.383365086779694,0.215084468774115,ST
6.2,-3.56014704704285,-2.30763554573059,8.12158489227295,-0.137196004390717,-0.670735955238342,1.29574000835419,-1046.70007324219,12.9000005722046,-899.700012207031,-1.96358904250504,-0.397182020743545,0.270489174107948,ST
6.23333333333333,-4.07694244384766,-2.33993530273438,9.15577411651611,-0.426831990480423,-0.442075997591019,0.846041977405548,-1037.10009765625,20.7000007629395,-899.700012207031,-1.97431220121738,-0.406048620569789,0.252103291474313,ST
6.26666666666667,-4.3066291809082,-2.10426688194275,8.79270172119141,-0.381099998950958,-0.327746003866196,0.419209986925125,-1041.90002441406,18.3000011444092,-914.100036621094,-1.9826979212231,-0.44071734328373,0.236741974258575,ST
6.3,-3.91125679016113,-1.87936520576477,8.22207355499268,0.205793991684914,-0.182927995920181,1.18903195858002,-1039.5,11.7000007629395,-906.900024414062,-1.99130427521683,-0.434953729216664,0.224586671807348,ST
6.33333333333333,-3.69771981239319,-1.76093292236328,7.77047538757324,0.205793991684914,-0.746955990791321,1.78354799747467,-1037.10009765625,13.5000009536743,-897.300048828125,-1.99909409915197,-0.433994441675097,0.221181062245068,ST
6.36666666666667,-3.94236040115356,-1.8446729183197,8.0773229598999,-0.320124000310898,-0.297257989645004,1.65397393703461,-1027.5,15.9000005722046,-911.700012207031,-2.00417227670965,-0.443480885230081,0.223507646288687,ST
6.4,-3.85742402076721,-1.96968483924866,8.3040189743042,-0.907018005847931,-0.457319974899292,1.20427596569061,-1037.10009765625,17.7000007629395,-914.100036621094,-2.00593891705168,-0.42566217268598,0.232712122475748,ST
6.43333333333333,-3.82392811775208,-1.81297135353088,8.54507064819336,-0.655492007732391,-1.05945801734924,1.82927989959717,-1046.70007324219,11.7000007629395,-904.500061035156,-2.0227145609317,-0.412574810466546,0.210469273884036,ST
6.46666666666667,-3.88493871688843,-2.40274024009705,8.40271282196045,-1.03659200668335,-1.08232402801514,2.4923939704895,-1044.30004882812,18.9000015258789,-897.300048828125,-2.00779081228943,-0.417206801512756,0.272095904044401,ST
6.5,-4.01533365249634,-2.37761831283569,8.61864185333252,-0.769822001457214,-0.403965979814529,0.396344006061554,-1041.90002441406,18.3000011444092,-909.300048828125,-2.01114608388082,-0.421222585740816,0.270314041433632,ST
6.53333333333333,-4.04284811019897,-2.29926156997681,8.59411811828613,-0.0457319989800453,-0.495429992675781,1.04421401023865,-1049.10009765625,18.3000011444092,-899.700012207031,-2.01856499840008,-0.425768577961374,0.261403547692463,ST
6.56666666666667,-4.04404449462891,-2.67788600921631,8.47269535064697,-0.144817993044853,-0.160062000155449,1.15854394435883,-1049.10009765625,14.1000003814697,-897.300048828125,-2.0058305959168,-0.427300944784247,0.301473316815034,ST
6.6,-4.24621677398682,-2.08811712265015,8.4176664352417,0.335367977619171,0.259148001670837,-0.403965979814529,-1039.5,19.5,-899.700012207031,-2.02654707753541,-0.453056277286681,0.248324598610926,ST
6.63333333333333,-3.89929413795471,-1.81656014919281,7.53899383544922,0.983237981796265,0.0685980021953583,1.65397393703461,-1034.70007324219,23.7000007629395,-892.500061035156,-2.03599569940042,-0.465467669465273,0.234705607081657,ST
6.66666666666667,-4.6290283203125,-1.92302966117859,7.89070224761963,0.647870004177094,0.815553963184357,1.34147191047668,-1061.10009765625,15.9000005722046,-899.700012207031,-2.03741710228878,-0.515032629909175,0.236643081024587,ST
6.7,-4.54110145568848,-1.40743041038513,8.405104637146,0.945127964019775,0.632625997066498,0.975615978240967,-1039.5,20.1000003814697,-902.100036621094,-2.07085904717921,-0.493047530637444,0.16943774459129,ST
6.73333333333333,-4.52255916595459,-1.28421294689178,8.20113849639893,0.548784017562866,-0.83841997385025,0.990859985351562,-1039.5,20.1000003814697,-909.300048828125,-2.08043536511333,-0.497299788388313,0.154657152530152,ST
6.76666666666667,-4.17563629150391,-1.03777801990509,8.40809535980225,0.914639949798584,-0.922261953353882,0.792688012123108,-1039.5,12.3000001907349,-916.500061035156,-2.09631739601079,-0.459899876491198,0.123206679495755,ST
6.8,-3.91903281211853,-1.5180869102478,8.70836353302002,0.495429992675781,-0.990859985351562,0.792688012123108,-1044.30004882812,13.5000009536743,-914.100036621094,-2.07975328239942,-0.418888857829441,0.167772308901566,ST
6.83333333333333,-3.92621040344238,-1.42716908454895,9.00863170623779,0.0609759986400604,-1.12805593013763,-0.693601965904236,-1053.90002441406,18.3000011444092,-906.900024414062,-2.08182178329819,-0.405446762219921,0.158171696611541,ST
6.86666666666667,-3.60022258758545,-1.25550210475922,8.59591293334961,0.434453994035721,-1.22714197635651,-0.426831990480423,-1051.5,25.5000019073486,-899.700012207031,-2.08533081788185,-0.391996996677247,0.145687337666307,ST
6.9,-3.34421730041504,-1.62814521789551,8.41228294372559,0.899396002292633,0.0533539988100529,-0.617381989955902,-1034.70007324219,14.7000007629395,-904.500061035156,-2.06709880378097,-0.373859025114561,0.186063227770183,ST
6.93333333333333,-3.50751042366028,-1.77050316333771,8.41527366638184,0.708845973014832,0.167683988809586,-1.44055795669556,-1037.10009765625,18.9000015258789,-911.700012207031,-2.05354411585127,-0.386236617147022,0.205824478876507,ST
6.96666666666667,-4.07933521270752,-1.44331896305084,8.39074993133545,1.01372599601746,0.701223969459534,-1.2576299905777,-1041.90002441406,20.7000007629395,-909.300048828125,-2.06089974949706,-0.443013832683573,0.172485643067403,ST
7.0,-4.07694244384766,-1.79323267936707,9.0911750793457,1.32622802257538,0.663114011287689,-0.503051996231079,-1049.10009765625,21.9000015258789,-902.100036621094,-2.04928790746158,-0.417960865529371,0.191107347570324,ST
7.03333333333333,-3.82751679420471,-1.48100197315216,8.58036136627197,1.10518991947174,-0.518296003341675,-0.670735955238342,-1039.5,9.90000057220459,-909.300048828125,-2.05375410240861,-0.413369892569972,0.170782988234594,ST
7.06666666666667,-3.63312029838562,-1.38051402568817,8.77894401550293,0.716467976570129,-0.480185985565186,0.320124000310898,-1034.70007324219,17.7000007629395,-914.100036621094,-2.05991598155585,-0.3894998731845,0.155783519103899,ST
7.1,-3.24133682250977,-1.49954438209534,8.00195693969727,-0.0457319989800453,-0.602137982845306,0.335367977619171,-1034.70007324219,12.3000001907349,-906.900024414062,-2.05134843612784,-0.37893544137245,0.182616288766385,ST
7.13333333333333,-3.75573968887329,-1.52526462078094,8.47867679595947,-0.564027965068817,0.304879993200302,0.198172003030777,-1041.90002441406,15.9000005722046,-909.300048828125,-2.05385361371502,-0.408740290426162,0.179220403101216,ST
7.16666666666667,-3.55177307128906,-1.28540921211243,8.417067527771,0.121951997280121,-0.282013982534409,0.327746003866196,-1041.90002441406,14.7000007629395,-909.300048828125,-2.06489906084697,-0.396068647388405,0.153596219073094,ST
7.2,-3.73540282249451,-1.01026344299316,8.50858402252197,0.701223969459534,0.144817993044853,0.411587983369827,-1044.30004882812,21.9000015258789,-902.100036621094,-2.07834687942824,-0.41008013004669,0.120026385808213,ST
7.23333333333333,-3.83947968482971,-1.36615860462189,8.67068004608154,0.365855991840363,0.342989981174469,0.762199997901917,-1041.90002441406,17.1000003814697,-899.700012207031,-2.06731969093617,-0.412874055756158,0.151926291630037,ST
7.26666666666667,-3.2628698348999,-1.29856836795807,8.63299751281738,-0.0685980021953583,-0.0152439996600151,-0.106707997620106,-1041.90002441406,19.5,-894.900024414062,-2.06792026614959,-0.362614589221809,0.14971384834128,ST
7.3,-3.81555390357971,-1.26626861095428,8.54507064819336,-0.182927995920181,-0.0152439996600151,-0.381099998950958,-1032.30004882812,17.7000007629395,-904.500061035156,-2.06765088042925,-0.410986578678973,0.147910012007585,ST
7.33333333333333,-3.81734848022461,-1.69633340835571,9.18508338928223,0.640248000621796,1.30336201190948,-0.182927995920181,-1041.90002441406,19.5,-909.300048828125,-2.05346027729506,-0.392068508320699,0.178776949779525,ST
7.36666666666667,-3.43274259567261,-1.89252436161041,8.90156364440918,0.907018005847931,-0.0076219998300075,-1.13567793369293,-1034.70007324219,16.5,-911.700012207031,-2.03825178967147,-0.362700758978857,0.206433233292333,ST
7.4,-3.49674391746521,-1.34701800346375,8.44338607788086,1.06708002090454,-0.320124000310898,-2.5000159740448,-1032.30004882812,21.9000015258789,-902.100036621094,-2.04495842337275,-0.385130050971661,0.161718141110935,ST
7.43333333333333,-3.78445053100586,-1.25550210475922,7.5467700958252,0.937505960464478,0.769822001457214,-0.586893975734711,-1029.90002441406,21.3000011444092,-911.700012207031,-2.04018284512216,-0.455807210814716,0.163674898364403,ST
7.46666666666667,-4.18759870529175,-1.46784281730652,8.69939136505127,0.274392008781433,0.403965979814529,-0.602137982845306,-1032.30004882812,20.7000007629395,-904.500061035156,-2.03604977930298,-0.444522558856705,0.166986055458807,ST
7.5,-4.27612400054932,-1.26806306838989,8.78193473815918,-0.106707997620106,-0.602137982845306,-0.236281991004944,-1034.70007324219,16.5,-914.100036621094,-2.04503380611859,-0.447730635518335,0.145472393686655,ST
7.53333333333333,-3.94834184646606,-1.4821982383728,8.67606353759766,-0.0228659994900227,-0.92988395690918,0.960371971130371,-1037.10009765625,22.5,-916.500061035156,-2.03970741535144,-0.42283487406611,0.166325789450465,ST
7.56666666666667,-3.42137789726257,-1.9068797826767,8.73587799072266,-0.640248000621796,-0.579271972179413,0.983237981796265,-1034.70007324219,17.7000007629395,-902.100036621094,-2.02674064679346,-0.369639537943795,0.211330089004344,ST
7.6,-3.23057007789612,-1.81177508831024,9.0552864074707,-0.731711983680725,-0.884151995182037,0.0,-1039.5,18.9000015258789,-906.900024414062,-2.03227537630803,-0.337873096652021,0.199676437661806,ST
7.63333333333333,-3.27543091773987,-1.69872605800629,8.60189437866211,0.3125019967556,-0.861285984516144,-0.884151995182037,-1041.90002441406,14.7000007629395,-909.300048828125,-2.03091405017435,-0.354509952760809,0.195209742910785,ST
7.66666666666667,-3.38429284095764,-1.94575905799866,8.24839115142822,0.914639949798584,0.365855991840363,0.0609759986400604,-1034.70007324219,14.1000003814697,-899.700012207031,-2.01822667187274,-0.37844511193795,0.227167734286055,ST
7.7,-4.04882955551147,-2.06359314918518,8.43142318725586,0.396344006061554,0.617381989955902,-1.52439999580383,-1029.90002441406,13.5000009536743,-906.900024414062,-2.00728808516782,-0.432451728473872,0.239590473576822,ST
7.73333333333333,-4.25219821929932,-1.71308147907257,8.48824691772461,1.12805593013763,0.487807989120483,0.548784017562866,-1034.70007324219,16.5,-918.900024414062,-2.02364187706659,-0.455252869418625,0.200717309557201,ST
7.76666666666667,-3.93996787071228,-1.97566628456116,8.16524982452393,0.891773998737335,-0.129574000835419,0.0762199983000755,-1032.30004882812,12.9000005722046,-904.500061035156,-2.00867538822163,-0.439771178667661,0.232887893314491,ST
7.8,-4.3544807434082,-1.10835897922516,8.29086017608643,0.945127964019775,-0.396344006061554,-0.121951997280121,-1032.30004882812,12.3000001907349,-906.900024414062,-2.0478230544029,-0.475865000554698,0.14070114726596,ST
7.83333333333333,-4.44958543777466,-1.45109486579895,8.34050559997559,0.83841997385025,-0.167683988809586,2.40855193138123,-1034.70007324219,15.3000001907349,-897.300048828125,-2.04215057081538,-0.483561943384796,0.166061399655192,ST
7.86666666666667,-3.85862040519714,-1.50492775440216,8.50020980834961,-0.0304879993200302,-0.571649968624115,1.6844619512558,-1041.90002441406,17.1000003814697,-904.500061035156,-2.04454436085124,-0.425633508066023,0.173188394954311,ST
7.9,-3.67199969291687,-1.42657101154327,8.07792091369629,-0.472563982009888,-1.2347639799118,2.13416004180908,-1032.30004882812,14.7000007629395,-914.100036621094,-2.05227659798466,-0.419977850926503,0.173756784296354,ST
7.93333333333333,-3.62953162193298,-1.65565979480743,8.4350118637085,-0.769822001457214,-0.670735955238342,1.82927989959717,-1041.90002441406,9.90000057220459,-902.100036621094,-2.05217266716459,-0.400883079509768,0.191935328883788,ST
7.96666666666667,-3.91544389724731,-1.15621042251587,8.33093547821045,-0.297257989645004,-0.190549999475479,1.38720393180847,-1029.90002441406,12.9000005722046,-894.900024414062,-2.07708096873663,-0.432624611677418,0.142342898788875,ST
8.0,-3.82033920288086,-1.82553231716156,8.22925090789795,-0.160062000155449,0.510673999786377,2.0731840133667,-1044.30004882812,17.1000003814697,-909.300048828125,-2.05501310841272,-0.427668994008375,0.21089220734044,ST
8.03333333333333,-4.20315074920654,-1.77947533130646,8.55404281616211,-0.37347799539566,0.815553963184357,0.685979962348938,-1037.10009765625,15.9000005722046,-904.500061035156,-2.05927567040067,-0.448001589371998,0.205845281574391,ST
8.06666666666667,-4.33294773101807,-1.6383136510849,8.53430366516113,0.205793991684914,0.777444005012512,0.792688012123108,-1022.70001220703,14.1000003814697,-899.700012207031,-2.06773181553272,-0.462673757756597,0.190313713011971,ST
8.1,-4.18341207504272,-1.86740231513977,9.01401424407959,0.426831990480423,0.579271972179413,0.304879993200302,-1032.30004882812,16.5,-906.900024414062,-2.06253022084524,-0.430818023038887,0.20222956933391,ST
8.13333333333333,-4.24203014373779,-1.40623414516449,8.46372318267822,0.769822001457214,-0.419209986925125,-0.190549999475479,-1039.5,17.7000007629395,-914.100036621094,-2.07616467304495,-0.455926292371741,0.166961856634961,ST
8.16666666666667,-3.94056582450867,-1.24054849147797,8.21011066436768,0.815553963184357,-0.213415995240211,-0.952749967575073,-1032.30004882812,18.3000011444092,-906.900024414062,-2.07904130122822,-0.443595248093423,0.150753298662611,ST
8.2,-3.66362571716309,-1.20705246925354,8.33213138580322,0.480185985565186,-0.87652999162674,-0.259148001670837,-1037.10009765625,15.9000005722046,-909.300048828125,-2.08083513711975,-0.412002398061934,0.14381540577764,ST
8.23333333333333,-3.81555390357971,-1.56892895698547,8.78014087677002,0.297257989645004,-0.823175966739655,-0.724089980125427,-1034.70007324219,10.5,-914.100036621094,-2.06669962743325,-0.403473188719349,0.173767526933724,ST
8.26666666666667,-3.38429284095764,-1.57670485973358,8.41646957397461,1.05945801734924,-0.472563982009888,0.365855991840363,-1044.30004882812,20.7000007629395,-916.500061035156,-2.06351904197478,-0.378205823402831,0.182206300102048,ST
8.3,-3.48119211196899,-1.79741966724396,9.04691219329834,0.830797970294952,-0.449698001146317,-1.76830399036407,-1039.5,10.5,-902.100036621094,-2.0526945079095,-0.361219723066222,0.194555448245804,ST
8.33333333333333,-3.70250487327576,-1.33684957027435,8.70238208770752,1.16616594791412,-0.327746003866196,-1.34147191047668,-1034.70007324219,15.9000005722046,-904.500061035156,-2.0616204753906,-0.393907747964078,0.15527173460487,ST
8.36666666666667,-3.7072901725769,-1.92542219161987,8.78731822967529,0.640248000621796,0.190549999475479,-1.2576299905777,-1034.70007324219,14.1000003814697,-911.700012207031,-2.03573841658451,-0.391139943905788,0.210065862257157,ST
8.4,-3.38429284095764,-1.84586918354034,8.2800931930542,-0.0990860015153885,-0.381099998950958,-1.52439999580383,-1041.90002441406,15.3000001907349,-911.700012207031,-2.02778723235101,-0.379518978188909,0.219560251688506,ST
8.43333333333333,-3.52784729003906,-1.81476581096649,7.87634658813477,-0.503051996231079,-0.701223969459534,-0.541162014007568,-1032.30004882812,15.9000005722046,-899.700012207031,-2.02442924889139,-0.407606989380485,0.226940412508899,ST
8.46666666666667,-3.97406196594238,-2.28191542625427,8.24181175231934,-0.990859985351562,-0.243903994560242,0.815553963184357,-1046.70007324219,11.1000003814697,-909.300048828125,-2.01213210602631,-0.432512336456079,0.267112603148415,ST
8.5,-4.08172750473022,-2.25081205368042,8.12995910644531,-1.09756803512573,-0.228659987449646,0.914639949798584,-1044.30004882812,18.9000015258789,-918.900024414062,-2.01510625086559,-0.449046447912373,0.270847737835213,ST
8.53333333333333,-4.17802858352661,-2.0432562828064,8.43202114105225,-0.830797970294952,-0.213415995240211,1.83690190315247,-1041.90002441406,17.1000003814697,-899.700012207031,-2.0351595803448,-0.449212847564195,0.240650877899986,ST
8.56666666666667,-4.09548473358154,-1.8967113494873,9.2048225402832,-0.236281991004944,-0.594515979290009,2.59910202026367,-1041.90002441406,8.70000076293945,-916.500061035156,-2.05991556426616,-0.413541261754385,0.204201552057558,ST
8.6,-3.66781258583069,-2.35907578468323,8.43381595611572,-0.762199997901917,-1.49391198158264,3.37654590606689,-1039.5,18.3000011444092,-916.500061035156,-2.04856045687396,-0.397143860521972,0.265863481347281,ST
8.63333333333333,-3.38608741760254,-1.85125243663788,8.65153980255127,-0.716467976570129,-0.426831990480423,1.28811800479889,-1044.30004882812,14.1000003814697,-904.500061035156,-2.07243125640357,-0.368227136661737,0.21602483548894,ST
8.66666666666667,-3.27543091773987,-1.56115317344666,8.1185941696167,-0.266770005226135,-1.14329993724823,1.61586391925812,-1032.30004882812,18.3000011444092,-909.300048828125,-2.08745059946704,-0.37513470200173,0.191641354683778,ST
8.7,-3.75573968887329,-1.88773918151855,7.98640489578247,0.205793991684914,0.327746003866196,1.29574000835419,-1046.70007324219,15.9000005722046,-899.700012207031,-2.07707935694965,-0.426480875401027,0.22807212973037,ST
8.73333333333333,-4.17683219909668,-1.7304276227951,8.16106224060059,-0.0076219998300075,0.525918006896973,0.533540010452271,-1051.5,16.5,-897.300048828125,-2.08616683156951,-0.462353983398598,0.21010234643379,ST
8.76666666666667,-4.44719314575195,-1.78126978874207,8.64316558837891,0.304879993200302,0.388722002506256,0.99848198890686,-1053.90002441406,13.5000009536743,-897.300048828125,-2.09180163509031,-0.467320574088843,0.202663546004894,ST
8.8,-4.36883640289307,-1.9248241186142,8.82679557800293,0.137196004390717,-0.304879993200302,0.411587983369827,-1046.70007324219,15.3000001907349,-904.500061035156,-2.08843156746382,-0.45162588155101,0.213046456763756,ST
8.83333333333333,-4.62424325942993,-1.73581087589264,8.66110992431641,-0.0838419944047928,0.381099998950958,0.403965979814529,-1056.30004882812,20.7000007629395,-899.700012207031,-2.095823400736,-0.48022139271061,0.199071459013143,ST
8.86666666666667,-4.12718629837036,-1.92960917949677,9.05887508392334,-0.0381099991500378,0.358233988285065,0.632625997066498,-1032.30004882812,12.3000001907349,-902.100036621094,-2.09342351088533,-0.42547273407079,0.208593906383291,ST
8.9,-3.5733060836792,-2.07435989379883,8.26513957977295,-0.213415995240211,-0.937505960464478,0.3125019967556,-1041.90002441406,12.3000001907349,-902.100036621094,-2.08166151169818,-0.397870121346479,0.243103873092135,ST
8.93333333333333,-3.45726633071899,-2.1951847076416,8.09945392608643,-0.297257989645004,-0.640248000621796,-0.67835795879364,-1037.10009765625,23.1000003814697,-914.100036621094,-2.07263672215,-0.390186135568291,0.263518254677478,ST
8.96666666666667,-4.14094400405884,-1.73999786376953,7.93077754974365,0.777444005012512,0.442075997591019,0.205793991684914,-1037.10009765625,21.9000015258789,-892.500061035156,-2.09022279814358,-0.465034450037331,0.219156488958582,ST
9.0,-4.3640513420105,-1.84766364097595,8.32136535644531,1.31860601902008,1.36433792114258,0.121951997280121,-1041.90002441406,21.3000011444092,-906.900024414062,-2.08877180556409,-0.474598751924304,0.216602792396818,ST
9.03333333333333,-4.4083137512207,-1.69633340835571,8.29385089874268,1.02897000312805,-0.0152439996600151,0.327746003866196,-1032.30004882812,14.7000007629395,-911.700012207031,-2.0952073639774,-0.479685396831342,0.201193386348756,ST
9.06666666666667,-4.58955097198486,-1.51031100749969,8.60727691650391,0.78506600856781,-0.548784017562866,-0.198172003030777,-1041.90002441406,17.7000007629395,-897.300048828125,-2.10576986485603,-0.482343690853107,0.175029191731886,ST
9.1,-3.87058305740356,-1.53842377662659,8.58813667297363,0.792688012123108,-0.716467976570129,0.914639949798584,-1032.30004882812,16.5,-914.100036621094,-2.10777575350154,-0.422535322187905,0.175069036873808,ST
9.13333333333333,-3.40522789955139,-1.56593835353851,8.21549415588379,0.434453994035721,-1.265251994133,0.236281991004944,-1025.10009765625,17.7000007629395,-909.300048828125,-2.10427029011717,-0.387707706159677,0.186267861178157,ST
9.16666666666667,-3.27543091773987,-1.39726197719574,8.02468585968018,0.259148001670837,-0.792688012123108,-0.510673999786377,-1037.10009765625,20.1000003814697,-904.500061035156,-2.10755511657814,-0.381289768267839,0.173161938322691,ST
9.2,-3.59364295005798,-1.44989860057831,8.09825801849365,0.449698001146317,0.0914639979600906,0.0533539988100529,-1056.30004882812,14.7000007629395,-899.700012207031,-2.10590721343773,-0.409686324069087,0.176105926304307,ST
9.23333333333333,-3.92561221122742,-1.50432956218719,8.79569244384766,0.807931959629059,0.617381989955902,0.388722002506256,-1034.70007324219,12.9000005722046,-916.500061035156,-2.10872382411973,-0.41512910665663,0.168457366907613,ST
9.26666666666667,-4.23664665222168,-1.69154834747314,8.91352653503418,0.0990860015153885,-0.228659987449646,0.487807989120483,-1034.70007324219,17.7000007629395,-894.900024414062,-2.10329319839799,-0.43469788423315,0.185262072687326,ST
9.3,-4.34550857543945,-1.46664655208588,8.82021617889404,0.228659987449646,0.0990860015153885,0.419209986925125,-1039.5,17.1000003814697,-914.100036621094,-2.11245152074564,-0.451061257106005,0.165979260971287,ST
9.33333333333333,-4.28808689117432,-1.77110135555267,9.37888145446777,0.769822001457214,0.602137982845306,0.655492007732391,-1041.90002441406,18.3000011444092,-894.900024414062,-2.10570971624157,-0.425987058209214,0.183191742073969,ST
9.36666666666667,-3.70848631858826,-1.46844100952148,8.85969352722168,0.586893975734711,-0.663114011287689,-0.396344006061554,-1034.70007324219,11.7000007629395,-906.900024414062,-2.1112007518925,-0.393584279231662,0.165202718606712,ST
9.4,-3.10795092582703,-1.27404451370239,8.0892858505249,0.769822001457214,-1.2423859834671,-0.739333987236023,-1039.5,20.1000003814697,-904.500061035156,-2.11175986747635,-0.362891610507214,0.155980781400258,ST
9.43333333333333,-3.12709140777588,-1.37931764125824,7.95829200744629,0.556405961513519,-0.0838419944047928,-0.37347799539566,-1032.30004882812,15.9000005722046,-911.700012207031,-2.10498281361963,-0.368626354264513,0.16964556103658,ST
9.46666666666667,-3.72403812408447,-1.42716908454895,8.23403644561768,0.205793991684914,0.495429992675781,-0.891773998737335,-1034.70007324219,14.1000003814697,-897.300048828125,-2.10050380518556,-0.416279487769818,0.17183203427417,ST
9.5,-3.88673305511475,-1.23815596103668,8.64795112609863,0.525918006896973,0.777444005012512,-0.327746003866196,-1029.90002441406,12.3000001907349,-906.900024414062,-2.109542371274,-0.419580614637548,0.14412801868513,ST
9.53333333333333,-4.13735485076904,-1.84228038787842,8.73109340667725,0.0990860015153885,0.129574000835419,-0.556405961513519,-1022.70001220703,15.3000001907349,-918.900024414062,-2.08297045014199,-0.433144896766413,0.203372987528987,ST
9.56666666666667,-3.74258065223694,-1.46066510677338,8.86447906494141,0.754577994346619,0.0076219998300075,-0.922261953353882,-1034.70007324219,14.7000007629395,-909.300048828125,-2.09402178089924,-0.397973756732733,0.166304256447722,ST
9.6,-3.62953162193298,-1.39307498931885,8.20771789550781,0.701223969459534,-0.952749967575073,-0.731711983680725,-1029.90002441406,12.9000005722046,-909.300048828125,-2.09091588360025,-0.408254983283005,0.167229922167565,ST
9.63333333333333,-4.09907388687134,-1.43374872207642,8.71494293212891,0.632625997066498,0.37347799539566,-0.6250039935112,-1034.70007324219,21.9000015258789,-909.300048828125,-2.08948705894646,-0.432975303322706,0.162853534313222,ST
9.66666666666667,-4.17443990707397,-0.966000914573669,8.51576137542725,0.236281991004944,-0.304879993200302,-0.586893975734711,-1029.90002441406,8.70000076293945,-902.100036621094,-2.10682274333993,-0.450869790136273,0.117558606216216,ST
9.7,-3.98662281036377,-1.3218959569931,8.73767280578613,-0.304879993200302,0.0762199983000755,1.265251994133,-1037.10009765625,14.1000003814697,-909.300048828125,-2.09883927309527,-0.426080059766812,0.147510123956687,ST
9.73333333333333,-3.22817754745483,-1.4660484790802,8.37220764160156,-0.564027965068817,-0.983237981796265,0.701223969459534,-1025.10009765625,21.3000011444092,-918.900024414062,-2.09305669897745,-0.367340976239987,0.171436008273769,ST
9.76666666666667,-3.71207523345947,-1.4421226978302,8.45475101470947,-0.388722002506256,-0.983237981796265,0.762199997901917,-1034.70007324219,15.9000005722046,-906.900024414062,-2.09757383742207,-0.403997991987186,0.169146429604536,ST
9.8,-4.09548473358154,-1.39187872409821,8.44518089294434,0.396344006061554,0.0838419944047928,0.609759986400604,-1037.10009765625,17.1000003814697,-906.900024414062,-2.10145874831587,-0.442754851393311,0.162820066908562,ST
9.83333333333333,-4.37541580200195,-1.77827906608582,8.92668533325195,0.632625997066498,0.243903994560242,1.05945801734924,-1039.5,11.1000003814697,-904.500061035156,-2.09105694327074,-0.448415548885917,0.192288193806073,ST
9.86666666666667,-3.86998510360718,-1.3458217382431,8.79150581359863,0.663114011287689,-0.762199997901917,-0.548784017562866,-1032.30004882812,15.3000001907349,-904.500061035156,-2.1045920392227,-0.411944543024916,0.154138880857755,ST
9.9,-3.91544389724731,-1.47202980518341,8.45774173736572,0.274392008781433,-1.07470202445984,-0.304879993200302,-1034.70007324219,18.3000011444092,-904.500061035156,-2.09723887963669,-0.424702425169858,0.170311874288639,ST
9.93333333333333,-3.74676752090454,-1.59106028079987,8.34409427642822,-0.0,0.0381099991500378,-0.0990860015153885,-1032.30004882812,13.5000009536743,-902.100036621094,-2.09008541507921,-0.416219488034543,0.187003670299179,ST
9.96666666666667,-3.81615209579468,-1.29019439220428,8.3040189743042,0.0228659994900227,-0.221037998795509,-0.388722002506256,-1027.5,9.90000057220459,-899.700012207031,-2.1010730139623,-0.424927984513976,0.157339287386114,ST
10.0,-4.0595965385437,-1.45827257633209,8.63658618927002,0.243903994560242,0.0533539988100529,0.358233988285065,-1025.10009765625,17.7000007629395,-906.900024414062,-2.09831426956717,-0.433368591183438,0.165729181948487,ST
10.0333333333333,-4.11043834686279,-1.30514800548553,8.70537281036377,0.411587983369827,0.0609759986400604,0.381099998950958,-1032.30004882812,10.5,-892.500061035156,-2.1057358203176,-0.436738780203702,0.149423457908058,ST
10.0666666666667,-4.03387641906738,-1.73939979076385,9.07801628112793,-0.0990860015153885,-0.0609759986400604,0.221037998795509,-1046.70007324219,24.3000011444092,-906.900024414062,-2.09160676379257,-0.413780408613856,0.18574295353872,ST
10.1,-3.60440945625305,-1.4241783618927,8.31837463378906,0.0457319989800453,-0.541162014007568,-0.25152599811554,-1032.30004882812,17.7000007629395,-914.100036621094,-2.09698500686064,-0.4034045760939,0.170706310658201,ST
10.1333333333333,-3.57450246810913,-1.78306424617767,7.72382020950317,0.0304879993200302,0.37347799539566,0.182927995920181,-1034.70007324219,17.1000003814697,-902.100036621094,-2.07682687695651,-0.422488877520505,0.22163698710104,ST
10.1666666666667,-4.16128063201904,-2.13417410850525,8.77116870880127,-0.25152599811554,0.792688012123108,-0.716467976570129,-1027.5,16.5,-899.700012207031,-2.06718423661616,-0.43227929109625,0.238572088456634,ST
10.2,-4.04225015640259,-2.15152025222778,8.67546558380127,-0.0,-0.457319974899292,-0.853663980960846,-1025.10009765625,14.1000003814697,-902.100036621094,-2.06299624619962,-0.424369935286503,0.243205949473604,ST
10.2333333333333,-3.96808052062988,-1.97028291225433,8.28906536102295,0.449698001146317,-0.92988395690918,0.121951997280121,-1022.70001220703,18.3000011444092,-911.700012207031,-2.06752637983874,-0.433434182563059,0.233302145331228,ST
10.2666666666667,-4.334144115448,-2.38240337371826,8.488844871521,0.221037998795509,-0.388722002506256,0.46494197845459,-1025.10009765625,14.7000007629395,-904.500061035156,-2.05341338290878,-0.454565046899166,0.269461822324155,ST
10.3,-4.07036304473877,-2.00138640403748,8.28427982330322,-0.221037998795509,-0.769822001457214,0.525918006896973,-1046.70007324219,9.90000057220459,-909.300048828125,-2.0688315431682,-0.445414108136787,0.239790847834291,ST
10.3333333333333,-4.09847545623779,-2.02890086174011,8.34469223022461,-0.602137982845306,-0.594515979290009,1.79117000102997,-1044.30004882812,24.9000015258789,-904.500061035156,-2.07692785467459,-0.445035322116016,0.238116852532812,ST
10.3666666666667,-3.70250487327576,-1.84586918354034,8.1066312789917,-0.952749967575073,-0.403965979814529,2.37044191360474,-1029.90002441406,13.5000009536743,-894.900024414062,-2.09168482241786,-0.421344902392221,0.224828662218676,ST
10.4,-3.37831139564514,-2.18681073188782,8.52712631225586,-1.09756803512573,-0.327746003866196,2.66770005226135,-1032.30004882812,17.7000007629395,-899.700012207031,-2.09240810524207,-0.371933605915504,0.248773524257864,ST
10.4333333333333,-3.35857272148132,-1.67898726463318,8.68324184417725,-0.609759986400604,-1.08994603157043,1.41006994247437,-1039.5,14.1000003814697,-897.300048828125,-2.11851248136789,-0.362252032868723,0.194611739058253,ST
10.4666666666667,-3.48717355728149,-1.89252436161041,8.73169136047363,-0.0914639979600906,-0.396344006061554,2.69818782806396,-1034.70007324219,17.7000007629395,-897.300048828125,-2.12225805432925,-0.37165413933281,0.21045765059163,ST
10.5,-3.16955971717834,-2.13357591629028,8.85251617431641,-0.221037998795509,-0.114329993724823,0.236281991004944,-1039.5,17.7000007629395,-906.900024414062,-2.11499887138827,-0.337908803890912,0.234589886867393,ST
10.5333333333333,-3.2407386302948,-1.60481762886047,8.76578521728516,0.403965979814529,-0.983237981796265,-0.25152599811554,-1032.30004882812,13.5000009536743,-909.300048828125,-2.13090241165098,-0.346238492528278,0.185332090018754,ST
10.5666666666667,-3.55835247039795,-1.68795943260193,8.78971099853516,1.17378795146942,0.0076219998300075,0.647870004177094,-1044.30004882812,18.3000011444092,-902.100036621094,-2.13093493853477,-0.37640364501583,0.187111219022341,ST
10.6,-3.6731960773468,-1.9529367685318,9.12586688995361,1.11281192302704,-0.297257989645004,0.518296003341675,-1044.30004882812,19.5,-894.900024414062,-2.12421306298917,-0.374815600263254,0.206555328793907,ST
10.6333333333333,-3.70609378814697,-1.84108412265778,8.63658618927002,1.09756803512573,-0.617381989955902,-0.365855991840363,-1039.5,18.3000011444092,-904.500061035156,-2.12145934588899,-0.394242824105831,0.208118159562901,ST
10.6666666666667,-3.55835247039795,-1.71786665916443,8.53250980377197,0.792688012123108,0.282013982534409,-0.182927995920181,-1034.70007324219,11.7000007629395,-902.100036621094,-2.12333929459462,-0.388988981874189,0.19834051317678,ST
10.7,-3.36096525192261,-1.58986401557922,8.09347248077393,0.228659987449646,-0.487807989120483,-0.335367977619171,-1020.30004882812,12.3000001907349,-911.700012207031,-2.12387518366029,-0.386261719087055,0.194152143748213,ST
10.7333333333333,-3.45666813850403,-1.91704821586609,7.68075370788574,-0.37347799539566,-0.495429992675781,-0.106707997620106,-1029.90002441406,9.90000057220459,-902.100036621094,-2.10642195360185,-0.408625713125375,0.240568319836213,ST
10.7666666666667,-4.34969568252563,-2.03847122192383,8.34349632263184,-1.03659200668335,0.647870004177094,-0.67835795879364,-1034.70007324219,11.7000007629395,-902.100036621094,-2.10481065183487,-0.464070246646439,0.242012323745654,ST
10.8,-4.78454542160034,-2.1269965171814,9.30650615692139,-0.716467976570129,0.282013982534409,1.41769194602966,-1046.70007324219,20.7000007629395,-904.500061035156,-2.11700046742369,-0.465500994717484,0.226345456906884,ST
10.8333333333333,-4.17025279998779,-2.06897664070129,8.87763786315918,-0.640248000621796,-0.411587983369827,2.03507399559021,-1027.5,23.1000003814697,-906.900024414062,-2.12405495506442,-0.431907356469979,0.22824300337028,ST
10.8666666666667,-3.48059391975403,-1.8967113494873,8.33033752441406,-0.724089980125427,-0.884151995182037,1.88263392448425,-1029.90002441406,14.1000003814697,-914.100036621094,-2.13364779255944,-0.389548545249219,0.223993250129693,ST
10.9,-3.44829416275024,-1.96310520172119,8.21908283233643,-0.510673999786377,0.228659987449646,1.12043392658234,-1039.5,18.9000015258789,-906.900024414062,-2.1342534649416,-0.388369581345321,0.233876044338048,ST
10.9333333333333,-3.57629680633545,-1.98762905597687,8.31059837341309,-0.198172003030777,0.350611984729767,0.594515979290009,-1037.10009765625,18.3000011444092,-911.700012207031,-2.13596131261003,-0.396602807561101,0.234682923111883,ST
10.9666666666667,-4.12898111343384,-1.91405749320984,8.4230489730835,-0.0076219998300075,-0.769822001457214,-0.0609759986400604,-1034.70007324219,18.9000015258789,-897.300048828125,-2.1405581739058,-0.440603758016646,0.224334495785607,ST
11.0,-4.15649557113647,-1.60661196708679,8.55165004730225,0.556405961513519,-0.480185985565186,0.0990860015153885,-1044.30004882812,16.5,-904.500061035156,-2.15581718376638,-0.444491804614473,0.188186528104768,ST
11.0333333333333,-3.92262148857117,-1.7405960559845,8.85849761962891,1.03659200668335,-0.586893975734711,1.05183601379395,-1029.90002441406,18.3000011444092,-899.700012207031,-2.15675016582312,-0.412423138140538,0.191053738188097,ST
11.0666666666667,-3.56373572349548,-1.72324991226196,8.28966331481934,1.17378795146942,-0.518296003341675,0.0304879993200302,-1039.5,14.7000007629395,-909.300048828125,-2.15134741195979,-0.398872598420496,0.201758951412766,ST
11.1,-3.82931137084961,-1.78904557228088,8.79389762878418,0.960371971130371,0.266770005226135,-0.121951997280121,-1046.70007324219,17.7000007629395,-904.500061035156,-2.15042619433908,-0.403292848557796,0.199390070741566,ST
11.1333333333333,-3.69472908973694,-1.71607220172882,8.81363677978516,1.08994603157043,-0.564027965068817,-1.08994603157043,-1041.90002441406,24.3000011444092,-904.500061035156,-2.14883074195004,-0.390320246890837,0.191842414633867,ST
11.1666666666667,-3.44350910186768,-1.51150727272034,8.27949523925781,0.960371971130371,-0.259148001670837,-1.18140995502472,-1037.10009765625,18.9000015258789,-904.500061035156,-2.14786567563854,-0.387738204450237,0.180525701992937,ST
11.2,-3.69951438903809,-1.65984678268433,8.45355415344238,0.525918006896973,0.0,-1.29574000835419,-1029.90002441406,15.9000005722046,-902.100036621094,-2.13841752326359,-0.403612541042497,0.192686028864604,ST
11.2333333333333,-3.57450246810913,-2.10187435150146,9.06246376037598,0.548784017562866,-0.510673999786377,-0.564027965068817,-1044.30004882812,26.7000007629395,-897.300048828125,-2.12381589065956,-0.368136883564247,0.225123182680581,ST
11.2666666666667,-3.62474632263184,-1.92422592639923,8.6862325668335,0.358233988285065,-0.289635986089706,-1.2423859834671,-1039.5,13.5000009536743,-894.900024414062,-2.12198719094098,-0.38431279373043,0.218817579077518,ST
11.3,-3.26227188110352,-1.91824448108673,8.59890365600586,1.15854394435883,0.0533539988100529,-0.670735955238342,-1051.5,14.7000007629395,-906.900024414062,-2.11869720328755,-0.357162373580304,0.217994735924242,ST
11.3333333333333,-3.91125679016113,-1.6203693151474,9.21259784698486,1.38720393180847,0.137196004390717,-1.15092194080353,-1039.5,14.1000003814697,-911.700012207031,-2.1283417944645,-0.392431408150759,0.176683212797366,ST
11.3666666666667,-3.58407258987427,-1.85902833938599,9.03195858001709,1.77592599391937,-0.137196004390717,-0.160062000155449,-1037.10009765625,14.1000003814697,-904.500061035156,-2.1177196682308,-0.372422978991542,0.197902402365421,ST
11.4,-3.70310306549072,-1.5563679933548,8.69998931884766,1.54726600646973,0.457319974899292,-0.663114011287689,-1044.30004882812,18.3000011444092,-894.900024414062,-2.12091268390268,-0.395795123975711,0.176302696682497,ST
11.4333333333333,-2.91176009178162,-1.75734400749207,9.08280086517334,1.03659200668335,-0.411587983369827,-0.92988395690918,-1041.90002441406,20.7000007629395,-904.500061035156,-2.11239943677756,-0.310848122347261,0.188851956962931,ST
11.4666666666667,-2.88185286521912,-1.52227389812469,7.67596864700317,0.243903994560242,-1.62348592281342,-1.18140995502472,-1037.10009765625,16.5,-906.900024414062,-2.10729535956883,-0.346161795593801,0.195230660090801,ST
11.5,-3.44111657142639,-1.50851655006409,8.15687561035156,0.25152599811554,0.754577994346619,0.0457319989800453,-1041.90002441406,13.5000009536743,-906.900024414062,-2.11083128179968,-0.390158745838224,0.183677644026102,ST
11.5333333333333,-3.34302115440369,-1.66283750534058,8.0593786239624,0.0076219998300075,0.503051996231079,0.0152439996600151,-1039.5,10.5,-902.100036621094,-2.1037190954139,-0.387057559821126,0.201725014211507,ST
11.5666666666667,-4.09428882598877,-1.86620604991913,8.94343376159668,-0.449698001146317,-0.0228659994900227,1.01372599601746,-1046.70007324219,11.1000003814697,-923.700012207031,-2.10607118206019,-0.418499795879469,0.205375617403,ST
11.6,-4.41549158096313,-1.56115317344666,9.32265663146973,-0.0,-0.0076219998300075,1.49391198158264,-1037.10009765625,17.7000007629395,-902.100036621094,-2.12598729624611,-0.435758249515847,0.16844280023235,ST
11.6333333333333,-3.79940414428711,-1.82014906406403,9.10074520111084,0.0152439996600151,-0.365855991840363,1.6920839548111,-1037.10009765625,16.5,-914.100036621094,-2.12138922157386,-0.392414547631922,0.193862259902045,ST
11.6666666666667,-3.69652366638184,-1.36077523231506,8.51635932922363,-0.213415995240211,-0.579271972179413,2.01982998847961,-1034.70007324219,20.1000003814697,-906.900024414062,-2.14215527740182,-0.40369462014214,0.159800811488998,ST
11.7,-3.22638320922852,-1.76930689811707,8.09167766571045,-0.0533539988100529,0.0990860015153885,2.17989206314087,-1049.10009765625,15.3000001907349,-911.700012207031,-2.13030534037836,-0.375257829477257,0.209061990996826,ST
11.7333333333333,-3.45607018470764,-1.61020088195801,8.15807151794434,-0.152439996600151,0.510673999786377,0.990859985351562,-1044.30004882812,14.7000007629395,-923.700012207031,-2.1382418755134,-0.393319874091645,0.195839060197044,ST
11.7666666666667,-3.84665751457214,-1.77768087387085,8.57318305969238,0.0914639979600906,0.442075997591019,1.06708002090454,-1029.90002441406,14.7000007629395,-904.500061035156,-2.13840359614585,-0.413113220209172,0.202867086511621,ST
11.8,-4.14931774139404,-1.63711726665497,9.00623893737793,0.358233988285065,-0.37347799539566,0.602137982845306,-1029.90002441406,15.9000005722046,-899.700012207031,-2.14928711272731,-0.424316462986699,0.180342603699699,ST
11.8333333333333,-4.18520641326904,-1.62934148311615,9.02597713470459,0.365855991840363,-0.792688012123108,1.01372599601746,-1034.70007324219,17.7000007629395,-897.300048828125,-2.15389002847238,-0.426852641823041,0.17727846195048,ST
11.8666666666667,-3.93398642539978,-1.4600670337677,8.12637042999268,0.114329993724823,-0.175305992364883,0.922261953353882,-1034.70007324219,18.3000011444092,-906.900024414062,-2.15684600794821,-0.443021533553966,0.176845676384696,ST
11.9,-4.06139087677002,-2.09649109840393,8.26753234863281,-0.586893975734711,0.342989981174469,0.533540010452271,-1029.90002441406,16.5,-904.500061035156,-2.13072601074945,-0.445103160711751,0.243041183066846,ST
11.9333333333333,-4.22408580780029,-1.58687329292297,8.08450031280518,-0.602137982845306,0.243903994560242,0.716467976570129,-1039.5,11.1000003814697,-911.700012207031,-2.15324024828327,-0.471830093583419,0.198781533148949,ST
11.9666666666667,-4.26775026321411,-2.00019001960754,8.12995910644531,-0.525918006896973,0.388722002506256,0.0762199983000755,-1025.10009765625,12.9000005722046,-902.100036621094,-2.13595266767399,-0.472107179747104,0.238585252770856,ST
12.0,-4.59553241729736,-2.09589290618896,8.20412921905518,-0.37347799539566,0.0,1.32622802257538,-1039.5,13.5000009536743,-899.700012207031,-2.13614607504444,-0.496035301980751,0.248803720378482,ST
12.0333333333333,-4.23365592956543,-2.24841952323914,8.65931606292725,-0.564027965068817,-0.121951997280121,2.01220798492432,-1034.70007324219,15.3000001907349,-906.900024414062,-2.14184780836177,-0.4463351586027,0.253048434404985,ST
12.0666666666667,-3.60022258758545,-1.88056147098541,7.6448655128479,-0.846041977405548,-2.33233189582825,-0.815553963184357,-1039.5,17.7000007629395,-914.100036621094,-2.14640598193905,-0.426254663703141,0.243623819700762,ST
12.1,-4.16786003112793,-1.82194352149963,8.1185941696167,-0.846041977405548,-0.861285984516144,2.78202986717224,-1037.10009765625,18.9000015258789,-904.500061035156,-2.16680053345625,-0.461155267421176,0.221595982062089,ST
12.1333333333333,-4.40053796768188,-2.35787963867188,9.1151008605957,-0.594515979290009,-0.129574000835419,2.9192259311676,-1039.5,24.3000011444092,-897.300048828125,-2.16464008477862,-0.440326392415915,0.249091945510274,ST
12.1666666666667,-3.70310306549072,-1.87099123001099,8.87584400177002,-0.411587983369827,-1.265251994133,2.47714996337891,-1032.30004882812,18.9000015258789,-911.700012207031,-2.18943936847263,-0.391273482681942,0.210271670507014,ST
12.2,-3.380704164505,-1.89730954170227,8.3339262008667,-0.594515979290009,-1.09756803512573,2.08842802047729,-1027.5,20.7000007629395,-906.900024414062,-2.19305989888518,-0.377000139607969,0.222124110913152,ST
12.2333333333333,-3.08881020545959,-2.01514363288879,8.70298004150391,-1.00610399246216,-0.335367977619171,1.17378795146942,-1034.70007324219,24.3000011444092,-904.500061035156,-2.196457121737,-0.336123880523777,0.228057324534567,ST
12.2666666666667,-2.62046432495117,-1.72803509235382,8.0827054977417,-0.739333987236023,-1.06708002090454,0.121951997280121,-1049.10009765625,18.9000015258789,-902.100036621094,-2.20312152260527,-0.30804074817647,0.213183267127062,ST
12.3,-3.44530344009399,-1.28899812698364,8.0946683883667,-0.282013982534409,-1.2500079870224,-0.213415995240211,-1039.5,21.9000015258789,-899.700012207031,-2.22045706962117,-0.387800253864721,0.163579045241793,ST
12.3333333333333,-3.51229548454285,-1.65207087993622,8.70298004150391,0.724089980125427,0.297257989645004,1.15854394435883,-1039.5,17.1000003814697,-914.100036621094,-2.21555569044261,-0.379076211750058,0.183925259565749,ST
12.3666666666667,-3.60440945625305,-2.07854676246643,9.8077507019043,0.632625997066498,-0.297257989645004,0.457319974899292,-1034.70007324219,17.1000003814697,-902.100036621094,-2.20875156277107,-0.347380223491573,0.20566713798158,ST
12.4,-3.62953162193298,-1.68437063694,8.85730075836182,0.716467976570129,-1.21189796924591,-1.52439999580383,-1034.70007324219,20.1000003814697,-894.900024414062,-2.20943897707106,-0.377664559818441,0.188925589861503,ST
12.4333333333333,-2.93748021125793,-2.02411580085754,8.39553451538086,1.2500079870224,-0.426831990480423,-1.13567793369293,-1041.90002441406,15.3000001907349,-904.500061035156,-2.19004987979427,-0.331349637578251,0.230944208993887,ST
12.4666666666667,-3.11512851715088,-2.03607869148254,8.3040189743042,0.685979962348938,-0.457319974899292,-2.11891603469849,-1041.90002441406,12.3000001907349,-916.500061035156,-2.18001656516678,-0.346266051023526,0.239601161018329,ST
12.5,-3.51109933853149,-1.51270353794098,7.73638105392456,0.746955990791321,-0.6250039935112,-2.47714996337891,-1046.70007324219,19.5,-909.300048828125,-2.18669495358153,-0.412681317076215,0.196494949093628,ST
12.5333333333333,-3.70489764213562,-2.22688627243042,8.72690582275391,0.350611984729767,0.228659987449646,0.0076219998300075,-1044.30004882812,18.3000011444092,-914.100036621094,-2.16690350302253,-0.392354439480241,0.245329343473781,ST
12.5666666666667,-4.02430582046509,-2.09469676017761,8.67606353759766,-0.716467976570129,-0.541162014007568,-1.05183601379395,-1044.30004882812,18.3000011444092,-904.500061035156,-2.16738589073647,-0.419533289936304,0.239442375442218,ST
12.6,-3.38010597229004,-2.10366892814636,7.38108444213867,-1.50153398513794,-0.807931959629059,0.487807989120483,-1044.30004882812,17.7000007629395,-902.100036621094,-2.15678760300874,-0.414259175627808,0.276098671315183,ST
12.6333333333333,-3.84845185279846,-2.60311818122864,8.3100004196167,-2.35519790649414,0.861285984516144,1.08232402801514,-1049.10009765625,16.5,-904.500061035156,-2.15118251061223,-0.417777434472374,0.30427341338776,ST
12.6666666666667,-3.43872404098511,-2.37582397460938,8.78791618347168,-1.6844619512558,-0.327746003866196,0.472563982009888,-1041.90002441406,15.3000001907349,-904.500061035156,-2.16825384968567,-0.366021612990006,0.269937307217377,ST
12.7,-3.52784729003906,-2.65575480461121,7.95410537719727,-1.45580196380615,-0.952749967575073,1.6920839548111,-1039.5,16.5,-909.300048828125,-2.15835438437149,-0.395183489051074,0.319336922645493,ST
12.7333333333333,-4.05780172348022,-2.68326926231384,9.52303409576416,0.243903994560242,-0.0076219998300075,0.792688012123108,-1051.5,23.7000007629395,-902.100036621094,-2.17655423777408,-0.390078425557862,0.277438953655729,ST
12.7666666666667,-3.77069330215454,-2.46853613853455,9.28018856048584,1.17378795146942,-0.762199997901917,0.716467976570129,-1046.70007324219,26.1000003814697,-909.300048828125,-2.18473984914745,-0.374733259913582,0.259130472888585,ST
12.8,-3.63670921325684,-1.76511991024017,8.9655647277832,2.10367202758789,-0.99848198890686,-0.0838419944047928,-1044.30004882812,19.5,-902.100036621094,-2.20537224701453,-0.376883991846221,0.196849485714054,ST
12.8333333333333,-3.52545475959778,-1.77887713909149,8.76997184753418,1.89787793159485,0.0381099991500378,0.602137982845306,-1053.90002441406,18.3000011444092,-899.700012207031,-2.20498421291441,-0.375687829120964,0.196448830543106,ST
12.8666666666667,-3.1767373085022,-1.71966099739075,8.16285705566406,1.28811800479889,-0.198172003030777,0.221037998795509,-1051.5,17.1000003814697,-897.300048828125,-2.2012243415191,-0.364510127710408,0.204557728358535,ST
12.9,-3.7132716178894,-1.47741317749023,8.8997688293457,1.08994603157043,0.891773998737335,-0.907018005847931,-1053.90002441406,19.5,-897.300048828125,-2.21023166318933,-0.389285786067464,0.167107514712649,ST
12.9333333333333,-3.45128488540649,-1.97506809234619,8.96317195892334,1.15092194080353,0.457319974899292,-0.221037998795509,-1039.5,18.9000015258789,-911.700012207031,-2.19173535492936,-0.363039512840243,0.210808637108597,ST
12.9666666666667,-3.00207948684692,-2.01155471801758,8.58514595031738,0.952749967575073,-0.3125019967556,-1.2576299905777,-1044.30004882812,18.3000011444092,-902.100036621094,-2.18116022927376,-0.330386194734308,0.227563248550888,ST
13.0,-2.83280515670776,-1.74478304386139,7.66998720169067,0.922261953353882,-0.754577994346619,-1.6692179441452,-1065.90002441406,17.1000003814697,-906.900024414062,-2.17672722953629,-0.342536013829201,0.223384383596639,ST
13.0333333333333,-4.01952075958252,-1.7806715965271,8.77774810791016,0.937505960464478,1.2347639799118,-1.21189796924591,-1039.5,15.3000001907349,-899.700012207031,-2.17857165915681,-0.417951174351365,0.201290647565617,ST
13.0666666666667,-3.93039751052856,-2.15271663665771,8.91532135009766,0.945127964019775,0.365855991840363,-0.160062000155449,-1041.90002441406,18.3000011444092,-902.100036621094,-2.16388482783409,-0.406485949733295,0.232655595152713,ST
13.1,-4.00217485427856,-1.83749520778656,9.10194206237793,1.02897000312805,0.25152599811554,-0.388722002506256,-1046.70007324219,8.70000076293945,-902.100036621094,-2.17367148256803,-0.407188105981032,0.200891377568626,ST
13.1333333333333,-3.62055945396423,-1.88235592842102,9.03614616394043,0.891773998737335,-0.152439996600151,0.266770005226135,-1037.10009765625,15.9000005722046,-904.500061035156,-2.17248696122896,-0.376678940746654,0.203381741127059,ST
13.1666666666667,-3.52485656738281,-1.68855762481689,8.72989654541016,0.548784017562866,0.221037998795509,0.297257989645004,-1025.10009765625,15.9000005722046,-899.700012207031,-2.17709192895496,-0.377787395175302,0.191149548324844,ST
13.2,-3.39505958557129,-1.63053774833679,8.25975608825684,0.129574000835419,0.647870004177094,0.243903994560242,-1034.70007324219,19.5,-904.500061035156,-2.17612990883364,-0.383892930815085,0.194282816690098,DLL
13.2333333333333,-3.09000658988953,-1.77827906608582,8.59830474853516,0.198172003030777,0.0914639979600906,-0.114329993724823,-1034.70007324219,14.7000007629395,-906.900024414062,-2.17242542020941,-0.342612241367339,0.202851659756875,DLL
13.2666666666667,-3.59364295005798,-1.51031100749969,8.49841499328613,-0.297257989645004,0.411587983369827,0.121951997280121,-1041.90002441406,19.5,-904.500061035156,-2.18155169922895,-0.390501459298247,0.178825615717367,DLL
13.3,-3.1587929725647,-1.82613050937653,8.02588272094727,-0.304879993200302,-0.525918006896973,0.815553963184357,-1037.10009765625,23.7000007629395,-904.500061035156,-2.16969134895913,-0.367407124243383,0.220862359556909,DLL
13.3333333333333,-4.07754039764404,-1.97985327243805,8.90036773681641,-0.495429992675781,0.762199997901917,1.83690190315247,-1034.70007324219,20.1000003814697,-899.700012207031,-2.17672425145194,-0.41835381580601,0.218706091610762,DLL
13.3666666666667,-3.79162836074829,-1.88355219364166,8.9655647277832,-0.99848198890686,-0.259148001670837,1.2347639799118,-1034.70007324219,18.3000011444092,-887.700012207031,-2.18598513608389,-0.394767756492825,0.208856650739847,DLL
13.4,-3.63670921325684,-1.41879510879517,8.67247486114502,-0.769822001457214,-1.20427596569061,1.57013201713562,-1039.5,17.1000003814697,-916.500061035156,-2.20886191158808,-0.391183053145659,0.166460877027047,DLL
13.4333333333333,-3.63850378990173,-1.77887713909149,8.30940246582031,-0.403965979814529,0.0381099991500378,3.30794787406921,-1051.5,14.7000007629395,-906.900024414062,-2.204870154147,-0.40458444683033,0.205646944939212,DLL
13.4666666666667,-3.66183137893677,-2.19159579277039,8.93805027008057,-0.586893975734711,-0.205793991684914,1.72257196903229,-1037.10009765625,14.7000007629395,-911.700012207031,-2.19927297267037,-0.380984386240427,0.237678050327192,DLL
13.5,-4.01054859161377,-1.35778450965881,8.5666036605835,-0.236281991004944,-1.2500079870224,1.18903195858002,-1039.5,18.9000015258789,-902.100036621094,-2.23299886361818,-0.426884450616334,0.164068828808924,DLL
13.5333333333333,-3.81734848022461,-1.32967185974121,8.81423473358154,0.205793991684914,-0.289635986089706,2.59148001670837,-1039.5,20.1000003814697,-904.500061035156,-2.24824177618379,-0.406178609396823,0.148430434295834,DLL
13.5666666666667,-3.24791622161865,-1.338045835495,8.01930236816406,-0.0304879993200302,-1.85214591026306,1.61586391925812,-1051.5,20.1000003814697,-897.300048828125,-2.24929091120206,-0.379314349311995,0.162988633721224,DLL
13.6,-3.70609378814697,-1.11374223232269,7.30212926864624,-0.0609759986400604,-0.266770005226135,3.39178991317749,-1056.30004882812,22.5,-911.700012207031,-2.26572927737782,-0.458329263989945,0.149887777153138,DLL
13.6333333333333,-5.0854115486145,-2.29387831687927,10.768367767334,-1.51677799224854,0.442075997591019,3.71191382408142,-1034.70007324219,10.5,-906.900024414062,-2.25578492855684,-0.43672192633435,0.204731169346033,DLL
13.6666666666667,-4.7008056640625,-0.0867307335138321,9.11270809173584,-1.21189796924591,-5.07625198364258,0.67835795879364,-1051.5,26.7000007629395,-906.900024414062,-2.33805668640985,-0.465430534707361,0.0289326287347645,DLL
13.7,-4.4322395324707,-1.05572235584259,7.03775024414062,-4.03965997695923,-2.17989206314087,15.4955253601074,-1041.90002441406,24.3000011444092,-909.300048828125,-2.3456298261647,-0.549639284659007,0.13082702555452,DLL
13.7333333333333,-4.00456714630127,-2.65455842018127,7.21958589553833,-5.71649980545044,-1.49391198158264,13.0488634109497,-1046.70007324219,27.3000011444092,-906.900024414062,-2.29614677778201,-0.490012972915711,0.33406854254301,DLL
13.7666666666667,-4.11462545394897,-1.29797029495239,8.63000679016113,-6.2043080329895,-1.75305998325348,10.4573841094971,-1046.70007324219,25.5000019073486,-892.500061035156,-2.4173523205419,-0.445390112309732,0.164613211332429,DLL
13.8,-4.202552318573,-2.14254808425903,8.36084270477295,-7.22565603256226,-3.10215401649475,13.56715965271,-1049.10009765625,19.5,-892.500061035156,-2.43714059539251,-0.452581880507736,0.243757045705056,DLL
13.8333333333333,-3.63431668281555,-2.48947095870972,7.64606142044067,-6.83693361282349,-2.47714996337891,12.3323955535889,-1053.90002441406,28.5000019073486,-894.900024414062,-2.45808043938597,-0.429060346413253,0.31003945991837,DLL
13.8666666666667,-4.44001531600952,-2.68566203117371,8.93206882476807,-6.73022603988647,-0.495429992675781,13.2546577453613,-1039.5,33.3000030517578,-892.500061035156,-2.51448645620944,-0.44832879551381,0.294690855302464,DLL
13.9,-3.43752765655518,-3.50511789321899,8.55045413970947,-7.27138805389404,-1.59299790859222,12.2104434967041,-1025.10009765625,30.9000015258789,-880.500061035156,-2.5279066466798,-0.368545921746982,0.385401767769713,DLL
13.9333333333333,-3.16058754920959,-3.06189393997192,7.60957479476929,-7.62962198257446,-2.54574799537659,9.9314661026001,-1039.5,37.5,-892.500061035156,-2.56895565948732,-0.370076254804067,0.388651667419103,DLL
13.9666666666667,-5.45745658874512,-2.70360612869263,9.49851036071777,-6.09759998321533,-1.6692179441452,10.4192733764648,-1041.90002441406,40.5,-866.100036621094,-2.6521561888818,-0.495408779792794,0.289469332315853,DLL
14.0,-3.62175559997559,-2.47511553764343,8.13952922821045,-3.10215401649475,0.495429992675781,12.4695920944214,-1027.5,36.9000015258789,-885.300048828125,-2.69286587739573,-0.417319624884098,0.290993769467771,DLL
14.0333333333333,-3.48717355728149,-4.39096736907959,8.88661003112793,-4.68753004074097,-0.0609759986400604,13.1098394393921,-998.700012207031,43.5,-890.100036621094,-2.6801789808287,-0.35418828020742,0.444291966874004,DLL
14.0666666666667,-3.12768959999084,-1.66403377056122,7.2183895111084,-1.98934197425842,-1.60061991214752,3.82624387741089,-1025.10009765625,38.7000007629395,-875.700012207031,-2.77251686543123,-0.396479284391614,0.241059519530712,DLL
14.1,-3.39147067070007,-3.23296284675598,8.417067527771,-1.28811800479889,-0.0304879993200302,9.24548625946045,-1005.90002441406,37.5,-868.500061035156,-2.76156762786467,-0.367833922080125,0.353073744796284,DLL
14.1333333333333,-4.29047966003418,-2.50621914863586,8.56720161437988,0.167683988809586,0.663114011287689,3.14026403427124,-1017.90002441406,38.7000007629395,-885.300048828125,-2.79702716498444,-0.44513921988849,0.287119265660542,DLL
14.1666666666667,-3.71087908744812,-2.32737421989441,7.93675899505615,0.396344006061554,-0.121951997280121,3.72715783119202,-996.300048828125,42.3000030517578,-878.100036621094,-2.8098665246977,-0.425326501141374,0.28216294666748,DLL
14.2,-4.78334951400757,-1.57491040229797,8.65153980255127,0.937505960464478,-0.6250039935112,-0.167683988809586,-998.700012207031,45.9000015258789,-870.900024414062,-2.84993825185761,-0.490771366666104,0.188228237991231,DLL
14.2333333333333,-4.36584568023682,-1.04794645309448,8.21968078613281,1.63872992992401,-0.67835795879364,3.50611996650696,-998.700012207031,41.7000007629395,-866.100036621094,-2.88699054435973,-0.485214975693694,0.126759703159636,DLL
14.2666666666667,-4.96279239654541,-2.87288069725037,8.32555198669434,-0.914639949798584,-0.701223969459534,3.37654590606689,-991.500061035156,39.3000030517578,-873.300048828125,-2.81019908969553,-0.511864278447938,0.311762925517587,DLL
14.3,-4.70977783203125,-1.45109486579895,7.8835244178772,-0.632625997066498,0.487807989120483,0.0914639979600906,-998.700012207031,41.7000007629395,-878.100036621094,-2.86940466593544,-0.530624501725204,0.194932706215047,DLL
14.3333333333333,-4.09010171890259,-2.21671795845032,7.84225273132324,-0.716467976570129,0.442075997591019,3.41465592384338,-989.100036621094,42.3000030517578,-875.700012207031,-2.84568969596268,-0.473262753071963,0.266932199134566,DLL
14.3666666666667,-4.51059627532959,-2.131183385849,8.34349632263184,-0.594515979290009,0.37347799539566,0.739333987236023,-996.300048828125,40.5,-870.900024414062,-2.85538374772946,-0.48254246872365,0.252043859008383,DLL
14.4,-4.41309881210327,-2.11024832725525,7.69032430648804,-0.221037998795509,-0.365855991840363,2.37806391716003,-984.300048828125,43.5,-870.900024414062,-2.85705873670537,-0.503795646079557,0.26464597089361,DLL
14.4333333333333,-5.01183986663818,-1.41999137401581,8.11380958557129,0.693601965904236,0.853663980960846,1.58537602424622,-996.300048828125,42.3000030517578,-868.500061035156,-2.90360646539673,-0.545368242964028,0.177859926748005,DLL
14.4666666666667,-5.30074310302734,-1.56534016132355,8.14431476593018,0.701223969459534,1.01372599601746,2.67532205581665,-993.900024414062,43.5,-868.500061035156,-2.90560518291489,-0.568965410456547,0.185211496180348,DLL
14.5,-4.91912794113159,-1.92661845684052,8.58275318145752,0.335367977619171,0.213415995240211,3.14026403427124,-979.500061035156,47.7000007629395,-875.700012207031,-2.89953381355176,-0.515038570267965,0.215285215160392,DLL
14.5333333333333,-4.10027027130127,-2.18980145454407,7.62632274627686,-1.62348592281342,-1.53202199935913,0.121951997280121,-981.900024414062,42.3000030517578,-870.900024414062,-2.87475270440059,-0.4781984668108,0.276040750066156,DLL
14.5666666666667,-4.27971315383911,-1.56892895698547,7.52164793014526,-1.31098401546478,-1.2500079870224,0.243903994560242,-974.700012207031,45.3000030517578,-863.700012207031,-2.90895490643595,-0.504337836985634,0.212258528307028,DLL
14.6,-4.87606143951416,-1.35539197921753,7.9696569442749,0.724089980125427,0.350611984729767,1.6615959405899,-991.500061035156,46.5,-873.300048828125,-2.93438568906147,-0.541169609166325,0.168839488268421,DLL
14.6333333333333,-4.74207735061646,-1.4020471572876,8.17123126983643,1.98934197425842,0.87652999162674,3.08691000938416,-974.700012207031,44.7000007629395,-880.500061035156,-2.94199789283936,-0.523698390357612,0.164009561362914,DLL
14.6666666666667,-5.51667261123657,-0.685471832752228,8.13474464416504,1.69970595836639,0.0076219998300075,0.655492007732391,-981.900024414062,40.5,-882.900024414062,-2.98174475627035,-0.589642302617293,0.0863588656041401,DLL
14.7,-5.48018598556519,-0.875681281089783,8.36263656616211,0.937505960464478,0.92988395690918,3.20886182785034,-979.500061035156,38.7000007629395,-878.100036621094,-2.98248769727072,-0.580668441660339,0.0979982353332074,DLL
14.7333333333333,-4.64697265625,-1.79143822193146,8.20891380310059,-1.78354799747467,-0.0152439996600151,3.13264203071594,-977.100036621094,38.1000022888184,-875.700012207031,-2.93920158157722,-0.511090838420761,0.207908064322284,DLL
14.7666666666667,-4.202552318573,-1.86800050735474,7.54198455810547,-3.62045001983643,-1.02134799957275,-0.396344006061554,-986.700012207031,42.3000030517578,-866.100036621094,-2.92669061146165,-0.495109464599725,0.246419050946656,DLL
14.8,-3.78983378410339,-1.78784930706024,7.57847166061401,-1.64635193347931,-0.701223969459534,2.11129403114319,-974.700012207031,45.3000030517578,-866.100036621094,-2.9418649758867,-0.456486204838499,0.233831697990122,DLL
14.8333333333333,-4.55485868453979,-2.18441820144653,7.81294345855713,-0.365855991840363,-0.152439996600151,0.586893975734711,-967.500061035156,42.3000030517578,-868.500061035156,-2.92797896900439,-0.506640611087872,0.269082454050679,DLL
14.8666666666667,-4.93288516998291,-1.34701800346375,8.46013450622559,1.09756803512573,0.0838419944047928,-0.327746003866196,-969.900024414062,39.9000015258789,-870.900024414062,-2.97583931084543,-0.521413433841885,0.165730212300661,DLL
14.9,-5.1571888923645,-2.07974314689636,8.75741100311279,0.922261953353882,-0.541162014007568,0.0304879993200302,-979.500061035156,41.7000007629395,-856.500061035156,-2.94465206423578,-0.519653523459158,0.225978432728526,DLL
14.9333333333333,-4.24322605133057,-1.60122871398926,8.26513957977295,0.967993974685669,-1.16616594791412,0.777444005012512,-967.500061035156,41.7000007629395,-870.900024414062,-2.96272204412758,-0.468887151308865,0.191286168072982,DLL
14.9666666666667,-4.59433603286743,-1.63711726665497,7.74654960632324,0.0381099991500378,-0.6250039935112,-1.72257196903229,-977.100036621094,41.7000007629395,-870.900024414062,-2.94954770911117,-0.519937769426904,0.208305434713791,DLL
15.0,-4.00875425338745,-2.01873254776001,7.51387214660645,0.541162014007568,0.411587983369827,0.388722002506256,-981.900024414062,41.7000007629395,-866.100036621094,-2.92581592249467,-0.47966371279093,0.257733707339241,DLL
15.0333333333333,-4.6768798828125,-1.72743690013885,7.60658407211304,0.564027965068817,0.442075997591019,-1.6692179441452,-981.900024414062,36.9000015258789,-873.300048828125,-2.93438582154106,-0.535647975893638,0.226717593903292,DLL
15.0666666666667,-5.33364105224609,-0.778183996677399,8.34708499908447,1.98934197425842,0.952749967575073,-1.52439999580383,-974.700012207031,42.9000015258789,-880.500061035156,-2.99029598932721,-0.5653954938634,0.103760744917549,DLL
15.1,-5.32526683807373,-1.3320643901825,8.99128532409668,2.43141794204712,0.274392008781433,1.46342396736145,-965.100036621094,38.1000022888184,-863.700012207031,-2.97219633255619,-0.533972565005521,0.138063657500968,DLL
15.1333333333333,-5.67817115783691,-1.27464270591736,8.84653472900391,1.40244793891907,-0.243903994560242,-1.11281192302704,-969.900024414062,40.5,-882.900024414062,-2.96399234243358,-0.563315341935243,0.141570197875065,DLL
15.1666666666667,-4.44779109954834,-1.24952065944672,7.53600311279297,0.571649968624115,-0.457319974899292,-0.907018005847931,-977.100036621094,38.7000007629395,-861.300048828125,-2.94963662723351,-0.5293097354281,0.162343144186075,DLL
15.2,-4.43164110183716,-1.25968909263611,7.13704204559326,0.228659987449646,0.152439996600151,-0.724089980125427,-977.100036621094,38.1000022888184,-873.300048828125,-2.94110376475823,-0.547100657297506,0.173917350426407,DLL
15.2333333333333,-4.53512001037598,-1.81237316131592,7.55394744873047,-0.442075997591019,-0.632625997066498,0.320124000310898,-984.300048828125,37.5,-861.300048828125,-2.91432105715582,-0.529322670556189,0.230241299847289,DLL
15.2666666666667,-5.09318733215332,-0.574815392494202,8.12816524505615,2.17989206314087,0.487807989120483,-2.44666194915771,-981.900024414062,37.5,-866.100036621094,-2.9785642730421,-0.556853376565615,0.084298109764864,DLL
15.3,-5.13685178756714,-1.64668762683868,8.50798606872559,1.22714197635651,0.3125019967556,2.97257995605469,-967.500061035156,44.1000022888184,-873.300048828125,-2.93624859099777,-0.538248014253255,0.178468085113752,DLL
15.3333333333333,-5.77746295928955,-1.48160016536713,8.53191089630127,0.3125019967556,-0.342989981174469,-1.77592599391937,-984.300048828125,38.1000022888184,-878.100036621094,-2.93308305451474,-0.583177810476581,0.173759393651694,DLL
15.3666666666667,-5.59502935409546,-1.41042113304138,8.0653600692749,-0.388722002506256,-1.09756803512573,-0.594515979290009,-984.300048828125,41.1000022888184,-870.900024414062,-2.93243773022147,-0.596105754189028,0.174225436776148,DLL
15.4,-5.15359973907471,-1.28062415122986,7.47977781295776,-0.175305992364883,-0.937505960464478,-0.884151995182037,-977.100036621094,41.7000007629395,-866.100036621094,-2.93253582692281,-0.594828673285024,0.171032986171152,DLL
15.4333333333333,-4.79232168197632,-2.07495808601379,7.74236249923706,-0.693601965904236,-0.739333987236023,1.15092194080353,-981.900024414062,33.9000015258789,-875.700012207031,-2.8929732261076,-0.543402581317851,0.253746639581072,DLL
15.4666666666667,-4.55665302276611,-1.62814521789551,7.94991827011108,-0.472563982009888,-0.99848198890686,0.533540010452271,-972.300048828125,34.5,-875.700012207031,-2.91972565479653,-0.513202892455991,0.206696337323586,DLL
15.5,-4.38678073883057,-2.22150301933289,8.06117248535156,-0.670735955238342,-0.87652999162674,1.28811800479889,-974.700012207031,42.9000015258789,-878.100036621094,-2.89809345882454,-0.484241658079111,0.264898028611978,DLL
15.5333333333333,-4.26535749435425,-1.92243146896362,7.77167177200317,-0.701223969459534,-0.914639949798584,0.144817993044853,-981.900024414062,39.9000015258789,-866.100036621094,-2.9094895171546,-0.487707121371482,0.245337693555817,DLL
15.5666666666667,-4.46573543548584,-1.67420220375061,7.9134316444397,0.602137982845306,0.129574000835419,-0.37347799539566,-969.900024414062,34.5,-870.900024414062,-2.92375817621842,-0.503504992581142,0.210182844166609,DLL
15.6,-4.65594482421875,-1.14424753189087,7.86139297485352,1.81403601169586,0.655492007732391,0.182927995920181,-974.700012207031,36.9000015258789,-878.100036621094,-2.95210098108455,-0.529272591459069,0.146558985639862,DLL
15.6333333333333,-4.81505107879639,-1.40264523029327,7.73997020721436,0.907018005847931,-0.708845973014832,-0.419209986925125,-981.900024414062,39.3000030517578,-870.900024414062,-2.93438732602545,-0.546686101476074,0.175805797794411,DLL
15.6666666666667,-4.80189180374146,-1.10835897922516,8.04083633422852,1.08232402801514,-0.442075997591019,-0.731711983680725,-984.300048828125,50.7000007629395,-868.500061035156,-2.94934085741257,-0.534303336108767,0.138776491456625,DLL
15.7,-5.13266468048096,-0.952841758728027,7.75731611251831,1.37195992469788,0.167683988809586,0.0304879993200302,-986.700012207031,42.9000015258789,-873.300048828125,-2.95593642919951,-0.578148529261124,0.121145407139159,DLL
15.7333333333333,-5.28698587417603,-1.19449150562286,8.18558692932129,0.762199997901917,0.297257989645004,0.411587983369827,-977.100036621094,36.3000030517578,-878.100036621094,-2.94469303801229,-0.570117695741453,0.141186266665882,DLL
15.7666666666667,-5.25887298583984,-1.88415038585663,7.94154405593872,-1.06708002090454,-0.518296003341675,1.15854394435883,-974.700012207031,33.9000015258789,-878.100036621094,-2.90450269855564,-0.571926991975627,0.226442032115402,DLL
15.8,-5.76131296157837,-1.94276833534241,7.59043407440186,-2.20275783538818,-0.724089980125427,-0.891773998737335,-984.300048828125,44.7000007629395,-868.500061035156,-2.89210298328298,-0.626958806778499,0.252604992780643,DLL
15.8333333333333,-5.75293922424316,-1.89611327648163,8.25497150421143,-1.53202199935913,-0.0838419944047928,2.09605002403259,-979.500061035156,39.3000030517578,-873.300048828125,-2.91641567644393,-0.599203410536404,0.227598911416624,DLL
15.8666666666667,-5.65424537658691,-1.93140363693237,8.5307149887085,-0.175305992364883,-0.137196004390717,2.65245604515076,-977.100036621094,44.7000007629395,-873.300048828125,-2.92813893838542,-0.576881110275914,0.220647322410109,DLL
15.9,-5.29595804214478,-1.76332545280457,7.63828563690186,-0.739333987236023,-1.02897000312805,1.28049600124359,-984.300048828125,43.5,-873.300048828125,-2.93090094203942,-0.591444351341715,0.225916317180024,DLL
15.9333333333333,-4.6290283203125,-2.17963290214539,7.49114274978638,-2.33233189582825,-1.05945801734924,1.59299790859222,-965.100036621094,47.7000007629395,-868.500061035156,-2.91146519704944,-0.539684055882609,0.280065938807275,DLL
15.9666666666667,-4.02550220489502,-1.78545677661896,7.66280937194824,-2.01982998847961,-1.06708002090454,1.29574000835419,-991.500061035156,44.7000007629395,-861.300048828125,-2.94124004463819,-0.477859243661499,0.235309931901124,DLL
16.0,-3.20903706550598,-1.58208811283112,7.10534048080444,0.25152599811554,-1.04421401023865,3.29270386695862,-977.100036621094,47.1000022888184,-868.500061035156,-2.95929373238407,-0.420412673061784,0.217614992066864,DLL
16.0333333333333,-4.43523025512695,-2.1730535030365,7.52164793014526,-0.769822001457214,-0.617381989955902,1.83690190315247,-977.100036621094,44.1000022888184,-868.500061035156,-2.94087139048027,-0.506685621304582,0.274807068756427,DLL
16.0666666666667,-4.94006299972534,-2.06060242652893,8.75442028045654,-1.2347639799118,-0.381099998950958,1.2423859834671,-977.100036621094,33.9000015258789,-861.300048828125,-2.9656498435287,-0.502621791421638,0.235934623352948,DLL
16.1,-5.0531120300293,-1.19090270996094,8.03963947296143,0.548784017562866,-0.419209986925125,1.70732796192169,-979.500061035156,41.1000022888184,-866.100036621094,-3.01176566781051,-0.551365230694291,0.15281862770087,DLL
16.1333333333333,-5.88692331314087,-1.02043187618256,8.99965953826904,1.41006994247437,0.46494197845459,1.21951997280121,-979.500061035156,44.7000007629395,-856.500061035156,-3.03369756131287,-0.575083886644722,0.11314792136924,DLL
16.1666666666667,-6.05858993530273,-1.72504436969757,8.49961185455322,-0.25152599811554,-0.518296003341675,1.41006994247437,-977.100036621094,45.9000015258789,-861.300048828125,-2.99502814145295,-0.606380516320137,0.190953514408777,DLL
16.2,-5.01662492752075,-1.46485209465027,8.14491271972656,-1.05183601379395,-0.594515979290009,1.265251994133,-979.500061035156,40.5,-856.500061035156,-3.00769035342676,-0.549024515621374,0.179224660831546,DLL
16.2333333333333,-4.55485868453979,-1.66582822799683,7.78961610794067,-1.27287399768829,-1.60824191570282,0.853663980960846,-977.100036621094,38.1000022888184,-866.100036621094,-2.99827401948569,-0.519900441713743,0.208826400801876,DLL
16.2666666666667,-4.13615846633911,-1.84287846088409,7.41757106781006,-0.266770005226135,-0.304879993200302,1.02897000312805,-981.900024414062,41.7000007629395,-880.500061035156,-2.98679454981066,-0.497604427573071,0.24064560605112,DLL
16.3,-4.82641553878784,-1.00787091255188,8.19336223602295,0.769822001457214,0.480185985565186,0.160062000155449,-979.500061035156,39.9000015258789,-873.300048828125,-3.04025609166353,-0.527941903670527,0.129344421327466,DLL
16.3333333333333,-4.82402324676514,-1.60421943664551,7.96128273010254,-0.0381099991500378,-0.365855991840363,2.5076379776001,-986.700012207031,43.5,-866.100036621094,-3.01693948805839,-0.535627184936498,0.191214213845089,DLL
16.3666666666667,-5.12369251251221,-1.28241848945618,8.31538391113281,-0.647870004177094,0.213415995240211,1.00610399246216,-965.100036621094,44.7000007629395,-873.300048828125,-3.03902882931622,-0.546680224792603,0.156303165459356,DLL
16.4,-4.94903516769409,-1.64130425453186,8.74066352844238,-1.2576299905777,-0.259148001670837,1.09756803512573,-969.900024414062,38.7000007629395,-868.500061035156,-3.03071547141428,-0.510658323378452,0.184448691518436,DLL
16.4333333333333,-4.40472507476807,-0.973178625106812,8.77475738525391,0.990859985351562,0.0762199983000755,0.830797970294952,-979.500061035156,38.7000007629395,-870.900024414062,-3.06490216183057,-0.466768908508588,0.113634128518016,DLL
16.4666666666667,-4.91075372695923,-2.12041687965393,8.02767658233643,-0.663114011287689,-0.724089980125427,-0.0152439996600151,-972.300048828125,39.3000030517578,-873.300048828125,-3.00179633661025,-0.528645059133877,0.248825907538496,DLL
16.5,-4.56682157516479,-1.04196500778198,7.95589971542358,-0.0381099991500378,0.0685980021953583,-0.952749967575073,-977.100036621094,44.1000022888184,-861.300048828125,-3.05353979220623,-0.518313211533909,0.139282334907713,DLL
16.5333333333333,-4.21212291717529,-1.8847484588623,7.47020769119263,0.800309956073761,0.365855991840363,-0.419209986925125,-972.300048828125,47.1000022888184,-856.500061035156,-3.00174613251297,-0.502197325964186,0.238948696058224,DLL
16.5666666666667,-5.11232805252075,-1.83091568946838,7.99298429489136,0.685979962348938,-0.884151995182037,-1.2423859834671,-974.700012207031,45.3000030517578,-849.300048828125,-3.00366492831406,-0.551832770093961,0.226043552217619,DLL
16.6,-5.13445949554443,-1.36675667762756,8.13354778289795,0.472563982009888,-0.304879993200302,-0.609759986400604,-965.100036621094,41.1000022888184,-866.100036621094,-3.02981178620183,-0.555802755241433,0.171679865539609,DLL
16.6333333333333,-4.83359336853027,-1.66881883144379,8.04263019561768,-0.243903994560242,0.388722002506256,0.746955990791321,-981.900024414062,38.7000007629395,-866.100036621094,-3.0166681424085,-0.534568155639774,0.201911813916293,DLL
16.6666666666667,-4.83957481384277,-0.955234348773956,8.35426330566406,0.403965979814529,0.762199997901917,0.594515979290009,-969.900024414062,51.3000030517578,-866.100036621094,-3.05879330064516,-0.524748185921875,0.119969110201224,DLL
16.7,-4.71635723114014,-1.45827257633209,8.51576137542725,0.358233988285065,0.419209986925125,1.72257196903229,-984.300048828125,43.5,-863.700012207031,-3.04180286840896,-0.502565150881962,0.164189411849244,DLL
16.7333333333333,-4.35388278961182,-1.89910387992859,9.48774337768555,-0.739333987236023,-0.503051996231079,-0.182927995920181,-972.300048828125,46.5,-861.300048828125,-3.02843007582031,-0.429233772352799,0.195890338287921,DLL
16.7666666666667,-3.64448523521423,-1.7304276227951,8.72690582275391,0.617381989955902,-1.22714197635651,-1.05945801734924,-979.500061035156,35.7000007629395,-863.700012207031,-3.02527722616112,-0.39020998700063,0.195321247293456,DLL
16.8,-4.96279239654541,-1.93678689002991,8.83875846862793,1.50153398513794,0.472563982009888,-0.221037998795509,-984.300048828125,44.7000007629395,-858.900024414062,-3.0149102733338,-0.493109419322829,0.211790563766896,DLL
16.8333333333333,-4.45676326751709,-0.811081886291504,8.48824691772461,3.14788603782654,0.960371971130371,-1.47104597091675,-969.900024414062,41.7000007629395,-861.300048828125,-3.05670419278912,-0.48394595340188,0.100267326950794,DLL
16.8666666666667,-4.53332567214966,-1.25011885166168,8.19396018981934,2.4847719669342,-0.182927995920181,-2.16464805603027,-979.500061035156,39.3000030517578,-868.500061035156,-3.02474920837512,-0.498410080571234,0.144981404243118,DLL
16.9,-5.26605081558228,-0.919943869113922,7.58863973617554,1.57775402069092,-0.0381099991500378,-2.88873791694641,-981.900024414062,38.7000007629395,-870.900024414062,-3.02468584015495,-0.59310552916984,0.123441549714901,DLL
16.9333333333333,-5.20444202423096,-0.987534046173096,8.17900657653809,1.15854394435883,1.06708002090454,-1.35671591758728,-984.300048828125,43.5,-866.100036621094,-3.02004975304173,-0.56753025206294,0.12012430607413,DLL
16.9666666666667,-4.8916130065918,-1.15501403808594,7.82311201095581,0.716467976570129,0.0914639979600906,-1.09756803512573,-996.300048828125,40.5,-892.500061035156,-3.00272003951444,-0.555108784480776,0.144161258566514,DLL
17.0,-4.75643301010132,-1.4660484790802,7.40261745452881,-0.495429992675781,-0.617381989955902,-1.01372599601746,-981.900024414062,41.7000007629395,-863.700012207031,-2.97540758584157,-0.560533210760653,0.192508891041484,DLL
17.0333333333333,-4.07335376739502,-1.12151801586151,7.16694927215576,0.114329993724823,0.0,-0.503051996231079,-981.900024414062,41.7000007629395,-878.100036621094,-2.99102340016469,-0.515964116897704,0.15878417573648,DLL
17.0666666666667,-4.51418495178223,-1.85484135150909,8.34469223022461,-0.327746003866196,-0.228659987449646,0.190549999475479,-979.500061035156,46.5,-894.900024414062,-2.96582321233645,-0.488361717246272,0.213708280575014,DLL
17.1,-5.35337972640991,-1.91704821586609,8.95479869842529,-0.297257989645004,-0.350611984729767,0.807931959629059,-979.500061035156,47.7000007629395,-873.300048828125,-2.97074663805056,-0.526176146817863,0.210758488408322,DLL
17.1333333333333,-3.80418920516968,-1.88115966320038,7.41398191452026,0.655492007732391,0.243903994560242,0.121951997280121,-977.100036621094,38.7000007629395,-863.700012207031,-2.95355089711591,-0.466433374734578,0.244886023097699,DLL
17.1666666666667,-4.82342481613159,-1.25131511688232,8.02707862854004,0.769822001457214,0.365855991840363,-0.701223969459534,-977.100036621094,48.3000030517578,-868.500061035156,-2.99005709179323,-0.531548007881041,0.160563365986418,DLL
17.2,-5.0411491394043,-1.30933499336243,8.45774173736572,0.914639949798584,0.0076219998300075,0.167683988809586,-979.500061035156,38.7000007629395,-868.500061035156,-2.9929740547299,-0.532305936054955,0.152483598390682,DLL
17.2333333333333,-4.94604444503784,-1.33026993274689,7.94214248657227,1.02897000312805,0.0838419944047928,0.175305992364883,-981.900024414062,41.1000022888184,-868.500061035156,-2.98623105549332,-0.549306859335283,0.162932318259643,DLL
17.2666666666667,-5.07584142684937,-1.95174050331116,7.87933731079102,-0.548784017562866,-0.617381989955902,0.480185985565186,-972.300048828125,44.1000022888184,-863.700012207031,-2.95065333594352,-0.557302063379802,0.235814970376668,DLL
17.3,-5.58007574081421,-1.69812786579132,7.38646745681763,-0.807931959629059,-0.891773998737335,-1.10518991947174,-981.900024414062,47.1000022888184,-873.300048828125,-2.95344862816956,-0.625860084689858,0.229208667593761,DLL
17.3333333333333,-5.35337972640991,-1.92542219161987,7.51985359191895,-1.12043392658234,0.137196004390717,1.95123195648193,-986.700012207031,36.3000030517578,-868.500061035156,-2.94980899066661,-0.606719991334346,0.248465186574956,DLL
17.3666666666667,-5.06268215179443,-1.51928317546844,8.48944282531738,-0.92988395690918,0.46494197845459,0.6250039935112,-977.100036621094,45.3000030517578,-863.700012207031,-2.98889975853058,-0.537069411155124,0.18274974311456,DLL
17.4,-4.9454460144043,-1.1095552444458,7.89309453964233,0.350611984729767,0.175305992364883,2.87349390983582,-981.900024414062,40.5,-861.300048828125,-3.01861010322308,-0.554657832200913,0.140288601703152,DLL
17.4333333333333,-5.44788599014282,-1.33864402770996,7.99776983261108,0.365855991840363,0.472563982009888,1.60061991214752,-974.700012207031,42.9000015258789,-870.900024414062,-3.01091757828343,-0.589384936522248,0.161314958849687,DLL
17.4666666666667,-4.91852951049805,-1.98404026031494,7.45345973968506,-3.46038794517517,-1.08232402801514,2.14940404891968,-981.900024414062,34.5,-880.500061035156,-2.97319375164218,-0.568602002702789,0.255935058173852,DLL
17.5,-4.64039325714111,-1.3398402929306,8.03485488891602,-2.39330792427063,-0.175305992364883,1.98934197425842,-974.700012207031,47.1000022888184,-861.300048828125,-3.02525862874756,-0.522928835630283,0.175130653197696,DLL
17.5333333333333,-4.41250085830688,-2.68027853965759,9.29155254364014,-0.541162014007568,-0.198172003030777,2.67532205581665,-974.700012207031,44.1000022888184,-863.700012207031,-2.99012814833385,-0.43766967195725,0.270549101088785,DLL
17.5666666666667,-4.18341207504272,-2.47451758384705,9.11330604553223,0.564027965068817,-1.50915598869324,-0.518296003341675,-965.100036621094,35.1000022888184,-856.500061035156,-2.99138652543689,-0.416360920481201,0.26480239500421,DLL
