seconds,sensor_accX_m_s_,sensor_accY_m_s_,sensor_accZ_m_s_,sensor_gyroX___s_,sensor_gyroY___s_,sensor_gyroZ___s_,sensor_magX__T_,sensor_magY__T_,sensor_magZ__T_,sensor_yaw___,sensor_pitch___,sensor_roll___,label5
0.0,-1.12391066551208,-1.11733102798462,9.44288349151611,0.213415995240211,-0.426831990480423,0.182927995920181,-1077.90002441406,0.300000011920929,-926.100036621094,2.99870332318548,-0.116960114391591,0.117353610552439,ST
0.0333333333333333,-1.10776078701019,-1.12929391860962,9.53499698638916,0.259148001670837,-0.442075997591019,0.221037998795509,-1082.70007324219,-1.5,-926.100036621094,2.99657154506952,-0.114148671547333,0.117380874071083,ST
0.0666666666666667,-1.08263874053955,-1.12510693073273,9.40041446685791,0.381099998950958,-0.381099998950958,0.289635986089706,-1065.90002441406,2.70000004768372,-930.900024414062,2.99412856254632,-0.113259527024751,0.118387090955786,ST
0.1,-1.16099548339844,-1.04256319999695,9.42374229431152,0.358233988285065,-0.221037998795509,0.388722002506256,-1070.70007324219,-0.300000011920929,-938.100036621094,2.98993277801519,-0.121515737604173,0.109492763694262,ST
0.133333333333333,-1.13228464126587,-1.08742392063141,9.49492168426514,0.358233988285065,-0.182927995920181,0.510673999786377,-1080.30004882812,1.5,-935.700012207031,2.98622177671526,-0.117720286359296,0.113286405568518,ST
0.166666666666667,-1.12690138816833,-1.08024621009827,9.4907341003418,0.37347799539566,-0.297257989645004,0.472563982009888,-1075.5,-0.300000011920929,-933.300048828125,2.9822003453608,-0.117011374909821,0.112580061390945,ST
0.2,-1.05572235584259,-1.06589078903198,9.42015361785889,0.37347799539566,-0.304879993200302,0.457319974899292,-1075.5,0.300000011920929,-928.500061035156,2.97829165573448,-0.110479586498827,0.111925904366452,ST
0.233333333333333,-1.08981645107269,-1.07426476478577,9.44527530670166,0.3125019967556,-0.243903994560242,0.358233988285065,-1063.5,-0.300000011920929,-928.500061035156,2.97529352628812,-0.113785513632293,0.112625760905733,ST
0.266666666666667,-1.15022897720337,-1.08323693275452,9.43331241607666,0.297257989645004,-0.152439996600151,0.388722002506256,-1082.70007324219,-3.90000009536743,-926.100036621094,2.97216996182553,-0.120349005486275,0.11372414765129,ST
0.3,-1.17535090446472,-1.05931115150452,9.43510723114014,0.297257989645004,-0.182927995920181,0.434453994035721,-1068.30004882812,4.5,-926.100036621094,2.96829967671709,-0.122928184348889,0.111195097195371,ST
0.333333333333333,-1.18013608455658,-1.04615211486816,9.46321964263916,0.342989981174469,-0.327746003866196,0.457319974899292,-1070.70007324219,0.300000011920929,-911.700012207031,2.9642376214213,-0.122842327324774,0.109402283727963,ST
0.366666666666667,-1.12391066551208,-1.0515353679657,9.46621036529541,0.320124000310898,-0.396344006061554,0.419209986925125,-1061.10009765625,7.50000047683716,-926.100036621094,2.96068420880976,-0.116867164977319,0.109974941529592,ST
0.4,-1.12929391860962,-1.0335910320282,9.42374229431152,0.282013982534409,-0.320124000310898,0.419209986925125,-1077.90002441406,0.300000011920929,-926.100036621094,2.95650776510803,-0.118084697548556,0.1086583864924,ST
0.433333333333333,-1.13049018383026,-1.05213344097137,9.46979999542236,0.320124000310898,-0.304879993200302,0.365855991840363,-1073.10009765625,-0.900000035762787,-935.700012207031,2.9534912613031,-0.11763839608068,0.110006947818807,ST
0.466666666666667,-1.13108837604523,-1.04136693477631,9.49013614654541,0.335367977619171,-0.335367977619171,0.396344006061554,-1082.70007324219,-3.30000019073486,-921.300048828125,2.94997542555517,-0.117418547016221,0.108623669520618,ST
0.5,-1.15920102596283,-1.04375946521759,9.377685546875,0.3125019967556,-0.327746003866196,0.388722002506256,-1075.5,1.5,-916.500061035156,2.94676802308632,-0.121739091321363,0.11020749247215,ST
0.533333333333333,-1.08682572841644,-1.08144247531891,9.39742469787598,0.259148001670837,-0.342989981174469,0.472563982009888,-1075.5,0.300000011920929,-940.500061035156,2.94311095531082,-0.113909960531822,0.114011251439221,ST
0.566666666666667,-1.07904994487762,-1.08682572841644,9.53619384765625,0.175305992364883,-0.426831990480423,0.320124000310898,-1082.70007324219,-3.30000019073486,-921.300048828125,2.94003291687898,-0.11128456520659,0.113103657287503,ST
0.6,-1.08682572841644,-1.05990934371948,9.52841758728027,0.266770005226135,-0.46494197845459,0.320124000310898,-1077.90002441406,-3.30000019073486,-930.900024414062,2.93679934543626,-0.112133293248055,0.11025004866006,ST
0.633333333333333,-1.10297560691833,-1.05691862106323,9.48056602478027,0.320124000310898,-0.274392008781433,0.449698001146317,-1080.30004882812,-4.5,-938.100036621094,2.93303223511434,-0.114717332957817,0.110369231419795,ST
0.666666666666667,-1.15860295295715,-1.04196500778198,9.42314434051514,0.289635986089706,-0.0990860015153885,0.541162014007568,-1085.10009765625,0.300000011920929,-926.100036621094,2.92798991672535,-0.121529748502857,0.109506100878878,ST
0.7,-1.09998488426208,-1.05691862106323,9.42434024810791,0.198172003030777,-0.175305992364883,0.556405961513519,-1085.10009765625,-4.5,-909.300048828125,2.92319370831044,-0.115287753999679,0.111216782281308,ST
0.733333333333333,-1.12690138816833,-1.03299295902252,9.43570518493652,0.266770005226135,-0.175305992364883,0.571649968624115,-1077.90002441406,-2.10000014305115,-918.900024414062,2.91781470171248,-0.117966742357452,0.108460019920918,ST
0.766666666666667,-1.13108837604523,-0.998300611972809,9.36213397979736,0.419209986925125,-0.236281991004944,0.289635986089706,-1075.5,-2.10000014305115,-921.300048828125,2.91069443159077,-0.119204327528233,0.105433219949692,ST
0.8,-1.19090270996094,-1.00248765945435,9.46142578125,0.320124000310898,-0.160062000155449,0.358233988285065,-1068.30004882812,2.10000014305115,-930.900024414062,2.90777405927319,-0.124296140890121,0.104922611352647,ST
0.833333333333333,-1.12211620807648,-1.00727272033691,9.49013614654541,0.282013982534409,-0.167683988809586,0.419209986925125,-1070.70007324219,2.10000014305115,-914.100036621094,2.90436290503144,-0.116846569296026,0.105161108371798,ST
0.866666666666667,-1.10417187213898,-1.04196500778198,9.4913330078125,0.266770005226135,-0.182927995920181,0.37347799539566,-1082.70007324219,6.30000019073486,-921.300048828125,2.90169160035266,-0.114886837831914,0.108789462517068,ST
0.9,-1.08622765541077,-1.00188946723938,9.48953819274902,0.259148001670837,-0.129574000835419,0.304879993200302,-1065.90002441406,-6.90000009536743,-926.100036621094,2.89875842813236,-0.113180182254984,0.104683598047937,ST
0.933333333333333,-1.09938681125641,-1.04375946521759,9.44527530670166,0.259148001670837,-0.0609759986400604,0.25152599811554,-1092.30004882812,-0.900000035762787,-914.100036621094,2.89736549217535,-0.115116550262674,0.109543351653276,ST
0.966666666666667,-1.1657806634903,-1.0216281414032,9.49791240692139,0.221037998795509,0.0762199983000755,0.37347799539566,-1080.30004882812,-2.10000014305115,-926.100036621094,2.89396833142864,-0.121627836333144,0.106692703973852,ST
1.0,-1.24952065944672,-0.985141456127167,9.449462890625,0.190549999475479,0.144817993044853,0.381099998950958,-1077.90002441406,5.10000038146973,-916.500061035156,2.89039128931363,-0.131077007921315,0.10346615827474,ST
1.03333333333333,-1.15680849552155,-1.02043187618256,9.37290000915527,0.137196004390717,0.266770005226135,0.487807989120483,-1065.90002441406,5.70000028610229,-935.700012207031,2.88721064166638,-0.122660809102214,0.108094259513431,ST
1.06666666666667,-1.251913189888,-1.04316139221191,9.55114650726318,0.0609759986400604,0.274392008781433,0.37347799539566,-1082.70007324219,-2.70000004768372,-942.900024414062,2.88441548809157,-0.130098194818384,0.108601664768076,ST
1.1,-1.25310957431793,-0.973178625106812,9.4793701171875,0.160062000155449,0.205793991684914,0.381099998950958,-1075.5,-4.5,-928.500061035156,2.88066559659535,-0.131174347121264,0.101958961586505,ST
1.13333333333333,-1.25011885166168,-0.988132178783417,9.34418964385986,0.182927995920181,0.205793991684914,0.419209986925125,-1070.70007324219,0.300000011920929,-923.700012207031,2.87787912663486,-0.132697169436985,0.104938053123001,ST
1.16666666666667,-1.30036282539368,-1.01504862308502,9.3836669921875,0.0914639979600906,0.160062000155449,0.434453994035721,-1075.5,1.5,-926.100036621094,2.87446594084174,-0.137265042474109,0.10749011777024,ST
1.2,-1.32129776477814,-1.06110560894012,9.44527530670166,0.0381099991500378,0.0076219998300075,0.403965979814529,-1075.5,4.5,-923.700012207031,2.87166072897104,-0.13821946685639,0.111699253391514,ST
1.23333333333333,-1.35419571399689,-1.0634982585907,9.40699481964111,0.129574000835419,-0.0685980021953583,0.419209986925125,-1068.30004882812,-0.300000011920929,-918.900024414062,2.86826537687378,-0.142034722418586,0.112242652147922,ST
1.26666666666667,-1.35838270187378,-1.05931115150452,9.42314434051514,0.106707997620106,0.0076219998300075,0.320124000310898,-1068.30004882812,-1.5,-930.900024414062,2.86552492088262,-0.142358410461865,0.111681399912394,ST
1.3,-1.37752330303192,-1.06768524646759,9.38845252990723,0.129574000835419,0.0304879993200302,0.320124000310898,-1065.90002441406,2.10000014305115,-935.700012207031,2.86317402505511,-0.144875362682217,0.11292742719723,ST
1.33333333333333,-1.41101932525635,-1.11733102798462,9.341796875,0.0990860015153885,0.144817993044853,0.304879993200302,-1065.90002441406,-2.70000004768372,-930.900024414062,2.86171564807839,-0.149168659974443,0.118777843556334,ST
1.36666666666667,-1.41580438613892,-1.1496307849884,9.36871337890625,0.0685980021953583,0.0990860015153885,0.350611984729767,-1065.90002441406,-3.30000019073486,-923.700012207031,2.85922592826123,-0.149131547669442,0.121886485166426,ST
1.4,-1.45827257633209,-1.16817319393158,9.39742469787598,0.0762199983000755,0.0152439996600151,0.381099998950958,-1077.90002441406,-4.5,-918.900024414062,2.85634483495625,-0.152891465000289,0.123435361952096,ST
1.43333333333333,-1.50133883953094,-1.17893981933594,9.39084434509277,0.106707997620106,0.0457319989800453,0.457319974899292,-1080.30004882812,-6.90000009536743,-930.900024414062,2.85239480664544,-0.157490571244789,0.124576512210577,ST
1.46666666666667,-1.50672209262848,-1.19090270996094,9.41477012634277,0.152439996600151,0.0914639979600906,0.510673999786377,-1075.5,0.900000035762787,-928.500061035156,2.84850823476126,-0.157727880527794,0.125419182373961,ST
1.5,-1.50193703174591,-1.24114668369293,9.36751747131348,0.0914639979600906,0.106707997620106,0.396344006061554,-1075.5,0.900000035762787,-938.100036621094,2.84634514644305,-0.157901759929244,0.131447680094623,ST
1.53333333333333,-1.56952714920044,-1.28600740432739,9.37529277801514,0.0228659994900227,0.167683988809586,0.236281991004944,-1077.90002441406,-2.10000014305115,-928.500061035156,2.84533840194145,-0.164690861736135,0.136206197809714,ST
1.56666666666667,-1.68377244472504,-1.34163463115692,9.3238525390625,0.0457319989800453,0.205793991684914,0.221037998795509,-1065.90002441406,9.30000019073486,-942.900024414062,2.84476779855778,-0.177273439980086,0.142764612464214,ST
1.6,-1.66283750534058,-1.41580438613892,9.27061748504639,0.0152439996600151,0.221037998795509,0.205793991684914,-1063.5,3.30000019073486,-935.700012207031,2.84486598905614,-0.175925599645452,0.151447779068778,ST
1.63333333333333,-1.7286331653595,-1.41341185569763,9.36273193359375,-0.0533539988100529,0.190549999475479,0.182927995920181,-1075.5,0.900000035762787,-935.700012207031,2.84320989701355,-0.180936267664547,0.149878483920344,ST
1.66666666666667,-1.70590376853943,-1.42776727676392,9.36332988739014,0.0990860015153885,-0.0533539988100529,0.396344006061554,-1070.70007324219,-0.300000011920929,-926.100036621094,2.84016607808454,-0.178216243854008,0.151017879640733,ST
1.7,-1.73581087589264,-1.44152450561523,9.41656494140625,0.152439996600151,-0.0762199983000755,0.495429992675781,-1061.10009765625,9.30000019073486,-916.500061035156,2.83610090129098,-0.180230862142113,0.15147825951682,ST
1.73333333333333,-1.86441159248352,-1.45647811889648,9.29813289642334,0.0685980021953583,0.144817993044853,0.564027965068817,-1061.10009765625,-0.300000011920929,-930.900024414062,2.83221425388391,-0.195937820374783,0.155067474930318,ST
1.76666666666667,-1.86800050735474,-1.53902184963226,9.25327205657959,-0.0914639979600906,0.297257989645004,0.480185985565186,-1068.30004882812,-5.70000028610229,-930.900024414062,2.83035443856675,-0.197213563639227,0.164800662329909,ST
1.8,-1.93917953968048,-1.60960268974304,9.20063495635986,-0.25152599811554,0.25152599811554,0.198172003030777,-1058.70007324219,-2.70000004768372,-935.700012207031,2.83022143951766,-0.205186895601387,0.17356502635737,ST
1.83333333333333,-1.9206371307373,-1.77768087387085,9.32086181640625,-0.411587983369827,0.205793991684914,-0.152439996600151,-1053.90002441406,3.90000009536743,-930.900024414062,2.83424889805038,-0.2000269581018,0.189203855709267,ST
1.86666666666667,-1.87338376045227,-1.75614774227142,9.46680927276611,-0.342989981174469,-0.205793991684914,-0.525918006896973,-1065.90002441406,-4.5,-935.700012207031,2.83676589306102,-0.191668565667811,0.184194230607958,ST
1.9,-1.95233869552612,-1.66762256622314,9.42374229431152,-0.0609759986400604,-0.716467976570129,-0.533540010452271,-1068.30004882812,5.10000038146973,-942.900024414062,2.83833366347359,-0.199827446097632,0.175416110602472,ST
1.93333333333333,-2.00198459625244,-1.44870233535767,9.4075927734375,0.0914639979600906,-1.05183601379395,-0.213415995240211,-1065.90002441406,2.10000014305115,-935.700012207031,2.83431385367908,-0.205419623790505,0.1527076047236,ST
1.96666666666667,-1.86321532726288,-1.34342908859253,9.37888145446777,0.137196004390717,-1.34147191047668,0.25152599811554,-1065.90002441406,2.10000014305115,-921.300048828125,2.8286697360166,-0.191953419374879,0.141910015923446,ST
2.0,-1.98164761066437,-1.06708705425262,9.02238845825195,0.205793991684914,-1.12805593013763,0.663114011287689,-1051.5,1.5,-935.700012207031,2.81694371110904,-0.212900632661433,0.11710579070908,ST
2.03333333333333,-2.15989422798157,-1.20107114315033,8.96078014373779,0.0228659994900227,0.0228659994900227,1.12043392658234,-1058.70007324219,1.5,-926.100036621094,2.81112941197036,-0.234750670726384,0.13270207377483,ST
2.06666666666667,-2.11981868743896,-1.33326065540314,9.03973484039307,-0.0304879993200302,0.830797970294952,0.884151995182037,-1073.10009765625,-1.5,-926.100036621094,2.80780178344708,-0.229629678413728,0.146145793998478,ST
2.1,-1.89013183116913,-1.30096101760864,8.86926364898682,0.190549999475479,1.12805593013763,0.167683988809586,-1065.90002441406,2.70000004768372,-918.900024414062,2.80794895900377,-0.209849346833376,0.145312051180158,ST
2.13333333333333,-1.92302966117859,-1.39427125453949,9.11031532287598,0.335367977619171,0.983237981796265,-0.3125019967556,-1063.5,8.70000076293945,-923.700012207031,2.81366987916149,-0.207322473822619,0.151432406507257,ST
2.16666666666667,-2.16408133506775,-1.251913189888,9.27719783782959,0.670735955238342,0.510673999786377,-0.716467976570129,-1063.5,-2.70000004768372,-930.900024414062,2.81761224963548,-0.227848849116459,0.133323609295662,ST
2.2,-2.27234506607056,-1.11314404010773,9.49492168426514,0.815553963184357,-0.0076219998300075,-0.861285984516144,-1053.90002441406,4.5,-928.500061035156,2.82238335380522,-0.233163539268988,0.115677226589527,ST
2.23333333333333,-2.21552157402039,-0.937888205051422,8.85431003570557,0.78506600856781,-0.274392008781433,-0.846041977405548,-1063.5,3.30000019073486,-930.900024414062,2.82818745846519,-0.243219483065034,0.104539876633665,ST
2.26666666666667,-2.54091143608093,-0.837998330593109,8.82500171661377,0.327746003866196,0.37347799539566,-0.320124000310898,-1063.5,-3.30000019073486,-945.300048828125,2.82925284987401,-0.279654774433243,0.0943039431740874,ST
2.3,-2.46913409233093,-0.849961161613464,8.85730075836182,-0.0685980021953583,0.396344006061554,0.144817993044853,-1061.10009765625,-3.30000019073486,-940.500061035156,2.8285653990012,-0.271411872927249,0.0957339737158605,ST
2.33333333333333,-2.46076011657715,-0.787156164646149,9.09895133972168,-0.228659987449646,-0.0838419944047928,0.350611984729767,-1063.5,5.70000028610229,-940.500061035156,2.82264929833926,-0.26311564510189,0.0865497655902357,ST
2.36666666666667,-2.37941265106201,-0.750071287155151,8.90694713592529,-0.144817993044853,-0.579271972179413,0.381099998950958,-1061.10009765625,4.5,-928.500061035156,2.81787267700928,-0.259220213721761,0.0840720396254675,ST
2.4,-2.33275747299194,-0.69264954328537,8.97573375701904,-0.198172003030777,-0.0762199983000755,0.571649968624115,-1056.30004882812,3.90000009536743,-933.300048828125,2.81038471701873,-0.25350022028587,0.0771105479874116,ST
2.43333333333333,-2.143146276474,-0.633433401584625,9.27540302276611,-0.190549999475479,-0.167683988809586,0.472563982009888,-1053.90002441406,2.70000004768372,-933.300048828125,2.80386136130844,-0.226393574403087,0.0683453851213833,ST
2.46666666666667,-2.00976037979126,-0.695042133331299,9.44527530670166,-0.274392008781433,-0.342989981174469,0.365855991840363,-1051.5,0.900000035762787,-923.700012207031,2.80124176178365,-0.208597679020292,0.0737750806176037,ST
2.5,-1.79203629493713,-1.01205790042877,9.40460205078125,-0.807931959629059,-0.297257989645004,-0.274392008781433,-1065.90002441406,-1.5,-923.700012207031,2.80881570109162,-0.186722863251702,0.108604580862284,ST
2.53333333333333,-2.24483060836792,-1.33326065540314,10.1995344161987,-1.21951997280121,-0.579271972179413,-1.09756803512573,-1053.90002441406,5.70000028610229,-935.700012207031,2.81995559818055,-0.213545937250419,0.132433063716736,ST
2.56666666666667,-2.96977996826172,-1.7184647321701,10.4675016403198,-0.693601965904236,-1.47866797447205,-1.12043392658234,-1049.10009765625,3.90000009536743,-942.900024414062,2.83335094858433,-0.269973652596232,0.164267977540919,ST
2.6,-2.90278792381287,-2.1252019405365,10.2557592391968,-0.6250039935112,-1.37195992469788,-0.990859985351562,-1058.70007324219,-0.300000011920929,-933.300048828125,2.84876683605213,-0.267675556049731,0.205648420214634,ST
2.63333333333333,-2.68027853965759,-1.8967113494873,8.77236461639404,-0.510673999786377,-1.11281192302704,-0.724089980125427,-1046.70007324219,5.10000038146973,-928.500061035156,2.85408571343293,-0.288018812282092,0.214063870625683,ST
2.66666666666667,-1.47741317749023,-1.82134532928467,6.97075796127319,-0.884151995182037,-0.46494197845459,-0.457319974899292,-1061.10009765625,2.10000014305115,-935.700012207031,2.8656386678612,-0.201483840737309,0.257125762673449,ST
2.7,-0.948056638240814,-1.30454981327057,5.49095249176025,-0.983237981796265,-0.388722002506256,-0.937505960464478,-1053.90002441406,6.30000019073486,-926.100036621094,2.86748997158355,-0.165443691971272,0.235247294903249,ST
2.73333333333333,-0.821250319480896,-1.42238402366638,5.22238636016846,-1.34909391403198,0.121951997280121,-0.243903994560242,-1065.90002441406,8.70000076293945,-930.900024414062,2.87322197366243,-0.150696290385308,0.268286748470885,ST
2.76666666666667,-1.48459088802338,-1.82433605194092,6.39355039596558,-1.47104597091675,0.266770005226135,-0.967993974685669,-1065.90002441406,6.30000019073486,-938.100036621094,2.88160461719162,-0.21953000830097,0.280886181074591,ST
2.8,-2.51937818527222,-2.13058519363403,7.16993999481201,-1.22714197635651,0.617381989955902,-1.00610399246216,-1058.70007324219,7.50000047683716,-926.100036621094,2.89070718880432,-0.325156521069438,0.291629017644535,ST
2.83333333333333,-3.80897450447083,-3.07924008369446,9.54396915435791,-1.51677799224854,1.86738991737366,-0.739333987236023,-1049.10009765625,4.5,-926.100036621094,2.90453422426199,-0.365588849182854,0.315533347903266,ST
2.86666666666667,-5.96169090270996,-3.19228911399841,13.2704000473022,-1.15092194080353,1.55488801002502,-1.92074394226074,-1058.70007324219,4.5,-923.700012207031,2.89139960704293,-0.413606812933653,0.239864423511184,ST
2.9,-6.47968292236328,-3.63850378990173,15.5337734222412,-0.907018005847931,0.693601965904236,-1.74543797969818,-1039.5,4.5,-930.900024414062,2.90057420895318,-0.386333242337941,0.233003426135827,ST
2.93333333333333,-6.1770224571228,-3.12948393821716,16.2359924316406,0.0990860015153885,-2.11129403114319,-1.76068198680878,-1061.10009765625,0.300000011920929,-923.700012207031,2.89633289198551,-0.353400686894682,0.191200390906811,ST
2.96666666666667,-3.14025068283081,-3.06428647041321,12.2409963607788,-0.137196004390717,-2.46190595626831,-1.92836594581604,-1063.5,0.300000011920929,-930.900024414062,2.92287540346392,-0.239201077346595,0.245944265226533,ST
3.0,-2.59713673591614,-3.44769597053528,8.72929859161377,-0.701223969459534,-0.632625997066498,-2.0731840133667,-1053.90002441406,2.70000004768372,-930.900024414062,2.96968440221084,-0.267565153340147,0.377976641762793,ST
3.03333333333333,-2.54629468917847,-4.00456714630127,6.47011232376099,-0.792688012123108,0.121951997280121,-1.62348592281342,-1056.30004882812,8.70000076293945,-930.900024414062,3.03223490545665,-0.32153546551449,0.556161527293534,ST
3.06666666666667,-1.89790761470795,-4.72891855239868,6.97494506835938,-0.983237981796265,-0.830797970294952,-0.617381989955902,-1056.30004882812,3.90000009536743,-930.900024414062,3.04169550565353,-0.219971682316223,0.597434106306009,ST
3.1,0.132787734270096,-5.94494295120239,7.45345973968506,-0.754577994346619,-2.10367202758789,-0.685979962348938,-1053.90002441406,8.10000038146973,-935.700012207031,3.0424931699172,0.0172436996951913,0.674529405283681,ST
3.13333333333333,0.492869794368744,-6.03765535354614,9.34718036651611,1.02897000312805,-3.38416790962219,-0.739333987236023,-1077.90002441406,5.10000038146973,-923.700012207031,3.03451001286902,0.0498453514584944,0.572073317579027,ST
3.16666666666667,0.65436840057373,-4.42506170272827,8.73348522186279,2.86587190628052,-3.32319188117981,2.56099200248718,-1065.90002441406,8.10000038146973,-928.500061035156,3.00330550975095,0.0698897527009904,0.464566442533224,ST
3.2,0.906784772872925,-3.9477436542511,8.83098316192627,2.44666194915771,-1.45580196380615,3.88721990585327,-1075.5,0.300000011920929,-930.900024414062,2.96968273273085,0.0929829002128901,0.41690122513235,ST
3.23333333333333,-0.111852735280991,-2.60551071166992,8.10423946380615,2.46952795982361,-0.716467976570129,2.68294382095337,-1075.5,11.1000003814697,-938.100036621094,2.94785839424728,-0.0132344474672704,0.306829652868458,ST
3.26666666666667,-1.29557764530182,-2.10067820549011,7.5611252784729,2.59910202026367,-0.289635986089706,2.31708788871765,-1082.70007324219,2.10000014305115,-914.100036621094,2.92742263436744,-0.16382557777983,0.265901447911869,ST
3.3,-1.43255245685577,-2.28610253334045,8.09227657318115,1.43293595314026,-0.0838419944047928,1.89025592803955,-1082.70007324219,5.70000028610229,-930.900024414062,2.91443540870629,-0.169475123503643,0.272265860665938,ST
3.33333333333333,-2.70480251312256,-1.61139714717865,7.78662538528442,1.05945801734924,0.419209986925125,3.14026403427124,-1092.30004882812,3.30000019073486,-928.500061035156,2.87203721103936,-0.329536439171014,0.20050966517494,ST
3.36666666666667,-2.52236890792847,-1.58567702770233,8.03904151916504,0.25152599811554,1.63110792636871,4.93905591964722,-1070.70007324219,3.30000019073486,-923.700012207031,2.83268626515931,-0.30313210556175,0.191852474852631,ST
3.4,-2.22628808021545,-1.68616509437561,7.93436670303345,0.137196004390717,0.396344006061554,2.87349390983582,-1082.70007324219,3.90000009536743,-921.300048828125,2.81276585875636,-0.26961541557323,0.207822317453708,ST
3.43333333333333,-2.62225890159607,-1.69752979278564,8.584547996521,0.114329993724823,0.160062000155449,2.45428395271301,-1065.90002441406,5.10000038146973,-918.900024414062,2.78947553357832,-0.292189318335661,0.1938127134582,ST
3.46666666666667,-1.44750595092773,-2.02531218528748,8.15508079528809,0.617381989955902,0.708845973014832,2.54574799537659,-1073.10009765625,9.30000019073486,-928.500061035156,2.78192304487771,-0.173147066338717,0.241524199302993,ST
3.5,-1.57311606407166,-2.00916218757629,9.23532772064209,0.152439996600151,0.388722002506256,1.12043392658234,-1058.70007324219,4.5,-923.700012207031,2.76808480499601,-0.166018609113337,0.213686141394028,ST
3.53333333333333,-1.76332545280457,-1.89431881904602,9.25087928771973,0.403965979814529,1.29574000835419,1.39482593536377,-1056.30004882812,6.90000009536743,-930.900024414062,2.75709863435818,-0.187260511757505,0.200940688338591,ST
3.56666666666667,-1.9188426733017,-1.77289581298828,9.44228458404541,0.0533539988100529,1.50915598869324,1.41006994247437,-1065.90002441406,8.10000038146973,-926.100036621094,2.74480867954824,-0.200144675858239,0.185154573393647,ST
3.6,-2.17963290214539,-1.86740231513977,9.43570518493652,-0.25152599811554,1.15854394435883,1.08232402801514,-1058.70007324219,5.10000038146973,-938.100036621094,2.73943063994671,-0.225128487194574,0.195462846369797,ST
3.63333333333333,-2.5456964969635,-2.24243807792664,8.59471607208252,-1.17378795146942,2.0579400062561,1.2576299905777,-1053.90002441406,12.3000001907349,-933.300048828125,2.74611735972186,-0.283005828524345,0.256761771936339,ST
3.66666666666667,-2.7903368473053,-2.89321756362915,8.63419342041016,-1.28811800479889,2.53050398826599,0.762199997901917,-1051.5,3.30000019073486,-926.100036621094,2.76301705369314,-0.301917202939639,0.325485558638797,ST
3.7,-3.35019874572754,-3.20724272727966,8.3040189743042,-1.01372599601746,2.54574799537659,0.198172003030777,-1056.30004882812,14.1000003814697,-926.100036621094,2.78059524134853,-0.364067181083917,0.370719403651613,ST
3.73333333333333,-3.78504872322083,-2.8322069644928,8.89618015289307,-0.221037998795509,1.91312193870544,0.983237981796265,-1037.10009765625,11.7000007629395,-928.500061035156,2.75424368191157,-0.388825388121193,0.308471442145992,ST
3.76666666666667,-2.74727058410645,-2.71437287330627,8.24599933624268,0.46494197845459,0.868907988071442,0.87652999162674,-1037.10009765625,12.3000001907349,-918.900024414062,2.75376243403116,-0.308604390890801,0.316858959444103,ST
3.8,-2.60551071166992,-2.16168880462646,8.22087669372559,0.945127964019775,0.381099998950958,0.137196004390717,-1032.30004882812,5.70000028610229,-930.900024414062,2.73762190367965,-0.298157741928662,0.255612235461483,ST
3.83333333333333,-2.57919239997864,-1.93379616737366,7.90625381469727,1.06708002090454,0.236281991004944,0.198172003030777,-1034.70007324219,14.1000003814697,-935.700012207031,2.73401986525283,-0.307331214481324,0.237986733321005,ST
3.86666666666667,-2.4996395111084,-1.53244233131409,7.68254852294922,0.571649968624115,0.0152439996600151,1.14329993724823,-1044.30004882812,6.90000009536743,-933.300048828125,2.71339977614195,-0.309278896990034,0.19537025481081,ST
3.9,-2.08632278442383,-1.23995041847229,8.18319416046143,0.205793991684914,-0.503051996231079,1.60824191570282,-1041.90002441406,14.1000003814697,-933.300048828125,2.68607273230144,-0.246559001598781,0.149343661393203,ST
3.93333333333333,-1.17654716968536,-1.35898077487946,8.2741117477417,0.129574000835419,-1.31098401546478,0.685979962348938,-1041.90002441406,9.30000019073486,-935.700012207031,2.68072022905365,-0.137512245754211,0.162329030457707,ST
3.96666666666667,-1.37273812294006,-1.63711726665497,9.54995059967041,0.480185985565186,-2.0731840133667,-1.16616594791412,-1051.5,13.5000009536743,-926.100036621094,2.68931714508408,-0.136831761389466,0.16911710991668,ST
4.0,-1.05632042884827,-2.12041687965393,10.1319437026978,0.739333987236023,-2.53050398826599,-0.853663980960846,-1039.5,7.50000047683716,-947.700012207031,2.69730031487422,-0.0971289793623022,0.205010841375654,ST
4.03333333333333,-0.132189601659775,-2.2113344669342,9.91601371765137,0.724089980125427,-2.67532205581665,-0.846041977405548,-1049.10009765625,6.90000009536743,-921.300048828125,2.70035046558809,-0.008351904638725,0.218124672622372,ST
4.06666666666667,0.199181616306305,-2.53552794456482,10.3867530822754,1.02897000312805,-1.60061991214752,-1.2423859834671,-1051.5,8.70000076293945,-933.300048828125,2.70731923291672,0.021777932623415,0.23755445362631,ST
4.1,0.409129798412323,-3.00985550880432,9.41417217254639,0.823175966739655,-0.243903994560242,-1.54726600646973,-1049.10009765625,5.70000028610229,-926.100036621094,2.7169720020933,0.04254099763697,0.307731173815159,ST
4.13333333333333,-0.887046039104462,-3.28021597862244,9.40220928192139,1.00610399246216,1.30336201190948,-1.22714197635651,-1053.90002441406,9.30000019073486,-933.300048828125,2.7317733182276,-0.0899643651266004,0.334097869312973,ST
4.16666666666667,-1.52526462078094,-3.35857272148132,9.00205135345459,1.34147191047668,1.59299790859222,0.144817993044853,-1058.70007324219,7.50000047683716,-930.900024414062,2.73955043402596,-0.159955790175648,0.354819571209115,ST
4.2,-2.48289155960083,-2.83759021759033,9.48774337768555,1.82165801525116,1.44817996025085,0.67835795879364,-1044.30004882812,8.70000076293945,-938.100036621094,2.72764078432845,-0.248202001130408,0.287498700065825,ST
4.23333333333333,-2.01215291023254,-2.49844312667847,9.33342266082764,2.37044191360474,0.556405961513519,1.04421401023865,-1051.5,5.70000028610229,-923.700012207031,2.71758980735893,-0.20677509063002,0.25713871145473,ST
4.26666666666667,-1.97925508022308,-2.24901747703552,9.28258037567139,2.53812599182129,0.533540010452271,1.40244793891907,-1049.10009765625,-0.300000011920929,-918.900024414062,2.70664337890553,-0.205811097316577,0.232882147004449,ST
4.3,-2.32916879653931,-1.69812786579132,9.09954929351807,2.78965187072754,0.937505960464478,2.05031800270081,-1027.5,3.30000019073486,-916.500061035156,2.68480251776386,-0.248651800216271,0.178944389515003,ST
4.33333333333333,-2.93329310417175,-1.40085089206696,9.16713905334473,2.22562384605408,1.75305998325348,3.30794787406921,-1041.90002441406,0.300000011920929,-935.700012207031,2.65658576954591,-0.310072609140148,0.146160131870604,ST
4.36666666666667,-3.4973418712616,-0.779380261898041,9.18508338928223,2.01982998847961,1.44055795669556,3.62045001983643,-1034.70007324219,0.900000035762787,-928.500061035156,2.61220750801425,-0.365502278422228,0.0789695052042501,ST
4.4,-4.00875425338745,-0.158507883548737,9.31607723236084,1.94360995292664,0.967993974685669,4.06252574920654,-1020.30004882812,7.50000047683716,-926.100036621094,2.56083163795602,-0.407977698759311,0.0107434307398542,ST
4.43333333333333,-3.42436861991882,-0.139965459704399,9.68752384185791,1.2500079870224,0.510673999786377,3.14788603782654,-1027.5,0.300000011920929,-938.100036621094,2.53896442568644,-0.340856493929741,0.0103177334678599,ST
4.46666666666667,-3.51409006118774,-0.365465342998505,9.77425384521484,0.411587983369827,-0.0228659994900227,1.76068198680878,-1046.70007324219,-3.90000009536743,-928.500061035156,2.53430859232708,-0.344971531701355,0.0354888766396391,ST
4.5,-2.99370551109314,-0.705808699131012,8.86627292633057,-0.411587983369827,-0.213415995240211,0.891773998737335,-1034.70007324219,2.10000014305115,-938.100036621094,2.54022839171837,-0.32447782994673,0.0795166557676392,ST
4.53333333333333,-3.15460610389709,-1.45169293880463,8.9416389465332,-1.10518991947174,0.236281991004944,1.01372599601746,-1034.70007324219,3.90000009536743,-940.500061035156,2.55597700701944,-0.335771152435209,0.162085794886934,ST
4.56666666666667,-2.89441394805908,-1.65266907215118,9.41835880279541,-0.762199997901917,0.274392008781433,1.00610399246216,-1044.30004882812,3.30000019073486,-923.700012207031,2.55007644590884,-0.294801451193167,0.17450346497728,ST
4.6,-3.06249189376831,-1.63053774833679,8.42544174194336,-0.602137982845306,0.579271972179413,1.08994603157043,-1034.70007324219,6.90000009536743,-921.300048828125,2.54501131429454,-0.344066740866802,0.191592278992542,ST
4.63333333333333,-3.49375319480896,-1.69932413101196,8.38955307006836,-0.960371971130371,1.21189796924591,1.42531394958496,-1027.5,3.90000009536743,-928.500061035156,2.53589542537262,-0.389969483703449,0.200674335971365,ST
4.66666666666667,-3.30354356765747,-1.9026927947998,8.68324184417725,-1.05945801734924,0.78506600856781,1.08232402801514,-1020.30004882812,-1.5,-926.100036621094,2.53138100831345,-0.357639869022451,0.216941464307448,ST
4.7,-3.59842801094055,-1.78485858440399,9.0193977355957,-0.556405961513519,0.548784017562866,0.693601965904236,-1022.70001220703,11.7000007629395,-921.300048828125,2.51715409435791,-0.374199365010177,0.195977990361414,ST
4.73333333333333,-3.6253445148468,-1.63053774833679,8.79090690612793,-0.137196004390717,0.548784017562866,1.44055795669556,-1020.30004882812,0.900000035762787,-930.900024414062,2.50125860777331,-0.386591260568758,0.182733361151029,ST
4.76666666666667,-3.74317860603333,-1.34941053390503,8.59710884094238,-0.121951997280121,0.846041977405548,1.98934197425842,-1013.10003662109,3.90000009536743,-926.100036621094,2.47541528655646,-0.408152705104708,0.154590341051627,ST
4.8,-3.6193630695343,-1.22918379306793,8.90335845947266,-0.121951997280121,0.632625997066498,1.69970595836639,-1029.90002441406,4.5,-935.700012207031,2.45521562410054,-0.384385584169874,0.136319914803753,ST
4.83333333333333,-3.37233018875122,-1.24234294891357,8.78791618347168,-0.129574000835419,0.495429992675781,0.861285984516144,-1017.90002441406,3.90000009536743,-918.900024414062,2.44927759581742,-0.364210294803755,0.140138747616071,ST
4.86666666666667,-3.96688413619995,-1.00069320201874,8.77296257019043,-0.396344006061554,0.609759986400604,-0.213415995240211,-1022.70001220703,9.90000057220459,-938.100036621094,2.44033872471202,-0.423106810617248,0.114552231689629,ST
4.9,-3.92680859565735,-0.733921408653259,8.46073246002197,-1.09756803512573,1.09756803512573,-0.259148001670837,-1020.30004882812,-4.5,-933.300048828125,2.4284770789725,-0.434945813042776,0.0887937203051254,ST
4.93333333333333,-3.40941500663757,-1.35479378700256,7.88173007965088,-1.98171997070312,1.41006994247437,-1.41006994247437,-1022.70001220703,6.90000009536743,-930.900024414062,2.46945229377146,-0.4050667213819,0.174695528598564,ST
4.96666666666667,-3.65644788742065,-2.22389554977417,8.17900657653809,-2.99544596672058,0.975615978240967,-1.85214591026306,-1013.10003662109,7.50000047683716,-928.500061035156,2.51386776303057,-0.408049879327085,0.272013247290898,ST
5.0,-3.78504872322083,-2.63541793823242,8.548659324646,-2.95733594894409,0.365855991840363,-1.41006994247437,-1015.50006103516,8.70000076293945,-928.500061035156,2.5285518638821,-0.400165600608832,0.305210472690208,ST
5.03333333333333,-3.7371973991394,-2.58637022972107,8.79748725891113,-2.08842802047729,0.647870004177094,-0.693601965904236,-1010.70001220703,3.90000009536743,-935.700012207031,2.52272926689767,-0.387762278721285,0.290206585220576,ST
5.06666666666667,-3.02899599075317,-2.05581736564636,8.36502933502197,-0.396344006061554,1.53964400291443,-0.152439996600151,-1013.10003662109,8.70000076293945,-933.300048828125,2.50889996797915,-0.340753004752664,0.242072231827388,ST
5.1,-3.48717355728149,-1.79921400547028,8.30700969696045,-0.0076219998300075,2.57623600959778,-0.403965979814529,-1013.10003662109,11.1000003814697,-930.900024414062,2.50647093982949,-0.393445549398744,0.214059223005618,ST
5.13333333333333,-4.17802858352661,-1.84287846088409,7.90266513824463,-0.457319974899292,2.71343183517456,-0.952749967575073,-1005.90002441406,9.30000019073486,-921.300048828125,2.52452240421826,-0.479568955498304,0.231272311195442,ST
5.16666666666667,-4.82163047790527,-2.11024832725525,8.15567970275879,-0.724089980125427,1.74543797969818,-1.61586391925812,-1005.90002441406,9.90000057220459,-918.900024414062,2.54856815700123,-0.521970616536123,0.256400783217581,ST
5.2,-4.15350484848022,-2.18980145454407,8.21609210968018,-0.685979962348938,0.205793991684914,-2.45428395271301,-977.100036621094,14.1000003814697,-935.700012207031,2.56800430158108,-0.453790472770216,0.263718310353241,ST
5.23333333333333,-4.15709352493286,-2.24782133102417,8.35665512084961,-0.579271972179413,-1.21951997280121,-3.33081388473511,-1013.10003662109,11.7000007629395,-926.100036621094,2.58946055470492,-0.444274423916417,0.26618081202647,ST
5.26666666666667,-4.12718629837036,-1.94276833534241,8.77834606170654,-0.0152439996600151,-2.18751406669617,-3.03355598449707,-1005.90002441406,12.3000001907349,-935.700012207031,2.59154738030343,-0.425489651818283,0.219843859806559,ST
5.3,-2.12580013275146,-1.72205364704132,9.35196495056152,1.08994603157043,-3.04879999160767,-3.25459384918213,-1003.50006103516,14.1000003814697,-928.500061035156,2.60365720707144,-0.214200299288428,0.181308542869591,ST
5.33333333333333,-2.33156132698059,-1.57670485973358,8.7221212387085,1.2423859834671,-2.02745199203491,-3.63569402694702,-1015.50006103516,15.3000001907349,-926.100036621094,2.6324868020895,-0.252522411270362,0.178123859798081,ST
5.36666666666667,-2.39675879478455,-1.52526462078094,8.99846267700195,0.564027965068817,-1.09756803512573,-1.41769194602966,-1020.30004882812,13.5000009536743,-930.900024414062,2.64255720994974,-0.254504221187998,0.167484162329249,ST
5.4,-1.66463184356689,-1.71427774429321,8.93326568603516,0.503051996231079,-1.47104597091675,-1.53202199935913,-1001.10003662109,10.5,-928.500061035156,2.65849267908492,-0.178164295900587,0.189051690762164,ST
5.43333333333333,-2.27234506607056,-1.80579364299774,8.85789966583252,0.647870004177094,-1.2347639799118,-1.84452390670776,-1013.10003662109,7.50000047683716,-933.300048828125,2.67623574457201,-0.243405661474961,0.20063184068558,ST
5.46666666666667,-1.78844749927521,-2.16348314285278,8.83636569976807,0.533540010452271,-1.12805593013763,-2.10367202758789,-1008.30004882812,8.70000076293945,-928.500061035156,2.70071673129104,-0.191460732655173,0.239691611615703,ST
5.5,-2.07136917114258,-2.53014469146729,8.27889728546143,0.457319974899292,-0.487807989120483,-3.45276594161987,-1022.70001220703,5.70000028610229,-940.500061035156,2.742914406228,-0.232232511045518,0.297030294320441,ST
5.53333333333333,-2.32139277458191,-3.2766273021698,8.55284595489502,-0.0762199983000755,0.0838419944047928,-3.26983785629272,-1025.10009765625,19.5,-930.900024414062,2.78536601965081,-0.246287370639849,0.367166411513252,ST
5.56666666666667,-3.13247466087341,-4.16008424758911,9.1031379699707,-0.3125019967556,-0.0533539988100529,-4.09301376342773,-1022.70001220703,9.30000019073486,-923.700012207031,2.8326488593561,-0.300123285644423,0.431032936109784,ST
5.6,-3.54579162597656,-4.30722761154175,8.89438629150391,0.0076219998300075,0.0533539988100529,-3.28508186340332,-1005.90002441406,13.5000009536743,-933.300048828125,2.86536165762691,-0.342001698843217,0.452779994511411,ST
5.63333333333333,-3.23057007789612,-4.20315074920654,9.38007831573486,0.480185985565186,-0.503051996231079,-1.6844619512558,-1022.70001220703,7.50000047683716,-928.500061035156,2.86752028003815,-0.302613658898419,0.421232999530173,ST
5.66666666666667,-2.74786877632141,-3.82871317863464,8.83217906951904,1.19665396213531,-0.724089980125427,-0.754577994346619,-1037.10009765625,14.7000007629395,-930.900024414062,2.8697293743334,-0.276440948277581,0.407191262447626,ST
5.7,-2.70061540603638,-3.6773829460144,8.48824691772461,1.18140995502472,-0.525918006896973,-0.823175966739655,-1020.30004882812,11.1000003814697,-923.700012207031,2.87729075066286,-0.282622218062316,0.407037810006307,ST
5.73333333333333,-2.90757298469543,-3.69831800460815,8.24958801269531,0.716467976570129,-0.198172003030777,-0.304879993200302,-1022.70001220703,6.90000009536743,-928.500061035156,2.88464967037952,-0.310562373287639,0.420268810500668,ST
5.76666666666667,-3.09897875785828,-3.56852102279663,8.27710247039795,0.236281991004944,0.449698001146317,0.442075997591019,-1029.90002441406,11.7000007629395,-926.100036621094,2.87900049698192,-0.332150808341875,0.4065203943386,ST
5.8,-3.20963525772095,-3.65824246406555,8.06954669952393,0.0152439996600151,0.777444005012512,0.83841997385025,-1022.70001220703,17.7000007629395,-921.300048828125,2.88157486861766,-0.349360381835386,0.425282364298633,ST
5.83333333333333,-3.80000233650208,-3.63969993591309,8.52652835845947,0.144817993044853,0.579271972179413,1.12805593013763,-1017.90002441406,12.9000005722046,-933.300048828125,2.86739382152846,-0.390600532385659,0.402674385212037,ST
5.86666666666667,-3.17195224761963,-3.07864189147949,8.68862438201904,0.594515979290009,-0.304879993200302,1.89025592803955,-1003.50006103516,8.70000076293945,-933.300048828125,2.83114542233536,-0.332157665570569,0.338507738754409,ST
5.9,-2.37044048309326,-3.18511128425598,7.85122442245483,0.266770005226135,-0.617381989955902,1.70732796192169,-1015.50006103516,15.3000001907349,-933.300048828125,2.82942170390967,-0.273008254680582,0.383972368637194,ST
5.93333333333333,-3.96867871284485,-3.15041899681091,9.53021240234375,-0.0990860015153885,-0.792688012123108,2.24848985671997,-1020.30004882812,12.3000001907349,-921.300048828125,2.78867900418682,-0.376188607575512,0.317969504165421,ST
5.96666666666667,-2.57500553131104,-2.63900685310364,8.95180797576904,0.274392008781433,-1.56251001358032,3.353679895401,-1022.70001220703,12.9000005722046,-933.300048828125,2.74480569726006,-0.268345991787541,0.284472115039162,ST
6.0,-2.12400579452515,-2.37582397460938,8.7340841293335,0.472563982009888,-0.792688012123108,3.07166600227356,-1022.70001220703,9.90000057220459,-930.900024414062,2.71239902910771,-0.230609516234771,0.263496522691021,ST
6.03333333333333,-2.64977335929871,-2.25260639190674,8.35426330566406,0.792688012123108,-0.0609759986400604,2.62196803092957,-1015.50006103516,12.9000005722046,-923.700012207031,2.69242035648131,-0.298081901709264,0.260633947862233,ST
6.06666666666667,-2.89919900894165,-2.47332119941711,8.13294982910156,0.853663980960846,0.67835795879364,2.56861400604248,-1010.70001220703,8.10000038146973,-938.100036621094,2.68498667063639,-0.331056782123396,0.292329389317538,ST
6.1,-2.74009299278259,-2.44401216506958,8.17003440856934,0.419209986925125,0.510673999786377,2.10367202758789,-1010.70001220703,5.70000028610229,-940.500061035156,2.66967005375495,-0.312840603371227,0.288891397198043,ST
6.13333333333333,-2.96858358383179,-2.88484358787537,8.17422199249268,-0.144817993044853,0.137196004390717,1.34909391403198,-1015.50006103516,10.5,-930.900024414062,2.67493724612859,-0.330907228081873,0.338667689810883,ST
6.16666666666667,-3.33524513244629,-3.30952501296997,8.66469955444336,-0.396344006061554,-0.541162014007568,1.41006994247437,-1010.70001220703,9.30000019073486,-930.900024414062,2.67007361481628,-0.345148000867187,0.364534512577607,ST
6.2,-3.03079032897949,-3.28440308570862,8.64854907989502,0.106707997620106,-0.868907988071442,1.76068198680878,-1010.70001220703,12.9000005722046,-940.500061035156,2.65245371438577,-0.316305110057294,0.361640874527557,ST
6.23333333333333,-3.21501851081848,-3.14025068283081,8.78552436828613,0.87652999162674,-0.87652999162674,2.34757590293884,-1013.10003662109,7.50000047683716,-930.900024414062,2.62596437743461,-0.331758517045868,0.340273156141119,ST
6.26666666666667,-2.4978449344635,-3.21382212638855,8.72391510009766,1.43293595314026,-1.57013201713562,2.0731840133667,-1005.90002441406,4.5,-928.500061035156,2.61130487640657,-0.261310334502828,0.349277308733821,ST
6.3,-2.30225229263306,-2.87108635902405,8.89019870758057,2.66770005226135,-2.59148001670837,0.83841997385025,-1017.90002441406,8.10000038146973,-918.900024414062,2.5925243838026,-0.237790506261318,0.307110869982767,ST
6.33333333333333,-2.17843675613403,-2.73650407791138,9.07143592834473,3.3689239025116,-3.05642199516296,0.419209986925125,-1025.10009765625,7.50000047683716,-921.300048828125,2.58332303103765,-0.221102937450883,0.286628530555366,ST
6.36666666666667,-1.84527111053467,-2.31541132926941,8.85969352722168,3.7957558631897,-3.92532992362976,1.05945801734924,-1029.90002441406,5.10000038146973,-933.300048828125,2.56483662618342,-0.192736561138325,0.248405264705799,ST
6.4,-1.48758161067963,-2.07376170158386,8.4828634262085,3.7957558631897,-5.87656164169312,2.21800184249878,-1037.10009765625,3.30000019073486,-926.100036621094,2.53736481189091,-0.159723123878219,0.232175879888114,ST
6.43333333333333,-2.10426688194275,-1.41819703578949,7.9576940536499,3.90246391296387,-7.00461769104004,1.43293595314026,-1044.30004882812,2.10000014305115,-933.300048828125,2.50966649508606,-0.242850318423711,0.168576202815747,ST
6.46666666666667,-1.17056584358215,-1.36735486984253,7.44867420196533,2.59910202026367,-5.36588764190674,1.70732796192169,-1058.70007324219,3.90000009536743,-928.500061035156,2.49255112005116,-0.144900086667888,0.176313814424928,ST
6.5,-0.897214472293854,-1.12091994285583,9.61096096038818,1.13567793369293,-0.266770005226135,1.6692179441452,-1061.10009765625,5.70000028610229,-914.100036621094,2.47165858494752,-0.0924618480788251,0.113999782418862,ST
6.53333333333333,-0.790146887302399,-1.66822075843811,9.38187217712402,0.990859985351562,2.04269599914551,1.93598794937134,-1051.5,3.90000009536743,-930.900024414062,2.4641608696185,-0.0868387829810848,0.173861395850518,ST
6.56666666666667,-2.52715396881104,-1.92183339595795,9.85679817199707,0.967993974685669,2.21037983894348,2.60672402381897,-1058.70007324219,4.5,-933.300048828125,2.45000212880537,-0.250853247070989,0.189889839370102,ST
6.6,-2.69642853736877,-1.45588004589081,9.76707649230957,1.38720393180847,-1.50153398513794,3.96343994140625,-1063.5,3.90000009536743,-923.700012207031,2.40671714092355,-0.264927330421111,0.14370348097507,ST
6.63333333333333,-1.9529367685318,-0.933103024959564,9.5684928894043,1.14329993724823,-3.99392795562744,3.02593398094177,-1053.90002441406,7.50000047683716,-938.100036621094,2.36854033671285,-0.194146251048313,0.0941627243392369,ST
6.66666666666667,-1.8446729183197,-0.269762486219406,9.23951435089111,0.129574000835419,-2.9344699382782,2.33233189582825,-1058.70007324219,0.900000035762787,-911.700012207031,2.33531333142404,-0.191983711105125,0.0283041519016983,ST
6.7,-2.02052688598633,-0.705210566520691,9.76229190826416,-0.92988395690918,0.731711983680725,2.81251788139343,-1065.90002441406,3.30000019073486,-923.700012207031,2.31907728850869,-0.205169316987623,0.0726277947353387,ST
6.73333333333333,-2.81246829032898,-0.418101936578751,9.47697734832764,-0.403965979814529,1.27287399768829,2.73629784584045,-1061.10009765625,2.70000004768372,-935.700012207031,2.28874736934414,-0.290443331580117,0.0434772937449904,ST
6.76666666666667,-2.91774129867554,-0.544310092926025,9.06904411315918,-0.815553963184357,0.0228659994900227,2.66770005226135,-1053.90002441406,11.7000007629395,-926.100036621094,2.26953341164404,-0.311009542638423,0.0598379405852675,ST
6.8,-4.10684967041016,-0.252416342496872,7.98102188110352,-2.37806391716003,-2.4923939704895,3.25459384918213,-1063.5,12.9000005722046,-921.300048828125,2.22427711775845,-0.470484765426841,0.0329006392243545,ST
6.83333333333333,-2.95662069320679,-0.982748925685883,7.69391298294067,-5.87656164169312,-3.47563195228577,4.77137184143066,-1058.70007324219,9.90000057220459,-938.100036621094,2.20486504085824,-0.359542767206706,0.133647980628137,ST
6.86666666666667,-2.32916879653931,-1.58507883548737,8.93805027008057,-8.14029598236084,-3.91008591651917,4.1311240196228,-1070.70007324219,9.90000057220459,-933.300048828125,2.15745632174255,-0.245957244810121,0.187565339514101,ST
6.9,-2.06000447273254,-2.03667688369751,8.97334098815918,-8.1936502456665,-3.20886182785034,4.5655779838562,-1063.5,14.1000003814697,-933.300048828125,2.10385334010562,-0.216700527188158,0.235442957172398,ST
6.93333333333333,-1.27344644069672,-3.19767236709595,10.2760963439941,-7.13419198989868,-1.41006994247437,4.74088382720947,-1085.10009765625,18.9000015258789,-923.700012207031,2.06596273367688,-0.118222818468647,0.312900719117573,ST
6.96666666666667,-0.87388688325882,-3.07206225395203,10.302414894104,-4.29118585586548,-0.541162014007568,2.72867584228516,-1082.70007324219,18.3000011444092,-926.100036621094,2.03725822506672,-0.0816912884803806,0.296923679921005,ST
7.0,-1.07306849956512,-2.90458226203918,9.72042179107666,-1.53202199935913,0.525918006896973,1.51677799224854,-1075.5,22.5,-911.700012207031,2.02434933563138,-0.106961281355365,0.292807719995753,ST
7.03333333333333,0.0747678726911545,-3.41958332061768,8.84952545166016,-0.602137982845306,0.282013982534409,-0.609759986400604,-1085.10009765625,23.1000003814697,-911.700012207031,2.03423289822299,0.0076241152634557,0.3696636266295,ST
7.06666666666667,-1.21004319190979,-2.92731165885925,9.02836990356445,-0.0533539988100529,1.11281192302704,-1.63110792636871,-1075.5,21.3000011444092,-918.900024414062,2.04717955206409,-0.127440207042701,0.314190083300604,ST
7.1,-1.09998488426208,-3.2066445350647,8.99427604675293,0.0685980021953583,1.12043392658234,-0.769822001457214,-1075.5,17.7000007629395,-916.500061035156,2.06009896397242,-0.116110225891494,0.342506833553111,ST
7.13333333333333,-1.80639171600342,-3.14204502105713,8.50499534606934,-0.3125019967556,0.670735955238342,-0.67835795879364,-1082.70007324219,16.5,-911.700012207031,2.06888623102858,-0.197142606595975,0.354699425542645,ST
7.16666666666667,-1.84347665309906,-3.02540707588196,8.13235187530518,-1.20427596569061,0.830797970294952,0.907018005847931,-1075.5,21.3000011444092,-918.900024414062,2.06268385322969,-0.211224038142214,0.358040703766684,ST
7.2,-1.26267981529236,-3.43034982681274,8.90036773681641,-2.080806016922,0.320124000310898,1.59299790859222,-1080.30004882812,29.1000003814697,-914.100036621094,2.05012047190224,-0.133294077031198,0.371154248662527,ST
7.23333333333333,-1.19927668571472,-3.5571563243866,9.17969989776611,-1.41769194602966,-1.12805593013763,0.632625997066498,-1070.70007324219,24.9000015258789,-916.500061035156,2.04015522368921,-0.119821399443639,0.371948737991096,ST
7.26666666666667,-0.773398876190186,-3.62773704528809,8.89677810668945,-0.46494197845459,-1.49391198158264,0.0914639979600906,-1065.90002441406,26.1000003814697,-921.300048828125,2.03528798518334,-0.0780207714382032,0.387879714440159,ST
7.3,-1.1998747587204,-3.47461247444153,8.80466461181641,0.830797970294952,-0.449698001146317,-0.0838419944047928,-1068.30004882812,20.7000007629395,-916.500061035156,2.03400789954044,-0.125248561772976,0.374418928888364,ST
7.33333333333333,-0.651975810527802,-3.29457139968872,7.49832010269165,0.960371971130371,0.967993974685669,-0.67835795879364,-1080.30004882812,20.7000007629395,-918.900024414062,2.04814619444044,-0.080566797429909,0.412402780552999,ST
7.36666666666667,-1.53124594688416,-3.5673246383667,8.46372318267822,0.282013982534409,1.11281192302704,-0.960371971130371,-1077.90002441406,20.1000003814697,-904.500061035156,2.05808969884304,-0.166123320732848,0.398813573995551,ST
7.4,-1.43853390216827,-3.91006064414978,8.26035404205322,0.274392008781433,0.823175966739655,-1.28049600124359,-1068.30004882812,19.5,-916.500061035156,2.07825500903106,-0.156493125206104,0.441933991770204,ST
7.43333333333333,-0.983945190906525,-4.47889471054077,9.16833591461182,0.3125019967556,0.807931959629059,-2.34757590293884,-1068.30004882812,21.3000011444092,-914.100036621094,2.10124450535686,-0.0957515619525328,0.45426082392008,ST
7.46666666666667,-1.49057233333588,-4.46633338928223,9.94951057434082,1.61586391925812,0.693601965904236,-3.94057393074036,-1075.5,21.3000011444092,-926.100036621094,2.13228114875041,-0.134034362309582,0.420111217656252,ST
7.5,-1.83988773822784,-4.41309881210327,9.61395168304443,3.32319188117981,0.205793991684914,-5.09149599075317,-1065.90002441406,25.5000019073486,-921.300048828125,2.17804461033371,-0.16877539272355,0.425919021274633,ST
7.53333333333333,-2.16228675842285,-4.34909772872925,9.27420711517334,3.64331603050232,1.2347639799118,-5.00765371322632,-1073.10009765625,15.9000005722046,-926.100036621094,2.23161336186083,-0.206259905283043,0.433966224556273,ST
7.56666666666667,-1.98463833332062,-4.08890533447266,8.88302135467529,3.68904781341553,2.23324584960938,-5.66314601898193,-1077.90002441406,20.7000007629395,-916.500061035156,2.28975994226986,-0.199694564499942,0.427110852719936,ST
7.6,-2.83041262626648,-3.45547199249268,8.77116870880127,4.25307607650757,3.06404399871826,-5.7850980758667,-1051.5,17.1000003814697,-926.100036621094,2.34023025387321,-0.292750203331445,0.371406535602399,ST
7.63333333333333,-2.30584120750427,-3.14503574371338,7.68434286117554,3.76526784896851,3.05642199516296,-2.40855193138123,-1061.10009765625,14.1000003814697,-923.700012207031,2.38502272193056,-0.274278456820635,0.383558906818962,ST
7.66666666666667,-2.39137554168701,-3.2509069442749,7.71724081039429,2.46190595626831,2.70580983161926,-1.82927989959717,-1058.70007324219,10.5,-933.300048828125,2.41687245338819,-0.281277740048881,0.395743689236057,ST
7.7,-2.66891384124756,-2.95961141586304,8.28308391571045,1.44817996025085,1.50915598869324,-1.80641400814056,-1056.30004882812,11.7000007629395,-923.700012207031,2.42350442382856,-0.295981692271416,0.34195054320419,ST
7.73333333333333,-2.77299070358276,-2.97695755958557,8.61923980712891,1.2423859834671,1.01372599601746,0.175305992364883,-1046.70007324219,15.3000001907349,-928.500061035156,2.42480113689819,-0.296979932244951,0.330500108414523,ST
7.76666666666667,-2.08333206176758,-2.8381884098053,8.60189437866211,1.31860601902008,0.967993974685669,1.21189796924591,-1053.90002441406,11.1000003814697,-947.700012207031,2.41667785169857,-0.228500176433927,0.316090593424429,ST
7.8,-2.09290218353271,-2.72992444038391,8.57677173614502,1.41769194602966,1.36433792114258,0.937505960464478,-1041.90002441406,4.5,-938.100036621094,2.41290931083826,-0.231226045928032,0.30549526751353,DLL
7.83333333333333,-2.54868721961975,-2.64319372177124,8.87644195556641,1.64635193347931,1.21951997280121,1.18903195858002,-1056.30004882812,12.9000005722046,-926.100036621094,2.40512693305228,-0.271091867031031,0.286196728013849,DLL
7.86666666666667,-2.43743252754211,-2.74966335296631,9.10433387756348,1.45580196380615,0.724089980125427,1.29574000835419,-1044.30004882812,9.30000019073486,-930.900024414062,2.40072624431818,-0.252792964742504,0.290290153453934,DLL
7.9,-2.02830290794373,-2.70659685134888,9.10852146148682,1.2500079870224,0.0762199983000755,1.09756803512573,-1039.5,5.70000028610229,-938.100036621094,2.3934597673996,-0.211073347300848,0.286282090267572,DLL
7.93333333333333,-1.72384798526764,-2.53313541412354,9.42075157165527,1.27287399768829,-0.342989981174469,1.47104597091675,-1032.30004882812,11.1000003814697,-935.700012207031,2.37626339235275,-0.175019746664647,0.260013269734256,DLL
7.96666666666667,-1.30694234371185,-2.48887300491333,9.03614616394043,1.37195992469788,-0.518296003341675,1.38720393180847,-1032.30004882812,10.5,-942.900024414062,2.36598172726614,-0.138384904645751,0.266004973097252,DLL
8.0,-1.7364090681076,-2.40154409408569,8.74604606628418,1.31860601902008,0.556405961513519,1.02134799957275,-1034.70007324219,5.10000038146973,-926.100036621094,2.36063083925231,-0.190464066077418,0.265400216370443,DLL
8.03333333333333,-1.63113594055176,-2.31959843635559,8.64795112609863,1.43293595314026,0.937505960464478,0.914639949798584,-1041.90002441406,8.70000076293945,-928.500061035156,2.35602650478229,-0.182201519254223,0.259357385687612,DLL
8.06666666666667,-1.96908664703369,-2.17245531082153,8.07672500610352,1.17378795146942,0.434453994035721,0.914639949798584,-1032.30004882812,12.9000005722046,-923.700012207031,2.35183732040621,-0.232265077141314,0.260390174868921,DLL
8.1,-2.50442457199097,-2.26456928253174,8.500807762146,0.342989981174469,-0.342989981174469,1.03659200668335,-1029.90002441406,8.10000038146973,-923.700012207031,2.3429900148688,-0.277141936663498,0.259211953206971,DLL
8.13333333333333,-3.16178369522095,-1.96190893650055,8.73288726806641,-0.25152599811554,-2.37044191360474,2.85824990272522,-1044.30004882812,5.70000028610229,-916.500061035156,2.30055007959425,-0.336543670639697,0.219460468576317,DLL
8.16666666666667,-3.89510703086853,-1.69513714313507,8.51217269897461,-1.54726600646973,-3.69666981697083,6.66925001144409,-1041.90002441406,13.5000009536743,-918.900024414062,2.22793317479405,-0.417551840128176,0.193730135858526,DLL
8.2,-3.27004766464233,-1.79383075237274,8.22087669372559,-3.84148788452148,-4.54271173477173,11.0747661590576,-1049.10009765625,9.90000057220459,-921.300048828125,2.12857796112704,-0.367117294501488,0.213564727844045,DLL
8.23333333333333,-3.2168128490448,-2.00617146492004,8.12936115264893,-6.09759998321533,-6.15095376968384,13.8034420013428,-1046.70007324219,12.9000005722046,-930.900024414062,1.99996850204927,-0.362139497910245,0.242680697603448,DLL
8.26666666666667,-3.23774790763855,-2.08811712265015,7.75731611251831,-7.89639186859131,-6.68449401855469,16.1205291748047,-1056.30004882812,17.7000007629395,-935.700012207031,1.84346668204433,-0.379136937440992,0.264654084575021,DLL
8.3,-2.56902408599854,-2.88304901123047,8.62103462219238,-9.47414588928223,-6.54729795455933,18.1327381134033,-1061.10009765625,20.1000003814697,-916.500061035156,1.680821959875,-0.2750474897544,0.329560065350663,DLL
8.33333333333333,-1.85424315929413,-3.10854911804199,8.8937873840332,-9.45890140533447,-7.5610237121582,16.4482765197754,-1065.90002441406,27.3000011444092,-914.100036621094,1.51503987997169,-0.191843623608627,0.346558811585141,DLL
8.36666666666667,-0.699827253818512,-3.69891619682312,9.44228458404541,-8.88725185394287,-7.73633003234863,14.733325958252,-1065.90002441406,32.7000007629395,-899.700012207031,1.37057318679893,-0.0663727162289491,0.386801484569965,DLL
8.4,-0.454588651657104,-4.06079244613647,10.0224838256836,-7.0579719543457,-7.41620588302612,11.0671434402466,-1080.30004882812,29.1000003814697,-916.500061035156,1.25545962682375,-0.0375903692156408,0.39637898070452,DLL
8.43333333333333,-0.28411790728569,-4.18999147415161,10.234824180603,-3.32319188117981,-4.92381191253662,6.75309181213379,-1101.90002441406,39.9000015258789,-897.300048828125,1.18440396555585,-0.0223099482463485,0.394056175753377,DLL
8.46666666666667,-0.39537250995636,-3.9878191947937,9.41297626495361,-1.34909391403198,-2.87349390983582,3.14788603782654,-1101.90002441406,37.5,-885.300048828125,1.14740806828558,-0.0361731132055109,0.402815294663905,DLL
8.5,-1.35000872612,-3.30234742164612,8.37459945678711,-0.807931959629059,-0.266770005226135,1.86738991737366,-1094.70007324219,37.5,-906.900024414062,1.12834424797204,-0.149343633571769,0.376607257541047,DLL
8.53333333333333,-0.721360445022583,-3.67618680000305,8.08509826660156,-0.815553963184357,1.05183601379395,1.05183601379395,-1085.10009765625,35.1000022888184,-911.700012207031,1.12857327622756,-0.0835555596075087,0.428027729760496,DLL
8.56666666666667,-1.26028728485107,-3.45547199249268,7.96905899047852,-0.503051996231079,1.32622802257538,-0.137196004390717,-1089.90002441406,39.9000015258789,-894.900024414062,1.13158967910987,-0.145962141243928,0.410230812666963,DLL
8.6,-1.47202980518341,-3.81555390357971,8.11680030822754,-0.304879993200302,1.31098401546478,-0.411587983369827,-1077.90002441406,39.9000015258789,-894.900024414062,1.14368266806646,-0.164395135543221,0.440154093342856,DLL
8.63333333333333,-1.92901110649109,-4.06916666030884,8.3219633102417,-0.739333987236023,0.907018005847931,-0.945127964019775,-1075.5,40.5,-890.100036621094,1.15600010764677,-0.205894955552238,0.456485789937524,DLL
8.66666666666667,-2.03548049926758,-4.70798349380493,8.99128532409668,-1.36433792114258,0.419209986925125,-0.221037998795509,-1073.10009765625,36.9000015258789,-904.500061035156,1.16267606363949,-0.198411108922786,0.484824074897531,DLL
8.7,-2.27653217315674,-4.71157217025757,9.15398025512695,-1.06708002090454,0.3125019967556,-0.167683988809586,-1087.5,35.7000007629395,-906.900024414062,1.16164064642734,-0.217922883565265,0.477333796298661,DLL
8.73333333333333,-2.15092206001282,-4.62543964385986,8.45714378356934,-0.891773998737335,0.830797970294952,0.46494197845459,-1089.90002441406,43.5,-904.500061035156,1.16521754900298,-0.221195906940091,0.501972702795649,DLL
8.76666666666667,-2.05163049697876,-4.3185920715332,7.96666622161865,-0.693601965904236,0.777444005012512,0.602137982845306,-1082.70007324219,39.3000030517578,-882.900024414062,1.16150420113171,-0.224337633573324,0.497898062416834,DLL
8.8,-1.75734400749207,-4.48068904876709,8.0653600692749,-0.541162014007568,0.411587983369827,0.663114011287689,-1080.30004882812,45.9000015258789,-890.100036621094,1.15941602164723,-0.189491031531955,0.507884727236218,DLL
8.83333333333333,-1.65984678268433,-4.44719314575195,7.76509189605713,-0.274392008781433,-0.0152439996600151,0.350611984729767,-1082.70007324219,42.3000030517578,-894.900024414062,1.158662714257,-0.183701485508729,0.520462904463392,DLL
8.86666666666667,-1.57909739017487,-4.14572906494141,7.3733081817627,0.0152439996600151,-0.259148001670837,0.579271972179413,-1073.10009765625,42.9000015258789,-885.300048828125,1.15144426650391,-0.184654438471509,0.511989078628463,DLL
8.9,-1.85364508628845,-3.85323691368103,7.81713056564331,0.0838419944047928,-0.518296003341675,1.01372599601746,-1080.30004882812,40.5,-885.300048828125,1.13099021468423,-0.209490966778725,0.457508527728586,DLL
8.93333333333333,-0.970786035060883,-3.93458437919617,7.73279237747192,-0.350611984729767,-2.0579400062561,0.0914639979600906,-1080.30004882812,39.9000015258789,-885.300048828125,1.12407812429927,-0.108547932478817,0.471060757115896,DLL
8.96666666666667,-1.50133883953094,-3.93219184875488,8.17721271514893,-0.487807989120483,-1.83690190315247,-0.152439996600151,-1077.90002441406,42.9000015258789,-878.100036621094,1.114760897696,-0.160845845055892,0.448949164637543,DLL
9.0,-1.08443319797516,-4.43523025512695,8.37041282653809,-0.815553963184357,-0.868907988071442,-0.6250039935112,-1087.5,44.1000022888184,-882.900024414062,1.12063189717207,-0.112207341012523,0.488647294883768,DLL
9.03333333333333,-1.62814521789551,-4.87905216217041,8.07612609863281,-0.92988395690918,0.106707997620106,-2.11129403114319,-1075.5,43.5,-892.500061035156,1.14421385472491,-0.169032386424122,0.54553845274618,DLL
9.06666666666667,-2.31840205192566,-4.92929601669312,7.9576940536499,-0.693601965904236,0.937505960464478,-1.74543797969818,-1085.10009765625,39.9000015258789,-892.500061035156,1.16176903759551,-0.242387313261709,0.556622508172863,DLL
9.1,-2.64498829841614,-5.21879720687866,8.58813667297363,-0.403965979814529,0.579271972179413,-1.30336201190948,-1085.10009765625,40.5,-885.300048828125,1.17044097405979,-0.25700308291654,0.547420199837897,DLL
9.13333333333333,-2.46076011657715,-5.29954671859741,8.37459945678711,-0.0533539988100529,0.0990860015153885,-1.21951997280121,-1094.70007324219,40.5,-885.300048828125,1.18369289701146,-0.242418604482211,0.564715714298308,DLL
9.16666666666667,-2.31301879882812,-5.4616436958313,8.76040172576904,-0.25152599811554,-0.503051996231079,-0.724089980125427,-1080.30004882812,44.7000007629395,-882.900024414062,1.1846125859051,-0.219057692172367,0.558072361067706,DLL
9.2,-1.98164761066437,-5.41498851776123,8.91053581237793,-0.228659987449646,-0.891773998737335,0.342989981174469,-1092.30004882812,41.7000007629395,-885.300048828125,1.17542568978721,-0.186872617381133,0.546244480031352,DLL
9.23333333333333,-1.85304689407349,-5.14821672439575,8.39493656158447,0.129574000835419,0.609759986400604,1.16616594791412,-1089.90002441406,41.7000007629395,-875.700012207031,1.17052555576623,-0.187961822199632,0.549648380936877,DLL
9.26666666666667,-2.16228675842285,-4.59493446350098,7.8595986366272,1.08994603157043,2.17227005958557,1.58537602424622,-1092.30004882812,37.5,-885.300048828125,1.16563726441486,-0.237730200869639,0.527078045562625,DLL
9.3,-2.7963182926178,-3.8939106464386,7.14122915267944,1.97409796714783,2.46190595626831,1.79117000102997,-1082.70007324219,39.3000030517578,-887.700012207031,1.15889221290886,-0.336204624243229,0.495583400567072,DLL
9.33333333333333,-2.67848420143127,-3.41599440574646,7.06526470184326,1.73019397258759,1.10518991947174,1.47866797447205,-1075.5,36.9000015258789,-892.500061035156,1.14089615348257,-0.33177563832885,0.446918049088331,DLL
9.36666666666667,-2.1533145904541,-3.39625573158264,7.14960289001465,1.32622802257538,-0.777444005012512,1.17378795146942,-1077.90002441406,41.1000022888184,-887.700012207031,1.13006870265109,-0.265368875843472,0.440503419278768,DLL
9.4,-1.9529367685318,-3.86041474342346,7.83985996246338,0.823175966739655,-1.61586391925812,0.907018005847931,-1065.90002441406,37.5,-887.700012207031,1.12142093178474,-0.218089149017549,0.455509339476757,DLL
9.43333333333333,-1.72624063491821,-4.35507917404175,8.21609210968018,0.320124000310898,-2.10367202758789,0.769822001457214,-1068.30004882812,43.5,-894.900024414062,1.11398809187014,-0.181020891424287,0.486243512804447,DLL
9.46666666666667,-1.41400992870331,-4.49504423141479,8.52114486694336,0.434453994035721,-1.52439999580383,0.800309956073761,-1065.90002441406,45.3000030517578,-906.900024414062,1.10212568382326,-0.144118041247777,0.484303558746007,DLL
9.5,-1.48040390014648,-4.61347675323486,8.3877592086792,0.602137982845306,-0.731711983680725,0.403965979814529,-1070.70007324219,38.1000022888184,-897.300048828125,1.09944578351414,-0.152629480627222,0.50157913938379,DLL
9.53333333333333,-2.17185711860657,-4.64517831802368,8.57737064361572,0.975615978240967,-0.0685980021953583,-0.221037998795509,-1077.90002441406,44.7000007629395,-894.900024414062,1.10125797109833,-0.218628620812161,0.494718401508918,DLL
9.56666666666667,-2.49664878845215,-4.54588651657104,8.04263019561768,0.739333987236023,-0.114329993724823,-0.0914639979600906,-1087.5,35.1000022888184,-894.900024414062,1.1077035211733,-0.263644500741666,0.513158419734684,DLL
9.6,-1.94934797286987,-4.71157217025757,7.52344226837158,-0.0,-0.762199997901917,0.327746003866196,-1070.70007324219,34.5,-885.300048828125,1.1128935447791,-0.215459382425624,0.559125603333487,DLL
9.63333333333333,-1.56414389610291,-4.67747783660889,7.72920370101929,-0.632625997066498,-1.95123195648193,0.868907988071442,-1085.10009765625,32.1000022888184,-894.900024414062,1.09424314504547,-0.169420990701241,0.544825289414589,DLL
9.66666666666667,-1.11852741241455,-4.75762939453125,8.23642826080322,-0.0457319989800453,-2.52288198471069,1.21189796924591,-1094.70007324219,46.5,-887.700012207031,1.07130983790994,-0.114436460622502,0.523475699551663,DLL
9.7,-1.18791198730469,-4.40771532058716,8.61505317687988,0.967993974685669,-2.78202986717224,1.11281192302704,-1080.30004882812,47.1000022888184,-887.700012207031,1.0466542568009,-0.118690052288941,0.470877859666628,DLL
9.73333333333333,-0.519188106060028,-4.01353931427002,8.07971572875977,0.914639949798584,-2.67532205581665,1.51677799224854,-1070.70007324219,32.1000022888184,-887.700012207031,1.0241987910918,-0.0546318111114885,0.459223472321799,DLL
9.76666666666667,-0.796128273010254,-3.9178364276886,8.43680667877197,0.167683988809586,-2.44666194915771,1.08232402801514,-1089.90002441406,41.1000022888184,-875.700012207031,1.00414264967798,-0.0822560769908148,0.434200877303048,DLL
9.8,-1.14903259277344,-3.84007787704468,8.99188327789307,0.236281991004944,-1.34909391403198,1.91312193870544,-1106.70007324219,40.5,-892.500061035156,0.97978861288211,-0.116082788549901,0.40277622531458,DLL
9.83333333333333,-1.1376678943634,-3.71686053276062,9.22635555267334,0.419209986925125,-0.609759986400604,1.44817996025085,-1092.30004882812,42.3000030517578,-880.500061035156,0.963928682063187,-0.113838951497457,0.381958614861756,DLL
9.86666666666667,-1.44092643260956,-3.60261511802673,9.31009578704834,0.899396002292633,-0.320124000310898,0.297257989645004,-1087.5,38.7000007629395,-880.500061035156,0.959576618791021,-0.142979752400691,0.367562455621126,DLL
9.9,-1.52885341644287,-3.75394535064697,9.34658241271973,0.983237981796265,0.0914639979600906,-0.320124000310898,-1089.90002441406,43.5,-892.500061035156,0.965525191685551,-0.150560943347307,0.380258020214397,DLL
9.93333333333333,-1.78964376449585,-3.73181390762329,9.00623893737793,0.724089980125427,0.472563982009888,-0.457319974899292,-1087.5,39.9000015258789,-894.900024414062,0.974023322078885,-0.181963258186985,0.391734521531493,DLL
9.96666666666667,-1.59106028079987,-3.73181390762329,8.57378101348877,0.472563982009888,0.579271972179413,0.0457319989800453,-1094.70007324219,41.7000007629395,-890.100036621094,0.979455119014573,-0.16952952209466,0.409715321296574,DLL
10.0,-1.3841028213501,-3.81974101066589,8.33572006225586,0.754577994346619,1.63110792636871,0.0228659994900227,-1097.10009765625,41.1000022888184,-897.300048828125,0.989436413375621,-0.15245296763894,0.428513716504233,DLL
10.0333333333333,-1.46724474430084,-3.61577415466309,7.9277868270874,0.952749967575073,1.85976791381836,-0.800309956073761,-1089.90002441406,46.5,-899.700012207031,1.00327242917194,-0.16915958243243,0.426693827553754,DLL
10.0666666666667,-1.98164761066437,-3.8939106464386,7.92599248886108,0.144817993044853,1.62348592281342,-0.602137982845306,-1080.30004882812,42.3000030517578,-887.700012207031,1.01995995577828,-0.22269186402607,0.456816981562992,DLL
10.1,-2.01095676422119,-4.13615846633911,8.0713415145874,-0.304879993200302,1.15854394435883,-0.3125019967556,-1087.5,36.3000030517578,-902.100036621094,1.03001122508631,-0.219756583358454,0.474361125241851,DLL
10.1333333333333,-1.75375521183014,-4.33474206924438,8.0234899520874,-0.167683988809586,0.724089980125427,-0.0609759986400604,-1073.10009765625,40.5,-880.500061035156,1.03742865170344,-0.191119752945453,0.495706624366858,DLL
10.1666666666667,-1.77708280086517,-4.51837205886841,8.21968078613281,-0.221037998795509,0.243903994560242,0.190549999475479,-1077.90002441406,41.1000022888184,-892.500061035156,1.03801501123682,-0.187782669346574,0.502965580656662,DLL
10.2,-1.84228038787842,-4.6051025390625,8.45176029205322,-0.297257989645004,-0.0762199983000755,0.541162014007568,-1087.5,45.9000015258789,-906.900024414062,1.03249556006272,-0.189451109412224,0.499252115330006,DLL
10.2333333333333,-1.35898077487946,-4.60271024703979,8.90036773681641,0.25152599811554,-0.289635986089706,0.685979962348938,-1085.10009765625,40.5,-885.300048828125,1.02227436694776,-0.134971464176848,0.476675329562397,DLL
10.2666666666667,-1.32129776477814,-3.83828353881836,8.17362403869629,0.87652999162674,-0.144817993044853,1.21189796924591,-1082.70007324219,43.5,-882.900024414062,1.0076866196854,-0.145938818423022,0.437278782025747,DLL
10.3,-1.08802211284637,-4.0117449760437,8.21728801727295,0.655492007732391,0.510673999786377,1.05183601379395,-1080.30004882812,41.7000007629395,-892.500061035156,1.00423934547987,-0.120095459569416,0.452834940268422,DLL
10.3333333333333,-1.26806306838989,-3.85204076766968,8.31358909606934,0.480185985565186,0.0609759986400604,0.0152439996600151,-1092.30004882812,38.1000022888184,-902.100036621094,1.0023604433644,-0.13758613864797,0.43310764038181,DLL
10.3666666666667,-1.20406174659729,-3.78325438499451,8.17063331604004,0.167683988809586,0.198172003030777,0.0304879993200302,-1089.90002441406,38.1000022888184,-887.700012207031,1.00306331738182,-0.133283209944233,0.433357036780983,DLL
10.4,-1.38470101356506,-3.99140810966492,7.92838525772095,0.0990860015153885,0.480185985565186,-0.830797970294952,-1077.90002441406,39.9000015258789,-882.900024414062,1.01611695033519,-0.154794910403541,0.46639543201197,DLL
10.4333333333333,-1.41700065135956,-4.14273834228516,7.73219442367554,-0.0457319989800453,0.137196004390717,-0.960371971130371,-1065.90002441406,40.5,-885.300048828125,1.02787093439406,-0.159560085246268,0.492130540942703,DLL
10.4666666666667,-1.69992232322693,-4.30842399597168,7.93795537948608,-0.533540010452271,-0.403965979814529,-0.403965979814529,-1087.5,38.7000007629395,-899.700012207031,1.0295237272307,-0.1850507526781,0.498246171006366,DLL
10.5,-2.107257604599,-4.39096736907959,8.22805500030518,-0.807931959629059,0.472563982009888,0.114329993724823,-1082.70007324219,44.1000022888184,-875.700012207031,1.02773685806681,-0.222942561606063,0.491684719175746,DLL
10.5333333333333,-2.05880808830261,-4.77856397628784,8.56720161437988,0.0838419944047928,0.807931959629059,-0.434453994035721,-1077.90002441406,36.3000030517578,-894.900024414062,1.0380778302592,-0.207770595227121,0.508888279242811,DLL
10.5666666666667,-2.59294986724854,-4.61467313766479,8.35665512084961,0.495429992675781,0.0685980021953583,-0.449698001146317,-1068.30004882812,40.5,-887.700012207031,1.04154646075933,-0.264808760923528,0.503891564140747,DLL
10.6,-2.90099334716797,-4.40651941299438,8.08509826660156,0.609759986400604,0.434453994035721,0.350611984729767,-1080.30004882812,41.1000022888184,-904.500061035156,1.04060127084183,-0.306086744253498,0.497902258755856,DLL
10.6333333333333,-2.7861499786377,-4.64816904067993,8.71255016326904,0.335367977619171,0.114329993724823,0.632625997066498,-1080.30004882812,42.9000015258789,-878.100036621094,1.03475194498137,-0.275765830192707,0.489275548052813,DLL
10.6666666666667,-2.1892032623291,-3.98542666435242,8.01332092285156,-0.541162014007568,-1.96647596359253,1.50915598869324,-1075.5,44.7000007629395,-892.500061035156,1.0078671138383,-0.238095569974129,0.461591957176788,DLL
10.7,-1.36914920806885,-4.13556051254272,8.03664875030518,-0.304879993200302,-0.419209986925125,2.44666194915771,-1085.10009765625,43.5,-885.300048828125,0.987363164400565,-0.15172697128286,0.475134533409447,DLL
10.7333333333333,-1.40743041038513,-3.95551943778992,7.82729911804199,0.175305992364883,-0.487807989120483,1.42531394958496,-1061.10009765625,42.3000030517578,-875.700012207031,0.972882921043371,-0.159474008061183,0.467205543478562,DLL
10.7666666666667,-1.18910825252533,-4.13077545166016,8.47628402709961,0.0914639979600906,-0.518296003341675,1.50915598869324,-1077.90002441406,39.9000015258789,-885.300048828125,0.956180104114076,-0.12582747767821,0.452970500764096,DLL
10.8,-1.48997414112091,-4.11043834686279,8.76937389373779,0.510673999786377,-0.282013982534409,0.922261953353882,-1070.70007324219,38.1000022888184,-892.500061035156,0.946249249922778,-0.152830944564135,0.437200935519293,DLL
10.8333333333333,-1.85005617141724,-4.20016002655029,8.84533786773682,1.13567793369293,0.243903994560242,0.449698001146317,-1068.30004882812,47.1000022888184,-892.500061035156,0.946118752058022,-0.187371409187153,0.441229553844813,DLL
10.8666666666667,-1.71966099739075,-4.06976461410522,9.15577411651611,1.05183601379395,-0.503051996231079,0.137196004390717,-1068.30004882812,42.9000015258789,-885.300048828125,0.940462944831876,-0.169313575190142,0.416399566300768,DLL
10.9,-1.3159145116806,-3.99140810966492,9.186279296875,0.92988395690918,-0.960371971130371,0.190549999475479,-1070.70007324219,43.5,-882.900024414062,0.935566739402295,-0.129326247315847,0.408157195470197,DLL
10.9333333333333,-1.14424753189087,-3.85323691368103,8.20711994171143,1.50915598869324,0.846041977405548,-0.899396002292633,-1070.70007324219,33.3000030517578,-890.100036621094,0.950857304909506,-0.126223738936165,0.436506654673906,DLL
10.9666666666667,-1.54978847503662,-4.31978845596313,8.41886234283447,1.84452390670776,1.43293595314026,-2.84300589561462,-1070.70007324219,41.1000022888184,-897.300048828125,0.985544900434086,-0.162228691354973,0.47167856933207,DLL
11.0,-2.72394299507141,-4.18221569061279,7.91044092178345,1.55488801002502,0.350611984729767,-1.60061991214752,-1082.70007324219,44.7000007629395,-916.500061035156,1.00516771402429,-0.294421252199962,0.484422389322667,DLL
11.0333333333333,-2.08632278442383,-4.53811073303223,7.83447647094727,0.525918006896973,1.11281192302704,-0.175305992364883,-1070.70007324219,36.9000015258789,-887.700012207031,1.02242767546941,-0.228173249526737,0.52429552966785,DLL
11.0666666666667,-1.77768087387085,-4.69003915786743,8.1784086227417,0.129574000835419,0.114329993724823,-0.6250039935112,-1082.70007324219,32.1000022888184,-885.300048828125,1.02697121232707,-0.186104045040595,0.520660887507555,DLL
11.1,-1.88355219364166,-4.39993953704834,8.18139934539795,0.708845973014832,-1.07470202445984,0.0381099991500378,-1075.5,36.3000030517578,-885.300048828125,1.01785526342715,-0.198408941635704,0.492044076233596,DLL
11.1333333333333,-2.20475506782532,-3.93398642539978,8.40809535980225,1.31098401546478,-1.07470202445984,0.815553963184357,-1085.10009765625,40.5,-911.700012207031,0.998077735512555,-0.232005559799579,0.434985338561636,DLL
11.1666666666667,-1.63412654399872,-3.46743488311768,8.13833332061768,0.914639949798584,-1.6615959405899,1.42531394958496,-1092.30004882812,37.5,-887.700012207031,0.97399665355377,-0.181017195656292,0.400578755209881,DLL
11.2,-1.07366669178009,-3.2766273021698,7.77765321731567,0.25152599811554,-2.03507399559021,2.00458598136902,-1082.70007324219,37.5,-897.300048828125,0.951279821994363,-0.124755727594501,0.39770914389066,DLL
11.2333333333333,-1.59704172611237,-3.18391513824463,7.94274044036865,0.175305992364883,-0.266770005226135,2.12653803825378,-1075.5,33.3000030517578,-894.900024414062,0.931205803566263,-0.18530731375503,0.380308207400049,DLL
11.2666666666667,-2.02710652351379,-3.3107213973999,8.88661003112793,0.304879993200302,-0.381099998950958,1.60824191570282,-1075.5,32.7000007629395,-892.500061035156,0.911780206938177,-0.210908942289151,0.355508876412263,DLL
11.3,-1.59704172611237,-3.49435114860535,9.37589073181152,-0.0228659994900227,-1.64635193347931,1.09756803512573,-1085.10009765625,40.5,-902.100036621094,0.896584440007151,-0.156303736613667,0.356345767755009,DLL
11.3333333333333,-1.75674593448639,-3.73659920692444,9.14979267120361,0.0228659994900227,-0.716467976570129,-0.121951997280121,-1085.10009765625,44.7000007629395,-894.900024414062,0.900341740663329,-0.174649667672749,0.387582780919465,DLL
11.3666666666667,-1.76272737979889,-3.6893458366394,9.10732460021973,0.297257989645004,-0.419209986925125,-0.0304879993200302,-1063.5,34.5,-894.900024414062,0.899107054618695,-0.176799731640313,0.384339528395035,DLL
11.4,-1.46245956420898,-3.73600101470947,8.72929859161377,0.503051996231079,-0.243903994560242,-0.0990860015153885,-1082.70007324219,35.7000007629395,-885.300048828125,0.902929900213497,-0.152399406645493,0.403486370748941,DLL
11.4333333333333,-1.50133883953094,-3.43872404098511,8.10603332519531,0.320124000310898,-0.152439996600151,0.198172003030777,-1087.5,39.9000015258789,-892.500061035156,0.900761960891631,-0.168745070253779,0.400581908622891,DLL
11.4666666666667,-1.33744764328003,-3.41958332061768,7.84344863891602,0.0838419944047928,0.594515979290009,0.358233988285065,-1085.10009765625,38.7000007629395,-890.100036621094,0.90176370979759,-0.156285403960138,0.410936738891831,DLL
11.5,-1.287801861763,-3.86998510360718,8.04621887207031,-0.198172003030777,0.472563982009888,-0.221037998795509,-1080.30004882812,38.1000022888184,-885.300048828125,0.910585665353852,-0.143853992696057,0.448662584825524,DLL
11.5333333333333,-2.20355868339539,-3.7312159538269,8.54387378692627,-0.350611984729767,0.0762199983000755,-0.0381099991500378,-1085.10009765625,33.3000030517578,-887.700012207031,0.903709078935176,-0.231974384787112,0.412479241319758,DLL
11.5666666666667,-2.35967397689819,-3.91125679016113,8.3339262008667,-0.434453994035721,0.78506600856781,0.952749967575073,-1080.30004882812,35.7000007629395,-892.500061035156,0.904741238581044,-0.252810314223827,0.4392552422294,DLL
11.6,-2.29387831687927,-4.23724460601807,8.43919944763184,-0.274392008781433,0.92988395690918,0.480185985565186,-1058.70007324219,36.9000015258789,-897.300048828125,0.910486833249351,-0.240155287018965,0.46572748787182,DLL
11.6333333333333,-2.65575480461121,-4.18161773681641,8.65453052520752,-0.472563982009888,-0.236281991004944,0.419209986925125,-1073.10009765625,45.3000030517578,-887.700012207031,0.901162495533493,-0.269487006291335,0.450706220839581,DLL
11.6666666666667,-1.78306424617767,-4.83359336853027,9.4375,-0.320124000310898,-1.02134799957275,0.129574000835419,-1077.90002441406,42.9000015258789,-904.500061035156,0.900699401063547,-0.165376606120149,0.473667718311773,DLL
11.7,-0.819455862045288,-4.58596229553223,8.78731822967529,-0.167683988809586,-2.21800184249878,0.0076219998300075,-1063.5,40.5,-887.700012207031,0.892331424925671,-0.0792294990144761,0.481134565517077,DLL
11.7333333333333,-0.410924226045609,-4.32337760925293,8.56779956817627,0.282013982534409,-1.12805593013763,0.777444005012512,-1077.90002441406,33.9000015258789,-897.300048828125,0.881196525253606,-0.0417378751544828,0.466781376086571,DLL
11.7666666666667,-0.665134966373444,-3.83888149261475,8.31358909606934,0.907018005847931,0.663114011287689,0.594515979290009,-1085.10009765625,33.3000030517578,-887.700012207031,0.877439871063847,-0.0739147634298853,0.431061718555148,DLL
11.8,-0.79074501991272,-3.20365381240845,7.68374443054199,0.990859985351562,1.07470202445984,0.221037998795509,-1080.30004882812,41.1000022888184,-887.700012207031,0.876877945711952,-0.0965265245143883,0.393422094975227,DLL
11.8333333333333,-0.423485219478607,-3.16955971717834,7.64965057373047,1.12805593013763,1.18903195858002,-0.533540010452271,-1075.5,39.3000030517578,-882.900024414062,0.885452387240731,-0.0527711721179517,0.390933129253172,DLL
11.8666666666667,-0.989328503608704,-3.65704607963562,8.04861164093018,1.17378795146942,1.265251994133,-2.84300589561462,-1082.70007324219,41.1000022888184,-890.100036621094,0.915998939635489,-0.111268872110493,0.424950796306703,DLL
11.9,-1.22499680519104,-4.30842399597168,8.64854907989502,1.49391198158264,1.48628997802734,-3.61282801628113,-1053.90002441406,39.9000015258789,-885.300048828125,0.957300512222751,-0.125610131215301,0.460374776600362,DLL
11.9333333333333,-1.89372062683105,-4.92510938644409,10.2844705581665,2.21800184249878,1.83690190315247,-4.30642986297607,-1068.30004882812,39.9000015258789,-904.500061035156,0.9991408874509,-0.164158202319642,0.444125215639773,DLL
11.9666666666667,-2.10247254371643,-5.07883214950562,10.2162818908691,2.85062789916992,2.0579400062561,-5.71649980545044,-1068.30004882812,38.7000007629395,-902.100036621094,1.0572340266239,-0.181002502260896,0.458264079268123,DLL
12.0,-2.00019001960754,-4.83299541473389,9.55294132232666,3.33843588829041,3.01068997383118,-6.23479604721069,-1073.10009765625,36.3000030517578,-902.100036621094,1.12243644169857,-0.184511065608142,0.464780822180461,DLL
12.0333333333333,-2.5235652923584,-4.03208160400391,8.58514595031738,5.22106981277466,5.06100797653198,-7.42382764816284,-1073.10009765625,29.1000003814697,-909.300048828125,1.21128485844365,-0.262517883317754,0.434149917571424,DLL
12.0666666666667,-2.57859444618225,-3.90706992149353,7.88113164901733,6.50156593322754,5.61741399765015,-7.17992401123047,-1063.5,23.1000003814697,-904.500061035156,1.30601593603171,-0.288414423460433,0.453461484575235,DLL
12.1,-1.95951640605927,-3.77667474746704,7.96546983718872,6.94364166259766,4.04728174209595,-8.9329833984375,-1058.70007324219,21.3000011444092,-899.700012207031,1.40313970551217,-0.21867567445863,0.434464073958812,DLL
12.1333333333333,-3.2586829662323,-3.18451309204102,7.92359972000122,7.9268798828125,3.06404399871826,-8.80340957641602,-1063.5,26.1000003814697,-914.100036621094,1.48427382953067,-0.363521682175439,0.374605276697883,DLL
12.1666666666667,-1.71188521385193,-3.45307946205139,8.45355415344238,6.68449401855469,1.29574000835419,-7.08083772659302,-1046.70007324219,21.3000011444092,-916.500061035156,1.5593948505752,-0.183215447821532,0.378427667497009,DLL
12.2,-2.4577693939209,-2.80708503723145,9.15876483917236,6.24241781234741,0.853663980960846,-7.64486598968506,-1080.30004882812,18.9000015258789,-933.300048828125,1.62327719237272,-0.248676519961616,0.289959872736409,DLL
12.2333333333333,-2.01634001731873,-2.73231720924377,8.60727691650391,5.4192419052124,1.69970595836639,-5.32777786254883,-1061.10009765625,3.90000009536743,-933.300048828125,1.68312439879788,-0.219837948619265,0.300083598217432,DLL
12.2666666666667,-1.07785367965698,-2.82084226608276,8.67965221405029,3.67380380630493,2.5000159740448,-5.09911775588989,-1053.90002441406,15.9000005722046,-926.100036621094,1.73701628122726,-0.119258038037536,0.308984162726028,DLL
12.3,-1.37453258037567,-2.46016192436218,9.55772686004639,3.17837381362915,2.72867584228516,-4.70277404785156,-1041.90002441406,12.3000001907349,-923.700012207031,1.77916010896396,-0.140937799316147,0.247798327071253,DLL
12.3333333333333,-1.20824885368347,-2.49066734313965,9.11270809173584,2.78202986717224,4.07776975631714,-2.0655620098114,-1049.10009765625,18.9000015258789,-928.500061035156,1.81045387766582,-0.133165896791952,0.262627126715738,DLL
12.3666666666667,-1.54560148715973,-2.29028940200806,8.01870441436768,2.29422187805176,5.0152759552002,-1.57775402069092,-1027.5,9.90000057220459,-933.300048828125,1.84125298193612,-0.190821748292647,0.27515328410003,DLL
12.4,-2.7682056427002,-2.41470313072205,7.88830947875977,1.74543797969818,6.79882383346558,-1.44817996025085,-1037.10009765625,12.9000005722046,-923.700012207031,1.87874159032562,-0.33400831123341,0.295983367913049,DLL
12.4333333333333,-4.03028726577759,-2.38419795036316,7.73578310012817,1.98934197425842,5.66314601898193,-0.853663980960846,-1022.70001220703,11.7000007629395,-918.900024414062,1.90936655050599,-0.470829065278473,0.297692975028089,DLL
12.4666666666667,-4.42685604095459,-2.55407047271729,8.49243354797363,2.38568592071533,3.59758400917053,-0.510673999786377,-1015.50006103516,11.1000003814697,-926.100036621094,1.92662525821838,-0.468763935202698,0.289346565970859,DLL
12.5,-3.38608741760254,-2.40274024009705,9.07442665100098,2.9192259311676,-1.37195992469788,-1.76830399036407,-1017.90002441406,6.30000019073486,-938.100036621094,1.93291014044293,-0.343405453502071,0.254683387897515,DLL
12.5333333333333,-2.81067371368408,-1.82912123203278,9.08040809631348,3.45276594161987,-5.07625198364258,-2.33995389938354,-1022.70001220703,8.10000038146973,-935.700012207031,1.93309469977059,-0.285271970830993,0.193562158975573,DLL
12.5666666666667,-2.19279217720032,-2.03009724617004,9.11629676818848,3.31556987762451,-5.19820404052734,-1.28049600124359,-1029.90002441406,2.70000004768372,-921.300048828125,1.94613452145206,-0.22142932306771,0.213327389887669,DLL
12.6,-1.90987050533295,-1.84527111053467,9.24549579620361,3.16313004493713,-4.67990779876709,-1.31098401546478,-1029.90002441406,1.5,-938.100036621094,1.95022567733335,-0.191494614166733,0.191655569946159,DLL
12.6333333333333,-1.57072341442108,-1.23935222625732,8.4057035446167,2.9192259311676,-3.47563195228577,-1.18903195858002,-1039.5,6.90000009536743,-938.100036621094,1.95110310849832,-0.176541277806526,0.141624037176056,ST
12.6666666666667,-1.14544379711151,-0.892429292201996,8.36144065856934,2.57623600959778,-1.40244793891907,0.579271972179413,-1039.5,3.30000019073486,-930.900024414062,1.94186302495193,-0.133160970194571,0.101760359384987,ST
12.7,-1.87158930301666,-0.769211888313293,7.60359334945679,1.58537602424622,-0.282013982534409,-0.304879993200302,-1046.70007324219,5.70000028610229,-926.100036621094,1.94648885640967,-0.239364655637288,0.0981784423795007,ST
12.7333333333333,-2.12221121788025,-1.13348090648651,8.74843883514404,0.548784017562866,0.182927995920181,0.472563982009888,-1044.30004882812,0.300000011920929,-935.700012207031,1.95079163394691,-0.236513646742463,0.127628306359213,ST
12.7666666666667,-2.5618462562561,-1.36556041240692,9.82808685302734,0.121951997280121,-0.83841997385025,-0.129574000835419,-1041.90002441406,5.70000028610229,-923.700012207031,1.95365063405709,-0.251158414283851,0.137833526362843,ST
12.8,-2.46255469322205,-1.94575905799866,10.3646211624146,-0.0533539988100529,-0.685979962348938,0.129574000835419,-1032.30004882812,3.30000019073486,-940.500061035156,1.96276878134945,-0.228324289086102,0.185444062785216,ST
12.8333333333333,-1.88415038585663,-2.06419134140015,10.1421117782593,-0.0076219998300075,-0.350611984729767,-0.129574000835419,-1037.10009765625,0.300000011920929,-918.900024414062,1.96638566565096,-0.17950271828233,0.20079205183164,ST
12.8666666666667,-2.33036494255066,-1.94456279277802,9.85380744934082,0.335367977619171,1.2423859834671,0.0076219998300075,-1049.10009765625,5.10000038146973,-926.100036621094,1.96776095523733,-0.230015939802946,0.19436019453012,ST
12.9,-2.33694458007812,-1.69274461269379,9.26643085479736,0.381099998950958,1.88263392448425,0.495429992675781,-1041.90002441406,6.30000019073486,-926.100036621094,1.96390074210356,-0.246546678584172,0.179970010578808,ST
12.9333333333333,-2.25858783721924,-1.38529908657074,8.92309665679932,0.228659987449646,1.88263392448425,0.0076219998300075,-1032.30004882812,2.10000014305115,-933.300048828125,1.96041172111827,-0.248337004583643,0.153809102104744,ST
12.9666666666667,-2.28490614891052,-1.18611752986908,8.77176666259766,0.190549999475479,1.60824191570282,-0.0228659994900227,-1039.5,3.30000019073486,-930.900024414062,1.95798680505341,-0.255379229702483,0.13422900050573,ST
13.0,-2.16767001152039,-1.19269704818726,8.67486763000488,-0.0457319989800453,1.42531394958496,-0.815553963184357,-1044.30004882812,7.50000047683716,-930.900024414062,1.96700387586527,-0.244967404527024,0.137142296670612,ST
13.0333333333333,-2.1652774810791,-1.33445692062378,8.52234077453613,-0.304879993200302,1.41006994247437,-0.830797970294952,-1027.5,3.90000009536743,-935.700012207031,1.97969662687874,-0.248129278572467,0.156266315453421,ST
13.0666666666667,-2.33574819564819,-1.88355219364166,8.74604606628418,-1.02134799957275,0.846041977405548,-0.868907988071442,-1034.70007324219,3.30000019073486,-928.500061035156,2.00048557298462,-0.256479746873238,0.214229744638925,ST
13.1,-2.69882106781006,-2.29148578643799,9.43391132354736,-1.44055795669556,0.121951997280121,-0.457319974899292,-1022.70001220703,6.90000009536743,-918.900024414062,2.00814455155216,-0.271141340627923,0.240985846119885,ST
13.1333333333333,-2.18621253967285,-2.60491275787354,9.31547832489014,-1.42531394958496,-0.37347799539566,0.0990860015153885,-1037.10009765625,9.90000057220459,-921.300048828125,2.01197888331448,-0.221823012668657,0.274995071414826,ST
13.1666666666667,-2.38898301124573,-2.58218312263489,9.51884746551514,-0.907018005847931,0.0990860015153885,0.670735955238342,-1015.50006103516,4.5,-930.900024414062,2.00294327415049,-0.238078130467715,0.266237573581629,ST
13.2,-2.33873891830444,-2.51279854774475,9.27480506896973,-0.213415995240211,0.381099998950958,1.12805593013763,-1027.5,3.90000009536743,-930.900024414062,1.99380048590809,-0.239896485040699,0.264530424884318,ST
13.2333333333333,-2.50741529464722,-2.01933073997498,9.0253791809082,0.609759986400604,0.236281991004944,1.58537602424622,-1027.5,5.10000038146973,-926.100036621094,1.97117581079916,-0.265692291192192,0.218454639838978,ST
13.2666666666667,-2.01634001731873,-1.58448076248169,8.728102684021,1.15854394435883,-0.403965979814529,1.21189796924591,-1020.30004882812,2.70000004768372,-935.700012207031,1.95283693792632,-0.223289697061722,0.177158422321554,ST
13.3,-2.12938904762268,-1.56593835353851,8.56361293792725,1.03659200668335,-0.823175966739655,0.708845973014832,-1025.10009765625,4.5,-942.900024414062,1.94773857284078,-0.238677076189412,0.17869138115972,ST
13.3333333333333,-1.99241423606873,-1.72683870792389,7.8177285194397,0.167683988809586,-0.701223969459534,-0.365855991840363,-1032.30004882812,4.5,-921.300048828125,1.95901858573593,-0.242563607784802,0.217097998568049,ST
13.3666666666667,-2.73112082481384,-2.09828543663025,8.33033752441406,-0.426831990480423,0.0228659994900227,-0.846041977405548,-1025.10009765625,3.90000009536743,-930.900024414062,1.97315233468866,-0.307334178110963,0.24787556493836,ST
13.4,-2.83160877227783,-2.53313541412354,8.77116870880127,-0.762199997901917,-0.46494197845459,-0.830797970294952,-1034.70007324219,9.30000019073486,-928.500061035156,1.98728683376427,-0.299580390213949,0.282774968368141,ST
13.4333333333333,-2.67908239364624,-2.66293239593506,8.57138919830322,-0.92988395690918,-0.236281991004944,-0.792688012123108,-1034.70007324219,9.30000019073486,-926.100036621094,1.99700355649443,-0.289272996930656,0.303182965721112,ST
13.4666666666667,-3.16417622566223,-2.46135830879211,9.37648963928223,-0.632625997066498,0.403965979814529,0.228659987449646,-1020.30004882812,9.30000019073486,-933.300048828125,1.98087303059506,-0.316216277672736,0.257860730118312,ST
13.5,-2.96439647674561,-2.53552794456482,9.5026969909668,-0.304879993200302,0.381099998950958,1.09756803512573,-1027.5,5.70000028610229,-921.300048828125,1.9719657091732,-0.293906636606235,0.260768031834069,ST
13.5333333333333,-2.38060903549194,-2.35309433937073,9.13962459564209,0.46494197845459,0.0152439996600151,0.701223969459534,-1027.5,10.5,-926.100036621094,1.96456364275238,-0.247511808241181,0.250897437483318,ST
13.5666666666667,-2.50681710243225,-2.2250919342041,8.91532135009766,0.884151995182037,0.129574000835419,0.442075997591019,-1025.10009765625,4.5,-940.500061035156,1.96110896609385,-0.266706673566454,0.242863941343001,ST
13.6,-2.65096974372864,-2.19339036941528,8.488844871521,1.34147191047668,0.884151995182037,0.640248000621796,-1020.30004882812,7.50000047683716,-923.700012207031,1.96314153573405,-0.295321339022581,0.25028320610943,ST
13.6333333333333,-2.93090057373047,-2.15092206001282,8.3219633102417,1.36433792114258,1.2423859834671,0.746955990791321,-1032.30004882812,7.50000047683716,-926.100036621094,1.96349011900231,-0.330956513343666,0.250299490000093,ST
13.6666666666667,-2.97456502914429,-1.85783207416534,8.55882740020752,1.30336201190948,0.861285984516144,1.53964400291443,-1017.90002441406,-0.300000011920929,-935.700012207031,1.94356333137072,-0.329449302236135,0.210783805977294,ST
13.7,-3.03198671340942,-1.90209460258484,9.34478759765625,1.15854394435883,0.274392008781433,1.76068198680878,-1015.50006103516,9.90000057220459,-923.700012207031,1.9275576494658,-0.308926486073852,0.197862521516407,ST
13.7333333333333,-2.92312479019165,-1.75913846492767,9.55114650726318,1.265251994133,-0.754577994346619,1.08232402801514,-1003.50006103516,8.10000038146973,-918.900024414062,1.91532756173731,-0.291447827803747,0.179347486223951,ST
13.7666666666667,-2.35847783088684,-1.75435328483582,9.45484638214111,1.50153398513794,-1.28049600124359,0.0457319989800453,-1015.50006103516,3.90000009536743,-938.100036621094,1.91658394552019,-0.238460176052344,0.180722186536191,ST
13.8,-2.21611976623535,-1.74478304386139,9.09895133972168,1.27287399768829,-0.952749967575073,0.0,-1027.5,6.90000009536743,-938.100036621094,1.91915709694918,-0.233167957050886,0.187144931675139,ST
13.8333333333333,-2.35249638557434,-1.61737859249115,8.74903678894043,0.975615978240967,-0.388722002506256,0.480185985565186,-1015.50006103516,8.10000038146973,-926.100036621094,1.91519976938291,-0.257913760723178,0.180862950378182,ST
13.8666666666667,-2.16647386550903,-1.69693160057068,8.72690582275391,0.67835795879364,-0.121951997280121,0.92988395690918,-1015.50006103516,5.10000038146973,-942.900024414062,1.91111511392955,-0.239173781444858,0.190445494739921,ST
13.9,-1.6084064245224,-1.68437063694,8.2382230758667,0.891773998737335,-1.08994603157043,0.754577994346619,-1025.10009765625,-2.10000014305115,-918.900024414062,1.90632183586254,-0.187495754077389,0.199785887189052,ST
13.9333333333333,-2.04863977432251,-1.72145545482635,8.54327583312988,1.07470202445984,-1.33385002613068,0.602137982845306,-1020.30004882812,1.5,-933.300048828125,1.90051461332136,-0.228700294374804,0.196621728698926,ST
13.9666666666667,-2.42846035957336,-1.56653642654419,10.1433086395264,2.16464805603027,-2.5152599811554,0.503051996231079,-1010.70001220703,7.50000047683716,-935.700012207031,1.88648444185866,-0.228130711331992,0.149211485855341,ST
14.0,-1.99061977863312,-0.871494293212891,9.55533409118652,2.75154185295105,-2.87349390983582,1.36433792114258,-1020.30004882812,6.30000019073486,-935.700012207031,1.86343183462864,-0.199818229201208,0.0856764681249413,ST
14.0333333333333,-2.4535825252533,-0.662742435932159,8.91651725769043,1.32622802257538,0.0152439996600151,2.62196803092957,-1037.10009765625,8.10000038146973,-928.500061035156,1.8403986399165,-0.268040655332636,0.0706567767479902,ST
14.0666666666667,-2.83400130271912,-0.723752975463867,9.53081035614014,0.548784017562866,0.830797970294952,2.4847719669342,-1020.30004882812,1.5,-930.900024414062,1.82192551400737,-0.289962887551681,0.0735728346902644,ST
14.1,-3.54040813446045,-0.658555388450623,9.85081672668457,0.0076219998300075,-0.0152439996600151,1.96647596359253,-1022.70001220703,2.70000004768372,-926.100036621094,1.80340877939465,-0.344381984543033,0.0655341945937613,ST
14.1333333333333,-3.19348526000977,-0.62147057056427,9.35734844207764,-0.487807989120483,-0.518296003341675,1.6920839548111,-1029.90002441406,5.70000028610229,-938.100036621094,1.78816342647512,-0.327548039691228,0.0661453848753088,ST
14.1666666666667,-2.86869359016418,-0.367857933044434,8.71494293212891,-0.602137982845306,0.0914639979600906,0.975615978240967,-1032.30004882812,4.5,-926.100036621094,1.77114232643789,-0.317990830885615,0.042735347043533,ST
14.2,-2.5618462562561,-0.604722559452057,8.77415943145752,-0.213415995240211,0.381099998950958,0.0914639979600906,-1029.90002441406,0.900000035762787,-938.100036621094,1.7778181291603,-0.28417019671825,0.069110436239062,ST
14.2333333333333,-2.4296567440033,-0.949851036071777,9.33761024475098,0.25152599811554,-0.487807989120483,-1.99696397781372,-1034.70007324219,1.5,-930.900024414062,1.80322557280068,-0.252184784443809,0.101728459592305,ST
14.2666666666667,-2.12280941009521,-0.662144243717194,9.0552864074707,0.472563982009888,-1.45580196380615,-2.64483404159546,-1025.10009765625,6.30000019073486,-935.700012207031,1.81860672768783,-0.226866558241117,0.0732593803697744,ST
14.3,-2.40632915496826,-0.672312676906586,8.45594692230225,-0.0762199983000755,-0.907018005847931,-1.14329993724823,-1025.10009765625,9.30000019073486,-928.500061035156,1.82901290075479,-0.274560187724664,0.0799806276349356,ST
14.3333333333333,-2.62524938583374,-1.287801861763,9.14082050323486,-1.36433792114258,0.274392008781433,0.503051996231079,-1032.30004882812,8.10000038146973,-918.900024414062,1.83821974240603,-0.277671932076201,0.142038974680282,ST
14.3666666666667,-2.65994191169739,-1.69633340835571,9.86277961730957,-1.35671591758728,-0.0076219998300075,-0.411587983369827,-1032.30004882812,9.90000057220459,-950.100036621094,1.84671154583132,-0.259694813569514,0.172806816601969,ST
14.4,-1.79143822193146,-1.88833737373352,9.0911750793457,-0.381099998950958,-0.922261953353882,-2.05031800270081,-1032.30004882812,5.70000028610229,-933.300048828125,1.86887621141476,-0.18846305898595,0.205992285249612,ST
14.4333333333333,-2.19099760055542,-2.24303603172302,9.03674411773682,-0.25152599811554,-0.121951997280121,-1.92074394226074,-1041.90002441406,0.300000011920929,-928.500061035156,1.89324181936148,-0.230040997753519,0.244435455207449,ST
14.4666666666667,-2.77179455757141,-2.33933711051941,9.95130443572998,-0.266770005226135,0.114329993724823,-0.937505960464478,-1017.90002441406,6.90000009536743,-928.500061035156,1.89740679523639,-0.264511360440907,0.231826402080198,ST
14.5,-2.40991806983948,-2.1090521812439,9.27958965301514,-0.228659987449646,-0.0914639979600906,0.0457319989800453,-1034.70007324219,5.10000038146973,-923.700012207031,1.8943559877266,-0.247931203834632,0.223872088963632,ST
14.5333333333333,-2.19757723808289,-2.2292788028717,9.36751747131348,-0.853663980960846,0.304879993200302,0.388722002506256,-1029.90002441406,4.5,-923.700012207031,1.89268767509324,-0.225110786614156,0.234973288091075,ST
14.5666666666667,-1.77887713909149,-1.80639171600342,9.21857929229736,-0.556405961513519,-0.78506600856781,0.457319974899292,-1025.10009765625,5.70000028610229,-926.100036621094,1.87833751446082,-0.186056500074692,0.194372009065927,ST
14.6,-1.49894630908966,-1.08862018585205,8.1425199508667,0.106707997620106,-0.693601965904236,1.6844619512558,-1034.70007324219,7.50000047683716,-930.900024414062,1.85219419831792,-0.179686961700069,0.13231511241014,ST
14.6333333333333,-0.968393445014954,-1.21423017978668,7.93197393417358,-0.0838419944047928,-0.0381099991500378,2.080806016922,-1032.30004882812,5.10000038146973,-933.300048828125,1.8373029902631,-0.12072748280526,0.151560728764818,ST
14.6666666666667,-0.956430613994598,-1.31352198123932,8.52533149719238,0.167683988809586,-0.46494197845459,0.0685980021953583,-1029.90002441406,5.70000028610229,-940.500061035156,1.8362656564889,-0.109654505631403,0.152550481102068,ST
14.7,-1.60362136363983,-1.63651919364929,9.41776084899902,0.602137982845306,-0.777444005012512,-1.37958192825317,-1044.30004882812,5.70000028610229,-928.500061035156,1.85013068019181,-0.164332474852868,0.171306735021609,ST
14.7333333333333,-2.44461035728455,-2.00377893447876,9.5445671081543,0.990859985351562,-0.503051996231079,-2.11129403114319,-1027.5,8.70000076293945,-930.900024414062,1.87568104707784,-0.243793434365726,0.205964723891064,ST
14.7666666666667,-2.99191117286682,-1.91405749320984,10.4405851364136,0.754577994346619,-0.503051996231079,-0.83841997385025,-1037.10009765625,11.1000003814697,-930.900024414062,1.87696102106715,-0.273539954759478,0.180420479120005,ST
14.8,-3.1707558631897,-2.56663155555725,9.46860313415527,-0.282013982534409,0.655492007732391,-0.403965979814529,-1025.10009765625,3.90000009536743,-928.500061035156,1.90536743233923,-0.313433524690366,0.26530289381317,ST
14.8333333333333,-3.71147704124451,-2.45118999481201,9.53499698638916,-0.655492007732391,0.960371971130371,0.0076219998300075,-1027.5,4.5,-921.300048828125,1.90122464796582,-0.362020973330446,0.252952785215003,ST
14.8666666666667,-2.80947756767273,-2.62704396247864,8.80466461181641,-0.708845973014832,0.708845973014832,0.663114011287689,-1020.30004882812,5.70000028610229,-938.100036621094,1.90803942649451,-0.29841578854909,0.290872563579048,ST
14.9,-2.34830927848816,-2.47391939163208,8.56421089172363,-0.358233988285065,0.228659987449646,0.228659987449646,-1020.30004882812,8.70000076293945,-926.100036621094,1.90343296821429,-0.258171582409824,0.281787279453103,ST
14.9333333333333,-2.07017278671265,-2.1892032623291,8.35486125946045,0.0609759986400604,-0.0990860015153885,0.884151995182037,-1017.90002441406,5.10000038146973,-938.100036621094,1.88983911958663,-0.235530543809721,0.255854039395187,ST
14.9666666666667,-2.04983592033386,-2.21552157402039,8.65453052520752,0.396344006061554,0.182927995920181,0.693601965904236,-1027.5,9.90000057220459,-923.700012207031,1.88351781471171,-0.22616814138245,0.249677722201307,ST
15.0,-2.53313541412354,-2.23466205596924,9.07442665100098,0.853663980960846,0.442075997591019,0.655492007732391,-1029.90002441406,5.70000028610229,-928.500061035156,1.87854246767776,-0.26561752388692,0.239738060394389,ST
15.0333333333333,-2.59354782104492,-2.18441820144653,8.96436882019043,1.2423859834671,0.121951997280121,1.37195992469788,-1032.30004882812,8.10000038146973,-940.500061035156,1.86891429388913,-0.274778249128503,0.236214088935627,ST
15.0666666666667,-2.5738091468811,-1.99061977863312,9.02777194976807,1.15092194080353,-0.114329993724823,2.05031800270081,-1020.30004882812,5.70000028610229,-933.300048828125,1.84745335099853,-0.272104829310523,0.214058246582174,ST
15.1,-2.71796154975891,-1.87936520576477,9.40998554229736,1.07470202445984,-0.236281991004944,1.82165801525116,-1020.30004882812,2.70000004768372,-921.300048828125,1.82825287964622,-0.276220219929032,0.194368672893418,ST
15.1333333333333,-2.58517384529114,-1.71487593650818,9.50628662109375,0.891773998737335,-0.480185985565186,1.6615959405899,-1020.30004882812,4.5,-933.300048828125,1.81032474438644,-0.261203501391614,0.176143268120002,ST
15.1666666666667,-2.04026556015015,-1.66822075843811,8.92070388793945,0.83841997385025,-0.358233988285065,0.792688012123108,-1034.70007324219,3.90000009536743,-940.500061035156,1.80618096264179,-0.220837914867067,0.183064629696332,ST
15.2,-2.24363422393799,-1.87757074832916,9.10672664642334,0.884151995182037,0.0990860015153885,0.243903994560242,-1015.50006103516,-1.5,-923.700012207031,1.81032225121133,-0.236999818334266,0.201660391305445,ST
15.2333333333333,-1.89850580692291,-1.78485858440399,8.93745231628418,1.08232402801514,-0.442075997591019,0.426831990480423,-1020.30004882812,2.70000004768372,-930.900024414062,1.80635466600499,-0.204798977394017,0.195048266149674,ST
15.2666666666667,-1.63891172409058,-1.4660484790802,8.95001316070557,1.28811800479889,-1.2423859834671,1.05183601379395,-1039.5,6.90000009536743,-918.900024414062,1.79059998960406,-0.176976731782798,0.159781523265799,ST
15.3,-1.4361412525177,-1.00607645511627,8.85730075836182,1.42531394958496,-1.61586391925812,1.44817996025085,-1027.5,6.90000009536743,-935.700012207031,1.77042805299221,-0.157260088066699,0.110286873438101,ST
15.3333333333333,-1.87697267532349,-1.21722090244293,8.85490894317627,0.815553963184357,-0.762199997901917,1.87501192092896,-1027.5,8.70000076293945,-935.700012207031,1.75773927960001,-0.206059941500484,0.134444939991064,ST
15.3666666666667,-2.21073651313782,-1.01863753795624,9.51346397399902,0.823175966739655,-0.594515979290009,1.13567793369293,-1027.5,4.5,-930.900024414062,1.74288471518867,-0.226201135880496,0.104824979008577,ST
15.4,-2.4517879486084,-0.867307305335999,9.29693603515625,0.655492007732391,-0.304879993200302,1.58537602424622,-1037.10009765625,2.10000014305115,-923.700012207031,1.72757123489854,-0.256431448189313,0.0911759498670234,ST
15.4333333333333,-2.68087673187256,-1.06888151168823,8.7101583480835,-0.152439996600151,0.617381989955902,1.57013201713562,-1037.10009765625,-5.10000038146973,-916.500061035156,1.72316933484077,-0.297790013026449,0.121503471374425,ST
15.4666666666667,-3.7252345085144,-1.20944511890411,9.10074520111084,-0.823175966739655,1.43293595314026,1.65397393703461,-1025.10009765625,3.90000009536743,-918.900024414062,1.71216057991009,-0.388148747419949,0.132503208518736,ST
15.5,-3.40522789955139,-1.69334280490875,9.87773323059082,-0.769822001457214,0.0990860015153885,0.0228659994900227,-1020.30004882812,0.300000011920929,-938.100036621094,1.72339474960083,-0.327869002523108,0.171026649514287,ST
15.5333333333333,-2.98174262046814,-1.56115317344666,9.11330604553223,-0.503051996231079,-0.975615978240967,-0.320124000310898,-1022.70001220703,0.900000035762787,-938.100036621094,1.72315706611331,-0.31022900070835,0.170621381710989,ST
15.5666666666667,-2.87766575813293,-1.55277919769287,8.76518726348877,-0.25152599811554,-0.670735955238342,0.152439996600151,-1029.90002441406,2.10000014305115,-928.500061035156,1.72156615894327,-0.311561058359821,0.175616598448643,ST
15.6,-2.83699202537537,-1.57909739017487,8.43381595611572,-0.175305992364883,0.137196004390717,0.685979962348938,-1039.5,5.10000038146973,-930.900024414062,1.71867492250351,-0.319757480725546,0.184998840749522,ST
15.6333333333333,-2.76401877403259,-1.53184413909912,9.28258037567139,0.167683988809586,-0.647870004177094,-0.266770005226135,-1025.10009765625,2.70000004768372,-928.500061035156,1.71394320456351,-0.284645647014526,0.163390234019381,ST
15.6666666666667,-1.62276184558868,-1.31172752380371,8.97692966461182,0.259148001670837,-2.0579400062561,-0.46494197845459,-1034.70007324219,6.30000019073486,-923.700012207031,1.71146080115266,-0.173601955790716,0.144737987119791,ST
15.7,-1.74897003173828,-1.16278994083405,8.74963569641113,0.106707997620106,-1.99696397781372,-0.457319974899292,-1029.90002441406,6.90000009536743,-928.500061035156,1.71089535010776,-0.192009075460955,0.132031318699851,ST
15.7333333333333,-2.24363422393799,-1.34103655815125,9.93635082244873,-0.121951997280121,-0.198172003030777,0.0533539988100529,-1027.5,6.90000009536743,-938.100036621094,1.71047148433239,-0.219746412890684,0.134328346354969,ST
15.7666666666667,-1.9529367685318,-1.40922486782074,9.98838901519775,-0.0152439996600151,-0.259148001670837,-0.129574000835419,-1022.70001220703,3.30000019073486,-923.700012207031,1.7124265764275,-0.190829325990872,0.140204511884165,ST
15.8,-1.94456279277802,-1.24832439422607,9.42434024810791,-0.365855991840363,-0.358233988285065,-0.381099998950958,-1025.10009765625,2.70000004768372,-909.300048828125,1.71308834195891,-0.201031560537411,0.13246614019973,ST
15.8333333333333,-1.82613050937653,-1.3099330663681,8.9894905090332,-0.975615978240967,0.182927995920181,-0.0990860015153885,-1041.90002441406,2.70000004768372,-921.300048828125,1.71522463083425,-0.198669437861299,0.146418875126562,ST
15.8666666666667,-1.91645002365112,-1.69693160057068,8.61864185333252,-1.2500079870224,1.75305998325348,-0.426831990480423,-1029.90002441406,8.70000076293945,-942.900024414062,1.72962520598259,-0.217616525950841,0.19675302790493,ST
15.9,-2.33275747299194,-1.94755351543427,8.79808521270752,-0.762199997901917,1.79117000102997,-1.01372599601746,-1029.90002441406,12.9000005722046,-926.100036621094,1.74550234497854,-0.255922077525151,0.219770024554901,ST
15.9333333333333,-2.42487168312073,-2.06837844848633,8.50918197631836,-0.114329993724823,0.762199997901917,-1.70732796192169,-1025.10009765625,8.10000038146973,-918.900024414062,1.76568557198047,-0.270688985053138,0.239492070455529,ST
15.9666666666667,-2.91295623779297,-2.03069543838501,8.79987907409668,0.495429992675781,-0.861285984516144,-1.27287399768829,-1015.50006103516,2.70000004768372,-933.300048828125,1.77186218434984,-0.309949212639673,0.226545450738657,ST
16.0,-2.65814733505249,-2.27294325828552,10.0159044265747,0.548784017562866,-2.74391984939575,-0.967993974685669,-1027.5,5.10000038146973,-916.500061035156,1.77473937446147,-0.248363350867062,0.222356068249511,ST
16.0333333333333,-1.38888800144196,-2.14015555381775,8.37340354919434,0.213415995240211,-4.11588001251221,-1.78354799747467,-1025.10009765625,10.5,-930.900024414062,1.78678886502448,-0.151849733505711,0.249984408188083,ST
16.0666666666667,-1.53004968166351,-2.48229336738586,8.72570991516113,-0.442075997591019,-1.14329993724823,-1.08232402801514,-1029.90002441406,-0.900000035762787,-918.900024414062,1.79686400685141,-0.164617097906825,0.278071448021879,ST
16.1,-1.77110135555267,-2.70001745223999,8.96676158905029,-0.0381099991500378,0.236281991004944,-0.670735955238342,-1034.70007324219,6.30000019073486,-923.700012207031,1.80540497980681,-0.186924658887243,0.292742715529108,ST
16.1333333333333,-2.21671795845032,-2.67190456390381,8.92010593414307,0.381099998950958,0.198172003030777,-0.586893975734711,-1039.5,8.10000038146973,-928.500061035156,1.81090920577077,-0.233630270318549,0.290628718104689,ST
16.1666666666667,-2.29507446289062,-2.65276408195496,8.99367809295654,0.3125019967556,-0.167683988809586,0.37347799539566,-1025.10009765625,6.90000009536743,-928.500061035156,1.80708363158421,-0.239930786816495,0.286117967644004,ST
16.2,-2.34591674804688,-2.50801348686218,9.61813926696777,0.640248000621796,-1.12805593013763,0.541162014007568,-1029.90002441406,6.90000009536743,-933.300048828125,1.7939724303354,-0.23012870492034,0.253710110204805,ST
16.2333333333333,-2.08093929290771,-2.60790324211121,9.74374866485596,0.92988395690918,-1.29574000835419,1.04421401023865,-1046.70007324219,6.90000009536743,-928.500061035156,1.78551305410929,-0.201802313942375,0.25940165646695,ST
16.2666666666667,-1.8267285823822,-2.19817543029785,9.32086181640625,1.02134799957275,-0.6250039935112,1.53202199935913,-1037.10009765625,4.5,-926.100036621094,1.76749019267793,-0.188066857194205,0.229349807969206,ST
16.3,-1.60003244876862,-1.71009075641632,8.79329967498779,1.04421401023865,-0.243903994560242,1.98934197425842,-1044.30004882812,6.90000009536743,-933.300048828125,1.74491236052615,-0.177016623783534,0.18972899323125,ST
16.3333333333333,-1.98463833332062,-1.72743690013885,8.14012813568115,0.518296003341675,1.44055795669556,3.02593398094177,-1029.90002441406,0.300000011920929,-933.300048828125,1.72696492638709,-0.237520781275705,0.207041909002036,ST
16.3666666666667,-2.85972166061401,-1.76751244068146,9.34538555145264,0.571649968624115,1.6615959405899,2.57623600959778,-1046.70007324219,2.10000014305115,-923.700012207031,1.70356622938055,-0.295638439421644,0.184791934253475,ST
16.4,-2.42247915267944,-1.62395811080933,9.13065242767334,0.914639949798584,0.442075997591019,1.86738991737366,-1032.30004882812,8.70000076293945,-926.100036621094,1.6875167208049,-0.256904399024372,0.173633847855818,ST
16.4333333333333,-2.44281578063965,-1.77409207820892,8.88003063201904,0.754577994346619,-0.0304879993200302,1.75305998325348,-1034.70007324219,0.300000011920929,-938.100036621094,1.68030190662474,-0.264011183809255,0.195004906571542,ST
16.4666666666667,-2.96738719940186,-1.89431881904602,9.8256950378418,0.6250039935112,-0.777444005012512,1.08994603157043,-1037.10009765625,5.70000028610229,-921.300048828125,1.67000531237839,-0.287248667648902,0.188753173996652,ST
16.5,-2.41649770736694,-1.67061328887939,9.88311672210693,0.945127964019775,-1.45580196380615,1.02134799957275,-1039.5,2.10000014305115,-921.300048828125,1.6551843558106,-0.234465013345484,0.165327834491677,ST
16.5333333333333,-1.61917304992676,-1.34103655815125,9.19644832611084,1.33385002613068,-1.53202199935913,1.36433792114258,-1034.70007324219,6.30000019073486,-926.100036621094,1.63923652695283,-0.170340747860845,0.142055321679151,ST
16.5666666666667,-1.31053125858307,-1.28241848945618,8.44518089294434,0.807931959629059,-0.449698001146317,0.960371971130371,-1037.10009765625,6.90000009536743,-938.100036621094,1.63206616314809,-0.151730917170417,0.149010465461354,ST
16.6,-1.40384149551392,-1.16817319393158,9.02836990356445,0.693601965904236,-0.685979962348938,0.411587983369827,-1041.90002441406,1.5,-918.900024414062,1.62544782371506,-0.151905290358172,0.127384442416502,ST
16.6333333333333,-1.00069320201874,-1.36855113506317,8.67068004608154,0.396344006061554,-1.265251994133,0.327746003866196,-1044.30004882812,3.30000019073486,-935.700012207031,1.62517082360261,-0.111516513880403,0.155681728410366,ST
16.6666666666667,-1.338045835495,-1.4080286026001,8.81184196472168,0.396344006061554,-1.52439999580383,-0.0838419944047928,-1041.90002441406,3.30000019073486,-918.900024414062,1.62457172663183,-0.146099513776084,0.157711552843572,ST
16.7,-1.51569426059723,-1.45588004589081,9.36811542510986,0.495429992675781,-1.97409796714783,0.213415995240211,-1037.10009765625,-1.5,-918.900024414062,1.62015784463061,-0.155161682415369,0.153180956619515,ST
16.7333333333333,-1.70530557632446,-2.03607869148254,9.84662914276123,0.167683988809586,-1.19665396213531,0.480185985565186,-1041.90002441406,-0.900000035762787,-914.100036621094,1.62243422721742,-0.166096709284985,0.203280589001698,ST
16.7666666666667,-1.95473122596741,-1.77827906608582,10.1343364715576,0.0381099991500378,-0.434453994035721,0.617381989955902,-1051.5,8.70000076293945,-926.100036621094,1.61090766771242,-0.18715551866493,0.173447313766162,ST
16.8,-2.1951847076416,-1.56474196910858,9.35555458068848,-0.0609759986400604,1.2576299905777,2.47714996337891,-1046.70007324219,7.50000047683716,-918.900024414062,1.59018831857183,-0.230190967561196,0.164934408289582,ST
16.8333333333333,-2.90338587760925,-1.46903908252716,9.10433387756348,0.198172003030777,1.95123195648193,2.43141794204712,-1041.90002441406,3.30000019073486,-926.100036621094,1.57167215301556,-0.308844860655394,0.158487835069036,ST
16.8666666666667,-3.69712162017822,-1.35359752178192,9.80296516418457,0.800309956073761,1.36433792114258,1.53202199935913,-1037.10009765625,-1.5,-933.300048828125,1.55555540283439,-0.360135858928805,0.135001404532099,ST
16.9,-2.66353058815002,-0.936691880226135,8.4828634262085,1.22714197635651,-0.731711983680725,0.78506600856781,-1051.5,5.70000028610229,-914.100036621094,1.54277959986091,-0.301536861745361,0.107432994958739,ST
16.9333333333333,-2.47511553764343,-0.897214472293854,8.17661476135254,0.571649968624115,-0.6250039935112,0.0609759986400604,-1039.5,0.300000011920929,-928.500061035156,1.54337993933331,-0.291235396353868,0.108225059469714,ST
16.9666666666667,-1.93499255180359,-1.06708705425262,9.0971565246582,0.0076219998300075,-1.18140995502472,-1.15854394435883,-1039.5,0.300000011920929,-942.900024414062,1.55413350701086,-0.206119948470017,0.117102297469785,ST
17.0,-1.9026927947998,-1.10058307647705,8.11440753936768,0.0685980021953583,-1.08994603157043,-1.29574000835419,-1044.30004882812,6.90000009536743,-923.700012207031,1.568335366164,-0.226084079408646,0.135118703093084,ST
17.0333333333333,-2.107257604599,-1.91704821586609,9.89627552032471,-0.327746003866196,-0.342989981174469,-2.13416004180908,-1049.10009765625,2.70000004768372,-911.700012207031,1.59773849044478,-0.204825141975344,0.192540265680991,ST
17.0666666666667,-1.13228464126587,-1.66223931312561,9.37708759307861,0.175305992364883,-2.53812599182129,-2.31708788871765,-1046.70007324219,5.70000028610229,-921.300048828125,1.61234247396937,-0.113386095888396,0.175526241166809,ST
17.1,-1.61199533939362,-2.18501615524292,8.86328220367432,-0.358233988285065,-1.03659200668335,-1.15854394435883,-1044.30004882812,-0.300000011920929,-930.900024414062,1.62900472371498,-0.172399305004692,0.242428162142785,ST
17.1333333333333,-1.8787670135498,-2.74727058410645,9.91780853271484,-0.99848198890686,0.480185985565186,-0.647870004177094,-1049.10009765625,3.30000019073486,-926.100036621094,1.63907724102872,-0.181053534215979,0.272137636142244,ST
17.1666666666667,-0.829026162624359,-2.55646300315857,8.61864185333252,-0.221037998795509,-0.304879993200302,0.144817993044853,-1044.30004882812,6.90000009536743,-911.700012207031,1.63911740329739,-0.0916965452652788,0.288670248816767,ST
17.2,-1.36316788196564,-2.74128913879395,9.4375,-0.0533539988100529,-0.0457319989800453,-0.472563982009888,-1053.90002441406,3.30000019073486,-928.500061035156,1.64217422773175,-0.13740940011249,0.282902266738427,ST
17.2333333333333,-1.42238402366638,-2.97037792205811,8.6264181137085,-0.182927995920181,0.487807989120483,0.350611984729767,-1041.90002441406,7.50000047683716,-923.700012207031,1.64755264166989,-0.155617952840148,0.331770166789569,ST
17.2666666666667,-1.81297135353088,-2.8603196144104,9.14201736450195,0.190549999475479,-0.182927995920181,1.15854394435883,-1046.70007324219,3.90000009536743,-911.700012207031,1.63300905765748,-0.187272850643801,0.302584447801373,ST
17.3,-1.39965450763702,-2.98951864242554,8.64496040344238,0.243903994560242,-0.335367977619171,1.95885396003723,-1037.10009765625,8.10000038146973,-918.900024414062,1.62155514404473,-0.152480880496727,0.331912557288118,ST
17.3333333333333,-1.61498606204987,-2.70420432090759,9.00683689117432,0.685979962348938,-1.11281192302704,2.31708788871765,-1041.90002441406,3.30000019073486,-926.100036621094,1.59223609639944,-0.16934944519528,0.289773705398765,ST
17.3666666666667,-1.33744764328003,-2.54629468917847,8.54207992553711,0.990859985351562,-1.45580196380615,3.07166600227356,-1049.10009765625,5.10000038146973,-911.700012207031,1.56442382080312,-0.148069823138246,0.287102796596513,ST
17.4,-1.65506160259247,-2.11622977256775,8.76698112487793,1.43293595314026,-0.937505960464478,3.39178991317749,-1046.70007324219,5.70000028610229,-928.500061035156,1.52696600719917,-0.181210154637006,0.233337852031068,ST
17.4333333333333,-1.81835460662842,-2.07735061645508,9.90464973449707,1.63872992992401,-0.350611984729767,3.70429182052612,-1044.30004882812,9.30000019073486,-921.300048828125,1.49258179955482,-0.178492642225537,0.202788626076776,ST
17.4666666666667,-0.816465139389038,-1.22080981731415,9.66658878326416,2.29422187805176,-2.0655620098114,2.96495795249939,-1051.5,5.10000038146973,-916.500061035156,1.45633617302546,-0.0808972174654458,0.121360129080667,ST
17.5,-0.887046039104462,-0.718369722366333,10.2934427261353,2.46952795982361,-1.71494996547699,3.75002384185791,-1061.10009765625,0.300000011920929,-926.100036621094,1.41632040663794,-0.083194287644297,0.0648591721436025,ST
17.5333333333333,-0.907981038093567,-0.11484345048666,9.84124660491943,2.57623600959778,-1.41006994247437,3.03355598449707,-1065.90002441406,6.30000019073486,-921.300048828125,1.38693915101986,-0.0895610255965733,0.0068379080321579,ST
17.5666666666667,-1.18791198730469,0.0562254376709461,9.14859676361084,1.2576299905777,0.350611984729767,2.9268479347229,-1049.10009765625,3.90000009536743,-916.500061035156,1.35996329160435,-0.129626233166587,-0.0089803206462954,ST
17.6,-0.916953146457672,-0.359483927488327,9.36990928649902,-0.0990860015153885,0.350611984729767,1.82927989959717,-1063.5,5.10000038146973,-914.100036621094,1.34960002185716,-0.0982880680848885,0.0380907079627255,ST
