seconds,sensor_accX_m_s_,sensor_accY_m_s_,sensor_accZ_m_s_,sensor_gyroX___s_,sensor_gyroY___s_,sensor_gyroZ___s_,sensor_magX__T_,sensor_magY__T_,sensor_magZ__T_,sensor_yaw___,sensor_pitch___,sensor_roll___,label1
0.0,-2.84476804733276,-2.31122446060181,8.77834606170654,0.396344006061554,-0.320124000310898,0.327746003866196,-1015.50006103516,13.5000009536743,-938.100036621094,1.16778672792267,-0.301826997981439,0.257647752949636,ST
0.0333333333333333,-2.87766575813293,-2.28490614891052,8.78073883056641,0.419209986925125,-0.426831990480423,0.335367977619171,-1017.90002441406,2.70000004768372,-938.100036621094,1.16644460543492,-0.305132923995603,0.254820888165227,ST
0.0666666666666667,-2.76700949668884,-2.24602675437927,8.72391510009766,0.37347799539566,-0.518296003341675,0.365855991840363,-1017.90002441406,9.90000057220459,-935.700012207031,1.16505686707124,-0.299652466739854,0.252196230711437,ST
0.1,-2.71138215065002,-2.21253085136414,8.83217906951904,0.3125019967556,-0.556405961513519,0.327746003866196,-1022.70001220703,10.5,-947.700012207031,1.16292706709709,-0.291942321974579,0.246928795717112,ST
0.133333333333333,-2.60192203521729,-2.29328012466431,8.83576774597168,0.3125019967556,-0.533540010452271,0.259148001670837,-1025.10009765625,4.5,-926.100036621094,1.16368822186625,-0.281410813364168,0.251320615750827,ST
0.166666666666667,-2.64139938354492,-2.30165410041809,8.84115123748779,0.327746003866196,-0.358233988285065,0.121951997280121,-1022.70001220703,7.50000047683716,-933.300048828125,1.16402182374938,-0.281052602643399,0.253197072368539,ST
0.2,-2.62883830070496,-2.31182265281677,8.77655220031738,0.342989981174469,-0.259148001670837,0.160062000155449,-1020.30004882812,11.1000003814697,-942.900024414062,1.16452948617836,-0.281413001421328,0.255750068906892,ST
0.233333333333333,-2.69941926002502,-2.29985976219177,8.87046051025391,0.350611984729767,-0.175305992364883,0.182927995920181,-1017.90002441406,5.10000038146973,-947.700012207031,1.16372320620818,-0.285046020842421,0.253658978121531,ST
0.266666666666667,-2.72573757171631,-2.31959843635559,8.86986255645752,0.434453994035721,-0.304879993200302,0.243903994560242,-1010.70001220703,12.9000005722046,-947.700012207031,1.16364046844347,-0.287649810703521,0.254549527446901,ST
0.3,-2.64259552955627,-2.28969120979309,8.74784088134766,0.37347799539566,-0.327746003866196,0.213415995240211,-1020.30004882812,8.70000076293945,-950.100036621094,1.16345231780292,-0.284856020935012,0.255030137804405,ST
0.333333333333333,-2.73231720924377,-2.27653217315674,8.79449653625488,0.3125019967556,-0.266770005226135,0.259148001670837,-1029.90002441406,15.3000001907349,-938.100036621094,1.1625537995743,-0.289912832775251,0.25325981313627,ST
0.366666666666667,-2.71796154975891,-2.27055072784424,8.78432750701904,0.297257989645004,-0.274392008781433,0.304879993200302,-1022.70001220703,12.3000001907349,-942.900024414062,1.16184008128288,-0.290513656020321,0.252502047946298,ST
0.4,-2.76760745048523,-2.21372723579407,8.83516979217529,0.259148001670837,-0.411587983369827,0.365855991840363,-1017.90002441406,11.1000003814697,-930.900024414062,1.15961806133978,-0.293321320068016,0.247024768302518,ST
0.433333333333333,-2.64259552955627,-2.2532045841217,8.80705738067627,0.167683988809586,-0.411587983369827,0.495429992675781,-1015.50006103516,15.3000001907349,-933.300048828125,1.15925910381411,-0.285271508280797,0.249130108803234,ST
0.466666666666667,-2.56842589378357,-2.29985976219177,8.84473991394043,0.160062000155449,-0.320124000310898,0.350611984729767,-1020.30004882812,15.9000005722046,-921.300048828125,1.15956762745359,-0.277102775269454,0.2524708429123,ST
0.5,-2.63123083114624,-2.32019662857056,8.85431003570557,0.259148001670837,-0.236281991004944,0.152439996600151,-1022.70001220703,13.5000009536743,-930.900024414062,1.15998077582895,-0.278903197338867,0.254829607071321,ST
0.533333333333333,-2.70958757400513,-2.34113168716431,8.80765533447266,0.289635986089706,-0.236281991004944,0.221037998795509,-1015.50006103516,13.5000009536743,-928.500061035156,1.16051391974906,-0.285878163611969,0.257907085005324,ST
0.566666666666667,-2.73171901702881,-2.37821650505066,8.83277702331543,0.266770005226135,-0.182927995920181,0.480185985565186,-1013.10003662109,3.90000009536743,-940.500061035156,1.16066419834982,-0.288838924565487,0.2609645085499,ST
0.6,-2.63242721557617,-2.35548710823059,8.77116870880127,0.213415995240211,-0.213415995240211,0.510673999786377,-1020.30004882812,3.30000019073486,-935.700012207031,1.16000610083121,-0.284051211782602,0.261483060320526,ST
0.633333333333333,-2.71018576622009,-2.35608506202698,8.79808521270752,0.167683988809586,-0.25152599811554,0.381099998950958,-1020.30004882812,8.70000076293945,-933.300048828125,1.15930194236893,-0.287485453091423,0.261243343610689,ST
0.666666666666667,-2.72872829437256,-2.43922710418701,8.80047798156738,0.213415995240211,-0.236281991004944,0.327746003866196,-1025.10009765625,12.3000001907349,-957.300048828125,1.16048443672879,-0.289322220188269,0.267233707042225,ST
0.7,-2.74846696853638,-2.44819927215576,8.81184196472168,0.259148001670837,-0.289635986089706,0.442075997591019,-1027.5,14.7000007629395,-940.500061035156,1.16038903183993,-0.29095319529743,0.269363794485275,ST
0.733333333333333,-2.58038878440857,-2.45238614082336,8.76339244842529,0.182927995920181,-0.365855991840363,0.457319974899292,-1013.10003662109,2.70000004768372,-930.900024414062,1.1601177978339,-0.279847835930355,0.271512194472471,ST
0.766666666666667,-2.72155046463013,-2.44341397285461,8.83217906951904,0.266770005226135,-0.274392008781433,0.46494197845459,-1022.70001220703,14.1000003814697,-945.300048828125,1.15892349103565,-0.285858648532498,0.269873438200008,ST
0.8,-2.62584757804871,-2.46434903144836,8.77057075500488,0.358233988285065,-0.236281991004944,0.411587983369827,-1029.90002441406,8.70000076293945,-940.500061035156,1.15895868694496,-0.282056630121344,0.272101432282244,ST
0.833333333333333,-2.63781046867371,-2.43683457374573,8.78552436828613,0.342989981174469,-0.426831990480423,0.388722002506256,-1020.30004882812,6.90000009536743,-947.700012207031,1.15779293822097,-0.281359595463822,0.270375449746396,ST
0.866666666666667,-2.56483697891235,-2.4816951751709,8.71733570098877,0.236281991004944,-0.327746003866196,0.335367977619171,-1034.70007324219,5.70000028610229,-938.100036621094,1.15846702322377,-0.276874059140716,0.275143332006077,ST
0.9,-2.62285685539246,-2.50083565711975,8.84055328369141,0.3125019967556,-0.297257989645004,0.320124000310898,-1017.90002441406,5.10000038146973,-945.300048828125,1.15792974374329,-0.27747775126325,0.275001654436956,ST
0.933333333333333,-2.59235167503357,-2.45418071746826,8.85909557342529,0.396344006061554,-0.503051996231079,0.274392008781433,-1015.50006103516,15.9000005722046,-954.900024414062,1.15637483558296,-0.275148011240442,0.271054089825867,ST
0.966666666666667,-2.55706119537354,-2.42487168312073,8.81902027130127,0.411587983369827,-0.640248000621796,0.25152599811554,-1029.90002441406,13.5000009536743,-935.700012207031,1.15519025080948,-0.27270361363259,0.2685040101592,ST
1.0,-2.56244444847107,-2.36625361442566,8.91591930389404,0.449698001146317,-0.480185985565186,0.304879993200302,-1029.90002441406,11.1000003814697,-938.100036621094,1.15280706579113,-0.271013124846461,0.261456363089289,ST
1.03333333333333,-2.49724698066711,-2.37642192840576,8.8937873840332,0.449698001146317,-0.472563982009888,0.243903994560242,-1020.30004882812,11.7000007629395,-940.500061035156,1.15217442892725,-0.266253762032324,0.260538871910554,ST
1.06666666666667,-2.52416324615479,-2.30883193016052,8.89857292175293,0.487807989120483,-0.579271972179413,0.236281991004944,-1025.10009765625,10.5,-938.100036621094,1.15034958907783,-0.26684076935479,0.255150633162564,ST
1.1,-2.48289155960083,-2.28251361846924,8.81184196472168,0.388722002506256,-0.46494197845459,0.289635986089706,-1022.70001220703,14.7000007629395,-938.100036621094,1.14939268807685,-0.265993605829441,0.253359916486118,ST
1.13333333333333,-2.44461035728455,-2.33515024185181,8.82679557800293,0.3125019967556,-0.327746003866196,0.282013982534409,-1034.70007324219,15.9000005722046,-945.300048828125,1.14977832886336,-0.26238267716979,0.256776861817247,ST
1.16666666666667,-2.50621914863586,-2.35309433937073,8.93206882476807,0.320124000310898,-0.304879993200302,0.175305992364883,-1025.10009765625,6.30000019073486,-947.700012207031,1.14953522476783,-0.26387253757526,0.256873737875653,ST
1.2,-2.49006915092468,-2.38599228858948,8.88122653961182,0.37347799539566,-0.243903994560242,0.175305992364883,-1032.30004882812,7.50000047683716,-935.700012207031,1.15021642764295,-0.264038006227027,0.260372107833356,ST
1.23333333333333,-2.5456964969635,-2.37283325195312,8.87404918670654,0.403965979814529,-0.0457319989800453,0.175305992364883,-1022.70001220703,10.5,-940.500061035156,1.15011549576904,-0.268535612986713,0.26045277344133,ST
1.26666666666667,-2.59713673591614,-2.37582397460938,8.84773063659668,0.426831990480423,0.0304879993200302,0.167683988809586,-1027.5,9.90000057220459,-947.700012207031,1.15025493491596,-0.274015747750759,0.261194356415351,ST
1.3,-2.70719504356384,-2.38180541992188,8.87943267822266,0.480185985565186,0.0,0.167683988809586,-1034.70007324219,8.10000038146973,-935.700012207031,1.15020437417923,-0.282713302676668,0.26116192397228,ST
1.33333333333333,-2.76999998092651,-2.35668325424194,8.81004810333252,0.564027965068817,0.0076219998300075,0.335367977619171,-1032.30004882812,5.70000028610229,-935.700012207031,1.14972725214376,-0.291810747347096,0.260472054250528,ST
1.36666666666667,-2.78734636306763,-2.47810626029968,8.83995532989502,0.525918006896973,-0.0838419944047928,0.388722002506256,-1017.90002441406,5.70000028610229,-933.300048828125,1.15169638356443,-0.293907467041473,0.268660271682054,ST
1.4,-2.900395154953,-2.70659685134888,8.89139556884766,0.579271972179413,-0.213415995240211,0.487807989120483,-1025.10009765625,8.10000038146973,-945.300048828125,1.15641792617226,-0.2999578294582,0.28683517669835,ST
1.43333333333333,-2.81187009811401,-2.85194563865662,8.72630786895752,0.571649968624115,-0.175305992364883,0.403965979814529,-1020.30004882812,-0.300000011920929,-940.500061035156,1.16171377241833,-0.29801137659922,0.306280022176947,ST
1.46666666666667,-2.86450672149658,-3.06368827819824,8.55105209350586,0.533540010452271,0.0685980021953583,0.472563982009888,-1020.30004882812,5.10000038146973,-940.500061035156,1.16885196854935,-0.303550277246162,0.331832356409561,ST
1.5,-2.73949480056763,-3.45666813850403,8.05459308624268,0.403965979814529,0.327746003866196,0.472563982009888,-1022.70001220703,8.70000076293945,-933.300048828125,1.18450791577268,-0.303888601176438,0.385394304603866,ST
1.53333333333333,-2.69463419914246,-3.67439222335815,8.09287452697754,0.510673999786377,0.182927995920181,0.548784017562866,-1015.50006103516,3.90000009536743,-945.300048828125,1.19255131663627,-0.297532832190718,0.414187277105057,ST
1.56666666666667,-2.44939541816711,-3.89630341529846,8.20353126525879,0.830797970294952,-0.518296003341675,0.807931959629059,-1029.90002441406,6.90000009536743,-942.900024414062,1.1968944119738,-0.272667439680459,0.43404291763937,ST
1.6,-2.06778025627136,-4.0296893119812,8.22685813903809,1.00610399246216,-0.983237981796265,0.884151995182037,-1034.70007324219,5.70000028610229,-930.900024414062,1.19868272654573,-0.236649490283385,0.447481269225805,ST
1.63333333333333,-1.79442894458771,-4.07096099853516,8.62761402130127,1.2500079870224,-0.792688012123108,0.701223969459534,-1025.10009765625,6.30000019073486,-940.500061035156,1.19600598983221,-0.199332952545165,0.440832735702291,ST
1.66666666666667,-1.89312255382538,-3.98423027992249,8.71972846984863,1.58537602424622,-0.137196004390717,0.571649968624115,-1027.5,3.90000009536743,-935.700012207031,1.19337420840511,-0.19631158494563,0.429798135839914,ST
1.7,-2.4517879486084,-3.85263895988464,9.00025749206543,1.6692179441452,0.739333987236023,0.350611984729767,-1027.5,2.10000014305115,-930.900024414062,1.18975742318255,-0.231653006226898,0.410094818229464,ST
1.73333333333333,-3.17314839363098,-3.01763129234314,9.25985145568848,2.0731840133667,1.36433792114258,0.6250039935112,-1020.30004882812,3.90000009536743,-950.100036621094,1.17274775753281,-0.29205507678793,0.341534102275864,ST
1.76666666666667,-3.30952501296997,-2.04206013679504,8.94642448425293,2.72867584228516,1.17378795146942,1.35671591758728,-1020.30004882812,3.90000009536743,-942.900024414062,1.14641098336643,-0.332202522822374,0.256319664544861,ST
1.8,-3.19527983665466,-1.09579789638519,9.33940410614014,3.20123982429504,0.762199997901917,2.00458598136902,-1015.50006103516,5.70000028610229,-940.500061035156,1.1099422152096,-0.330835396277355,0.148298031316202,ST
1.83333333333333,-3.04155707359314,-0.349315494298935,9.27659893035889,3.87959790229797,-0.0990860015153885,1.47866797447205,-1032.30004882812,9.30000019073486,-947.700012207031,1.08162554775458,-0.320748040042007,0.0608618709999919,ST
1.86666666666667,-2.93807816505432,0.654966533184052,8.88421726226807,4.82472610473633,-0.442075997591019,1.265251994133,-1017.90002441406,6.90000009536743,-930.900024414062,1.05053085735427,-0.319236346882911,-0.0395577203497559,ST
1.9,-3.04335141181946,0.614890992641449,10.082896232605,4.45886993408203,-0.914639949798584,1.12043392658234,-1025.10009765625,-3.30000019073486,-933.300048828125,1.04478048913128,-0.299446181984399,-0.0603762281157499,ST
1.93333333333333,-1.72324991226196,1.10297560691833,8.59172534942627,3.49849796295166,-2.37044191360474,-0.670735955238342,-1017.90002441406,-0.300000011920929,-923.700012207031,1.03447971495919,-0.224688426795815,-0.111804581748427,ST
1.96666666666667,-2.84058094024658,0.965402781963348,9.71444034576416,1.52439999580383,-2.32470989227295,-0.952749967575073,-1029.90002441406,-3.30000019073486,-933.300048828125,1.03924426787743,-0.264958290387842,-0.104028868307173,ST
2.0,-2.88903045654297,0.500645637512207,8.31418704986572,-0.129574000835419,-1.13567793369293,-0.365855991840363,-1025.10009765625,-2.10000014305115,-935.700012207031,1.04870324637207,-0.311815951965874,-0.0732713333040351,ST
2.03333333333333,-2.65994191169739,-0.117834165692329,8.6264181137085,-2.0655620098114,1.02897000312805,-0.762199997901917,-1022.70001220703,-3.30000019073486,-938.100036621094,1.06948820465158,-0.30383015883472,-0.0050356328939827,ST
2.06666666666667,-2.73171901702881,-0.55567479133606,8.98649978637695,-1.41006994247437,0.106707997620106,-1.92074394226074,-1010.70001220703,-2.70000004768372,-928.500061035156,1.0871796373144,-0.297308185180262,0.0459576934526047,ST
2.1,-2.93090057373047,-0.880466461181641,8.87644195556641,-0.701223969459534,-0.571649968624115,-2.62959003448486,-1010.70001220703,5.70000028610229,-942.900024414062,1.10267597643799,-0.310557059958359,0.0846973990495477,ST
2.13333333333333,-2.71018576622009,-1.13706982135773,9.13005447387695,0.121951997280121,-1.71494996547699,-3.23934984207153,-1027.5,-0.300000011920929,-933.300048828125,1.11741119667837,-0.28986110233418,0.115191510319462,ST
2.16666666666667,-2.37343120574951,-1.38529908657074,8.94522857666016,0.762199997901917,-3.61282801628113,-4.16923379898071,-1020.30004882812,-0.900000035762787,-928.500061035156,1.13129687054632,-0.261497452879199,0.142441485279172,ST
2.2,-2.26995253562927,-1.60721015930176,9.4793701171875,1.30336201190948,-5.21344804763794,-4.85521411895752,-1041.90002441406,2.10000014305115,-928.500061035156,1.14286563494171,-0.233600034816049,0.159924943394779,ST
2.23333333333333,-2.119220495224,-1.77050316333771,9.48236083984375,2.36281991004944,-6.98175191879272,-4.42075967788696,-1039.5,-3.30000019073486,-928.500061035156,1.15253328035557,-0.21219105013997,0.175159214036637,ST
2.26666666666667,-1.61319160461426,-1.53722739219666,9.28258037567139,2.62959003448486,-6.11284399032593,-3.61282801628113,-1051.5,-3.90000009536743,-938.100036621094,1.15570244942929,-0.174461980030578,0.164802088938933,ST
2.3,-1.3960657119751,-1.11673295497894,9.89507961273193,2.9268479347229,-5.09149599075317,-2.31708788871765,-1051.5,2.10000014305115,-935.700012207031,1.15282047190901,-0.142202817149551,0.123332350361553,ST
2.33333333333333,-1.39965450763702,-0.762632310390472,9.07143592834473,3.01831197738647,-3.50611996650696,-0.739333987236023,-1058.70007324219,-5.10000038146973,-942.900024414062,1.1496141070847,-0.145222955954596,0.0909715228279197,ST
2.36666666666667,-0.956430613994598,-0.507823407649994,9.48953819274902,1.97409796714783,-1.31098401546478,0.769822001457214,-1075.5,-3.90000009536743,-933.300048828125,1.14459589012634,-0.110480481475543,0.0605717434464785,ST
2.4,-0.583189368247986,-0.230285048484802,9.61215782165527,1.60061991214752,-1.34909391403198,1.15092194080353,-1061.10009765625,-9.30000019073486,-928.500061035156,1.13993414029911,-0.0719961622875941,0.0313242292848497,ST
2.43333333333333,-0.683677434921265,0.0047851437702775,9.34658241271973,0.945127964019775,-0.647870004177094,1.63872992992401,-1058.70007324219,-11.1000003814697,-930.900024414062,1.13539383720143,-0.0719585599087529,0.0073152046621768,ST
2.46666666666667,-0.447410941123962,0.0077758585102856,9.44886493682861,-0.0,0.259148001670837,1.94360995292664,-1065.90002441406,-0.900000035762787,-928.500061035156,1.13167307361675,-0.0550497556139241,0.0014751469268724,ST
2.5,-0.393578082323074,-0.147741317749023,9.32026386260986,-0.800309956073761,0.434453994035721,1.70732796192169,-1070.70007324219,-5.10000038146973,-923.700012207031,1.12896968598162,-0.0461456683766737,0.0130075354697819,ST
2.53333333333333,-0.611302137374878,-0.268566191196442,9.39802265167236,-1.59299790859222,0.960371971130371,2.18751406669617,-1063.5,-10.5,-935.700012207031,1.12575737894822,-0.0605096355624597,0.025685096373957,ST
2.56666666666667,-1.00667464733124,-0.296080768108368,9.33461952209473,-2.29422187805176,1.77592599391937,3.01068997383118,-1070.70007324219,0.900000035762787,-926.100036621094,1.12088255126035,-0.095557410390238,0.0323942188199092,ST
2.6,-1.48279643058777,-1.15920102596283,9.81732082366943,-3.33843588829041,2.19513607025146,3.88721990585327,-1068.30004882812,-5.10000038146973,-940.500061035156,1.1210096224733,-0.136704932953859,0.0964899118374989,ST
2.63333333333333,-1.90987050533295,-1.42118775844574,10.0218858718872,-3.51374197006226,2.28659987449646,4.1311240196228,-1075.5,-0.900000035762787,-930.900024414062,1.11885839525404,-0.174907324065163,0.13096970882057,ST
2.66666666666667,-2.09409856796265,-1.64190244674683,10.0087261199951,-2.99544596672058,2.5000159740448,4.64179801940918,-1070.70007324219,-1.5,-950.100036621094,1.11514275104939,-0.199296078077969,0.156185939803264,ST
2.7,-2.29746723175049,-1.49595558643341,8.88720798492432,-2.10367202758789,3.16313004493713,4.43600368499756,-1044.30004882812,3.30000019073486,-945.300048828125,1.10919601870974,-0.24136541301104,0.165527739362198,ST
2.73333333333333,-2.5217707157135,-1.52646088600159,8.50379848480225,-1.6920839548111,3.95581793785095,4.05490398406982,-1049.10009765625,6.90000009536743,-940.500061035156,1.10529602098983,-0.276773448097349,0.174917983089682,ST
2.76666666666667,-2.57859444618225,-1.72085738182068,8.37759017944336,-1.47866797447205,3.28508186340332,2.19513607025146,-1041.90002441406,2.70000004768372,-935.700012207031,1.10777507537872,-0.292462385313143,0.195493314502519,ST
2.8,-2.60790324211121,-1.78904557228088,8.72989654541016,-0.830797970294952,2.08842802047729,0.609759986400604,-1037.10009765625,4.5,-938.100036621094,1.10865800805572,-0.289681619351793,0.20108722140391,ST
2.83333333333333,-2.60251998901367,-1.61977112293243,9.0612678527832,-0.0762199983000755,0.518296003341675,-0.571649968624115,-1032.30004882812,-0.900000035762787,-940.500061035156,1.10498947254612,-0.280121833285711,0.184153427918805,ST
2.86666666666667,-2.17066073417664,-1.61498606204987,9.7000846862793,0.716467976570129,-1.31098401546478,-0.807931959629059,-1037.10009765625,8.70000076293945,-942.900024414062,1.10262192405378,-0.233553667268234,0.169709301262537,ST
2.9,-1.79682147502899,-1.6383136510849,9.49551963806152,0.952749967575073,-2.40092992782593,-1.14329993724823,-1037.10009765625,6.90000009536743,-945.300048828125,1.10415906676373,-0.196030501990433,0.169534684660402,ST
2.93333333333333,-2.14374446868896,-1.52825534343719,9.19943904876709,0.92988395690918,-1.82165801525116,-1.21951997280121,-1039.5,1.5,-942.900024414062,1.10512133190391,-0.214511621096597,0.165202001602142,ST
2.96666666666667,-2.5175838470459,-1.64130425453186,9.14620399475098,0.350611984729767,0.0304879993200302,0.282013982534409,-1046.70007324219,3.30000019073486,-950.100036621094,1.10666318734703,-0.249607825385009,0.173293605349218,ST
3.0,-3.11512851715088,-1.39905643463135,9.04691219329834,0.236281991004944,0.983237981796265,1.31098401546478,-1046.70007324219,-2.10000014305115,-935.700012207031,1.10092241372468,-0.305846412140285,0.158803900322006,ST
3.03333333333333,-3.10615634918213,-1.43673944473267,8.85670280456543,0.350611984729767,1.93598794937134,2.21037983894348,-1049.10009765625,4.5,-938.100036621094,1.09809546701231,-0.327783054590778,0.159018923280106,ST
3.06666666666667,-2.85493636131287,-1.26806306838989,8.51815414428711,0.922261953353882,0.945127964019775,0.693601965904236,-1046.70007324219,3.30000019073486,-942.900024414062,1.09464188187782,-0.323532650144871,0.14946041762471,ST
3.1,-3.14264321327209,-1.26686680316925,8.39493656158447,0.617381989955902,-0.175305992364883,-0.198172003030777,-1037.10009765625,1.5,-938.100036621094,1.0951166954193,-0.344946309831336,0.148996766831262,ST
3.13333333333333,-3.27901983261108,-1.31292378902435,8.17721271514893,-0.0152439996600151,-0.434453994035721,0.274392008781433,-1037.10009765625,6.90000009536743,-928.500061035156,1.09702127588569,-0.36729124334642,0.156094681759911,ST
3.16666666666667,-2.81844973564148,-1.77708280086517,8.56839847564697,-0.6250039935112,-1.64635193347931,-0.708845973014832,-1025.10009765625,1.5,-942.900024414062,1.10984724382409,-0.324026186300325,0.192954482398511,ST
3.2,-2.87706780433655,-1.86441159248352,8.94702243804932,-0.891773998737335,-2.4923939704895,-1.29574000835419,-1046.70007324219,8.70000076293945,-935.700012207031,1.113798881745,-0.307420903448359,0.203093153973306,ST
3.23333333333333,-3.11333417892456,-1.58507883548737,8.85670280456543,-0.419209986925125,-1.41006994247437,-0.411587983369827,-1037.10009765625,9.90000057220459,-935.700012207031,1.10833693108679,-0.323636495094064,0.185532436616676,ST
3.26666666666667,-3.04155707359314,-1.51031100749969,8.60727691650391,-0.335367977619171,-0.182927995920181,0.701223969459534,-1039.5,5.70000028610229,-942.900024414062,1.10434364520582,-0.331479167717436,0.177377174498775,ST
3.3,-3.17912983894348,-1.25430583953857,8.39254379272461,-0.0914639979600906,0.426831990480423,0.754577994346619,-1037.10009765625,6.30000019073486,-933.300048828125,1.09636019545523,-0.351038565769125,0.156959066048673,ST
3.33333333333333,-3.38130211830139,-0.836802005767822,8.36203861236572,0.495429992675781,-0.243903994560242,0.266770005226135,-1041.90002441406,9.30000019073486,-945.300048828125,1.0817923223123,-0.372929171378118,0.116352848605172,ST
3.36666666666667,-2.95123744010925,-1.02222633361816,8.46671390533447,0.411587983369827,-1.17378795146942,-0.586893975734711,-1029.90002441406,6.30000019073486,-933.300048828125,1.08359479790232,-0.343607703846561,0.118715634062847,ST
3.4,-3.39625573158264,-1.26925933361053,8.59232425689697,0.0609759986400604,-1.79117000102997,-1.57013201713562,-1039.5,2.70000004768372,-933.300048828125,1.09268738608263,-0.361581646160574,0.138692151532418,ST
3.43333333333333,-3.32746934890747,-1.38649535179138,8.0474157333374,-0.403965979814529,-1.15854394435883,-1.02134799957275,-1046.70007324219,9.30000019073486,-935.700012207031,1.10214226778874,-0.377753826554723,0.161814596063337,ST
3.46666666666667,-3.16298007965088,-1.45348739624023,8.73468208312988,-0.205793991684914,-0.99848198890686,-0.541162014007568,-1041.90002441406,6.30000019073486,-938.100036621094,1.1035684216045,-0.351709947837939,0.164441560155561,ST
3.5,-2.51698565483093,-1.61737859249115,8.77894401550293,0.274392008781433,-1.58537602424622,-1.11281192302704,-1056.30004882812,9.30000019073486,-938.100036621094,1.1090555436105,-0.295824764859654,0.176922346074025,ST
3.53333333333333,-2.57261300086975,-1.79502701759338,9.70247745513916,0.167683988809586,-2.43141794204712,-1.95885396003723,-1051.5,10.5,-938.100036621094,1.11326207486131,-0.261655413348138,0.181769177754728,ST
3.56666666666667,-1.49356305599213,-1.73521280288696,9.49312686920166,0.137196004390717,-3.07166600227356,-1.83690190315247,-1061.10009765625,6.30000019073486,-933.300048828125,1.11543822423447,-0.17902171346527,0.181197189944783,ST
3.6,-1.77409207820892,-1.51270353794098,9.5385856628418,-0.0838419944047928,-1.05945801734924,-0.937505960464478,-1051.5,0.900000035762787,-938.100036621094,1.11370215413203,-0.179431997223816,0.16412648669416,ST
3.63333333333333,-2.04744338989258,-1.61857485771179,11.6177310943604,-0.335367977619171,-0.144817993044853,0.78506600856781,-1063.5,11.7000007629395,-950.100036621094,1.10881275202741,-0.174525072948249,0.145403206715233,ST
3.66666666666667,-3.33404898643494,-0.951645493507385,13.9564695358276,0.350611984729767,-0.800309956073761,0.640248000621796,-1049.10009765625,2.10000014305115,-938.100036621094,1.09712637491003,-0.215335121829654,0.0909537967566744,ST
3.7,-2.48588228225708,-0.425279647111893,15.2975063323975,0.419209986925125,-0.868907988071442,0.922261953353882,-1053.90002441406,4.5,-930.900024414062,1.08683049679608,-0.176456007347662,0.0458942542568142,ST
3.73333333333333,-2.77358889579773,-1.33026993274689,11.4000072479248,-1.86738991737366,2.71343183517456,-0.198172003030777,-1046.70007324219,9.30000019073486,-930.900024414062,1.09743758494594,-0.223920184228962,0.0991051553665862,ST
3.76666666666667,-3.60261511802673,-2.65994191169739,10.0135116577148,-3.05642199516296,3.94819593429565,0.403965979814529,-1046.70007324219,8.70000076293945,-940.500061035156,1.12712776838744,-0.308229898283141,0.215864160852044,ST
3.8,-2.01992893218994,-3.20903706550598,8.88601207733154,-1.79879200458527,0.289635986089706,0.472563982009888,-1051.5,14.7000007629395,-942.900024414062,1.15184857436909,-0.238585635996244,0.313275220736202,ST
3.83333333333333,-1.20525813102722,-3.79342269897461,7.74714756011963,-1.00610399246216,-1.02897000312805,-2.71343183517456,-1044.30004882812,15.9000005722046,-947.700012207031,1.17597653228667,-0.165803206118213,0.416488519153846,ST
3.86666666666667,-1.87099123001099,-4.97714757919312,7.67118358612061,-0.289635986089706,0.663114011287689,-4.07776975631714,-1037.10009765625,12.3000001907349,-933.300048828125,1.20242685621084,-0.18990427829295,0.528217227708558,ST
3.9,-3.01105165481567,-5.31569671630859,8.23463439941406,0.259148001670837,0.297257989645004,-2.69056582450867,-1053.90002441406,14.1000003814697,-933.300048828125,1.21379746773438,-0.264083207618774,0.559771206367798,ST
3.93333333333333,-2.89261937141418,-5.03038215637207,9.03614616394043,0.983237981796265,-2.72867584228516,-1.21951997280121,-1051.5,5.10000038146973,-933.300048828125,1.20378746014766,-0.266594560513029,0.522245039599186,ST
3.96666666666667,-1.76930689811707,-4.00636148452759,8.05399513244629,0.853663980960846,-2.53050398826599,-0.152439996600151,-1049.10009765625,7.50000047683716,-940.500061035156,1.19188773273985,-0.213254457354883,0.478244819916065,ST
4.0,-0.974973022937775,-3.84964823722839,8.63299751281738,0.655492007732391,-0.800309956073761,1.34909391403198,-1053.90002441406,2.10000014305115,-928.500061035156,1.18189734364241,-0.134463184357949,0.435011992494038,ST
4.03333333333333,-2.31421518325806,-3.47820138931274,7.77645683288574,1.11281192302704,-0.0685980021953583,0.823175966739655,-1053.90002441406,12.3000001907349,-935.700012207031,1.1785702593491,-0.231308150180323,0.422840841154702,ST
4.06666666666667,-2.63302540779114,-3.28559923171997,7.79619550704956,0.87652999162674,0.754577994346619,3.05642199516296,-1053.90002441406,8.10000038146973,-935.700012207031,1.16939565495186,-0.285756663261834,0.403214172927139,ST
4.1,-2.59893131256104,-2.92312479019165,7.1346492767334,0.777444005012512,0.952749967575073,2.76678586006165,-1049.10009765625,3.90000009536743,-938.100036621094,1.16218774629944,-0.31731439686484,0.390748710914664,ST
4.13333333333333,-2.48887300491333,-2.86929178237915,7.88771152496338,0.830797970294952,0.663114011287689,2.88873791694641,-1056.30004882812,6.30000019073486,-938.100036621094,1.148266041718,-0.29806181800616,0.357690041553484,ST
4.16666666666667,-2.96200394630432,-2.19159579277039,7.23752975463867,2.10367202758789,0.914639949798584,3.45276594161987,-1058.70007324219,7.50000047683716,-935.700012207031,1.12830801239718,-0.355300132785619,0.307842491152546,ST
4.2,-3.30174922943115,-2.61747360229492,7.89249658584595,1.57013201713562,2.16464805603027,4.08539199829102,-1049.10009765625,7.50000047683716,-930.900024414062,1.12591384766419,-0.375209805365028,0.313040320783553,ST
4.23333333333333,-4.02849292755127,-2.05940628051758,8.54925727844238,2.29422187805176,0.190549999475479,3.15550804138184,-1041.90002441406,9.90000057220459,-928.500061035156,1.10047840007615,-0.414734208923887,0.255431125778879,ST
4.26666666666667,-3.78564691543579,-2.10486507415771,8.10364055633545,2.46190595626831,-0.0076219998300075,3.52136397361755,-1053.90002441406,-0.300000011920929,-930.900024414062,1.09431155707633,-0.42287587655757,0.249541159711841,ST
4.3,-4.4262580871582,-1.4361412525177,8.46312522888184,1.6920839548111,-0.861285984516144,3.09453201293945,-1037.10009765625,5.10000038146973,-928.500061035156,1.06279714888512,-0.462118867207486,0.185654152735232,ST
4.33333333333333,-3.85263895988464,-1.34283101558685,8.48166751861572,1.28811800479889,-1.82165801525116,3.62807202339172,-1049.10009765625,5.10000038146973,-933.300048828125,1.04733796036664,-0.432439265673877,0.16168347675641,ST
4.36666666666667,-3.37831139564514,-1.61079907417297,7.66460418701172,0.632625997066498,-2.04269599914551,2.83538389205933,-1049.10009765625,9.90000057220459,-952.500061035156,1.05489625017741,-0.413079135306979,0.191082075710841,ST
4.4,-3.00447225570679,-1.84885990619659,7.97025489807129,0.0381099991500378,-2.55336999893188,1.52439999580383,-1049.10009765625,-0.900000035762787,-935.700012207031,1.06134295771266,-0.366002440357884,0.216910174101059,ST
4.43333333333333,-2.23585844039917,-1.99480676651001,7.67058563232422,0.533540010452271,-2.57623600959778,2.02745199203491,-1053.90002441406,6.30000019073486,-942.900024414062,1.06560107327938,-0.298656206655288,0.242125355458815,ST
4.46666666666667,-1.44750595092773,-2.39077734947205,7.43850612640381,-0.327746003866196,-1.88263392448425,1.47104597091675,-1058.70007324219,-0.300000011920929,-938.100036621094,1.07457604011433,-0.216415057827377,0.290424801755853,ST
4.5,-1.15142524242401,-2.68446564674377,8.09107971191406,-0.129574000835419,-2.22562384605408,1.01372599601746,-1063.5,1.5,-945.300048828125,1.07563681316601,-0.156799078654817,0.311233329540122,ST
4.53333333333333,-1.11852741241455,-3.05351996421814,8.38895511627197,0.457319974899292,-2.17227005958557,1.37195992469788,-1068.30004882812,2.10000014305115,-938.100036621094,1.07596376399272,-0.131468268968526,0.337780956123042,ST
4.56666666666667,0.0544310100376606,-3.12709140777588,8.69400787353516,0.335367977619171,-2.03507399559021,2.04269599914551,-1075.5,3.90000009536743,-938.100036621094,1.07191175751321,-0.0340510055497676,0.342421214800381,ST
4.6,-0.415111213922501,-2.8680956363678,9.39383506774902,1.20427596569061,-1.92836594581604,1.08994603157043,-1080.30004882812,8.10000038146973,-926.100036621094,1.06791361004973,-0.0379814708515079,0.308636097126737,ST
4.63333333333333,-0.998300611972809,-2.07196736335754,10.0553817749023,1.98934197425842,-2.43903994560242,4.29118585586548,-1085.10009765625,1.5,-930.900024414062,1.05396585223505,-0.0806653161652955,0.226605665737804,ST
4.66666666666667,-0.525767683982849,-0.681882977485657,10.5602140426636,2.33995389938354,-3.33081388473511,4.67990779876709,-1077.90002441406,-0.300000011920929,-928.500061035156,1.03692147925859,-0.0555666968724358,0.10771088931928,ST
4.7,1.54081630706787,-0.105871304869652,10.0123147964478,1.18140995502472,-4.49697971343994,3.97106194496155,-1087.5,0.900000035762787,-935.700012207031,1.03080118249109,0.0948650111624531,0.0390006457163249,ST
4.73333333333333,1.40384149551392,-0.215929612517357,10.2695169448853,0.701223969459534,-3.29270386695862,3.65093803405762,-1099.5,2.10000014305115,-930.900024414062,1.02530180006469,0.128611138860499,0.0256467481544244,ST
4.76666666666667,0.71059387922287,-0.768015563488007,10.2246561050415,1.2576299905777,-0.724089980125427,3.52898597717285,-1099.5,-1.5,-926.100036621094,1.01533200666157,0.0877669488492378,0.0591228686380741,ST
4.8,0.300267785787582,-1.1418548822403,8.95300388336182,-0.228659987449646,-0.419209986925125,3.46800994873047,-1104.30004882812,0.900000035762787,-923.700012207031,1.00581402754965,0.0490888668469649,0.10798196585225,ST
4.83333333333333,-0.715378999710083,-1.44152450561523,10.0727272033691,-0.495429992675781,0.144817993044853,2.74391984939575,-1106.70007324219,3.90000009536743,-930.900024414062,1.00096524198903,-0.0348576282412039,0.132442073417378,ST
4.86666666666667,-0.854148149490356,-1.65865051746368,10.6774501800537,0.586893975734711,-0.0457319989800453,1.30336201190948,-1094.70007324219,0.900000035762787,-911.700012207031,0.999495754143227,-0.0658116359341853,0.146775070370171,ST
4.9,-1.31053125858307,-1.70590376853943,10.812032699585,0.0381099991500378,0.419209986925125,2.53812599182129,-1104.30004882812,5.70000028610229,-921.300048828125,0.995833058324771,-0.10408754612268,0.153238393358169,ST
4.93333333333333,-0.800315320491791,-1.3559901714325,8.49363040924072,0.457319974899292,2.21800184249878,2.78202986717224,-1089.90002441406,2.10000014305115,-940.500061035156,0.992047397375767,-0.0993789329480403,0.155932358223395,ST
4.96666666666667,-1.63592100143433,-1.68078172206879,8.61086654663086,0.693601965904236,3.11739802360535,1.57013201713562,-1080.30004882812,11.1000003814697,-938.100036621094,0.99365045507112,-0.162848914542255,0.1805441420498,ST
5.0,-3.40462970733643,-1.63352847099304,8.00614356994629,0.205793991684914,1.99696397781372,1.21189796924591,-1089.90002441406,6.30000019073486,-923.700012207031,0.995671653725698,-0.32704468610456,0.194051809481132,ST
5.03333333333333,-2.75265383720398,-1.20286548137665,9.47578048706055,0.236281991004944,-0.388722002506256,3.01831197738647,-1092.30004882812,8.10000038146973,-926.100036621094,0.974936917440135,-0.293582568571263,0.14312229561241,ST
5.06666666666667,-0.813474416732788,-0.973776757717133,10.19056224823,1.31098401546478,-2.29422187805176,1.59299790859222,-1073.10009765625,7.50000047683716,-930.900024414062,0.964556940878328,-0.14145870083233,0.107181660687127,ST
5.1,-1.69154834747314,-1.36735486984253,9.7598991394043,1.37195992469788,-0.884151995182037,-0.25152599811554,-1094.70007324219,4.5,-930.900024414062,0.968433910503995,-0.161013628342403,0.128650356856591,ST
5.13333333333333,-2.60610890388489,-1.78964376449585,10.9113245010376,0.571649968624115,0.358233988285065,1.63872992992401,-1085.10009765625,0.900000035762787,-935.700012207031,0.97013629234894,-0.212863036675807,0.152010305591762,ST
5.16666666666667,-2.35787963867188,-1.47382426261902,11.3228464126587,1.79117000102997,0.983237981796265,2.37806391716003,-1092.30004882812,5.70000028610229,-928.500061035156,0.962672032983722,-0.207741120205806,0.132423908933853,ST
5.2,-2.18202567100525,-0.900205194950104,9.95489311218262,2.62196803092957,1.81403601169586,3.09453201293945,-1092.30004882812,3.90000009536743,-938.100036621094,0.951495485274669,-0.215564636534198,0.0982894153701223,ST
5.23333333333333,-2.94884490966797,-0.566441416740417,9.94891166687012,2.59910202026367,1.45580196380615,3.08691000938416,-1094.70007324219,0.300000011920929,-923.700012207031,0.939709560629097,-0.268086372637809,0.0653843359573675,ST
5.26666666666667,-2.62704396247864,-0.171667039394379,9.71264553070068,2.47714996337891,1.34147191047668,3.14026403427124,-1097.10009765625,-1.5,-928.500061035156,0.925507892244247,-0.26713570393195,0.0272300024033836,ST
5.3,-2.08991146087646,0.461766362190247,8.88302135467529,1.77592599391937,2.23324584960938,3.46800994873047,-1077.90002441406,6.90000009536743,-928.500061035156,0.904356009663952,-0.243250463905268,-0.0348047528689247,ST
5.33333333333333,-2.88843250274658,0.550291538238525,8.30760765075684,0.87652999162674,3.21648383140564,2.69818782806396,-1080.30004882812,2.70000004768372,-933.300048828125,0.892982513534115,-0.312865119736875,-0.0595735749305711,ST
5.36666666666667,-3.67379403114319,0.320604622364044,8.18857765197754,-0.403965979814529,3.56709599494934,2.59910202026367,-1082.70007324219,5.70000028610229,-926.100036621094,0.892709374638739,-0.395849244510289,-0.0458453880315266,ST
5.4,-3.00626659393311,0.178246602416039,8.89797496795654,0.0762199983000755,1.52439999580383,1.39482593536377,-1056.30004882812,-5.70000028610229,-938.100036621094,0.896849417861497,-0.346871131103945,-0.0277784927793727,ST
5.43333333333333,-2.61508107185364,0.253612607717514,8.668288230896,0.121951997280121,0.914639949798584,0.663114011287689,-1070.70007324219,1.5,-928.500061035156,0.895318262571151,-0.31019840253411,-0.0292518194414755,ST
5.46666666666667,-2.47332119941711,-0.0514402948319912,8.29504680633545,-0.0457319989800453,1.64635193347931,0.259148001670837,-1065.90002441406,-3.30000019073486,-940.500061035156,0.90248187948168,-0.297495979364993,-0.0035383045239384,ST
5.5,-3.55356740951538,-0.295482635498047,9.13782978057861,-0.0685980021953583,1.6615959405899,0.0076219998300075,-1061.10009765625,-5.10000038146973,-923.700012207031,0.910875699673355,-0.353640884935801,0.0227885139389319,ST
5.53333333333333,-3.07445478439331,-0.0484495796263218,9.63369083404541,-0.198172003030777,0.640248000621796,-0.167683988809586,-1058.70007324219,0.300000011920929,-928.500061035156,0.907012014054484,-0.323147429453996,0.010615696108506,ST
5.56666666666667,-2.92671346664429,-0.0442625805735588,8.1185941696167,-0.182927995920181,1.75305998325348,-1.05945801734924,-1063.5,0.300000011920929,-928.500061035156,0.907714468388068,-0.341242204427721,0.0076924156558555,ST
5.6,-3.83409643173218,-0.258995920419693,8.77057075500488,-0.884151995182037,2.69056582450867,-0.3125019967556,-1063.5,6.90000009536743,-928.500061035156,0.913864895809889,-0.395894678269112,0.0246740805396757,ST
5.63333333333333,-3.57091355323792,-0.601133704185486,8.96795749664307,-1.05183601379395,1.91312193870544,-0.693601965904236,-1046.70007324219,-2.10000014305115,-947.700012207031,0.926312381166629,-0.385860469112791,0.0559589248781836,ST
5.66666666666667,-3.68216824531555,-0.494066089391708,8.560622215271,-0.495429992675781,1.6692179441452,-1.86738991737366,-1034.70007324219,3.90000009536743,-933.300048828125,0.930286718212604,-0.401859413263548,0.0587972626180562,ST
5.7,-4.1965708732605,-0.464757084846497,9.5326042175293,-0.846041977405548,1.17378795146942,-1.51677799224854,-1041.90002441406,3.30000019073486,-938.100036621094,0.930232584490233,-0.41241763365865,0.0533411587746442,ST
5.73333333333333,-3.30354356765747,-0.70162171125412,9.13603591918945,-0.647870004177094,-0.144817993044853,-1.69970595836639,-1034.70007324219,13.5000009536743,-933.300048828125,0.939719506297292,-0.363938916527728,0.072019853108187,ST
5.76666666666667,-2.86510491371155,-0.307445496320724,8.64854907989502,-0.426831990480423,0.449698001146317,-1.60061991214752,-1032.30004882812,7.50000047683716,-945.300048828125,0.933607211559381,-0.332357486344707,0.046689829338764,ST
5.8,-2.68805456161499,-0.598142981529236,8.57318305969238,-0.480185985565186,0.571649968624115,-1.82927989959717,-1034.70007324219,8.10000038146973,-933.300048828125,0.941911332525287,-0.312511256835959,0.0641270874255645,ST
5.83333333333333,-2.67788600921631,-1.02402079105377,8.12038898468018,-1.05183601379395,0.922261953353882,-2.37806391716003,-1051.5,4.5,-935.700012207031,0.959301384432039,-0.316058236523363,0.109213024720402,ST
5.86666666666667,-2.91774129867554,-0.989926636219025,8.52772426605225,-1.2423859834671,0.87652999162674,-2.28659987449646,-1044.30004882812,3.30000019073486,-945.300048828125,0.964692435125271,-0.324885584355098,0.116130716074726,ST
5.9,-2.43982529640198,-0.959421336650848,8.60488510131836,-0.160062000155449,-0.0533539988100529,-2.27135586738586,-1037.10009765625,0.300000011920929,-947.700012207031,0.967547307693727,-0.289390799140155,0.113593608164321,ST
5.93333333333333,-2.81844973564148,-0.936691880226135,8.20532512664795,0.236281991004944,-0.510673999786377,-2.60672402381897,-1032.30004882812,-1.5,-942.900024414062,0.972200955576911,-0.316511991240488,0.114346252450237,ST
5.96666666666667,-2.97396683692932,-1.06050753593445,8.66051197052002,-0.594515979290009,-1.12043392658234,-1.87501192092896,-1037.10009765625,-0.300000011920929,-935.700012207031,0.976813045345269,-0.323264411713184,0.121009767646313,ST
6.0,-2.91475081443787,-1.32907366752625,9.61096096038818,-0.609759986400604,-2.43141794204712,-1.76068198680878,-1029.90002441406,6.90000009536743,-942.900024414062,0.983284681530569,-0.2962466879151,0.134722574647286,ST
6.03333333333333,-2.47691011428833,-1.29139065742493,9.17611122131348,-0.579271972179413,-2.95733594894409,-1.34909391403198,-1046.70007324219,12.9000005722046,-930.900024414062,0.985833488965613,-0.267930572604078,0.139319492130454,ST
6.06666666666667,-1.7166702747345,-1.22080981731415,9.07502555847168,-0.396344006061554,-2.28659987449646,-1.65397393703461,-1039.5,8.10000038146973,-935.700012207031,0.987271105797138,-0.204857201095083,0.13610901475293,ST
6.1,-2.5116024017334,-1.67180955410004,10.0876808166504,-0.25152599811554,-2.30946588516235,-2.82013988494873,-1039.5,3.30000019073486,-942.900024414062,0.996148594566081,-0.227551517453225,0.157453119966109,ST
6.13333333333333,-2.30763554573059,-1.90508532524109,9.09655857086182,-0.381099998950958,-2.11891603469849,-3.53660798072815,-1053.90002441406,14.7000007629395,-926.100036621094,1.01030965728405,-0.235767939795851,0.194961761588772,ST
6.16666666666667,-2.08093929290771,-2.10606145858765,9.58404445648193,-0.175305992364883,-2.18751406669617,-3.38416790962219,-1051.5,6.90000009536743,-926.100036621094,1.01863500672848,-0.213592259113698,0.210907805405012,ST
6.2,-2.28789687156677,-1.88056147098541,9.36512470245361,0.693601965904236,-1.78354799747467,-3.52136397361755,-1051.5,4.5,-930.900024414062,1.02215142079544,-0.225618326699462,0.202018495503601,ST
6.23333333333333,-1.70530557632446,-1.91046869754791,8.25915813446045,1.2347639799118,-0.891773998737335,-4.17685604095459,-1061.10009765625,2.70000004768372,-942.900024414062,1.03286150352444,-0.204550095895585,0.219246473470273,ST
6.26666666666667,-2.29627084732056,-2.20774579048157,8.75980377197266,0.518296003341675,-0.716467976570129,-3.72715783119202,-1061.10009765625,-0.900000035762787,-930.900024414062,1.04369929804212,-0.234758789557896,0.239559631825683,ST
6.3,-2.12460374832153,-2.75325202941895,9.02418327331543,-0.0304879993200302,-1.44055795669556,-3.65093803405762,-1058.70007324219,6.30000019073486,-933.300048828125,1.05817994291003,-0.222711251517991,0.280028969162852,ST
6.33333333333333,-2.39675879478455,-3.16298007965088,9.86517238616943,0.0609759986400604,-1.39482593536377,-3.02593398094177,-1065.90002441406,-2.10000014305115,-930.900024414062,1.06722334072193,-0.223279983541049,0.301763522279123,ST
6.36666666666667,-2.09409856796265,-3.20784068107605,9.01640701293945,0.564027965068817,-0.0152439996600151,-1.11281192302704,-1065.90002441406,5.10000038146973,-945.300048828125,1.07558490381815,-0.217163980620244,0.330393840496943,ST
6.4,-2.78196287155151,-3.34481549263,9.72101974487305,0.541162014007568,1.34147191047668,-0.87652999162674,-1070.70007324219,8.10000038146973,-938.100036621094,1.0780957295589,-0.251948382163193,0.330811666019379,ST
6.43333333333333,-2.78674817085266,-3.14563393592834,9.07382869720459,0.647870004177094,1.6768399477005,0.282013982534409,-1058.70007324219,8.10000038146973,-933.300048828125,1.07928536462536,-0.276589139169635,0.332204765960888,ST
6.46666666666667,-3.308926820755,-2.89919900894165,9.86517238616943,0.693601965904236,1.43293595314026,1.76830399036407,-1046.70007324219,9.30000019073486,-933.300048828125,1.0672356238234,-0.304756194860773,0.296684756155024,ST
6.5,-2.71257829666138,-2.55107975006104,9.17252254486084,0.533540010452271,0.907018005847931,2.78965187072754,-1051.5,11.1000003814697,-935.700012207031,1.05785620285844,-0.28776863407063,0.277307522095943,ST
6.53333333333333,-2.61747360229492,-2.36386108398438,9.14560604095459,0.480185985565186,0.937505960464478,3.3613018989563,-1044.30004882812,3.90000009536743,-945.300048828125,1.04789963163728,-0.277753954847018,0.258582647083069,ST
6.56666666666667,-2.12041687965393,-2.08034133911133,9.14979267120361,0.449698001146317,0.144817993044853,3.97868394851685,-1044.30004882812,0.900000035762787,-933.300048828125,1.03496501708083,-0.240285720107693,0.232207982017364,ST
6.6,-2.19877362251282,-1.77528834342957,8.82559967041016,0.685979962348938,1.12805593013763,4.40551567077637,-1041.90002441406,3.30000019073486,-930.900024414062,1.02231519764902,-0.242298901930475,0.206561610383976,ST
6.63333333333333,-1.96250712871552,-1.3278774023056,8.53310775756836,1.47866797447205,1.82927989959717,4.26069784164429,-1041.90002441406,8.10000038146973,-935.700012207031,1.00717365552813,-0.232317987409098,0.16705134540086,ST
6.66666666666667,-2.27593398094177,-1.28421294689178,8.20532512664795,1.47104597091675,1.6844619512558,3.62807202339172,-1051.5,-0.300000011920929,-935.700012207031,0.999542890175671,-0.259637078541013,0.155985408525323,ST
6.7,-2.86151599884033,-1.40563595294952,8.55344486236572,0.769822001457214,1.73781597614288,3.12502002716064,-1046.70007324219,2.10000014305115,-938.100036621094,0.99590603985838,-0.304560458587718,0.158858357055986,ST
6.73333333333333,-2.60431456565857,-1.28839993476868,8.17302513122559,0.503051996231079,1.15854394435883,3.68904781341553,-1044.30004882812,6.30000019073486,-957.300048828125,0.989345975431185,-0.306926621431352,0.155156713054093,ST
6.76666666666667,-2.56483697891235,-1.21662282943726,8.64017486572266,-0.472563982009888,0.853663980960846,2.9420919418335,-1029.90002441406,5.10000038146973,-940.500061035156,0.980999213557358,-0.293533586846368,0.143775084889343,ST
6.8,-2.4936580657959,-1.52885341644287,9.10254001617432,-0.350611984729767,-0.350611984729767,2.69818782806396,-1039.5,5.10000038146973,-935.700012207031,0.980474841531164,-0.272112471657624,0.159687342266016,ST
6.83333333333333,-2.11802434921265,-1.52167570590973,8.89438629150391,0.0228659994900227,-1.99696397781372,1.53964400291443,-1037.10009765625,9.30000019073486,-942.900024414062,0.978859829319915,-0.239781445957632,0.16615467708089,ST
6.86666666666667,-2.64558625221252,-1.7065018415451,8.87703990936279,-1.16616594791412,-2.01982998847961,2.15702605247498,-1039.5,7.50000047683716,-933.300048828125,0.978373632201302,-0.270874317048995,0.184271379153202,ST
6.9,-2.86988997459412,-2.10665965080261,8.29564476013184,-2.37044191360474,-2.39330792427063,3.96343994140625,-1027.5,7.50000047683716,-933.300048828125,0.983089707933159,-0.305968102770319,0.230308688195132,ST
6.93333333333333,-2.71437287330627,-2.119220495224,9.01401424407959,-1.92074394226074,-2.72105383872986,4.55033397674561,-1044.30004882812,8.10000038146973,-933.300048828125,0.974026095418644,-0.289438787914471,0.23119677953234,ST
6.96666666666667,-2.27473783493042,-2.30703735351562,9.67914962768555,-1.16616594791412,-3.69666981697083,4.2302098274231,-1041.90002441406,9.90000057220459,-935.700012207031,0.96490883021793,-0.238304738689144,0.233086739875431,ST
7.0,-2.24363422393799,-1.82254159450531,9.90764045715332,0.282013982534409,-4.05490398406982,3.803377866745,-1044.30004882812,7.50000047683716,-933.300048828125,0.948759091657076,-0.221079132756166,0.19560867328043,ST
7.03333333333333,-2.06778025627136,-1.21064138412476,10.02308177948,1.49391198158264,-3.27745985984802,4.33691787719727,-1056.30004882812,10.5,-930.900024414062,0.929315133195373,-0.204760667931428,0.139709257749522,ST
7.06666666666667,-1.54081630706787,-0.547898948192596,9.03494930267334,2.02745199203491,-2.17227005958557,4.74088382720947,-1061.10009765625,4.5,-933.300048828125,0.910332944908651,-0.177540898647174,0.0806106587530196,ST
7.1,-2.02830290794373,-0.146545022726059,8.82500171661377,1.55488801002502,-0.87652999162674,3.39941191673279,-1082.70007324219,6.90000009536743,-928.500061035156,0.894821129016973,-0.212361748008818,0.0306030118791541,ST
7.13333333333333,-2.55885553359985,-0.479710668325424,9.53081035614014,0.769822001457214,-0.594515979290009,2.9268479347229,-1070.70007324219,10.5,-928.500061035156,0.89260791496636,-0.24835566499246,0.0431597572839711,ST
7.16666666666667,-2.56244444847107,-0.487486511468887,10.0793075561523,1.04421401023865,-0.724089980125427,2.47714996337891,-1087.5,2.10000014305115,-921.300048828125,0.889236061581388,-0.247831192214417,0.0447239475030019,ST
7.2,-2.21791410446167,-0.317015767097473,9.62112998962402,1.32622802257538,-0.67835795879364,1.60061991214752,-1075.5,12.9000005722046,-926.100036621094,0.884154442915864,-0.230984011011657,0.0336235800016264,ST
7.23333333333333,-2.02232146263123,-0.45638307929039,9.60019493103027,1.30336201190948,0.0990860015153885,0.914639949798584,-1080.30004882812,4.5,-923.700012207031,0.884862682658929,-0.21404434690042,0.0418008541081389,ST
7.26666666666667,-2.24602675437927,-0.0711790099740028,9.2760009765625,1.6844619512558,0.3125019967556,-0.579271972179413,-1085.10009765625,8.10000038146973,-933.300048828125,0.880642411504191,-0.231794217325598,0.0146605814253624,ST
7.3,-2.25141024589539,-0.144750595092773,9.02717399597168,0.739333987236023,0.724089980125427,-0.510673999786377,-1065.90002441406,4.5,-945.300048828125,0.881865923871829,-0.241472673703871,0.0148709318985786,ST
7.33333333333333,-2.53552794456482,-0.337950766086578,9.52602481842041,-0.114329993724823,0.495429992675781,-0.922261953353882,-1065.90002441406,2.10000014305115,-933.300048828125,0.88701602726099,-0.254998699568716,0.0296739938076735,ST
7.36666666666667,-2.57919239997864,-0.356493204832077,8.97992038726807,-0.289635986089706,0.647870004177094,-1.02897000312805,-1070.70007324219,7.50000047683716,-921.300048828125,0.890641356352042,-0.272860793415785,0.0373556058906904,ST
7.4,-2.26576566696167,-0.789548695087433,8.82320690155029,-0.609759986400604,0.975615978240967,-1.21951997280121,-1058.70007324219,3.90000009536743,-930.900024414062,0.902322910850335,-0.258330752590041,0.0748594311598987,ST
7.43333333333333,-2.43324565887451,-1.00846910476685,8.84473991394043,-0.510673999786377,0.754577994346619,-1.73019397258759,-1073.10009765625,2.70000004768372,-928.500061035156,0.91237905137413,-0.26502348723474,0.103078912279566,ST
7.46666666666667,-2.40154409408569,-1.17654716968536,8.79808521270752,-0.236281991004944,0.449698001146317,-1.75305998325348,-1061.10009765625,17.1000003814697,-930.900024414062,0.921341970637731,-0.264773654925683,0.125647305415778,ST
7.5,-2.48528409004211,-1.00846910476685,9.1988410949707,-0.0914639979600906,0.739333987236023,-1.2500079870224,-1058.70007324219,5.70000028610229,-938.100036621094,0.920681527464146,-0.263783470001541,0.114279804850746,ST
7.53333333333333,-2.53433179855347,-1.05811488628387,8.95420074462891,-0.434453994035721,1.01372599601746,-1.05945801734924,-1075.5,4.5,-945.300048828125,0.923502406320669,-0.272463679951128,0.117721231329854,ST
7.56666666666667,-3.09479165077209,-1.05332982540131,9.30770301818848,-0.449698001146317,1.28811800479889,-0.907018005847931,-1061.10009765625,9.90000057220459,-933.300048828125,0.924387219156782,-0.308369576967637,0.115012310094461,ST
7.6,-3.09479165077209,-1.04256319999695,9.13424110412598,-0.746955990791321,1.16616594791412,-0.685979962348938,-1058.70007324219,6.90000009536743,-935.700012207031,0.925417335547371,-0.321111789354888,0.115296593767639,ST
7.63333333333333,-2.91116189956665,-1.12690138816833,9.11569881439209,-1.15092194080353,0.533540010452271,-0.777444005012512,-1051.5,5.10000038146973,-935.700012207031,0.928450121928631,-0.311550255526418,0.122558869663934,ST
7.66666666666667,-3.17374658584595,-1.33924210071564,9.00982761383057,-1.78354799747467,0.0228659994900227,-0.663114011287689,-1034.70007324219,0.300000011920929,-930.900024414062,0.934818739820441,-0.328067113799896,0.142437549337867,ST
7.7,-3.05471611022949,-1.58149003982544,9.497314453125,-1.95885396003723,-0.617381989955902,-0.327746003866196,-1046.70007324219,6.30000019073486,-940.500061035156,0.939974135744219,-0.312409589888133,0.161071946142283,DLL
7.73333333333333,-2.48827481269836,-1.46245956420898,9.27301025390625,-1.59299790859222,-1.79879200458527,-0.0457319989800453,-1053.90002441406,11.7000007629395,-933.300048828125,0.938364306263297,-0.272949174466277,0.159649595914488,DLL
7.76666666666667,-1.69513714313507,-1.48399269580841,8.83098316192627,-1.61586391925812,-2.42379593849182,0.83841997385025,-1056.30004882812,11.1000003814697,-926.100036621094,0.937067495921692,-0.207805119936178,0.166299789671906,DLL
7.8,-1.66403377056122,-1.87577641010284,8.70896148681641,-1.79117000102997,-1.98934197425842,1.76830399036407,-1073.10009765625,1.5,-926.100036621094,0.939567916503069,-0.189687629039004,0.200061469003804,DLL
7.83333333333333,-2.09050965309143,-1.64848208427429,8.59890365600586,-1.33385002613068,-1.42531394958496,2.40855193138123,-1065.90002441406,11.7000007629395,-935.700012207031,0.933314002577213,-0.219805799085846,0.193582413664748,DLL
7.86666666666667,-1.52167570590973,-1.73939979076385,8.2681303024292,-1.02134799957275,-1.37195992469788,3.10215401649475,-1070.70007324219,15.3000001907349,-921.300048828125,0.929110807265356,-0.188695569703729,0.204037286024153,DLL
7.9,-2.08751893043518,-1.69633340835571,9.51047325134277,-0.236281991004944,-1.76830399036407,1.53964400291443,-1068.30004882812,12.3000001907349,-930.900024414062,0.921762347139671,-0.20438215459545,0.183922452932459,DLL
7.93333333333333,-1.93977761268616,-1.81237316131592,8.82679557800293,-0.320124000310898,-2.4847719669342,1.53964400291443,-1053.90002441406,7.50000047683716,-928.500061035156,0.920760583315614,-0.207275067565193,0.197505848714363,DLL
7.96666666666667,-2.70420432090759,-1.93319809436798,9.08997917175293,-0.830797970294952,-1.76830399036407,2.52288198471069,-1075.5,6.90000009536743,-923.700012207031,0.917311442038282,-0.261674857418716,0.206498978441842,DLL
8.0,-3.14862465858459,-2.27952289581299,9.07861423492432,-1.44817996025085,-2.24086785316467,3.07928800582886,-1061.10009765625,15.9000005722046,-930.900024414062,0.918622102262585,-0.303786654141167,0.234419071021752,DLL
8.03333333333333,-3.40462970733643,-2.51638746261597,8.5905294418335,-3.20886182785034,-2.90398192405701,6.32626008987427,-1068.30004882812,9.90000057220459,-938.100036621094,0.916994929624795,-0.344875194193247,0.271225158203512,DLL
8.06666666666667,-3.51648259162903,-2.54509830474854,8.93685436248779,-4.1463680267334,-3.52136397361755,8.91773986816406,-1077.90002441406,16.5,-938.100036621094,0.900803241622185,-0.355512481349385,0.276355411736447,DLL
8.1,-2.15211844444275,-2.74069118499756,8.63359546661377,-5.30491209030151,-5.09911775588989,11.3720235824585,-1077.90002441406,19.5,-928.500061035156,0.88379090284352,-0.264791886668564,0.301010527581244,DLL
8.13333333333333,-2.07615423202515,-2.8561327457428,8.19276428222656,-5.80796384811401,-4.33691787719727,11.9741621017456,-1082.70007324219,17.7000007629395,-923.700012207031,0.866213679482097,-0.243040300058892,0.328777178665226,DLL
8.16666666666667,-1.62455630302429,-3.3627598285675,8.99965953826904,-5.91467189788818,-3.40703392028809,11.3872680664062,-1092.30004882812,29.1000003814697,-916.500061035156,0.84861652676115,-0.190029008368491,0.353630173093618,DLL
8.2,-1.63293027877808,-3.43094801902771,8.83098316192627,-4.85521411895752,-3.55947399139404,10.5336036682129,-1106.70007324219,31.5000019073486,-918.900024414062,0.830980504988646,-0.17700794101176,0.368925563535105,DLL
8.23333333333333,-1.46365582942963,-3.41180753707886,8.71314907073975,-3.60520601272583,-2.62959003448486,9.62658596038818,-1097.10009765625,28.5000019073486,-909.300048828125,0.813914009903878,-0.16300753827807,0.374278837593066,DLL
8.26666666666667,-1.45348739624023,-3.35976910591125,8.82320690155029,-2.17227005958557,-1.02134799957275,7.88876962661743,-1097.10009765625,32.7000007629395,-906.900024414062,0.799143481578116,-0.158155618480309,0.368098499291109,DLL
8.3,-2.28490614891052,-3.07565116882324,9.69948673248291,-0.564027965068817,-0.480185985565186,5.40399789810181,-1075.5,33.3000030517578,-904.500061035156,0.781821460300909,-0.204637450604502,0.32419829413856,DLL
8.33333333333333,-2.03727507591248,-2.63601613044739,9.66240119934082,0.0609759986400604,-1.53964400291443,4.66466379165649,-1082.70007324219,36.3000030517578,-909.300048828125,0.765074766085037,-0.201808062244622,0.282383513383673,DLL
8.36666666666667,-1.50492775440216,-2.72813010215759,9.353759765625,0.823175966739655,-1.21189796924591,3.20886182785034,-1087.5,31.5000019073486,-902.100036621094,0.758709891008778,-0.165023969120548,0.281563870083612,DLL
8.4,-1.88415038585663,-2.73171901702881,9.10254001617432,1.20427596569061,-0.510673999786377,2.21800184249878,-1077.90002441406,42.9000015258789,-899.700012207031,0.755901234158787,-0.187459504044759,0.286746297804507,DLL
8.43333333333333,-1.57730305194855,-2.61448287963867,8.92548942565918,1.40244793891907,-0.106707997620106,1.95885396003723,-1087.5,35.1000022888184,-921.300048828125,0.752388049115573,-0.174144595790586,0.283294104112791,DLL
8.46666666666667,-1.30634427070618,-2.35189819335938,8.68324184417725,1.37195992469788,0.426831990480423,1.27287399768829,-1073.10009765625,39.3000030517578,-909.300048828125,0.748167343298927,-0.153023568398113,0.267413207246169,DLL
8.5,-1.82194352149963,-2.1712589263916,8.4296293258667,1.33385002613068,0.67835795879364,0.167683988809586,-1080.30004882812,36.3000030517578,-899.700012207031,0.746408562374778,-0.192571153561203,0.254643610962227,DLL
8.53333333333333,-1.35718643665314,-2.38240337371826,8.25856018066406,0.67835795879364,-0.0228659994900227,-0.556405961513519,-1082.70007324219,28.5000019073486,-909.300048828125,0.750854901559699,-0.166290500867101,0.272943700688457,DLL
8.56666666666667,-1.75554966926575,-2.62345504760742,8.56002426147461,0.0533539988100529,-0.266770005226135,-1.73019397258759,-1089.90002441406,33.3000030517578,-906.900024414062,0.756600945869957,-0.184504971381984,0.290282886888175,DLL
8.6,-2.02770471572876,-2.95243382453918,8.76099967956543,-0.342989981174469,-0.0152439996600151,-1.85214591026306,-1075.5,36.9000015258789,-899.700012207031,0.764344844724173,-0.205776241037816,0.31537153782914,DLL
8.63333333333333,-2.21432518959045,-3.16238188743591,8.88481616973877,-0.640248000621796,-0.647870004177094,-2.21800184249878,-1077.90002441406,30.9000015258789,-914.100036621094,0.771519214609596,-0.221533429716313,0.335197615032374,DLL
8.66666666666667,-2.00916218757629,-3.35558199882507,8.63299751281738,-1.00610399246216,-1.86738991737366,-1.34909391403198,-1085.10009765625,32.1000022888184,-914.100036621094,0.777870287811034,-0.213320972036838,0.361425781935957,DLL
8.7,-2.1090521812439,-3.26586055755615,8.64974594116211,-0.990859985351562,-2.43141794204712,-0.342989981174469,-1082.70007324219,36.9000015258789,-916.500061035156,0.776760617411805,-0.21805579065739,0.362207075007356,DLL
8.73333333333333,-1.22499680519104,-3.44410729408264,8.84713268280029,-0.884151995182037,-2.69818782806396,0.617381989955902,-1092.30004882812,39.9000015258789,-902.100036621094,0.774894103520618,-0.147776111589449,0.369810254260738,DLL
8.76666666666667,-1.40623414516449,-3.26705694198608,8.88242340087891,-0.663114011287689,-3.11739802360535,1.32622802257538,-1082.70007324219,36.3000030517578,-911.700012207031,0.768678077608309,-0.144486645982228,0.357621869832844,DLL
8.8,-1.12630319595337,-3.08581948280334,9.1629524230957,-1.30336201190948,-2.60672402381897,3.06404399871826,-1094.70007324219,36.3000030517578,-902.100036621094,0.758231091746752,-0.121609546157606,0.334446355519791,DLL
8.83333333333333,-0.903794050216675,-3.05112719535828,9.43331241607666,-0.807931959629059,-1.43293595314026,3.96343994140625,-1094.70007324219,43.5,-904.500061035156,0.749209820058037,-0.100025432524545,0.319733948749864,DLL
8.86666666666667,-1.37453258037567,-2.69224143028259,8.9236946105957,-0.0533539988100529,0.0533539988100529,3.37654590606689,-1092.30004882812,38.7000007629395,-894.900024414062,0.74147582895761,-0.133791504416491,0.300663565872188,DLL
8.9,-2.48588228225708,-2.54270577430725,9.30052471160889,0.129574000835419,0.114329993724823,3.17075204849243,-1101.90002441406,39.3000030517578,-897.300048828125,0.731110074213999,-0.223973719052619,0.274538677630838,DLL
8.93333333333333,-2.17604422569275,-2.42905855178833,9.20601844787598,-0.106707997620106,-0.899396002292633,2.72867584228516,-1092.30004882812,36.9000015258789,-911.700012207031,0.72311052515335,-0.224309574601547,0.261827784241465,DLL
8.96666666666667,-1.91645002365112,-2.50143384933472,9.50987529754639,-0.525918006896973,-1.31098401546478,2.28659987449646,-1097.10009765625,36.9000015258789,-894.900024414062,0.717928991138021,-0.20121773875597,0.258571802487559,DLL
9.0,-1.64608943462372,-2.65276408195496,9.48714542388916,-0.693601965904236,-0.967993974685669,1.89025592803955,-1094.70007324219,38.1000022888184,-892.500061035156,0.716096951175697,-0.17575883675495,0.268809881007594,DLL
9.03333333333333,-1.51629245281219,-2.64199757575989,9.35854530334473,-0.221037998795509,-0.0838419944047928,1.52439999580383,-1097.10009765625,38.1000022888184,-904.500061035156,0.714231125547075,-0.161422131004696,0.273211070729203,DLL
9.06666666666667,-1.36197149753571,-2.83041262626648,8.94283580780029,-0.358233988285065,0.503051996231079,1.37958192825317,-1101.90002441406,35.1000022888184,-902.100036621094,0.715766471091083,-0.150465171815735,0.296731792465802,DLL
9.1,-1.75614774227142,-2.72214865684509,8.87345123291016,0.106707997620106,1.42531394958496,0.922261953353882,-1097.10009765625,39.9000015258789,-909.300048828125,0.714985849738518,-0.179996328517291,0.297181570412395,DLL
9.13333333333333,-1.77289581298828,-2.66113805770874,8.548659324646,0.320124000310898,1.6844619512558,1.04421401023865,-1089.90002441406,35.1000022888184,-904.500061035156,0.714736333955786,-0.193167789173756,0.299889510333099,DLL
9.16666666666667,-1.89132809638977,-2.58816456794739,8.35007572174072,0.25152599811554,1.41769194602966,0.922261953353882,-1092.30004882812,48.3000030517578,-904.500061035156,0.714028926608137,-0.209367567738248,0.299938944478544,DLL
9.2,-1.7286331653595,-2.79452395439148,8.62940883636475,-0.952749967575073,0.388722002506256,0.853663980960846,-1092.30004882812,36.3000030517578,-897.300048828125,0.714550278345676,-0.194649449745928,0.310764307491562,DLL
9.23333333333333,-1.64788389205933,-2.66771769523621,8.94403171539307,-1.03659200668335,0.0457319989800453,0.960371971130371,-1080.30004882812,34.5,-897.300048828125,0.710146434099734,-0.181147967486026,0.2971872626689,DLL
9.26666666666667,-1.55457353591919,-3.01404237747192,9.31906795501709,-0.907018005847931,0.205793991684914,0.67835795879364,-1085.10009765625,45.3000030517578,-899.700012207031,0.710922461552811,-0.164153635414007,0.309763238116958,DLL
9.3,-1.34103655815125,-3.09479165077209,9.26164531707764,-1.05945801734924,-0.137196004390717,0.442075997591019,-1082.70007324219,37.5,-904.500061035156,0.711399016773478,-0.144448225877119,0.320067555669737,DLL
9.33333333333333,-1.36316788196564,-2.99550008773804,9.43809795379639,-0.358233988285065,1.2423859834671,0.914639949798584,-1087.5,41.7000007629395,-904.500061035156,0.709167440346759,-0.14076015448431,0.311186880971941,DLL
9.36666666666667,-1.36137342453003,-2.9781539440155,9.0014533996582,0.556405961513519,2.01982998847961,-0.243903994560242,-1075.5,44.7000007629395,-897.300048828125,0.711517678004599,-0.144306268175341,0.316482003975665,DLL
9.4,-1.37273812294006,-3.01464056968689,8.58275318145752,0.983237981796265,1.265251994133,-1.73781597614288,-1063.5,37.5,-902.100036621094,0.717320000880271,-0.148920209017846,0.330538622855232,DLL
9.43333333333333,-1.30813872814178,-2.8483567237854,8.37998294830322,1.27287399768829,0.952749967575073,-2.14940404891968,-1068.30004882812,39.3000030517578,-897.300048828125,0.721426526760248,-0.147600201998117,0.327273327294225,DLL
9.46666666666667,-1.73521280288696,-2.78854250907898,8.38416957855225,1.47866797447205,1.39482593536377,-2.72105383872986,-1065.90002441406,39.3000030517578,-911.700012207031,0.726400027394168,-0.181768396224014,0.321581778885773,DLL
9.5,-1.83689701557159,-2.75385022163391,8.11081886291504,1.21951997280121,1.09756803512573,-2.90398192405701,-1058.70007324219,41.1000022888184,-899.700012207031,0.732684117907162,-0.202519898144377,0.32484151050431,DLL
9.53333333333333,-2.06060242652893,-2.80469250679016,8.37878704071045,1.02134799957275,0.533540010452271,-3.31556987762451,-1075.5,31.5000019073486,-894.900024414062,0.738828429874416,-0.22143245206995,0.323112110718386,DLL
9.56666666666667,-1.81715834140778,-3.35019874572754,8.54148197174072,-0.221037998795509,0.274392008781433,-3.40703392028809,-1068.30004882812,36.9000015258789,-902.100036621094,0.752007969623965,-0.202294579295954,0.359692452136966,DLL
9.6,-2.33993530273438,-3.64867210388184,8.74784088134766,-0.167683988809586,1.00610399246216,-3.53660798072815,-1082.70007324219,38.1000022888184,-904.500061035156,0.763679920338388,-0.22964141423845,0.385596575561578,DLL
9.63333333333333,-2.85314202308655,-3.88912558555603,8.95240592956543,0.480185985565186,1.70732796192169,-3.55947399139404,-1073.10009765625,33.9000015258789,-899.700012207031,0.77480636443462,-0.268143445132546,0.40310913692989,DLL
9.66666666666667,-2.8160572052002,-3.78325438499451,8.584547996521,0.533540010452271,0.87652999162674,-2.88873791694641,-1092.30004882812,32.7000007629395,-902.100036621094,0.782841847214827,-0.284733062564242,0.412196335462851,DLL
9.7,-2.77657961845398,-3.72822523117065,8.75920581817627,0.37347799539566,0.602137982845306,-1.98171997070312,-1092.30004882812,32.7000007629395,-897.300048828125,0.784593878066045,-0.283796343234177,0.405629311073951,DLL
9.73333333333333,-2.82443118095398,-3.67977547645569,9.16713905334473,0.67835795879364,0.457319974899292,-1.71494996547699,-1075.5,40.5,-916.500061035156,0.783128944264963,-0.279819082206645,0.388691805066652,DLL
9.76666666666667,-2.62285685539246,-3.53681945800781,8.85670280456543,1.16616594791412,0.609759986400604,-1.08994603157043,-1077.90002441406,33.3000030517578,-902.100036621094,0.783841053270476,-0.271872387577736,0.381430547225872,DLL
9.8,-2.45298433303833,-3.35378766059875,8.74365425109863,1.35671591758728,0.655492007732391,-1.08232402801514,-1082.70007324219,41.1000022888184,-906.900024414062,0.783415752921825,-0.261167730363086,0.369564797770865,DLL
9.83333333333333,-2.16228675842285,-3.00327587127686,7.9493203163147,1.21951997280121,0.556405961513519,-0.0838419944047928,-1073.10009765625,40.5,-906.900024414062,0.782576280366399,-0.25337480767408,0.36232772522337,DLL
9.86666666666667,-2.23884916305542,-2.97635936737061,8.34529113769531,1.47104597091675,0.701223969459534,-0.282013982534409,-1080.30004882812,37.5,-911.700012207031,0.7801376051132,-0.249775616043501,0.346024944220844,DLL
9.9,-1.95772194862366,-2.78435564041138,8.5067892074585,1.54726600646973,-0.0914639979600906,0.144817993044853,-1082.70007324219,35.1000022888184,-909.300048828125,0.775048028624328,-0.225193956801397,0.322826345149675,DLL
9.93333333333333,-1.64608943462372,-2.74308371543884,8.80885124206543,1.34909391403198,-0.259148001670837,-0.0914639979600906,-1075.5,34.5,-906.900024414062,0.772176643501428,-0.190853599919521,0.306489178311176,DLL
9.96666666666667,-1.4941611289978,-3.08701586723328,9.33521747589111,0.92988395690918,0.160062000155449,-0.579271972179413,-1075.5,38.1000022888184,-916.500061035156,0.774892830657123,-0.162832016304946,0.314504311802077,DLL
10.0,-1.37154185771942,-3.37651705741882,9.8197135925293,2.53812599182129,1.92836594581604,-2.72105383872986,-1065.90002441406,36.3000030517578,-909.300048828125,0.782395762079383,-0.142001223088408,0.323673673695634,DLL
10.0333333333333,-2.13178157806396,-3.09000658988953,9.58763408660889,4.41313791275024,1.85214591026306,-5.59454774856567,-1075.5,35.1000022888184,-906.900024414062,0.79162723131618,-0.188541803389919,0.311248845226371,DLL
10.0666666666667,-1.49356305599213,-3.50392150878906,9.36931133270264,5.38875389099121,2.14940404891968,-8.02596569061279,-1077.90002441406,30.3000011444092,-918.900024414062,0.81380988933426,-0.158128646456371,0.340562031101708,DLL
10.1,-2.60192203521729,-2.64618444442749,9.19764423370361,7.90401363372803,1.90549993515015,-11.661660194397,-1068.30004882812,28.5000019073486,-918.900024414062,0.826774186553263,-0.231056098142501,0.29197350393035,DLL
10.1333333333333,-1.87996339797974,-2.77538347244263,8.78073883056641,7.98785591125488,1.78354799747467,-7.9954776763916,-1073.10009765625,27.9000015258789,-911.700012207031,0.844600202942687,-0.20918004674927,0.294398352512682,DLL
10.1666666666667,-1.73521280288696,-2.43922710418701,8.85072135925293,8.31560134887695,1.02134799957275,-10.228723526001,-1080.30004882812,23.7000007629395,-930.900024414062,0.860014471783048,-0.19098946519736,0.268411144095582,DLL
10.2,-1.68915569782257,-2.20834374427795,8.23044681549072,7.02748394012451,0.78506600856781,-7.82779359817505,-1075.5,15.3000001907349,-928.500061035156,0.873364508083895,-0.192729717721347,0.257297529450061,DLL
10.2333333333333,-1.57491040229797,-1.95652568340302,8.94522857666016,5.69363403320312,0.685979962348938,-8.20889377593994,-1073.10009765625,13.5000009536743,-916.500061035156,0.8837575835763,-0.174651329455465,0.220894156387303,DLL
10.2666666666667,-2.08452820777893,-1.25011885166168,8.45355415344238,5.34302186965942,0.564027965068817,-6.69973802566528,-1063.5,12.3000001907349,-923.700012207031,0.885991207221046,-0.219940186513164,0.163429093092616,DLL
10.3,-1.25430583953857,-1.57610678672791,8.28188800811768,3.19361782073975,0.167683988809586,-4.83997011184692,-1068.30004882812,9.90000057220459,-938.100036621094,0.89864202411906,-0.166734030276179,0.178447674398928,DLL
10.3333333333333,-1.58926582336426,-1.43075799942017,9.29813289642334,2.64483404159546,-0.762199997901917,-5.54881572723389,-1085.10009765625,8.70000076293945,-930.900024414062,0.905880673873913,-0.165064892164105,0.157186215184413,DLL
10.3666666666667,-1.63352847099304,-1.8566358089447,9.73537540435791,2.04269599914551,-1.15092194080353,-3.67380380630493,-1063.5,8.10000038146973,-933.300048828125,0.915564939054172,-0.161747150877293,0.177228699244743,DLL
10.4,-0.741697311401367,-1.44152450561523,9.31727313995361,2.27135586738586,-1.2347639799118,-4.30642986297607,-1070.70007324219,2.10000014305115,-940.500061035156,0.920544727675698,-0.101224554386341,0.15842841445408,DLL
10.4333333333333,-2.35429072380066,-0.760239720344543,9.26284217834473,2.9344699382782,0.0990860015153885,-2.52288198471069,-1075.5,7.50000047683716,-926.100036621094,0.916927876083287,-0.207434311257353,0.100244295808204,DLL
10.4666666666667,-2.50920987129211,-1.14544379711151,9.35256385803223,2.37044191360474,1.86738991737366,-0.297257989645004,-1061.10009765625,1.5,-928.500061035156,0.921434176729698,-0.246591426950675,0.112534412240945,DLL
10.5,-2.80349612236023,-1.18551933765411,9.99975395202637,1.90549993515015,1.09756803512573,0.0990860015153885,-1087.5,4.5,-930.900024414062,0.922684543224359,-0.26537178269713,0.114028996262598,DLL
10.5333333333333,-2.80529046058655,-0.826035439968109,9.94113636016846,2.18751406669617,-0.327746003866196,-0.0152439996600151,-1075.5,1.5,-935.700012207031,0.917083614401575,-0.271235118282114,0.0891377295552216,DLL
10.5666666666667,-2.42606782913208,-0.550889670848846,9.70307540893555,2.17989206314087,-0.87652999162674,-0.114329993724823,-1075.5,8.10000038146973,-938.100036621094,0.911330148263819,-0.250486463844057,0.0623754469000623,DLL
10.6,-1.93798327445984,-0.449803501367569,9.47817325592041,1.37195992469788,-0.0076219998300075,0.335367977619171,-1063.5,3.90000009536743,-933.300048828125,0.908386041359929,-0.214939616660637,0.0496546776386457,DLL
10.6333333333333,-1.63412654399872,-0.541917502880096,9.22755146026611,0.846041977405548,0.87652999162674,0.396344006061554,-1070.70007324219,3.90000009536743,-935.700012207031,0.90912938691967,-0.188091509801474,0.0548496216325043,DLL
10.6666666666667,-2.20056796073914,-0.131591454148293,8.99068737030029,0.99848198890686,1.53202199935913,0.175305992364883,-1082.70007324219,5.70000028610229,-926.100036621094,0.902807207520102,-0.229058943925941,0.0234356771309609,DLL
10.7,-1.84228038787842,-0.361876487731934,9.04691219329834,0.724089980125427,1.27287399768829,0.739333987236023,-1063.5,1.5,-926.100036621094,0.904218091425396,-0.210156364011355,0.0343470030596585,DLL
10.7333333333333,-1.68915569782257,-0.147741317749023,9.00504207611084,0.419209986925125,0.419209986925125,0.533540010452271,-1073.10009765625,4.5,-935.700012207031,0.90069501485287,-0.192749935810025,0.0206468182196147,DLL
10.7666666666667,-1.97746062278748,-0.211144462227821,9.12885761260986,-0.236281991004944,0.472563982009888,0.403965979814529,-1063.5,5.70000028610229,-942.900024414062,0.900283294430198,-0.208505558494468,0.0226724124430866,DLL
10.8,-2.10965037345886,-0.393578082323074,9.54516506195068,-0.541162014007568,0.762199997901917,0.670735955238342,-1061.10009765625,3.30000019073486,-916.500061035156,0.901820619659431,-0.215646770185247,0.0361160441914736,DLL
10.8333333333333,-1.6664263010025,-0.601731836795807,9.5625114440918,-0.556405961513519,0.3125019967556,0.121951997280121,-1051.5,-5.10000038146973,-926.100036621094,0.905309250647023,-0.185668151820626,0.0555021003834263,ST
10.8666666666667,-1.53603112697601,-0.601731836795807,9.48355674743652,-1.08232402801514,0.0990860015153885,-0.175305992364883,-1068.30004882812,-0.900000035762787,-938.100036621094,0.906534795692528,-0.167346914476803,0.0626211420688969,ST
10.9,-1.68137991428375,-0.733323276042938,9.33761024475098,-1.17378795146942,0.914639949798584,0.121951997280121,-1058.70007324219,5.10000038146973,-930.900024414062,0.908289309142767,-0.176116479221995,0.0757367519754461,ST
10.9333333333333,-1.99181604385376,-0.797324597835541,9.69171047210693,-0.548784017562866,1.47104597091675,-0.320124000310898,-1046.70007324219,3.90000009536743,-945.300048828125,0.909814464741301,-0.195992370275246,0.0809382669664174,ST
10.9666666666667,-1.3900842666626,-0.751865744590759,8.94881725311279,-0.25152599811554,0.663114011287689,-0.525918006896973,-1046.70007324219,0.900000035762787,-928.500061035156,0.911266097820966,-0.165487468412074,0.0835231018502906,ST
11.0,-1.5623494386673,-0.66334056854248,8.73707485198975,-0.579271972179413,0.853663980960846,-0.663114011287689,-1058.70007324219,2.10000014305115,-928.500061035156,0.911607852695143,-0.174450495366006,0.0788008286270348,ST
11.0333333333333,-1.77528834342957,-0.799717128276825,8.47628402709961,-0.586893975734711,1.11281192302704,-0.381099998950958,-1044.30004882812,-0.300000011920929,-926.100036621094,0.914348451477318,-0.197521626918382,0.0902810371473182,ST
11.0666666666667,-2.1832218170166,-1.01026344299316,9.0552864074707,-0.350611984729767,0.823175966739655,-0.670735955238342,-1044.30004882812,2.70000004768372,-933.300048828125,0.918660068935386,-0.224769288604737,0.105425282772529,ST
11.1,-2.80349612236023,-0.637620389461517,9.14560604095459,0.0685980021953583,-0.746955990791321,-1.08994603157043,-1046.70007324219,2.70000004768372,-935.700012207031,0.914024797606382,-0.277662000141474,0.0789764235513586,ST
11.1333333333333,-2.44999361038208,-0.789548695087433,9.1928596496582,-0.137196004390717,-1.19665396213531,-1.16616594791412,-1061.10009765625,5.10000038146973,-930.900024414062,0.91712830832754,-0.26342114167457,0.0841913443683214,ST
11.1666666666667,-2.5977349281311,-1.35060679912567,9.08160495758057,0.182927995920181,-1.17378795146942,-3.37654590606689,-1049.10009765625,2.10000014305115,-933.300048828125,0.934498390703263,-0.270244848821843,0.129314502834021,ST
11.2,-2.96678924560547,-1.42178583145142,9.41118144989014,0.37347799539566,-1.60061991214752,-4.10063600540161,-1049.10009765625,9.90000057220459,-935.700012207031,0.94584398502466,-0.290663272692991,0.145164517808695,ST
11.2333333333333,-2.36386108398438,-1.45109486579895,8.80885124206543,-0.144817993044853,-2.38568592071533,-3.7728898525238,-1053.90002441406,2.10000014305115,-933.300048828125,0.955912002182284,-0.263411053011795,0.15993612418004,ST
11.2666666666667,-2.19099760055542,-1.80758810043335,8.91053581237793,-0.952749967575073,-1.76830399036407,-2.98782396316528,-1053.90002441406,5.10000038146973,-933.300048828125,0.967693984318464,-0.241436850030782,0.190632609176288,ST
11.3,-1.99959194660187,-1.86919677257538,9.6462516784668,-0.617381989955902,-1.49391198158264,-1.95885396003723,-1063.5,9.30000019073486,-930.900024414062,0.970767721902671,-0.209606599008027,0.192434063559326,ST
11.3333333333333,-1.56055498123169,-1.81356954574585,9.41596698760986,-0.396344006061554,-0.853663980960846,-1.265251994133,-1070.70007324219,9.90000057220459,-935.700012207031,0.972364681326476,-0.173868920733671,0.191634334970898,ST
11.3666666666667,-1.84287846088409,-1.82732677459717,9.65043830871582,-0.0381099991500378,0.3125019967556,-1.18140995502472,-1065.90002441406,6.90000009536743,-947.700012207031,0.973926091088892,-0.182084901323801,0.188807392315451,ST
11.4,-2.03189158439636,-1.84228038787842,9.05229568481445,0.182927995920181,0.87652999162674,-0.907018005847931,-1068.30004882812,8.10000038146973,-926.100036621094,0.977401523925919,-0.206983942876415,0.197187996163311,ST
11.4333333333333,-2.08692073822021,-1.65625786781311,9.0493049621582,0.0685980021953583,1.02134799957275,-0.266770005226135,-1065.90002441406,-0.900000035762787,-935.700012207031,0.975817224340523,-0.219403163915109,0.185933211346814,ST
11.4666666666667,-2.00916218757629,-1.68556690216064,9.16833591461182,0.0762199983000755,0.868907988071442,0.320124000310898,-1058.70007324219,11.1000003814697,-930.900024414062,0.97493335808131,-0.215537984929475,0.182917739478793,ST
11.5,-2.15032386779785,-1.61079907417297,9.63189601898193,0.160062000155449,1.06708002090454,0.586893975734711,-1063.5,1.5,-935.700012207031,0.97168302377228,-0.217788659309527,0.170577393723952,ST
11.5333333333333,-1.78186786174774,-1.35957896709442,9.31488037109375,0.182927995920181,1.20427596569061,1.00610399246216,-1044.30004882812,5.70000028610229,-945.300048828125,0.9666030500937,-0.197967663179764,0.152176606216158,ST
11.5666666666667,-1.49535739421844,-1.35240125656128,9.2287483215332,0.152439996600151,1.36433792114258,1.18140995502472,-1056.30004882812,6.90000009536743,-947.700012207031,0.964080060145016,-0.172555675450529,0.147097567811559,ST
11.6,-2.06598591804504,-1.65266907215118,9.71264553070068,0.602137982845306,2.19513607025146,-0.175305992364883,-1046.70007324219,5.10000038146973,-942.900024414062,0.967956574672384,-0.200035529559361,0.161980556047625,ST
11.6333333333333,-1.92721664905548,-1.51988124847412,9.59301662445068,1.12805593013763,1.61586391925812,-0.457319974899292,-1046.70007324219,2.10000014305115,-926.100036621094,0.968726736298141,-0.198930309491987,0.157132075456237,ST
11.6666666666667,-1.61618232727051,-1.71607220172882,8.97453689575195,1.18903195858002,0.769822001457214,-0.609759986400604,-1044.30004882812,3.90000009536743,-928.500061035156,0.974694526083746,-0.182194086221388,0.179270808157059,ST
11.7,-2.33215951919556,-1.7926344871521,9.2167854309082,1.17378795146942,0.525918006896973,-1.29574000835419,-1041.90002441406,2.70000004768372,-933.300048828125,0.979356572545284,-0.227731419849623,0.18755522713741,ST
11.7333333333333,-2.52476143836975,-1.6544634103775,9.11868953704834,0.914639949798584,-0.0381099991500378,-0.731711983680725,-1039.5,0.300000011920929,-923.700012207031,0.979368797844707,-0.254259220406836,0.181027351750648,ST
11.7666666666667,-2.26456928253174,-1.65147268772125,8.9236946105957,0.663114011287689,-0.739333987236023,-0.144817993044853,-1041.90002441406,-2.70000004768372,-935.700012207031,0.97981030646836,-0.246543303018966,0.181598369231818,ST
11.8,-2.26456928253174,-1.71427774429321,8.9775276184082,0.83841997385025,-1.37958192825317,0.0838419944047928,-1037.10009765625,5.70000028610229,-935.700012207031,0.980528304149747,-0.242347523784855,0.185426449082296,ST
11.8333333333333,-1.57610678672791,-1.83211195468903,9.04870700836182,1.19665396213531,-2.80489587783813,0.114329993724823,-1037.10009765625,4.5,-942.900024414062,0.981706463091592,-0.18779665204589,0.193872682337472,ST
11.8666666666667,-1.12271440029144,-1.83749520778656,8.81124401092529,1.55488801002502,-3.3689239025116,0.640248000621796,-1053.90002441406,6.30000019073486,-921.300048828125,0.98095482127097,-0.139382849080535,0.199945861118365,ST
11.9,-1.79682147502899,-1.70111858844757,9.00863170623779,2.20275783538818,-1.60061991214752,1.79117000102997,-1049.10009765625,5.10000038146973,-942.900024414062,0.97606484481002,-0.175752027329117,0.187556583555068,ST
11.9333333333333,-1.98643279075623,-1.36017715930939,9.12048435211182,1.85214591026306,-0.632625997066498,3.43752193450928,-1046.70007324219,-3.30000019073486,-930.900024414062,0.964414532333908,-0.202140745030103,0.155729195782536,ST
11.9666666666667,-2.66951203346252,-1.1998747587204,9.76707649230957,1.73019397258759,-0.426831990480423,4.45124769210815,-1063.5,3.30000019073486,-935.700012207031,0.950927142474143,-0.247925909557891,0.127993699448575,ST
12.0,-2.88903045654297,-0.983347058296204,10.1253643035889,1.95123195648193,-0.6250039935112,4.42075967788696,-1063.5,1.5,-938.100036621094,0.937784271196843,-0.267916982506431,0.102394492143115,ST
12.0333333333333,-2.35907578468323,-0.590367138385773,9.7898063659668,1.69970595836639,-1.08994603157043,3.94057393074036,-1061.10009765625,0.300000011920929,-926.100036621094,0.922162760282406,-0.243026719809897,0.0671176449117942,ST
12.0666666666667,-2.61986613273621,-0.430662930011749,9.64266300201416,1.27287399768829,-0.426831990480423,3.65855979919434,-1058.70007324219,-2.10000014305115,-933.300048828125,0.911978083434011,-0.258157410091867,0.0487033510638619,ST
12.1,-2.45597505569458,-0.476121813058853,9.59720420837402,0.899396002292633,0.434453994035721,3.16313004493713,-1063.5,0.300000011920929,-926.100036621094,0.906592674600092,-0.253238009439318,0.0471861890454085,ST
12.1333333333333,-1.90149652957916,-0.295482635498047,8.61146450042725,0.807931959629059,0.541162014007568,2.24086785316467,-1058.70007324219,2.10000014305115,-940.500061035156,0.90066124705971,-0.228803823786585,0.0365065109059277,ST
12.1666666666667,-2.32019662857056,-0.377428203821182,8.63000679016113,0.975615978240967,1.00610399246216,1.74543797969818,-1063.5,4.5,-935.700012207031,0.898987077484928,-0.253603463942132,0.0398108188583623,ST
12.2,-2.74906516075134,-0.302062213420868,8.52054691314697,0.87652999162674,0.67835795879364,1.85976791381836,-1046.70007324219,3.90000009536743,-935.700012207031,0.895051464159049,-0.295264005890877,0.0350394666879144,ST
12.2333333333333,-2.12998723983765,-0.220714762806892,8.66888618469238,0.152439996600151,-0.350611984729767,2.27897787094116,-1049.10009765625,-2.10000014305115,-940.500061035156,0.889221038674058,-0.256862367490256,0.0273385751146332,ST
12.2666666666667,-2.31242084503174,-0.334960073232651,9.14919471740723,0.236281991004944,-0.449698001146317,2.22562384605408,-1058.70007324219,3.90000009536743,-923.700012207031,0.886954662680215,-0.249784145237786,0.0328240055797904,ST
12.3,-2.40034770965576,-0.327184200286865,9.72042179107666,0.426831990480423,-0.388722002506256,1.89787793159485,-1063.5,-3.90000009536743,-933.300048828125,0.883805862858773,-0.243915811079087,0.032293895827518,ST
12.3333333333333,-1.61558413505554,0.0825437307357788,9.32325458526611,0.259148001670837,-1.44055795669556,1.88263392448425,-1065.90002441406,1.5,-926.100036621094,0.873856727393901,-0.18966498538604,0.0014668465445415,ST
12.3666666666667,-1.39307498931885,0.042468149214983,9.329833984375,0.182927995920181,-1.04421401023865,1.80641400814056,-1063.5,-1.5,-938.100036621094,0.869896103617032,-0.158823415837083,-0.003445455742234,ST
12.4,-1.53902184963226,0.369652360677719,9.24130916595459,0.304879993200302,-0.670735955238342,1.60824191570282,-1068.30004882812,-0.900000035762787,-928.500061035156,0.86258675513223,-0.1624136782079,-0.0311220556764321,ST
12.4333333333333,-1.66164112091064,0.0968991592526436,9.69709396362305,-0.342989981174469,-0.426831990480423,1.08994603157043,-1061.10009765625,6.30000019073486,-928.500061035156,0.863104319291364,-0.166965692942454,-0.0161550634461953,ST
12.4666666666667,-1.48399269580841,0.0963010191917419,9.87414455413818,0.0457319989800453,-0.731711983680725,0.167683988809586,-1058.70007324219,-1.5,-921.300048828125,0.863559718891264,-0.153125496936231,-0.0115973777398027,ST
12.5,-1.24353921413422,0.261986613273621,9.29693603515625,0.289635986089706,-0.746955990791321,-0.541162014007568,-1061.10009765625,0.900000035762787,-935.700012207031,0.862858642277863,-0.138099805260128,-0.0234536652170226,ST
12.5333333333333,-1.57132160663605,0.186620607972145,9.15577411651611,0.175305992364883,-0.419209986925125,-1.00610399246216,-1053.90002441406,0.900000035762787,-928.500061035156,0.864952621249456,-0.159866622847186,-0.0213339027902697,ST
12.5666666666667,-1.88235592842102,-0.150133892893791,9.26044940948486,-0.144817993044853,-0.495429992675781,-2.64483404159546,-1065.90002441406,0.300000011920929,-940.500061035156,0.874074200037104,-0.187705261955479,0.0055961255178182,ST
12.6,-1.66164112091064,-0.217724040150642,9.2042236328125,-0.754577994346619,-0.724089980125427,-3.05642199516296,-1053.90002441406,-2.10000014305115,-930.900024414062,0.882203470684939,-0.179968069187786,0.0206145359145696,ST
12.6333333333333,-1.20824885368347,-0.757847130298615,9.47637939453125,-1.53964400291443,-0.46494197845459,-2.5076379776001,-1061.10009765625,0.900000035762787,-938.100036621094,0.893491757897753,-0.140439833212908,0.0660521776507435,ST
12.6666666666667,-1.15920102596283,-1.09878861904144,9.53978252410889,-1.03659200668335,-0.3125019967556,-3.40703392028809,-1065.90002441406,2.70000004768372,-945.300048828125,0.904269039935674,-0.124964196792768,0.103196874678921,ST
12.7,-1.65565979480743,-1.58806955814362,9.49432373046875,-0.525918006896973,0.121951997280121,-4.40551567077637,-1065.90002441406,4.5,-933.300048828125,0.919011887943092,-0.157857756676365,0.150708618824296,ST
12.7333333333333,-2.2890932559967,-1.98523652553558,9.49252891540527,-0.480185985565186,0.0228659994900227,-5.04576396942139,-1053.90002441406,5.10000038146973,-930.900024414062,0.9350784713665,-0.209453974504645,0.191774389788243,ST
12.7666666666667,-2.38958120346069,-2.21970868110657,9.34837627410889,-0.457319974899292,-0.0990860015153885,-4.32929611206055,-1068.30004882812,-0.300000011920929,-930.900024414062,0.949391045077105,-0.23307437201079,0.223468085457997,ST
12.8,-2.21970868110657,-1.84228038787842,8.83756256103516,-0.213415995240211,0.190549999475479,-2.81251788139343,-1053.90002441406,3.30000019073486,-935.700012207031,0.951311624940068,-0.238185764347901,0.212005770447763,ST
12.8333333333333,-2.02471399307251,-1.95772194862366,9.36153602600098,0.0381099991500378,0.937505960464478,-1.43293595314026,-1056.30004882812,2.70000004768372,-930.900024414062,0.953176453438123,-0.218269276593948,0.208303060371911,ST
12.8666666666667,-2.21253085136414,-1.9026927947998,9.38845252990723,0.182927995920181,1.05945801734924,-1.30336201190948,-1051.5,2.70000004768372,-926.100036621094,0.954684966120362,-0.225699629959438,0.202347048725423,ST
12.9,-2.53193926811218,-2.00138640403748,9.34598350524902,0.144817993044853,1.31860601902008,-0.708845973014832,-1058.70007324219,8.10000038146973,-918.900024414062,0.957803114562493,-0.250346898205707,0.208462207232327,ST
12.9333333333333,-2.89142322540283,-1.97746062278748,9.51585674285889,0.282013982534409,1.70732796192169,-0.190549999475479,-1039.5,0.900000035762787,-933.300048828125,0.958168154645777,-0.28055849686964,0.205707970738782,ST
12.9666666666667,-3.08701586723328,-1.83031749725342,9.59062480926514,0.3125019967556,1.73781597614288,0.426831990480423,-1044.30004882812,5.10000038146973,-935.700012207031,0.954659476866148,-0.300696244349861,0.193344643366605,ST
13.0,-2.20774579048157,-1.58149003982544,8.59890365600586,0.640248000621796,1.11281192302704,0.716467976570129,-1039.5,2.10000014305115,-935.700012207031,0.951641177814308,-0.26488239233912,0.184334671447864,ST
13.0333333333333,-2.67968058586121,-1.48638522624969,9.03554725646973,0.937505960464478,1.02897000312805,0.3125019967556,-1039.5,-2.10000014305115,-938.100036621094,0.947466918348273,-0.280333919313057,0.167974483416814,ST
13.0666666666667,-2.52835035324097,-1.24892246723175,9.26044940948486,1.13567793369293,0.426831990480423,0.67835795879364,-1037.10009765625,3.30000019073486,-945.300048828125,0.940112166506648,-0.26975622410914,0.142622740073008,ST
13.1,-1.40264523029327,-1.04375946521759,9.24848651885986,0.975615978240967,-0.6250039935112,0.533540010452271,-1039.5,-0.900000035762787,-930.900024414062,0.934368629802828,-0.185081006439526,0.11994036905619,DLR
13.1333333333333,-1.26925933361053,-1.22320234775543,9.98898792266846,0.983237981796265,-0.746955990791321,-0.693601965904236,-1049.10009765625,4.5,-918.900024414062,0.935714709846846,-0.142389325876644,0.120192333878617,DLR
13.1666666666667,-0.659153580665588,-1.22619307041168,9.40220928192139,0.907018005847931,-0.754577994346619,-0.975615978240967,-1056.30004882812,4.5,-928.500061035156,0.938300086010277,-0.0865324417343238,0.126253905860487,DLR
13.2,-0.985141456127167,-1.29198884963989,9.08579158782959,0.78506600856781,-0.0533539988100529,-1.06708002090454,-1051.5,-1.5,-933.300048828125,0.941211456376329,-0.100829706022841,0.136079860259093,DLR
13.2333333333333,-1.48040390014648,-1.43554317951202,9.04631423950195,1.15854394435883,0.137196004390717,-1.48628997802734,-1044.30004882812,-5.10000038146973,-930.900024414062,0.945785549934273,-0.143046120760346,0.15000186637561,DLR
13.2666666666667,-0.939682602882385,-1.73341834545135,8.87644195556641,1.44055795669556,-0.868907988071442,-1.81403601169586,-1039.5,-0.300000011920929,-933.300048828125,0.952586102114608,-0.114041023892172,0.178490119988488,DLR
13.3,-0.846372306346893,-1.71607220172882,9.41237735748291,2.70580983161926,-1.42531394958496,-3.31556987762451,-1037.10009765625,0.300000011920929,-923.700012207031,0.958415609109289,-0.0928092767519597,0.176792220531306,DLR
13.3333333333333,-1.70889449119568,-1.39367318153381,8.80945014953613,5.11436176300049,-0.800309956073761,-3.24697184562683,-1041.90002441406,-1.5,-928.500061035156,0.962281502381963,-0.158625592567181,0.15720649882926,DLR
13.3666666666667,-1.97985327243805,-1.09220910072327,8.84174919128418,5.07625198364258,0.0762199983000755,-3.17837381362915,-1044.30004882812,0.900000035762787,-930.900024414062,0.964150991699489,-0.201726854313041,0.126733755824173,DLR
13.4,-2.28849506378174,-1.29557764530182,8.68862438201904,4.25307607650757,0.807931959629059,-3.55947399139404,-1044.30004882812,-9.90000057220459,-926.100036621094,0.974475761916666,-0.239964372933925,0.137569489533533,DLR
13.4333333333333,-3.76411366462708,-0.970187902450562,9.84124660491943,4.29118585586548,0.922261953353882,-4.43600368499756,-1029.90002441406,-7.50000047683716,-935.700012207031,0.975419232244928,-0.326842187858817,0.106855157895714,DLR
13.4666666666667,-3.08581948280334,-0.739304721355438,9.58823204040527,4.6494197845459,-0.533540010452271,-4.30642986297607,-1034.70007324219,-6.90000009536743,-935.700012207031,0.977643830788508,-0.31341334481415,0.0801484730348194,DLR
13.5,-2.58756637573242,-0.66932201385498,10.0577735900879,4.39027214050293,-0.907018005847931,-4.93143367767334,-1034.70007324219,-11.7000007629395,-928.500061035156,0.984067835694825,-0.268439923430332,0.0668966781562568,DLR
13.5333333333333,-2.984135389328,0.028710862621665,10.4094820022583,4.81710386276245,-0.83841997385025,-6.46345567703247,-1034.70007324219,-12.3000001907349,-933.300048828125,0.982943081580124,-0.27478958140659,0.0145799567802029,DLR
13.5666666666667,-1.29318511486053,0.261986613273621,9.40520000457764,5.63265800476074,-0.0304879993200302,-6.44821166992188,-1037.10009765625,-9.30000019073486,-938.100036621094,0.988991035989204,-0.172966023101354,-0.0224616520582498,DLR
13.6,-0.427672237157822,0.428868502378464,8.73468208312988,5.95278167724609,0.571649968624115,-9.05493545532227,-1013.10003662109,-14.1000003814697,-923.700012207031,1.00357876379552,-0.0842249600846445,-0.0480241790832662,DLR
13.6333333333333,0.537132382392883,-0.0101684303954244,9.4195556640625,9.00158214569092,2.0579400062561,-13.6281356811523,-1013.10003662109,-20.1000003814697,-918.900024414062,1.02918930981388,0.0130508487271304,-0.0239406000315535,DLR
13.6666666666667,-0.590965270996094,0.600535571575165,8.67965221405029,13.1327056884766,2.62196803092957,-17.4010257720947,-1020.30004882812,-24.3000011444092,-906.900024414062,1.06018284874065,-0.0500221077998763,-0.0726111406358481,DLR
13.7,-3.01224803924561,1.7124832868576,8.19276428222656,14.3522253036499,3.17075204849243,-17.9193210601807,-984.300048828125,-20.1000003814697,-892.500061035156,1.07806130388913,-0.269717344149767,-0.181146516799447,DLR
13.7333333333333,-4.28928327560425,2.67609167098999,8.25138187408447,11.9284296035767,2.75154185295105,-15.4574155807495,-967.500061035156,-27.9000015258789,-887.700012207031,1.07583782193358,-0.414744011632728,-0.283226304819048,DLR
13.7666666666667,-5.49573755264282,3.27722525596619,8.79449653625488,5.96040391921997,0.945127964019775,-9.02444744110107,-948.300048828125,-31.5000019073486,-880.500061035156,1.07003146798569,-0.4995169686911,-0.335811512255189,DLR
13.8,-4.9514274597168,2.88544178009033,10.302414894104,1.98171997070312,-0.586893975734711,-4.29880809783936,-957.900024414062,-33.3000030517578,-878.100036621094,1.09982889494148,-0.452631161830164,-0.289679753574174,DLR
13.8333333333333,-3.2066445350647,2.08393001556396,10.0930643081665,-0.594515979290009,-0.884151995182037,-1.89025592803955,-943.500061035156,-24.3000011444092,-878.100036621094,1.12722565992667,-0.346710759604746,-0.226882594687886,DLR
13.8666666666667,-2.84357166290283,2.19877362251282,9.92977142333984,-0.777444005012512,0.144817993044853,-1.47866797447205,-953.100036621094,-28.5000019073486,-885.300048828125,1.13156695036244,-0.295457486284017,-0.219096397603539,DLR
13.9,-2.32019662857056,2.21671795845032,8.93386363983154,-0.78506600856781,0.472563982009888,-1.31860601902008,-953.100036621094,-26.1000003814697,-880.500061035156,1.12885252275074,-0.262460790842916,-0.234685331095796,DLR
13.9333333333333,-1.86979496479034,2.12879085540771,7.52045154571533,-1.47866797447205,1.05183601379395,-1.30336201190948,-948.300048828125,-28.5000019073486,-887.700012207031,1.12318240635723,-0.244820433763721,-0.261421646743992,DLR
13.9666666666667,-2.0432562828064,1.82553231716156,7.5371994972229,-2.11129403114319,1.38720393180847,-0.503051996231079,-929.100036621094,-30.9000015258789,-870.900024414062,1.12742264484689,-0.255971811271745,-0.24145420998402,DLR
14.0,-2.42546963691711,1.5802937746048,8.05220031738281,-2.26373386383057,0.701223969459534,0.3125019967556,-926.700012207031,-26.7000007629395,-880.500061035156,1.13535455080564,-0.279596573476346,-0.204268606751462,DLR
14.0333333333333,-2.68925070762634,1.43494498729706,8.69400787353516,-1.6844619512558,0.647870004177094,0.381099998950958,-929.100036621094,-30.3000011444092,-894.900024414062,1.14236578435622,-0.292183714400645,-0.173405127743753,DLR
14.0666666666667,-2.96559286117554,0.892429292201996,8.93685436248779,-1.44817996025085,0.533540010452271,-0.0076219998300075,-929.100036621094,-21.9000015258789,-890.100036621094,1.15733482808113,-0.311683948417496,-0.120169897742247,DLR
14.1,-3.82811498641968,0.279332756996155,10.3484716415405,-1.15854394435883,-0.472563982009888,-0.632625997066498,-929.100036621094,-27.3000011444092,-902.100036621094,1.17910945896798,-0.341156845330212,-0.0537052964188432,DLR
14.1333333333333,-3.43932199478149,-0.0352904349565506,10.5679903030396,-0.6250039935112,-1.01372599601746,-0.769822001457214,-941.100036621094,-27.9000015258789,-875.700012207031,1.19448256935353,-0.320057294592336,-0.0096764336338524,DLR
14.1666666666667,-3.5392119884491,0.283519774675369,9.62471866607666,-0.503051996231079,-0.442075997591019,-0.320124000310898,-936.300048828125,-26.1000003814697,-897.300048828125,1.19042839958566,-0.342446807527033,-0.022947065794697,DLR
14.2,-2.80648684501648,0.10527316480875,9.04870700836182,-1.31860601902008,0.327746003866196,0.693601965904236,-933.900024414062,-29.7000007629395,-885.300048828125,1.19151831158038,-0.312062550112446,-0.0131803092045933,DLR
14.2333333333333,-3.31730103492737,0.285314202308655,9.29334735870361,-0.67835795879364,0.685979962348938,1.07470202445984,-919.500061035156,-26.7000007629395,-878.100036621094,1.1856101683905,-0.334306499745958,-0.0250085368422256,DLR
14.2666666666667,-3.16716694831848,0.848166704177856,8.75442028045654,0.609759986400604,0.419209986925125,1.57775402069092,-936.300048828125,-27.3000011444092,-885.300048828125,1.16626854174886,-0.342799301635825,-0.0764347878083919,DLR
14.3,-2.97994828224182,1.3159145116806,8.58275318145752,0.87652999162674,-0.0304879993200302,1.82165801525116,-936.300048828125,-20.1000003814697,-894.900024414062,1.14559490750567,-0.334170872914272,-0.131287739878381,DLR
14.3333333333333,-2.82263660430908,1.38470101356506,8.65811920166016,0.701223969459534,0.0076219998300075,0.990859985351562,-933.900024414062,-27.3000011444092,-890.100036621094,1.13783906208521,-0.318134281622331,-0.151684894261507,DLR
14.3666666666667,-3.28918814659119,1.43973016738892,8.88062858581543,0.670735955238342,0.297257989645004,0.731711983680725,-926.700012207031,-26.1000003814697,-880.500061035156,1.13454595049146,-0.340982583560967,-0.15913136656885,DLR
14.4,-3.09658622741699,1.49475932121277,8.86268424987793,0.266770005226135,0.152439996600151,0.891773998737335,-943.500061035156,-27.3000011444092,-882.900024414062,1.13114241046961,-0.334565202047372,-0.165411618645969,DLR
14.4333333333333,-2.98951864242554,1.31830716133118,9.40280723571777,0.228659987449646,0.342989981174469,0.632625997066498,-926.700012207031,-28.5000019073486,-885.300048828125,1.13596576072363,-0.313462606264156,-0.146989526323693,DLR
14.4666666666667,-3.64568138122559,1.31531643867493,9.42613506317139,0.564027965068817,0.769822001457214,0.0381099991500378,-931.500061035156,-23.1000003814697,-897.300048828125,1.13771402815861,-0.35167791881777,-0.141864058387127,DLR
14.5,-3.81675028800964,1.34701800346375,9.83646106719971,0.632625997066498,0.335367977619171,0.190549999475479,-924.300048828125,-16.5,-887.700012207031,1.13889518086163,-0.363579356001768,-0.138490903223989,DLR
14.5333333333333,-3.11752104759216,1.78545677661896,9.36632061004639,0.861285984516144,0.0990860015153885,0.342989981174469,-929.100036621094,-25.5000019073486,-890.100036621094,1.12583289237063,-0.328597550312364,-0.176747294234573,DLR
14.5666666666667,-2.79751467704773,1.82134532928467,8.61804389953613,0.46494197845459,0.175305992364883,-0.137196004390717,-914.700012207031,-27.9000015258789,-882.900024414062,1.11876076182646,-0.313329651595812,-0.200614828877951,DLR
14.6,-3.12350249290466,1.45528185367584,8.6742696762085,-0.0685980021953583,0.190549999475479,-0.221037998795509,-914.700012207031,-27.3000011444092,-892.500061035156,1.1266805392283,-0.333152949647517,-0.176490387519568,DLR
14.6333333333333,-2.62824010848999,1.09460163116455,8.25556945800781,0.365855991840363,0.0609759986400604,0.0533539988100529,-917.100036621094,-24.3000011444092,-887.700012207031,1.13659398161048,-0.314080324506585,-0.145641833153466,DLR
14.6666666666667,-3.24492573738098,1.05811488628387,8.37759017944336,0.754577994346619,-0.129574000835419,0.525918006896973,-917.100036621094,-24.3000011444092,-887.700012207031,1.14062855790898,-0.353407863386378,-0.13196476798771,DLR
14.7,-3.16118550300598,1.45887064933777,8.90634918212891,1.18903195858002,-0.78506600856781,1.6920839548111,-921.900024414062,-27.3000011444092,-885.300048828125,1.13081610593603,-0.340650616114633,-0.155394086443393,DLR
14.7333333333333,-2.84297347068787,1.51748871803284,8.64196968078613,1.2500079870224,-0.548784017562866,2.37044191360474,-929.100036621094,-26.1000003814697,-887.700012207031,1.12284554190531,-0.320420808075111,-0.170778730059766,DLR
14.7666666666667,-3.31131958961487,1.38290655612946,9.03494930267334,0.617381989955902,0.358233988285065,1.28811800479889,-926.700012207031,-29.7000007629395,-880.500061035156,1.12485527499498,-0.339593654540438,-0.158928396707458,DLR
14.8,-4.39156579971313,1.48937594890594,10.0410261154175,0.586893975734711,-0.121951997280121,1.47104597091675,-926.700012207031,-26.7000007629395,-894.900024414062,1.12521306196838,-0.390637701283515,-0.151785584614168,DLR
14.8333333333333,-3.31431031227112,0.96360832452774,8.48047065734863,-0.480185985565186,0.243903994560242,1.57013201713562,-931.500061035156,-27.3000011444092,-882.900024414062,1.13262174751129,-0.376041485341417,-0.123886038336277,DLR
14.8666666666667,-4.40711736679077,0.776987731456757,9.32564735412598,-0.746955990791321,1.57013201713562,0.945127964019775,-931.500061035156,-33.9000015258789,-880.500061035156,1.14160423905518,-0.423553149650919,-0.0947954846941434,DLR
14.9,-3.81854462623596,1.02820777893066,8.67367076873779,0.25152599811554,0.510673999786377,1.19665396213531,-931.500061035156,-24.3000011444092,-880.500061035156,1.13279478045906,-0.416061315320464,-0.112029168474959,DLR
14.9333333333333,-3.19707417488098,1.17236018180847,8.01511573791504,0.342989981174469,-0.144817993044853,0.556405961513519,-924.300048828125,-32.1000022888184,-892.500061035156,1.12257555949235,-0.387220835183489,-0.136529586996943,DLR
14.9666666666667,-3.71686053276062,1.22320234775543,8.66948413848877,0.571649968624115,0.182927995920181,0.137196004390717,-917.100036621094,-28.5000019073486,-894.900024414062,1.12142611559379,-0.397378860813992,-0.139850044879813,DLR
15.0,-3.57450246810913,1.48040390014648,8.71673774719238,0.952749967575073,-0.335367977619171,0.282013982534409,-931.500061035156,-29.7000007629395,-885.300048828125,1.11359604796621,-0.387730522986481,-0.161006043825444,DLR
15.0333333333333,-3.51109933853149,1.58747148513794,9.07801628112793,0.144817993044853,-0.937505960464478,0.655492007732391,-921.900024414062,-23.1000003814697,-885.300048828125,1.10960095084702,-0.369884035481901,-0.169918019336993,DLR
15.0666666666667,-3.85263895988464,1.55158281326294,9.59899806976318,-0.365855991840363,-0.487807989120483,0.967993974685669,-926.700012207031,-26.7000007629395,-882.900024414062,1.11043002402259,-0.374249094570861,-0.163138219985945,DLR
15.1,-3.3047399520874,1.37393438816071,9.47458457946777,-0.510673999786377,-0.746955990791321,1.17378795146942,-931.500061035156,-25.5000019073486,-880.500061035156,1.11320858891126,-0.343847972717354,-0.149556620440479,DLR
15.1333333333333,-3.10137128829956,1.46784281730652,9.53798770904541,-0.533540010452271,-0.510673999786377,1.05183601379395,-933.900024414062,-26.7000007629395,-892.500061035156,1.11069374080613,-0.320027408852294,-0.15151657596947,DLR
15.1666666666667,-2.41231060028076,1.78964376449585,9.07861423492432,-0.114329993724823,-0.571649968624115,0.884151995182037,-938.700012207031,-26.1000003814697,-890.100036621094,1.10022213950095,-0.272864458155366,-0.182580384983141,DLR
15.2,-2.14494061470032,1.59464919567108,8.30342102050781,-0.777444005012512,-0.106707997620106,0.525918006896973,-936.300048828125,-21.3000011444092,-878.100036621094,1.09787793388268,-0.255210973967676,-0.186892855941315,DLR
15.2333333333333,-2.59893131256104,1.50133883953094,9.16534519195557,-0.99848198890686,0.320124000310898,0.731711983680725,-938.700012207031,-24.3000011444092,-882.900024414062,1.10081236095807,-0.267789750291578,-0.168804924657378,DLR
15.2666666666667,-2.71497106552124,1.60900461673737,8.7101583480835,-0.396344006061554,0.571649968624115,0.571649968624115,-931.500061035156,-26.7000007629395,-892.500061035156,1.09693802643033,-0.289074159657831,-0.178224485578704,DLR
15.3,-3.46444416046143,1.25729656219482,9.31787109375,-0.594515979290009,0.350611984729767,0.922261953353882,-924.300048828125,-32.1000022888184,-899.700012207031,1.10451310753063,-0.334070380851827,-0.147299041646547,DLR
15.3333333333333,-3.38130211830139,1.3320643901825,9.15158748626709,-0.365855991840363,-0.0762199983000755,0.823175966739655,-936.300048828125,-26.7000007629395,-887.700012207031,1.10366810449725,-0.345337280093749,-0.145276768107585,DLR
15.3666666666667,-3.23595356941223,1.19508969783783,9.13842868804932,-0.0762199983000755,-0.274392008781433,0.868907988071442,-929.100036621094,-27.3000011444092,-887.700012207031,1.10577899544232,-0.339502629706642,-0.134876260714313,DLR
15.4,-3.54160451889038,0.942673325538635,9.07981014251709,-0.0457319989800453,0.221037998795509,-0.342989981174469,-933.900024414062,-29.7000007629395,-890.100036621094,1.11383608598805,-0.361236472142339,-0.112796948191954,DLR
15.4333333333333,-3.1647744178772,0.966000914573669,9.25925350189209,0.579271972179413,-0.731711983680725,-0.6250039935112,-941.100036621094,-27.3000011444092,-887.700012207031,1.1173063724783,-0.336974397091755,-0.106992859052934,DLR
15.4666666666667,-3.54100632667542,1.05392789840698,8.8937873840332,0.891773998737335,-0.800309956073761,-0.6250039935112,-936.300048828125,-26.7000007629395,-885.300048828125,1.11610216943623,-0.363724022551415,-0.115393383419857,DLR
15.5,-2.61807179450989,0.75246387720108,8.01631164550781,0.266770005226135,-0.853663980960846,-0.289635986089706,-945.900024414062,-20.7000007629395,-887.700012207031,1.12202183313886,-0.32822322367106,-0.100241020687553,DLR
15.5333333333333,-3.97765064239502,0.196789041161537,9.10014724731445,-0.564027965068817,-0.739333987236023,-1.06708002090454,-938.700012207031,-24.3000011444092,-890.100036621094,1.14289917002003,-0.386119738605293,-0.0447584960014758,DLR
15.5666666666667,-2.95841503143311,0.209350034594536,9.401611328125,-0.472563982009888,-1.46342396736145,1.60061991214752,-938.700012207031,-26.7000007629395,-897.300048828125,1.14561910631251,-0.327381471485184,-0.0290305901873139,DLR
15.6,-2.46853613853455,0.0604124404489994,9.89029407501221,-0.182927995920181,-1.84452390670776,1.265251994133,-924.300048828125,-18.9000015258789,-878.100036621094,1.14818550926688,-0.266058938552278,-0.0128366517207311,DLR
15.6333333333333,-2.91534876823425,0.456981241703033,9.74554347991943,0.594515979290009,-1.60824191570282,1.44817996025085,-945.900024414062,-28.5000019073486,-902.100036621094,1.13899052401564,-0.281633283136337,-0.0387186560228058,DLR
15.6666666666667,-2.62285685539246,1.02402079105377,9.37469482421875,0.503051996231079,-0.861285984516144,2.55336999893188,-936.300048828125,-26.7000007629395,-894.900024414062,1.12122818861116,-0.273254805015854,-0.0892469236353604,DLR
15.7,-2.28191542625427,1.36376595497131,8.88601207733154,-0.739333987236023,0.167683988809586,3.00306797027588,-943.500061035156,-18.9000015258789,-885.300048828125,1.10355630667876,-0.255214681864638,-0.135154497112131,DLR
15.7333333333333,-2.5558648109436,1.28361487388611,9.4913330078125,-0.769822001457214,0.731711983680725,2.34757590293884,-941.100036621094,-18.3000011444092,-902.100036621094,1.0992056044314,-0.259688807495186,-0.134473400641304,DLR
15.7666666666667,-2.90398406982422,1.52347016334534,9.42493915557861,0.0685980021953583,0.830797970294952,0.952749967575073,-936.300048828125,-29.1000003814697,-892.500061035156,1.09206492258136,-0.286829605693521,-0.153926784016201,DLR
15.8,-2.9422652721405,1.3398402929306,8.79748725891113,-0.129574000835419,0.731711983680725,0.579271972179413,-936.300048828125,-23.1000003814697,-894.900024414062,1.09141005135718,-0.310313271150383,-0.15208949673842,DLR
15.8333333333333,-3.89211630821228,0.885251581668854,9.37888145446777,-0.792688012123108,1.2347639799118,1.03659200668335,-924.300048828125,-32.7000007629395,-894.900024414062,1.10250925724015,-0.368675040018402,-0.111563182132979,DLR
15.8666666666667,-3.50152897834778,1.23396897315979,9.43869590759277,-0.0838419944047928,0.46494197845459,1.96647596359253,-941.100036621094,-32.7000007629395,-887.700012207031,1.09433060801218,-0.357637320543944,-0.125307267958527,DLR
15.9,-3.24911260604858,1.29617583751678,9.01879978179932,-0.320124000310898,0.739333987236023,1.89787793159485,-929.100036621094,-22.5,-890.100036621094,1.08635391563879,-0.347483923584772,-0.138258374912702,DLR
15.9333333333333,-3.68755149841309,1.40862667560577,9.281982421875,-0.564027965068817,0.609759986400604,0.548784017562866,-936.300048828125,-27.3000011444092,-899.700012207031,1.08212521364985,-0.366853088825065,-0.146470879231233,DLR
15.9666666666667,-2.93987274169922,1.13706982135773,9.30889892578125,-0.6250039935112,-0.518296003341675,0.746955990791321,-933.900024414062,-24.3000011444092,-894.900024414062,1.08675647971509,-0.321990811922184,-0.128470312191644,DLR
16.0,-2.8483567237854,1.36137342453003,8.89737701416016,-0.0685980021953583,-0.594515979290009,0.46494197845459,-945.900024414062,-22.5,-911.700012207031,1.08098498939306,-0.310364905375174,-0.144899162310347,DLR
16.0333333333333,-2.99310731887817,0.672312676906586,8.61206245422363,-0.0533539988100529,0.282013982534409,-0.198172003030777,-945.900024414062,-21.9000015258789,-897.300048828125,1.09589442148707,-0.327086356035562,-0.098065845224059,DLR
16.0666666666667,-3.48896789550781,0.826035439968109,8.90036773681641,0.518296003341675,-0.0533539988100529,0.121951997280121,-936.300048828125,-21.3000011444092,-890.100036621094,1.09711068108446,-0.359666508322497,-0.0948039293694981,DLR
16.1,-2.80349612236023,1.16877138614655,8.38237571716309,1.45580196380615,-0.442075997591019,0.746955990791321,-931.500061035156,-17.1000003814697,-918.900024414062,1.0857253032171,-0.331254512554425,-0.127603459958514,DLR
16.1333333333333,-3.39446139335632,0.900803327560425,8.30282211303711,0.952749967575073,0.419209986925125,-0.152439996600151,-943.500061035156,-22.5,-890.100036621094,1.09071545558171,-0.3700867688362,-0.115181006420841,DLR
16.1666666666667,-4.27253532409668,0.850559294223785,8.91831207275391,0.335367977619171,0.449698001146317,-0.381099998950958,-933.900024414062,-25.5000019073486,-899.700012207031,1.09685875520643,-0.424024637289589,-0.101293866626564,DLR
16.2,-4.358069896698,1.10776078701019,9.22934627532959,0.457319974899292,-0.92988395690918,0.6250039935112,-926.700012207031,-29.1000003814697,-892.500061035156,1.09074895618468,-0.432877662891332,-0.114813807696054,DLR
16.2333333333333,-3.80239486694336,0.952243626117706,9.2407112121582,-0.708845973014832,-1.11281192302704,1.29574000835419,-945.900024414062,-26.7000007629395,-887.700012207031,1.09195418921512,-0.399699529826555,-0.10588799934083,DLR
16.2666666666667,-4.42565965652466,0.83560574054718,9.62471866607666,-0.990859985351562,-0.83841997385025,1.57775402069092,-936.300048828125,-27.3000011444092,-904.500061035156,1.09444303872536,-0.419763533305008,-0.0917888005134923,DLR
16.3,-3.37890958786011,0.986935913562775,8.9715461730957,-1.94360995292664,-2.12653803825378,2.57623600959778,-921.900024414062,-26.1000003814697,-885.300048828125,1.08497736072416,-0.373812395548695,-0.103159517806874,DLR
16.3333333333333,-3.37651705741882,0.897812604904175,9.22515869140625,-2.24848985671997,-1.63872992992401,2.44666194915771,-943.500061035156,-23.7000007629395,-902.100036621094,1.08205962123012,-0.354410224644889,-0.097161930792829,DLR
16.3666666666667,-2.11443543434143,0.536534249782562,8.55165004730225,-2.99544596672058,-1.36433792114258,3.03355598449707,-950.700012207031,-20.7000007629395,-911.700012207031,1.08397165263501,-0.273775356206209,-0.0703136734410406,DLR
16.4,-2.57022023200989,0.542515695095062,8.79329967498779,-2.44666194915771,0.129574000835419,2.0579400062561,-945.900024414062,-23.7000007629395,-906.900024414062,1.08167296166644,-0.280823642742244,-0.061969780275178,DLR
16.4333333333333,-2.87886214256287,0.37324121594429,8.07971572875977,-2.17227005958557,0.617381989955902,2.17989206314087,-941.100036621094,-18.9000015258789,-904.500061035156,1.08065488534582,-0.32497789680504,-0.0489621583868701,DLR
16.4666666666667,-3.83708715438843,0.119030453264713,9.20841121673584,-1.91312193870544,-0.236281991004944,2.53812599182129,-938.700012207031,-16.5,-902.100036621094,1.08443459302012,-0.376084349553388,-0.021361290119178,DLR
16.5,-2.60909962654114,-0.155517175793648,9.22695350646973,-2.05031800270081,-1.09756803512573,3.48325395584106,-945.900024414062,-18.9000015258789,-904.500061035156,1.08694640079717,-0.30442355748904,0.0066343137625152,DLR
16.5333333333333,-3.3346471786499,0.302660346031189,10.2162818908691,-1.49391198158264,-1.42531394958496,3.52136397361755,-955.500061035156,-20.7000007629395,-918.900024414062,1.07284547256711,-0.310345668868699,-0.0182279499747537,DLR
16.5666666666667,-3.10077309608459,0.388194799423218,9.64505577087402,-1.53202199935913,-1.58537602424622,4.24545383453369,-945.900024414062,-16.5,-911.700012207031,1.06049635101361,-0.308611868359555,-0.0333795420059675,DLR
16.6,-3.25210332870483,0.591563403606415,9.46142578125,-2.57623600959778,-1.6768399477005,4.89332389831543,-960.300048828125,-17.1000003814697,-909.300048828125,1.04488972569179,-0.321857059600547,-0.0528003884586857,DLR
16.6333333333333,-3.67020535469055,0.769810020923615,9.39503192901611,-3.26221585273743,-2.09605002403259,6.94364166259766,-969.900024414062,-24.3000011444092,-902.100036621094,1.02560067496232,-0.353348176295617,-0.0718984433234226,DLR
16.6666666666667,-2.25499892234802,0.519188106060028,8.46850776672363,-4.39789390563965,-2.64483404159546,9.1311559677124,-965.100036621094,-15.3000001907349,-918.900024414062,1.01145672243275,-0.283873128398633,-0.062529468957956,DLR
16.7,-2.57440733909607,0.575413525104523,8.01810646057129,-4.94667768478394,-2.69818782806396,9.34457206726074,-996.300048828125,-20.7000007629395,-906.900024414062,0.992785283445216,-0.298079428997676,-0.0662084983865326,DLR
16.7333333333333,-1.03837621212006,0.0107665732502937,8.07193946838379,-5.68601179122925,-2.76678586006165,10.2515897750854,-998.700012207031,-20.1000003814697,-923.700012207031,0.984286578820531,-0.170734827396339,-0.0144276536255028,DLR
16.7666666666667,-2.45537686347961,0.195592746138573,8.88242340087891,-3.71953582763672,-1.85214591026306,7.84303760528564,-998.700012207031,-12.3000001907349,-918.900024414062,0.969211326617664,-0.237439475236605,-0.017223533196549,DLR
16.8,-2.59414601325989,-0.238659039139748,9.63189601898193,-4.16161203384399,-2.5152599811554,7.94974565505981,-991.500061035156,-10.5,-918.900024414062,0.96159200229124,-0.25261180679415,0.0153220976556175,DLR
16.8333333333333,-2.49664878845215,-0.394774347543716,9.43271446228027,-3.91770792007446,-3.30032587051392,5.64027976989746,-1008.30004882812,-3.30000019073486,-923.700012207031,0.955463166196521,-0.25294709812936,0.0372308824280962,DLR
16.8666666666667,-2.8483567237854,-0.51440292596817,9.68273830413818,-4.35978412628174,-2.78202986717224,5.99851369857788,-1020.30004882812,-2.70000004768372,-935.700012207031,0.946136993925145,-0.273920466739416,0.052359118805313,DLR
16.9,-2.03428435325623,-1.98523652553558,9.32624530792236,-4.76375007629395,-1.92836594581604,4.31405210494995,-1029.90002441406,-5.70000028610229,-923.700012207031,0.965109989981298,-0.228364208685228,0.167127508774382,DLR
16.9333333333333,-3.19408345222473,-1.6903520822525,10.154673576355,-3.87197589874268,-0.975615978240967,3.72715783119202,-1032.30004882812,-3.90000009536743,-916.500061035156,0.956569286692853,-0.282274938652942,0.169219971651908,DLR
16.9666666666667,-2.07376170158386,-1.75614774227142,9.06485652923584,-3.63569402694702,-0.914639949798584,4.38264989852905,-1032.30004882812,-5.10000038146973,-928.500061035156,0.952249752814128,-0.239242322973183,0.187780281684465,DLR
17.0,-2.25081205368042,-1.88833737373352,9.95848274230957,-3.41465592384338,-0.967993974685669,3.31556987762451,-1032.30004882812,-1.5,-918.900024414062,0.945773849728445,-0.224348030966271,0.190694468837555,DLR
17.0333333333333,-1.68317437171936,-1.48997414112091,9.76707649230957,-2.45428395271301,-1.34909391403198,3.10215401649475,-1020.30004882812,-2.70000004768372,-928.500061035156,0.934167103369948,-0.184520766968113,0.165278517719532,DLR
17.0666666666667,-1.73880159854889,-1.42058956623077,9.34598350524902,-0.99848198890686,-0.815553963184357,2.60672402381897,-1041.90002441406,4.5,-928.500061035156,0.927526064831123,-0.182215172051062,0.155790123149277,DLR
17.1,-1.45049667358398,-1.29797029495239,8.83516979217529,-0.228659987449646,-0.350611984729767,2.56099200248718,-1032.30004882812,5.10000038146973,-940.500061035156,0.921644467389637,-0.167161433827698,0.148433483751344,DLR
17.1333333333333,-1.57491040229797,-0.977365612983704,8.95479869842529,-0.0228659994900227,0.0304879993200302,2.33233189582825,-1039.5,-0.900000035762787,-926.100036621094,0.912944386368444,-0.171742102390455,0.120203596846544,DLR
17.1666666666667,-1.61917304992676,-0.879270195960999,8.89259147644043,-0.129574000835419,0.0304879993200302,2.16464805603027,-1044.30004882812,6.90000009536743,-935.700012207031,0.906568167286714,-0.177331576524098,0.104763285145325,DLR
17.2,-1.77708280086517,-1.16099548339844,9.30231952667236,-0.327746003866196,0.0304879993200302,1.27287399768829,-1039.5,2.10000014305115,-918.900024414062,0.906693027159597,-0.185076317260766,0.119429827160155,DLR
17.2333333333333,-2.25739169120789,-1.15082705020905,9.58763408660889,0.0914639979600906,0.0990860015153885,0.579271972179413,-1039.5,3.30000019073486,-930.900024414062,0.905665998066419,-0.217609702918673,0.119183668131392,DLR
17.2666666666667,-2.40752553939819,-1.59763991832733,9.66778469085693,0.0228659994900227,0.365855991840363,1.13567793369293,-1022.70001220703,4.5,-926.100036621094,0.910920957691813,-0.23522179854115,0.151115707209023,DLR
17.3,-2.64139938354492,-1.64608943462372,9.52602481842041,0.0228659994900227,0.594515979290009,0.228659987449646,-1041.90002441406,-0.300000011920929,-926.100036621094,0.914094951468947,-0.258012757882566,0.164984915171929,DLR
17.3333333333333,-2.61089396476746,-1.55696618556976,9.18807411193848,0.190549999475479,0.182927995920181,0.472563982009888,-1025.10009765625,3.90000009536743,-928.500061035156,0.913877869654853,-0.2689217319087,0.16661520500121,ST
17.3666666666667,-2.53014469146729,-1.43374872207642,9.07024002075195,0.3125019967556,-0.388722002506256,0.617381989955902,-1025.10009765625,0.900000035762787,-930.900024414062,0.910912432310273,-0.268532856596112,0.159126343547423,ST
17.4,-2.11443543434143,-1.4301598072052,8.82320690155029,0.647870004177094,-1.09756803512573,0.411587983369827,-1027.5,0.300000011920929,-926.100036621094,0.91026048284047,-0.241941717499497,0.159251613308773,ST
17.4333333333333,-2.15570735931396,-1.20884692668915,9.04631423950195,1.11281192302704,-1.60061991214752,0.548784017562866,-1037.10009765625,1.5,-928.500061035156,0.904676089533255,-0.233132120411413,0.139182129495592,ST
17.4666666666667,-1.66881883144379,-0.907981038093567,8.51396751403809,1.36433792114258,-2.00458598136902,0.907018005847931,-1041.90002441406,-0.300000011920929,-935.700012207031,0.897823981737919,-0.202436210444933,0.114114697223978,ST
17.5,-1.38828980922699,-0.745884299278259,8.53908920288086,0.945127964019775,-1.63110792636871,1.01372599601746,-1051.5,-3.90000009536743,-928.500061035156,0.892350162638255,-0.171311742151932,0.0937778997286899,ST
