seconds,sensor_accX_m_s_,sensor_accY_m_s_,sensor_accZ_m_s_,sensor_gyroX___s_,sensor_gyroY___s_,sensor_gyroZ___s_,sensor_magX__T_,sensor_magY__T_,sensor_magZ__T_,sensor_yaw___,sensor_pitch___,sensor_roll___,label3
0.0,-0.629246413707733,-0.643601834774017,9.4907341003418,0.297257989645004,-0.282013982534409,0.426831990480423,-1101.90002441406,4.5,-933.300048828125,-2.49307157139353,-0.06591065131426,0.0670881609413564,ST
0.0333333333333333,-0.625657558441162,-0.616685390472412,9.60258769989014,0.304879993200302,-0.403965979814529,0.388722002506256,-1106.70007324219,1.5,-918.900024414062,-2.49533451700352,-0.0643141845610492,0.0636500992315947,ST
0.0666666666666667,-0.57361912727356,-0.608311414718628,9.55533409118652,0.411587983369827,-0.335367977619171,0.381099998950958,-1097.10009765625,-2.70000004768372,-918.900024414062,-2.49733198913427,-0.0594327009388655,0.0628385006061827,ST
0.1,-0.620872378349304,-0.577806115150452,9.53499698638916,0.403965979814529,-0.25152599811554,0.411587983369827,-1111.5,-5.10000038146973,-916.500061035156,-2.4995893573732,-0.0643714295697917,0.0598552680386527,ST
0.133333333333333,-0.540123105049133,-0.599937379360199,9.54576396942139,0.304879993200302,-0.335367977619171,0.434453994035721,-1101.90002441406,-3.90000009536743,-911.700012207031,-2.50198322779854,-0.056006829381885,0.0621524960123475,ST
0.166666666666667,-0.579002380371094,-0.592759668827057,9.63548469543457,0.297257989645004,-0.327746003866196,0.358233988285065,-1097.10009765625,4.5,-928.500061035156,-2.50397547512227,-0.0592926672831867,0.0609133874929892,ST
0.2,-0.584385693073273,-0.622666835784912,9.56550216674805,0.297257989645004,-0.205793991684914,0.221037998795509,-1097.10009765625,-0.300000011920929,-923.700012207031,-2.50491816988131,-0.0605249536625071,0.0643755353575475,ST
0.233333333333333,-0.649583280086517,-0.591563403606415,9.60856914520264,0.274392008781433,-0.167683988809586,0.221037998795509,-1094.70007324219,-5.70000028610229,-921.300048828125,-2.50623098374063,-0.0669271828487755,0.0610752909862882,ST
0.266666666666667,-0.632835268974304,-0.623264968395233,9.53021240234375,0.274392008781433,-0.152439996600151,0.289635986089706,-1101.90002441406,-0.900000035762787,-926.100036621094,-2.50744184345217,-0.0659589055156086,0.064691303266988,ST
0.3,-0.635825991630554,-0.640012979507446,9.5625114440918,0.25152599811554,-0.213415995240211,0.335367977619171,-1106.70007324219,-5.10000038146973,-909.300048828125,-2.50905303929207,-0.0659143084757888,0.0663053713192365,ST
0.333333333333333,-0.627451956272125,-0.648985147476196,9.58882999420166,0.297257989645004,-0.25152599811554,0.37347799539566,-1097.10009765625,-10.5,-930.900024414062,-2.51097977118595,-0.0648259309430879,0.0669984168412403,ST
0.366666666666667,-0.601731836795807,-0.617283523082733,9.57387638092041,0.365855991840363,-0.266770005226135,0.335367977619171,-1089.90002441406,-6.90000009536743,-916.500061035156,-2.51304059405977,-0.0622590383791835,0.0637690087020601,ST
0.4,-0.585581958293915,-0.632835268974304,9.55772686004639,0.350611984729767,-0.221037998795509,0.3125019967556,-1101.90002441406,-3.90000009536743,-914.100036621094,-2.51451537683417,-0.060750875358721,0.0654224884843527,ST
0.433333333333333,-0.623264968395233,-0.593357801437378,9.55234336853027,0.342989981174469,-0.190549999475479,0.304879993200302,-1099.5,-3.30000019073486,-923.700012207031,-2.51633045204587,-0.0646363734929148,0.0614981555465521,ST
0.466666666666667,-0.610105812549591,-0.631040811538696,9.60557842254639,0.342989981174469,-0.190549999475479,0.335367977619171,-1094.70007324219,0.300000011920929,-933.300048828125,-2.51794769309034,-0.0630299443414745,0.0649016010784701,ST
0.5,-0.632835268974304,-0.605918824672699,9.56789493560791,0.335367977619171,-0.190549999475479,0.327746003866196,-1111.5,-4.5,-926.100036621094,-2.51973209122793,-0.0655473156339066,0.0626819257041937,ST
0.533333333333333,-0.64838695526123,-0.604124426841736,9.51944541931152,0.350611984729767,-0.160062000155449,0.282013982534409,-1104.30004882812,-0.900000035762787,-909.300048828125,-2.52111492021845,-0.0675662737110727,0.0627295395174365,ST
0.566666666666667,-0.720164120197296,-0.590965270996094,9.59720420837402,0.358233988285065,-0.144817993044853,0.335367977619171,-1106.70007324219,-4.5,-918.900024414062,-2.52298865472986,-0.0743964516620586,0.0608689169532901,ST
0.6,-0.589170813560486,-0.599937379360199,9.48714542388916,0.282013982534409,-0.213415995240211,0.282013982534409,-1094.70007324219,4.5,-906.900024414062,-2.52434345633375,-0.0618631164737094,0.0625864220871865,ST
0.633333333333333,-0.602329969406128,-0.570030272006989,9.61335372924805,0.335367977619171,-0.37347799539566,0.3125019967556,-1113.90002441406,-6.90000009536743,-928.500061035156,-2.52620495333621,-0.061846308170645,0.0587132252495279,ST
0.666666666666667,-0.594554126262665,-0.589170813560486,9.54337120056152,0.411587983369827,-0.243903994560242,0.320124000310898,-1111.5,3.90000009536743,-930.900024414062,-2.52767084718087,-0.0617145427847638,0.0608438372004171,ST
0.7,-0.644199967384338,-0.546104550361633,9.53978252410889,0.358233988285065,-0.0990860015153885,0.320124000310898,-1109.10009765625,-3.30000019073486,-918.900024414062,-2.52955102294473,-0.0670449276005026,0.0566222689392048,ST
0.733333333333333,-0.590965270996094,-0.601133704185486,9.60737228393555,0.327746003866196,-0.152439996600151,0.350611984729767,-1094.70007324219,-2.70000004768372,-930.900024414062,-2.53097419861237,-0.0612487176614211,0.0617348187718506,ST
0.766666666666667,-0.66034984588623,-0.605918824672699,9.63608360290527,0.350611984729767,-0.182927995920181,0.304879993200302,-1097.10009765625,-2.10000014305115,-928.500061035156,-2.53246131504285,-0.067818069795602,0.0621372191291672,ST
0.8,-0.593357801437378,-0.617283523082733,9.5684928894043,0.358233988285065,-0.0762199983000755,0.205793991684914,-1106.70007324219,-6.90000009536743,-914.100036621094,-2.53341476914533,-0.06180459826711,0.0637452498190771,ST
0.833333333333333,-0.681284844875336,-0.61249840259552,9.61395168304443,0.419209986925125,-0.106707997620106,0.213415995240211,-1097.10009765625,-2.70000004768372,-918.900024414062,-2.53449083111048,-0.0702355954915327,0.0628858872998684,ST
0.866666666666667,-0.718967854976654,-0.559861838817596,9.59720420837402,0.510673999786377,-0.190549999475479,0.381099998950958,-1085.10009765625,-6.90000009536743,-918.900024414062,-2.53676969793814,-0.0742568253568587,0.0574601088142018,ST
0.9,-0.701023578643799,-0.469542235136032,9.53081035614014,0.564027965068817,-0.266770005226135,0.533540010452271,-1109.10009765625,-5.70000028610229,-921.300048828125,-2.54004492991715,-0.0729500354026486,0.0484244759547312,ST
0.933333333333333,-0.695042133331299,-0.450999796390533,9.55533409118652,0.564027965068817,-0.487807989120483,0.6250039935112,-1094.70007324219,0.900000035762787,-911.700012207031,-2.54334362290769,-0.0717636288381232,0.0461612921521151,ST
0.966666666666667,-0.620872378349304,-0.400755792856216,9.55353927612305,0.457319974899292,-0.442075997591019,0.67835795879364,-1104.30004882812,-0.300000011920929,-921.300048828125,-2.54733793635467,-0.0642772791410677,0.0411526374635907,ST
1.0,-0.610105812549591,-0.384007781744003,9.56310939788818,0.342989981174469,-0.289635986089706,0.640248000621796,-1101.90002441406,-2.10000014305115,-911.700012207031,-2.55069896945759,-0.0632288746002018,0.0395088128963905,ST
1.03333333333333,-0.581394970417023,-0.372044920921326,9.55892276763916,0.221037998795509,-0.0609759986400604,0.586893975734711,-1109.10009765625,0.300000011920929,-911.700012207031,-2.5537384631889,-0.0607053036419556,0.0384818104251184,ST
1.06666666666667,-0.631639003753662,-0.472532957792282,9.5206413269043,-0.175305992364883,0.495429992675781,0.685979962348938,-1097.10009765625,-3.30000019073486,-911.700012207031,-2.55652047921012,-0.0669139256528602,0.0495124805362253,ST
1.1,-0.745884299278259,-0.632835268974304,9.48834228515625,-0.472563982009888,0.830797970294952,0.739333987236023,-1099.5,-2.70000004768372,-923.700012207031,-2.5589885528499,-0.0794563436790816,0.0668436192287734,ST
1.13333333333333,-0.974374890327454,-0.884055316448212,9.5086784362793,-0.754577994346619,1.13567793369293,0.800309956073761,-1094.70007324219,-0.900000035762787,-926.100036621094,-2.56058034328773,-0.103119069999112,0.0931641269651581,ST
1.16666666666667,-1.27643704414368,-0.958823204040527,9.60258769989014,-0.78506600856781,1.21951997280121,0.907018005847931,-1099.5,1.5,-926.100036621094,-2.56465043908314,-0.133228456753428,0.100575275244144,ST
1.2,-1.20346367359161,-1.02461886405945,9.28676795959473,-0.724089980125427,1.01372599601746,1.01372599601746,-1087.5,5.70000028610229,-918.900024414062,-2.56843667465671,-0.130140917649295,0.110662963834385,ST
1.23333333333333,-1.22140789031982,-1.04136693477631,9.46920108795166,-0.617381989955902,0.739333987236023,1.10518991947174,-1087.5,-2.70000004768372,-930.900024414062,-2.5741119740222,-0.129044478595585,0.110388408291127,ST
1.26666666666667,-1.14006054401398,-1.00308573246002,9.37828350067139,-0.449698001146317,0.503051996231079,1.07470202445984,-1097.10009765625,-0.300000011920929,-928.500061035156,-2.58051709904251,-0.121503316130701,0.107179541394214,ST
1.3,-1.08682572841644,-0.982150733470917,9.4967155456543,-0.37347799539566,0.396344006061554,0.937505960464478,-1094.70007324219,0.300000011920929,-923.700012207031,-2.5861883255812,-0.114336405142322,0.10359167011303,ST
1.33333333333333,-1.08323693275452,-1.01564681529999,9.54875469207764,-0.327746003866196,0.411587983369827,0.617381989955902,-1101.90002441406,0.300000011920929,-938.100036621094,-2.5890066365622,-0.113191973748496,0.106347557125889,ST
1.36666666666667,-1.24294114112854,-1.1095552444458,9.56430625915527,-0.525918006896973,0.884151995182037,0.0228659994900227,-1101.90002441406,-3.30000019073486,-923.700012207031,-2.58776159493342,-0.129462907815025,0.116154850341374,ST
1.4,-1.24892246723175,-1.17953789234161,9.44647216796875,-0.6250039935112,1.12043392658234,-0.282013982534409,-1087.5,-4.5,-947.700012207031,-2.58481318372369,-0.132258110037827,0.125190416251472,ST
1.43333333333333,-1.55218100547791,-1.13049018383026,9.41357421875,-0.762199997901917,1.29574000835419,-0.510673999786377,-1085.10009765625,-2.10000014305115,-933.300048828125,-2.58260749278135,-0.163534079298059,0.121151355856136,ST
1.46666666666667,-1.59345293045044,-1.12391066551208,9.41895771026611,-1.10518991947174,1.37958192825317,-0.3125019967556,-1087.5,6.90000009536743,-921.300048828125,-2.58117489803446,-0.168612399727976,0.120840961865999,ST
1.5,-1.78725123405457,-1.08084440231323,9.43690204620361,-1.08994603157043,1.30336201190948,-0.129574000835419,-1077.90002441406,8.10000038146973,-928.500061035156,-2.58158991285664,-0.187685195625174,0.116162583838388,ST
1.53333333333333,-2.27413964271545,-0.872690618038177,9.35435771942139,-0.754577994346619,1.265251994133,0.221037998795509,-1075.5,-0.300000011920929,-928.500061035156,-2.58741495875784,-0.238312215862594,0.0949036241688179,ST
1.56666666666667,-2.31720590591431,-0.74050098657608,9.18328857421875,-0.525918006896973,1.30336201190948,0.571649968624115,-1077.90002441406,-7.50000047683716,-933.300048828125,-2.59359841869723,-0.248467940482135,0.0815494057476586,ST
1.6,-2.6336236000061,-0.637022256851196,9.48594951629639,-0.160062000155449,1.13567793369293,0.602137982845306,-1077.90002441406,1.5,-928.500061035156,-2.60003181552445,-0.271636620451554,0.0674769617692727,ST
1.63333333333333,-2.74727058410645,-0.487486511468887,9.29813289642334,0.243903994560242,0.884151995182037,0.693601965904236,-1075.5,8.10000038146973,-921.300048828125,-2.60713560334936,-0.288065046983454,0.0520559275916284,ST
1.66666666666667,-2.90099334716797,-0.473729223012924,8.88601207733154,0.205793991684914,0.586893975734711,0.647870004177094,-1080.30004882812,-0.900000035762787,-916.500061035156,-2.60971536627058,-0.315456082757492,0.0525405221392671,ST
1.7,-3.03497743606567,-0.505430817604065,8.76638317108154,-0.106707997620106,0.152439996600151,0.533540010452271,-1073.10009765625,7.50000047683716,-935.700012207031,-2.61109811299493,-0.332731753806215,0.057360890046399,ST
1.73333333333333,-3.28739380836487,-0.363072782754898,8.58933353424072,-0.358233988285065,-0.0914639979600906,0.541162014007568,-1065.90002441406,2.70000004768372,-935.700012207031,-2.61932537377017,-0.364234569049811,0.042921599389099,ST
1.76666666666667,-3.26526236534119,-0.573020994663239,8.55284595489502,-0.975615978240967,-0.663114011287689,1.08232402801514,-1077.90002441406,-0.900000035762787,-938.100036621094,-2.61792251371765,-0.362957178723616,0.0671767497172015,ST
1.8,-3.43274259567261,-0.583189368247986,8.76518726348877,-1.2500079870224,-1.11281192302704,1.37958192825317,-1068.30004882812,6.30000019073486,-918.900024414062,-2.62739636092887,-0.370563489334855,0.0676262800416913,ST
1.83333333333333,-3.09359550476074,-0.73751026391983,8.74903678894043,-1.62348592281342,-1.56251001358032,2.24086785316467,-1082.70007324219,-0.300000011920929,-945.300048828125,-2.63573501927955,-0.337300155208724,0.0849878189174965,ST
1.86666666666667,-2.84117913246155,-0.827231705188751,8.67008209228516,-2.17227005958557,-2.59148001670837,3.13264203071594,-1077.90002441406,10.5,-930.900024414062,-2.65266800186874,-0.311969574880956,0.0967218224321878,ST
1.9,-2.06359314918518,-1.28899812698364,8.71673774719238,-3.01831197738647,-2.90398192405701,4.30642986297607,-1075.5,6.90000009536743,-930.900024414062,-2.66606201779915,-0.228455542015379,0.148683387962151,ST
1.93333333333333,-1.58208811283112,-1.36615860462189,9.24190711975098,-3.42227792739868,-2.78202986717224,3.98630595207214,-1075.5,11.1000003814697,-926.100036621094,-2.69100633339131,-0.165758027109141,0.151335797474581,ST
1.96666666666667,-1.287801861763,-1.56294763088226,9.43032169342041,-2.74391984939575,-1.79117000102997,3.01068997383118,-1099.5,17.1000003814697,-930.900024414062,-2.7073137983893,-0.132629581144344,0.167793459009824,ST
2.0,-1.15740668773651,-1.60003244876862,9.23233699798584,-1.95123195648193,-0.564027965068817,1.82165801525116,-1082.70007324219,9.90000057220459,-923.700012207031,-2.71746574048237,-0.122757178058831,0.174412402896444,ST
2.03333333333333,-1.11852741241455,-1.67659473419189,9.15637302398682,-1.2576299905777,-0.0533539988100529,-0.0533539988100529,-1073.10009765625,13.5000009536743,-923.700012207031,-2.71699657375945,-0.119556835925012,0.183093345509095,ST
2.06666666666667,-1.17594909667969,-1.84826183319092,8.77356147766113,-0.640248000621796,0.480185985565186,-2.14178204536438,-1087.5,13.5000009536743,-921.300048828125,-2.70296120591897,-0.130169802939745,0.208529674484089,ST
2.1,-1.61319160461426,-1.89013183116913,8.35426330566406,-0.304879993200302,1.21951997280121,-3.55947399139404,-1094.70007324219,9.30000019073486,-926.100036621094,-2.6817111764173,-0.185321072249902,0.223794010051858,ST
2.13333333333333,-1.68377244472504,-2.02351760864258,8.29325199127197,-0.266770005226135,1.44817996025085,-4.03965997695923,-1087.5,11.1000003814697,-935.700012207031,-2.65704815767176,-0.195251228015732,0.240774955785589,ST
2.16666666666667,-2.27354145050049,-2.11383724212646,8.21130657196045,0.0838419944047928,1.94360995292664,-4.71801805496216,-1085.10009765625,5.70000028610229,-928.500061035156,-2.62621478497572,-0.261974481541794,0.253891224813666,ST
2.2,-3.04574394226074,-2.15271663665771,8.38536643981934,0.335367977619171,1.63872992992401,-4.34454011917114,-1080.30004882812,5.10000038146973,-942.900024414062,-2.60091750373838,-0.33776528547185,0.253504936541101,ST
2.23333333333333,-2.43503999710083,-2.04624700546265,7.51805877685547,0.388722002506256,0.518296003341675,-3.20886182785034,-1075.5,8.10000038146973,-935.700012207031,-2.58025943960381,-0.303274243223342,0.266488854294747,ST
2.26666666666667,-2.14553880691528,-1.57371413707733,9.13723182678223,0.335367977619171,-0.6250039935112,-2.97257995605469,-1073.10009765625,9.30000019073486,-928.500061035156,-2.58947176067252,-0.227034759272469,0.173080774601419,ST
2.3,-2.4595639705658,-1.30933499336243,9.81193733215332,0.701223969459534,-1.33385002613068,-2.56099200248718,-1070.70007324219,12.3000001907349,-933.300048828125,-2.58598042902204,-0.240254309112404,0.13354897889195,ST
2.33333333333333,-2.32019662857056,-1.85185062885284,10.5398769378662,-0.289635986089706,-0.533540010452271,-1.80641400814056,-1068.30004882812,6.90000009536743,-926.100036621094,-2.56864613379182,-0.212830024492551,0.173952432007254,ST
2.36666666666667,-3.71207523345947,-2.45477867126465,13.1776876449585,-1.09756803512573,0.129574000835419,-2.59910202026367,-1085.10009765625,13.5000009536743,-926.100036621094,-2.55401269556078,-0.268001292165518,0.186936799245813,ST
2.4,-4.95561456680298,-4.01114654541016,15.1150732040405,-1.46342396736145,1.76830399036407,-3.10977602005005,-1065.90002441406,15.3000001907349,-930.900024414062,-2.51790841974411,-0.307412845800071,0.261730037338177,ST
2.43333333333333,-5.15300178527832,-4.57100868225098,15.4129476547241,-1.08994603157043,1.41769194602966,-4.73326206207275,-1068.30004882812,20.1000003814697,-938.100036621094,-2.48598021534544,-0.310125670016689,0.292119640885995,ST
2.46666666666667,-4.13316774368286,-4.38558435440063,13.2171649932861,-0.0685980021953583,0.480185985565186,-4.08539199829102,-1070.70007324219,12.9000005722046,-930.900024414062,-2.45732071494684,-0.287706985775718,0.321771591434131,ST
2.5,-0.997104346752167,-5.39943647384644,8.50559329986572,-0.670735955238342,0.327746003866196,-1.52439999580383,-1070.70007324219,6.30000019073486,-940.500061035156,-2.40298417374428,-0.103189365754796,0.560624078230995,ST
2.53333333333333,-0.521580696105957,-5.99997234344482,8.70298004150391,-1.44055795669556,0.434453994035721,-2.24086785316467,-1068.30004882812,13.5000009536743,-935.700012207031,-2.38918014873312,-0.0492282787536102,0.60506566841296,ST
2.56666666666667,-1.08622765541077,-4.95561456680298,8.73587799072266,0.0533539988100529,0.990859985351562,-0.457319974899292,-1070.70007324219,12.3000001907349,-926.100036621094,-2.39123434830599,-0.107215613886448,0.518514043528764,ST
2.6,0.0711790099740028,-4.75045156478882,7.2387261390686,1.50915598869324,1.72257196903229,1.60061991214752,-1063.5,9.90000057220459,-938.100036621094,-2.39013795115433,0.001137056778711,0.576518329177316,ST
2.63333333333333,-1.10536825656891,-4.08471822738647,8.51396751403809,1.79117000102997,0.701223969459534,0.632625997066498,-1065.90002441406,11.1000003814697,-935.700012207031,-2.39786573153594,-0.114876452401774,0.44782110818477,ST
2.66666666666667,-1.56892895698547,-3.00207948684692,7.56291961669922,2.5000159740448,0.777444005012512,2.24086785316467,-1061.10009765625,10.5,-930.900024414062,-2.41580395900142,-0.191070898124767,0.374995469117332,ST
2.7,-1.90388906002045,-2.43803071975708,6.81344652175903,1.48628997802734,2.40092992782593,3.31556987762451,-1046.70007324219,8.70000076293945,-921.300048828125,-2.43311384096243,-0.26120101782541,0.340955904847437,ST
2.73333333333333,-2.08572459220886,-2.8142626285553,7.12328481674194,0.37347799539566,2.14940404891968,3.09453201293945,-1068.30004882812,6.30000019073486,-923.700012207031,-2.4354562626293,-0.271151606282623,0.373985872732607,ST
2.76666666666667,-2.46076011657715,-2.92790985107422,6.72551965713501,0.365855991840363,0.236281991004944,1.90549993515015,-1051.5,14.1000003814697,-930.900024414062,-2.43313895863823,-0.323890356515805,0.408037250585566,ST
2.8,-2.31660771369934,-3.50751042366028,7.09756469726562,0.320124000310898,0.800309956073761,1.78354799747467,-1044.30004882812,8.10000038146973,-928.500061035156,-2.42473435876819,-0.287955700955119,0.456893516639639,ST
2.83333333333333,-2.94346165657043,-2.84177732467651,7.66699647903442,1.6920839548111,-0.937505960464478,0.922261953353882,-1046.70007324219,9.90000057220459,-933.300048828125,-2.46030630385388,-0.34358405907287,0.353210233401309,ST
2.86666666666667,-2.51399493217468,-2.65814733505249,7.37869167327881,2.32470989227295,0.190549999475479,3.04117798805237,-1051.5,4.5,-933.300048828125,-2.47466906038206,-0.313034566174501,0.340436729343878,ST
2.9,-2.38479614257812,-2.2310733795166,7.41637468338013,2.00458598136902,0.0838419944047928,2.19513607025146,-1053.90002441406,15.3000001907349,-923.700012207031,-2.49730319230943,-0.300324780376923,0.289027060315395,ST
2.93333333333333,-2.71138215065002,-2.36685180664062,8.98111629486084,1.22714197635651,-0.640248000621796,1.56251001358032,-1051.5,11.7000007629395,-923.700012207031,-2.51344052657871,-0.28411119409663,0.255609894706795,ST
2.96666666666667,-2.58816456794739,-2.36685180664062,8.39792728424072,1.2500079870224,-1.34909391403198,0.442075997591019,-1041.90002441406,7.50000047683716,-930.900024414062,-2.51098507522269,-0.286246906052031,0.271674087523795,ST
3.0,-3.65226101875305,-1.96549785137177,8.79270172119141,1.08232402801514,-0.0685980021953583,0.67835795879364,-1061.10009765625,15.9000005722046,-933.300048828125,-2.52962361663844,-0.38258571531993,0.21910376184306,ST
3.03333333333333,-3.47640705108643,-1.60063064098358,9.47398662567139,1.85976791381836,-0.731711983680725,1.44055795669556,-1046.70007324219,5.10000038146973,-926.100036621094,-2.55319896613187,-0.347323018513946,0.164648537894225,ST
3.06666666666667,-2.73231720924377,-1.59405100345612,8.42843246459961,1.74543797969818,-0.945127964019775,1.03659200668335,-1056.30004882812,6.30000019073486,-926.100036621094,-2.5503764467026,-0.308175115727119,0.182710938935972,ST
3.1,-2.95542430877686,-1.53603112697601,8.86986255645752,0.792688012123108,-0.861285984516144,0.152439996600151,-1061.10009765625,5.70000028610229,-926.100036621094,-2.55447211814142,-0.31566973532026,0.170121210429875,ST
3.13333333333333,-2.49186372756958,-1.60362136363983,8.1191930770874,0.807931959629059,-0.3125019967556,0.358233988285065,-1051.5,6.90000009536743,-945.300048828125,-2.54848762853324,-0.292689784750324,0.192745862792912,ST
3.16666666666667,-2.54150938987732,-1.16458439826965,7.82131767272949,0.884151995182037,0.609759986400604,0.25152599811554,-1046.70007324219,14.1000003814697,-918.900024414062,-2.56135799880872,-0.311639142716533,0.147294515842665,ST
3.2,-3.10256767272949,-0.811081886291504,7.88531875610352,0.777444005012512,0.92988395690918,1.12043392658234,-1056.30004882812,2.10000014305115,-926.100036621094,-2.58015191179241,-0.373174592094316,0.101763227885237,ST
3.23333333333333,-2.72573757171631,-0.464757084846497,7.75970888137817,0.198172003030777,0.922261953353882,1.64635193347931,-1046.70007324219,5.70000028610229,-926.100036621094,-2.60216583548952,-0.339970473899289,0.0596511310709177,ST
3.26666666666667,-1.65865051746368,-0.266173630952835,7.57368612289429,-0.594515979290009,-0.685979962348938,0.777444005012512,-1053.90002441406,1.5,-930.900024414062,-2.61338752735004,-0.217753513878552,0.0364706216081996,ST
3.3,-0.357689499855042,-0.631040811538696,7.38646745681763,-1.37195992469788,-1.03659200668335,0.342989981174469,-1053.90002441406,12.3000001907349,-935.700012207031,-2.60957154941276,-0.0511435624596899,0.0862062167902001,ST
3.33333333333333,-0.663938701152802,-0.944467723369598,8.56421089172363,-1.19665396213531,-1.6615959405899,-0.701223969459534,-1056.30004882812,7.50000047683716,-935.700012207031,-2.60570455200227,-0.0732710882172988,0.111287409306977,ST
3.36666666666667,0.0933103039860725,-1.09699416160583,10.7498254776001,0.3125019967556,-4.24545383453369,-1.99696397781372,-1063.5,9.90000057220459,-930.900024414062,-2.59773008196556,0.0142323233369008,0.101376295913856,ST
3.4,1.12331247329712,-1.31770896911621,10.4585294723511,0.602137982845306,-4.93905591964722,-2.15702605247498,-1063.5,10.5,-930.900024414062,-2.5912726320086,0.112428413001971,0.123388448431395,ST
3.43333333333333,0.149535745382309,-1.84586918354034,10.2808809280396,0.137196004390717,-2.43903994560242,-1.85214591026306,-1056.30004882812,1.5,-930.900024414062,-2.58672111790563,0.0207529125047436,0.176378206935913,ST
3.46666666666667,-0.336754500865936,-1.91046869754791,9.98958587646484,0.152439996600151,-0.868907988071442,-1.38720393180847,-1075.5,3.30000019073486,-926.100036621094,-2.58022424552957,-0.029923047576917,0.188458358498772,ST
3.5,-1.0634982585907,-2.00198459625244,10.2270488739014,0.106707997620106,-0.0076219998300075,-1.12043392658234,-1075.5,6.90000009536743,-938.100036621094,-2.57420011370935,-0.0993679950877894,0.193171692817161,ST
3.53333333333333,-1.51868498325348,-2.45836758613586,10.0960550308228,0.228659987449646,0.152439996600151,-1.52439999580383,-1070.70007324219,3.90000009536743,-923.700012207031,-2.56084999386217,-0.143536319763207,0.237573126163628,ST
3.56666666666667,-2.03069543838501,-2.28012108802795,9.25865459442139,-0.25152599811554,0.708845973014832,-2.21800184249878,-1065.90002441406,9.90000057220459,-930.900024414062,-2.54838523122381,-0.208292377443189,0.24259688360547,ST
3.6,-2.58517384529114,-2.40214228630066,10.099045753479,-0.510673999786377,1.12043392658234,-0.708845973014832,-1058.70007324219,8.70000076293945,-938.100036621094,-2.54553458639906,-0.245009200402304,0.234963039510261,ST
3.63333333333333,-1.53244233131409,-2.7682056427002,10.011118888855,-0.457319974899292,0.213415995240211,-0.716467976570129,-1065.90002441406,5.10000038146973,-928.500061035156,-2.53493913355935,-0.148288536127348,0.270147457263395,ST
3.66666666666667,-0.854746282100677,-2.22389554977417,9.43630313873291,0.0838419944047928,-0.0076219998300075,-1.52439999580383,-1063.5,9.90000057220459,-928.500061035156,-2.53128562352132,-0.0885670787386995,0.232343272527666,ST
3.7,-0.945664048194885,-2.25619530677795,8.92249870300293,0.175305992364883,1.00610399246216,-0.861285984516144,-1058.70007324219,5.70000028610229,-933.300048828125,-2.52421788134499,-0.103318246857353,0.24714670992084,ST
3.73333333333333,-1.1837249994278,-2.70420432090759,8.65273666381836,-0.342989981174469,2.37044191360474,-0.670735955238342,-1073.10009765625,2.70000004768372,-923.700012207031,-2.51120478570353,-0.13263729599562,0.302267318544537,ST
3.76666666666667,-2.08871531486511,-2.78375744819641,9.06784725189209,-0.259148001670837,2.40855193138123,0.411587983369827,-1065.90002441406,9.30000019073486,-930.900024414062,-2.51046403565089,-0.218867426620231,0.298530358364811,ST
3.8,-2.0612006187439,-2.70958757400513,9.07681941986084,0.190549999475479,1.89787793159485,0.830797970294952,-1053.90002441406,1.5,-926.100036621094,-2.51337400511262,-0.217872847175236,0.289906668216489,ST
3.83333333333333,-2.59115529060364,-2.54629468917847,8.56839847564697,0.426831990480423,2.45428395271301,0.419209986925125,-1041.90002441406,10.5,-923.700012207031,-2.51152677491949,-0.285223605311493,0.288298490278513,ST
3.86666666666667,-3.43573331832886,-2.99131298065186,8.53370571136475,0.403965979814529,2.22562384605408,0.434453994035721,-1044.30004882812,2.10000014305115,-933.300048828125,-2.49441148636833,-0.36479457308478,0.335302808336605,ST
3.9,-4.13615846633911,-3.00566840171814,8.77356147766113,0.594515979290009,1.28049600124359,1.04421401023865,-1041.90002441406,6.90000009536743,-923.700012207031,-2.49844057639462,-0.420653867737487,0.328761401091669,ST
3.93333333333333,-3.75693607330322,-2.43444180488586,9.5505485534668,1.98934197425842,-1.38720393180847,1.47104597091675,-1039.5,3.30000019073486,-923.700012207031,-2.53443261895007,-0.364091268595444,0.247163076613105,ST
3.96666666666667,-3.36575055122375,-1.86800050735474,7.84285068511963,2.56861400604248,-1.65397393703461,2.21800184249878,-1032.30004882812,5.70000028610229,-935.700012207031,-2.54872113922012,-0.392749436819564,0.228049887999866,ST
4.0,-2.90518045425415,-1.86680424213409,8.19754981994629,1.6692179441452,-1.21189796924591,1.95885396003723,-1049.10009765625,0.300000011920929,-923.700012207031,-2.55924315500267,-0.333060266237409,0.21989264162036,ST
4.03333333333333,-3.2245888710022,-1.81177508831024,8.01033020019531,0.884151995182037,-0.602137982845306,1.39482593536377,-1056.30004882812,5.10000038146973,-942.900024414062,-2.56487476418005,-0.372542995961056,0.219883946557013,ST
4.06666666666667,-3.21920537948608,-2.32916879653931,8.75621509552002,0.952749967575073,0.182927995920181,1.48628997802734,-1051.5,6.90000009536743,-928.500061035156,-2.55716194827826,-0.343175181402922,0.256438577711228,ST
4.1,-3.7192530632019,-2.38479614257812,9.08579158782959,1.42531394958496,-0.0609759986400604,1.00610399246216,-1046.70007324219,9.30000019073486,-945.300048828125,-2.56030670665476,-0.376408023731962,0.253598822559916,ST
4.13333333333333,-2.72872829437256,-1.78306424617767,9.11809158325195,1.50153398513794,-1.15854394435883,1.63872992992401,-1058.70007324219,13.5000009536743,-928.500061035156,-2.58732562148898,-0.286765672804691,0.191233051093063,ST
4.16666666666667,-2.0552191734314,-1.72324991226196,9.5864372253418,1.51677799224854,-0.708845973014832,1.70732796192169,-1061.10009765625,-1.5,-921.300048828125,-2.59861866625668,-0.209425701504697,0.174975481648203,ST
4.2,-2.32318735122681,-1.71308147907257,9.50927734375,1.34909391403198,1.2347639799118,1.44055795669556,-1041.90002441406,8.10000038146973,-930.900024414062,-2.60301933591988,-0.237727759422306,0.175368324630983,ST
4.23333333333333,-2.2370548248291,-1.58567702770233,10.0344467163086,1.33385002613068,2.89635992050171,1.98934197425842,-1046.70007324219,0.900000035762787,-926.100036621094,-2.61382244933257,-0.222701295587221,0.154383580704837,ST
4.26666666666667,-2.71796154975891,-1.21662282943726,9.93036937713623,1.46342396736145,3.23172783851624,2.11891603469849,-1039.5,7.50000047683716,-930.900024414062,-2.62930122210961,-0.270312173278356,0.119289296869602,ST
4.3,-2.64797902107239,-0.878672003746033,9.06665134429932,1.2500079870224,3.07928800582886,2.0731840133667,-1032.30004882812,6.30000019073486,-923.700012207031,-2.64310737018179,-0.288100835446856,0.0942248922794573,ST
4.33333333333333,-2.8782639503479,-0.985141456127167,8.41048812866211,0.754577994346619,2.21800184249878,0.693601965904236,-1039.5,12.3000001907349,-933.300048828125,-2.6379463823068,-0.330449205477164,0.114453215486033,ST
4.36666666666667,-3.16298007965088,-1.2118376493454,8.20891380310059,0.0533539988100529,1.44817996025085,-0.708845973014832,-1025.10009765625,3.30000019073486,-928.500061035156,-2.62265608480312,-0.365525673249841,0.146177910050097,ST
4.4,-3.14383935928345,-1.26148355007172,8.1012487411499,-0.297257989645004,0.952749967575073,-0.335367977619171,-1022.70001220703,2.70000004768372,-930.900024414062,-2.61771972586384,-0.367650189582856,0.155065413712885,ST
4.43333333333333,-3.06727719306946,-1.7483719587326,8.64017486572266,-0.121951997280121,0.190549999475479,-0.769822001457214,-1032.30004882812,-3.90000009536743,-942.900024414062,-2.59888057237028,-0.335813447446303,0.199141751410556,ST
4.46666666666667,-3.23655152320862,-1.50253510475159,8.42663860321045,-0.175305992364883,-0.182927995920181,-0.853663980960846,-1027.5,2.70000004768372,-930.900024414062,-2.60252496344486,-0.360244239524051,0.177889001308685,ST
4.5,-3.04873466491699,-2.00318074226379,8.85670280456543,-0.670735955238342,-0.236281991004944,-0.282013982534409,-1029.90002441406,6.90000009536743,-926.100036621094,-2.58757533909464,-0.324424878322705,0.222506521682607,ST
4.53333333333333,-3.17494297027588,-1.78964376449585,8.52892017364502,-0.320124000310898,-0.541162014007568,-0.579271972179413,-1027.5,5.70000028610229,-921.300048828125,-2.59067660717664,-0.347596106472162,0.208085221168067,ST
4.56666666666667,-3.21920537948608,-2.11682796478271,9.39204120635986,-0.274392008781433,-0.121951997280121,0.0304879993200302,-1022.70001220703,3.30000019073486,-947.700012207031,-2.58691673045554,-0.323172384953075,0.221748410610748,ST
4.6,-3.22399067878723,-1.98822724819183,8.92728424072266,-0.0381099991500378,-0.503051996231079,-0.853663980960846,-1017.90002441406,2.70000004768372,-930.900024414062,-2.58410235149098,-0.337324946863317,0.219702822334722,ST
4.63333333333333,-3.57569861412048,-1.96848857402802,8.1365385055542,-0.350611984729767,0.114329993724823,-0.182927995920181,-1020.30004882812,2.70000004768372,-926.100036621094,-2.57732924849001,-0.401990094153402,0.237623009860286,ST
4.66666666666667,-2.16767001152039,-1.95712375640869,9.10134315490723,0.342989981174469,-1.29574000835419,-0.327746003866196,-1034.70007324219,5.10000038146973,-952.500061035156,-2.58470795688776,-0.229192267124222,0.211646760748515,ST
4.7,-2.3997495174408,-1.46126329898834,8.32674789428711,0.663114011287689,-1.21951997280121,-1.00610399246216,-1020.30004882812,5.10000038146973,-935.700012207031,-2.58935517846955,-0.27296021422907,0.174006772508616,ST
4.73333333333333,-2.50442457199097,-1.41042113304138,8.09765911102295,0.144817993044853,-0.198172003030777,0.137196004390717,-1025.10009765625,-4.5,-923.700012207031,-2.59050181614729,-0.29484248306687,0.172156946097311,ST
4.76666666666667,-2.46853613853455,-1.3218959569931,8.69759654998779,0.144817993044853,-0.739333987236023,0.236281991004944,-1032.30004882812,3.30000019073486,-933.300048828125,-2.59809238645145,-0.272815546972248,0.150855522721958,ST
4.8,-2.0791449546814,-0.946262180805206,8.1185941696167,0.769822001457214,-1.82927989959717,-0.746955990791321,-1032.30004882812,4.5,-923.700012207031,-2.6035072452342,-0.246505949612767,0.115894795422225,ST
4.83333333333333,-1.59285473823547,-0.882260859012604,7.62572479248047,0.6250039935112,-1.41769194602966,-1.72257196903229,-1039.5,6.30000019073486,-928.500061035156,-2.59498436988663,-0.20285120159616,0.11468965628838,ST
4.86666666666667,-1.734614610672,-1.61917304992676,8.57916450500488,-0.0,-1.17378795146942,-2.32470989227295,-1037.10009765625,2.70000004768372,-928.500061035156,-2.57037349133012,-0.193663719912967,0.185280260658093,ST
4.9,-1.70949256420135,-2.43503999710083,9.55712795257568,-0.236281991004944,-1.50153398513794,-3.7881338596344,-1046.70007324219,-0.900000035762787,-916.500061035156,-2.53984655678274,-0.167894183505278,0.249859148526442,ST
4.93333333333333,-1.77528834342957,-3.46743488311768,9.6582145690918,-0.137196004390717,-0.617381989955902,-3.49849796295166,-1032.30004882812,1.5,-928.500061035156,-2.50670579867873,-0.168274697502739,0.344107180460958,ST
4.96666666666667,-1.96310520172119,-3.94834184646606,9.87414455413818,-0.0685980021953583,-0.327746003866196,-3.81099987030029,-1034.70007324219,5.10000038146973,-940.500061035156,-2.48127633430588,-0.179357059408584,0.380910957016604,ST
5.0,-2.66891384124756,-3.96209907531738,10.1032333374023,0.350611984729767,0.121951997280121,-2.34757590293884,-1037.10009765625,0.900000035762787,-928.500061035156,-2.46994675255866,-0.238752637104717,0.374177257728859,ST
5.03333333333333,-2.64678263664246,-3.9297993183136,9.72580432891846,0.724089980125427,0.853663980960846,-1.10518991947174,-1037.10009765625,3.90000009536743,-933.300048828125,-2.46013782259685,-0.247578676916988,0.383078200249948,ST
5.06666666666667,-2.92372274398804,-3.7312159538269,9.93575286865234,0.716467976570129,0.571649968624115,-0.647870004177094,-1025.10009765625,15.3000001907349,-945.300048828125,-2.46125540377452,-0.268754480806323,0.359049868145047,ST
5.1,-2.70181179046631,-3.44470548629761,9.48056602478027,0.78506600856781,0.289635986089706,0.685979962348938,-1032.30004882812,0.300000011920929,-928.500061035156,-2.46602388767291,-0.262759899966081,0.347216376676524,ST
5.13333333333333,-2.25380277633667,-3.30354356765747,8.33751487731934,0.0076219998300075,0.602137982845306,1.74543797969818,-1029.90002441406,3.90000009536743,-923.700012207031,-2.46644375134423,-0.248567765758071,0.37608495268689,ST
5.16666666666667,-3.06368827819824,-3.09838056564331,8.05997657775879,-0.640248000621796,0.975615978240967,2.4847719669342,-1022.70001220703,5.70000028610229,-928.500061035156,-2.47975149741615,-0.341486345818595,0.367199907349782,ST
5.2,-2.99310731887817,-3.41539645195007,7.99776983261108,-0.92988395690918,0.83841997385025,3.51374197006226,-1025.10009765625,4.5,-928.500061035156,-2.48395766387207,-0.335383220219056,0.402468572925901,ST
5.23333333333333,-3.57031536102295,-2.90159153938293,8.30043029785156,0.243903994560242,-0.129574000835419,3.7957558631897,-1037.10009765625,4.5,-938.100036621094,-2.52462507792032,-0.386305250600108,0.335250186695761,ST
5.26666666666667,-2.97935009002686,-2.33634638786316,8.60787582397461,1.41006994247437,-0.525918006896973,4.65704202651978,-1027.5,5.10000038146973,-935.700012207031,-2.57027772802489,-0.325373838522416,0.261817863718392,ST
5.3,-2.6336236000061,-2.08811712265015,8.76399040222168,1.83690190315247,-1.20427596569061,4.46649169921875,-1020.30004882812,5.10000038146973,-933.300048828125,-2.6014878564631,-0.284998304519885,0.228993408418009,ST
5.33333333333333,-2.64379191398621,-1.50732028484344,8.86208629608154,1.16616594791412,-1.05183601379395,3.32319188117981,-1029.90002441406,4.5,-930.900024414062,-2.63458777682687,-0.28522940674599,0.166423886692203,ST
5.36666666666667,-2.69224143028259,-1.75913846492767,8.83516979217529,0.724089980125427,0.358233988285065,3.94057393074036,-1032.30004882812,5.10000038146973,-921.300048828125,-2.64550299783498,-0.292155900657677,0.192643021216789,ST
5.4,-2.95183563232422,-1.9589182138443,8.88960075378418,0.403965979814529,0.868907988071442,3.58234000205994,-1029.90002441406,8.70000076293945,-928.500061035156,-2.65499359980806,-0.315716793146294,0.213718546816113,ST
5.43333333333333,-3.37173199653625,-1.72683870792389,8.60727691650391,0.266770005226135,1.38720393180847,3.64331603050232,-1032.30004882812,0.300000011920929,-942.900024414062,-2.67653911777119,-0.36884017900755,0.195846693767353,ST
5.46666666666667,-3.02540707588196,-1.91345942020416,9.22037410736084,0.144817993044853,1.31860601902008,3.84910988807678,-1022.70001220703,10.5,-950.100036621094,-2.69136923032873,-0.315942473340111,0.20216918990563,ST
5.5,-3.00566840171814,-1.81895279884338,8.96496677398682,0.342989981174469,0.807931959629059,3.18599581718445,-1022.70001220703,5.70000028610229,-942.900024414062,-2.70670341878281,-0.319830102054753,0.19798616460555,ST
5.53333333333333,-3.30832886695862,-1.9086742401123,8.46013450622559,0.182927995920181,1.265251994133,3.20123982429504,-1015.50006103516,3.90000009536743,-933.300048828125,-2.71321020958606,-0.366480746019223,0.219088954221819,ST
5.56666666666667,-3.07505297660828,-1.96848857402802,7.90625381469727,-0.0838419944047928,1.15092194080353,2.98020195960999,-1010.70001220703,13.5000009536743,-930.900024414062,-2.71799444647058,-0.364143576491523,0.241788730435259,ST
5.6,-3.10974526405334,-2.00976037979126,7.86199140548706,-0.137196004390717,0.37347799539566,2.73629784584045,-1029.90002441406,2.70000004768372,-935.700012207031,-2.72821213320855,-0.367662645816422,0.248599980702136,ST
5.63333333333333,-2.41948843002319,-2.31959843635559,7.27700757980347,-0.144817993044853,-1.15092194080353,2.11129403114319,-1020.30004882812,2.10000014305115,-933.300048828125,-2.72159757667428,-0.307252650047323,0.306309728403656,ST
5.66666666666667,-2.84117913246155,-2.28071904182434,7.52583503723145,0.396344006061554,-1.48628997802734,1.84452390670776,-1020.30004882812,2.70000004768372,-935.700012207031,-2.73609054007173,-0.34412183083439,0.292591903183362,ST
5.7,-3.23236465454102,-2.5056209564209,7.49772214889526,1.07470202445984,-1.56251001358032,1.78354799747467,-1032.30004882812,3.30000019073486,-928.500061035156,-2.73537656752317,-0.385370506466989,0.318370163353191,ST
5.73333333333333,-2.93448948860168,-2.41948843002319,8.24839115142822,1.6615959405899,-3.01831197738647,1.08994603157043,-1032.30004882812,11.1000003814697,-945.300048828125,-2.75531709332918,-0.32540758965283,0.281869638739984,ST
5.76666666666667,-3.24432754516602,-2.14852952957153,9.87952709197998,2.29422187805176,-5.70125579833984,1.47866797447205,-1032.30004882812,9.90000057220459,-928.500061035156,-2.78725723098513,-0.302018799562134,0.210660065095415,ST
5.8,-2.00796604156494,-1.69992232322693,10.1211776733398,3.01831197738647,-7.51529169082642,2.52288198471069,-1041.90002441406,2.10000014305115,-945.300048828125,-2.81498494123307,-0.184301806574,0.161216217959312,ST
5.83333333333333,-1.28301668167114,-0.817063271999359,10.3317232131958,3.45276594161987,-7.30949783325195,2.75916385650635,-1065.90002441406,2.10000014305115,-923.700012207031,-2.84329529282038,-0.112865902785087,0.0746008393469217,ST
5.86666666666667,-0.816465139389038,-0.276342064142227,9.98779106140137,3.14026403427124,-3.74240183830261,3.42227792739868,-1056.30004882812,1.5,-918.900024414062,-2.86671034061918,-0.0758444522930858,0.0226473181259429,ST
5.9,-1.60003244876862,-0.0885251611471176,10.5332975387573,2.85824990272522,-1.97409796714783,2.42379593849182,-1070.70007324219,3.90000009536743,-930.900024414062,-2.88054288874154,-0.146030715313237,0.0031688368876172,ST
5.93333333333333,-1.97267556190491,0.788950562477112,8.80945014953613,2.0579400062561,-0.586893975734711,3.12502002716064,-1080.30004882812,0.900000035762787,-921.300048828125,-2.91121782611404,-0.216033198327692,-0.0913610413571938,ST
5.96666666666667,-2.05880808830261,0.800315320491791,9.36632061004639,1.13567793369293,-0.327746003866196,3.70429182052612,-1061.10009765625,-3.90000009536743,-921.300048828125,-2.93001354213018,-0.214489183812347,-0.0886571985845856,ST
6.0,-1.98882532119751,0.913962483406067,9.60737228393555,0.289635986089706,-1.61586391925812,1.57013201713562,-1070.70007324219,-3.90000009536743,-930.900024414062,-2.93874285793607,-0.200463714601968,-0.0957055957732185,ST
6.03333333333333,-1.84826183319092,0.901401460170746,10.1074199676514,-0.0533539988100529,-1.15092194080353,0.632625997066498,-1077.90002441406,-2.10000014305115,-921.300048828125,-2.94024371908019,-0.178673915905247,-0.0892032539132454,ST
6.06666666666667,-2.2890932559967,0.208751901984215,10.1020364761353,-0.586893975734711,0.403965979814529,-0.602137982845306,-1082.70007324219,-5.10000038146973,-918.900024414062,-2.92437999734579,-0.222315901097259,-0.0213260233693802,ST
6.1,-2.76282238960266,-0.0717771574854851,9.94711780548096,-0.922261953353882,1.12805593013763,-0.967993974685669,-1065.90002441406,-3.30000019073486,-921.300048828125,-2.91345905760778,-0.271501200118046,0.0084492103989813,ST
6.13333333333333,-2.94405961036682,-0.494066089391708,9.54875469207764,-1.19665396213531,1.41006994247437,-1.17378795146942,-1080.30004882812,3.90000009536743,-921.300048828125,-2.89651802890996,-0.300255006996857,0.0531895897251387,ST
6.16666666666667,-3.01464056968689,-0.533543527126312,9.66120529174805,-1.31860601902008,1.37195992469788,-1.13567793369293,-1075.5,3.90000009536743,-930.900024414062,-2.89113255967973,-0.304196304099177,0.0579983966426896,ST
6.2,-2.53612613677979,-0.602928102016449,8.95659255981445,-1.43293595314026,1.21951997280121,-0.952749967575073,-1073.10009765625,6.30000019073486,-947.700012207031,-2.88468385300119,-0.278082484851106,0.0699030538270374,ST
6.23333333333333,-2.41589951515198,-0.620872378349304,9.09775447845459,-1.51677799224854,1.17378795146942,-1.59299790859222,-1061.10009765625,5.10000038146973,-935.700012207031,-2.87718700662255,-0.261098836022091,0.0715411413572321,ST
6.26666666666667,-2.02411580085754,-0.384007781744003,8.30461692810059,-1.70732796192169,1.09756803512573,-1.75305998325348,-1068.30004882812,-6.30000019073486,-928.500061035156,-2.87545985159313,-0.241142638045832,0.0505487567458548,ST
6.3,-1.98643279075623,-0.470738530158997,8.73886871337891,-1.85214591026306,1.72257196903229,-1.85976791381836,-1065.90002441406,6.30000019073486,-926.100036621094,-2.86616387081005,-0.226428534158329,0.0576378675267188,ST
6.33333333333333,-2.13477230072021,-0.885849714279175,9.16055965423584,-1.6615959405899,2.20275783538818,-2.52288198471069,-1049.10009765625,5.70000028610229,-923.700012207031,-2.84503394991741,-0.231205410772694,0.0992549846173017,ST
6.36666666666667,-2.86151599884033,-1.02282452583313,9.47219181060791,-1.34909391403198,2.24086785316467,-2.85824990272522,-1053.90002441406,1.5,-940.500061035156,-2.82844873915788,-0.293379647370923,0.111179583930421,ST
6.4,-2.57679986953735,-1.4941611289978,9.85081672668457,-1.27287399768829,1.82927989959717,-3.803377866745,-1034.70007324219,7.50000047683716,-930.900024414062,-2.79860860647357,-0.256289696408756,0.153453376215795,ST
6.43333333333333,-2.84536600112915,-1.59704172611237,9.4847526550293,-1.18903195858002,1.57775402069092,-4.39027214050293,-1039.5,7.50000047683716,-930.900024414062,-2.77276189377988,-0.288160975461927,0.170754998488694,ST
6.46666666666667,-2.91116189956665,-1.65745413303375,9.40280723571777,-0.99848198890686,1.12043392658234,-3.94819593429565,-1039.5,11.7000007629395,-935.700012207031,-2.75128008406891,-0.296457210401927,0.178211927890149,ST
6.5,-2.47092866897583,-1.8267285823822,9.22097206115723,-0.853663980960846,0.685979962348938,-4.11588001251221,-1029.90002441406,5.70000028610229,-926.100036621094,-2.72607854471266,-0.257894880199079,0.198450317542982,ST
6.53333333333333,-3.03019237518311,-2.06658387184143,8.33093547821045,-1.05945801734924,0.868907988071442,-2.9268479347229,-1022.70001220703,11.7000007629395,-930.900024414062,-2.6984676102224,-0.337680352837202,0.24566201607136,ST
6.56666666666667,-2.50083565711975,-2.2113344669342,8.76458930969238,-1.30336201190948,-0.396344006061554,-1.38720393180847,-1044.30004882812,4.5,-938.100036621094,-2.69281066870037,-0.27028565640903,0.24993415269488,ST
6.6,-1.69394087791443,-1.7124832868576,8.26872825622559,-1.05183601379395,-1.32622802257538,-0.792688012123108,-1039.5,12.9000005722046,-926.100036621094,-2.70142558857365,-0.197467193532731,0.207405509985158,ST
6.63333333333333,-1.61079907417297,-1.83928966522217,8.39852523803711,-0.335367977619171,-0.792688012123108,-0.87652999162674,-1029.90002441406,6.90000009536743,-916.500061035156,-2.69648144720914,-0.183860796352341,0.21619405365664,ST
6.66666666666667,-2.18382000923157,-2.07077097892761,8.64795112609863,0.221037998795509,-0.670735955238342,-1.19665396213531,-1034.70007324219,11.1000003814697,-935.700012207031,-2.68726745542429,-0.237689515667535,0.234539735127245,ST
6.7,-2.46076011657715,-1.98703098297119,7.96188116073608,0.571649968624115,-1.12805593013763,-1.41006994247437,-1032.30004882812,-0.300000011920929,-938.100036621094,-2.67855849192502,-0.287442453689935,0.243865818049679,ST
6.73333333333333,-2.28370976448059,-2.25141024589539,9.18986892700195,0.274392008781433,-2.53050398826599,-1.87501192092896,-1041.90002441406,-1.5,-921.300048828125,-2.67280804647745,-0.233088320062053,0.240379411756072,ST
6.76666666666667,-1.48459088802338,-2.4577693939209,9.51406192779541,0.403965979814529,-4.11588001251221,-3.30032587051392,-1044.30004882812,4.5,-926.100036621094,-2.65868933438512,-0.1437323522369,0.25239611731386,ST
6.8,-1.25729656219482,-2.82144045829773,9.281982421875,0.350611984729767,-3.31556987762451,-3.75002384185791,-1046.70007324219,2.70000004768372,-926.100036621094,-2.63828430955653,-0.121926134016994,0.294172057616665,ST
6.83333333333333,-1.16338813304901,-3.04095888137817,9.51824951171875,0.442075997591019,-1.89025592803955,-3.43752193450928,-1053.90002441406,6.30000019073486,-930.900024414062,-2.62149538396759,-0.111174711835697,0.308689467911296,ST
6.86666666666667,-1.75495147705078,-2.8663010597229,9.17850399017334,0.160062000155449,0.0076219998300075,-2.57623600959778,-1058.70007324219,1.5,-918.900024414062,-2.60954608952313,-0.177339283270594,0.303307733050308,ST
6.9,-1.69992232322693,-2.92491912841797,8.94223785400391,-1.04421401023865,0.937505960464478,-1.41769194602966,-1049.10009765625,3.90000009536743,-933.300048828125,-2.5995368942721,-0.17947708212283,0.318049844110779,ST
6.93333333333333,-1.8506543636322,-3.3507969379425,9.22157001495361,-2.01982998847961,1.60061991214752,-1.28049600124359,-1056.30004882812,4.5,-926.100036621094,-2.58643878082423,-0.188055077164251,0.351693868020293,ST
6.96666666666667,-2.48887300491333,-3.80239486694336,9.50628662109375,-1.47866797447205,1.77592599391937,-1.31860601902008,-1051.5,11.7000007629395,-916.500061035156,-2.57125688897444,-0.239539894559571,0.383285221211221,ST
7.0,-2.29447650909424,-3.64508318901062,9.07502555847168,-0.525918006896973,1.86738991737366,-0.419209986925125,-1053.90002441406,18.3000011444092,-945.300048828125,-2.56640709460782,-0.233369802903869,0.383305764499339,DLL
7.03333333333333,-2.35189819335938,-3.46384596824646,8.93805027008057,-0.152439996600151,1.2423859834671,1.03659200668335,-1049.10009765625,14.7000007629395,-935.700012207031,-2.57227389194661,-0.243008633426676,0.370131117847642,DLL
7.06666666666667,-2.36924433708191,-3.25030899047852,8.67606353759766,-0.304879993200302,0.525918006896973,1.80641400814056,-1046.70007324219,3.90000009536743,-928.500061035156,-2.58328158837692,-0.252104631698427,0.358584360625943,DLL
7.1,-2.35010361671448,-2.86749744415283,8.72331714630127,-0.243903994560242,0.419209986925125,2.39330792427063,-1039.5,7.50000047683716,-923.700012207031,-2.60435674228755,-0.252563168850583,0.318181012474304,DLL
7.13333333333333,-1.67539846897125,-2.66233444213867,8.55763149261475,-0.106707997620106,0.716467976570129,2.95733594894409,-1032.30004882812,13.5000009536743,-933.300048828125,-2.62136240838828,-0.189310976819651,0.301368046153948,DLL
7.16666666666667,-2.21552157402039,-2.76760745048523,8.95719146728516,-0.175305992364883,1.37195992469788,2.56099200248718,-1039.5,3.30000019073486,-935.700012207031,-2.63266308150291,-0.234567551372742,0.299200449663852,DLL
7.2,-2.39496445655823,-2.71437287330627,8.78612232208252,0.0990860015153885,1.56251001358032,3.01831197738647,-1027.5,12.3000001907349,-921.300048828125,-2.64491180168372,-0.258271722127125,0.298379915744056,DLL
7.23333333333333,-1.66762256622314,-2.75325202941895,8.11620235443115,0.0533539988100529,1.12043392658234,3.3613018989563,-1039.5,8.70000076293945,-928.500061035156,-2.65319045649745,-0.197594508617654,0.325203110533087,DLL
7.26666666666667,-2.77358889579773,-3.03378105163574,8.63419342041016,0.0533539988100529,1.37195992469788,3.13264203071594,-1029.90002441406,9.30000019073486,-930.900024414062,-2.66412159588714,-0.296510151899656,0.336296761440096,DLL
7.3,-2.93568563461304,-3.40044283866882,8.93685436248779,0.152439996600151,0.655492007732391,3.25459384918213,-1022.70001220703,10.5,-926.100036621094,-2.67137160624375,-0.300862413997303,0.361265437921049,DLL
7.33333333333333,-2.5175838470459,-3.19767236709595,8.74784088134766,0.518296003341675,-0.556405961513519,2.68294382095337,-1017.90002441406,0.900000035762787,-921.300048828125,-2.68769346711872,-0.265670410024511,0.348594999944824,DLL
7.36666666666667,-2.59414601325989,-3.05950140953064,8.73288726806641,1.02134799957275,-1.46342396736145,2.42379593849182,-1020.30004882812,10.5,-930.900024414062,-2.70393693712096,-0.272132575915257,0.334251774071806,DLL
7.4,-2.8740770816803,-2.68147492408752,8.97932243347168,1.265251994133,-2.21800184249878,2.97257995605469,-1039.5,10.5,-926.100036621094,-2.73355469863376,-0.294890209230547,0.287156621865248,DLL
7.43333333333333,-2.64139938354492,-2.22210121154785,7.88292598724365,0.807931959629059,-3.56709599494934,4.17685604095459,-1029.90002441406,13.5000009536743,-935.700012207031,-2.76176320380983,-0.307590002448224,0.271044026551111,DLL
7.46666666666667,-3.45666813850403,-1.92362785339355,7.77406406402588,-0.754577994346619,-6.32626008987427,7.48480367660522,-1044.30004882812,6.30000019073486,-926.100036621094,-2.81841053499316,-0.397669275273254,0.238400922530296,DLL
7.5,-3.12469887733459,-1.67719292640686,7.86378574371338,-2.56099200248718,-6.94364166259766,12.7668495178223,-1044.30004882812,13.5000009536743,-926.100036621094,-2.90253869441109,-0.364343534026717,0.206120219794584,DLL
7.53333333333333,-2.06837844848633,-1.80998063087463,8.26095294952393,-4.27594184875488,-7.21041202545166,15.7622957229614,-1049.10009765625,15.9000005722046,-930.900024414062,-2.99020990248985,-0.236974191103181,0.215369024642474,DLL
7.56666666666667,-2.32976698875427,-1.97327363491058,7.8177285194397,-5.52594995498657,-7.19516801834106,17.5153560638428,-1073.10009765625,16.5,-918.900024414062,-3.08338945762575,-0.275386162685627,0.246869542131036,DLL
7.6,-1.76990509033203,-2.51339673995972,8.47269535064697,-7.30949783325195,-7.81254959106445,18.4299964904785,-1073.10009765625,17.7000007629395,-914.100036621094,3.0919397853769,-0.195219604363917,0.293188347038571,DLL
7.63333333333333,-1.57969558238983,-2.65814733505249,9.23233699798584,-8.61285972595215,-8.20889377593994,17.6296863555908,-1070.70007324219,29.1000003814697,-914.100036621094,2.97907239402744,-0.1587946569079,0.289926448866773,DLL
7.66666666666667,-1.51868498325348,-3.17494297027588,10.1074199676514,-8.87200736999512,-8.02596569061279,16.9360828399658,-1075.5,29.1000003814697,-902.100036621094,2.88076485733765,-0.138672106503042,0.31454614212277,DLL
7.7,-0.973776757717133,-3.47820138931274,10.5075778961182,-8.03358745574951,-7.88876962661743,14.6037521362305,-1094.70007324219,29.1000003814697,-899.700012207031,2.79392668233222,-0.0844614937199574,0.330649638971566,DLL
7.73333333333333,-0.254808902740479,-3.53382873535156,9.6941032409668,-6.22717380523682,-5.89942789077759,11.768367767334,-1101.90002441406,42.9000015258789,-899.700012207031,2.72214913722103,-0.0234976915693578,0.359170310887023,DLL
7.76666666666667,0.0777585878968239,-3.68456077575684,9.84961986541748,-4.06252574920654,-3.62807202339172,9.13877773284912,-1092.30004882812,35.1000022888184,-887.700012207031,2.67115349551166,0.0067839406453685,0.36495356267802,DLL
7.8,-0.452794224023819,-3.36814308166504,9.17551326751709,-0.792688012123108,-1.19665396213531,4.79423809051514,-1077.90002441406,36.3000030517578,-887.700012207031,2.64534476790401,-0.0457700406547219,0.353174191426996,DLL
7.83333333333333,-1.05931115150452,-3.33763766288757,8.69340991973877,0.198172003030777,-0.0533539988100529,3.30032587051392,-1089.90002441406,41.1000022888184,-885.300048828125,2.63035107480162,-0.113344997458286,0.365310243480159,DLL
7.86666666666667,-1.21841728687286,-3.28320670127869,8.81184196472168,-0.0228659994900227,0.274392008781433,2.79727387428284,-1097.10009765625,41.7000007629395,-882.900024414062,2.61547724179232,-0.130640760749218,0.356313612751045,DLL
7.9,-1.58567702770233,-3.25569224357605,8.88242340087891,-0.221037998795509,-0.160062000155449,1.54726600646973,-1085.10009765625,35.1000022888184,-894.900024414062,2.60636806118535,-0.165991636384548,0.351384404554657,DLL
7.93333333333333,-1.68676316738129,-3.25329971313477,9.02478122711182,-0.411587983369827,-0.434453994035721,0.990859985351562,-1075.5,45.9000015258789,-887.700012207031,2.59930309002414,-0.173759567586794,0.346477774093492,DLL
7.96666666666667,-1.59524726867676,-3.39266681671143,8.90096569061279,-0.0076219998300075,0.708845973014832,-0.0076219998300075,-1094.70007324219,39.9000015258789,-890.100036621094,2.60358771319644,-0.167241184562382,0.363825982063081,DLL
8.0,-1.47860944271088,-3.5093047618866,8.18498802185059,0.137196004390717,1.36433792114258,-0.46494197845459,-1073.10009765625,40.5,-880.500061035156,2.61575665432492,-0.166424434531228,0.404341272649474,DLL
8.03333333333333,-1.39845824241638,-3.93637895584106,7.84883213043213,-0.952749967575073,0.571649968624115,-0.152439996600151,-1080.30004882812,42.9000015258789,-885.300048828125,2.62696200628239,-0.158861101824105,0.465516971748587,DLL
8.06666666666667,-1.92302966117859,-3.89032196998596,8.96855545043945,-0.487807989120483,0.525918006896973,0.495429992675781,-1089.90002441406,46.5,-880.500061035156,2.61566435865062,-0.194672437080745,0.411205837058908,DLL
8.1,-1.35240125656128,-3.70968270301819,8.54925727844238,0.213415995240211,0.640248000621796,0.548784017562866,-1080.30004882812,38.7000007629395,-880.500061035156,2.61419646501839,-0.146855267784833,0.409025373901927,DLL
8.13333333333333,-1.85304689407349,-3.54878234863281,8.78492546081543,-0.144817993044853,0.259148001670837,0.510673999786377,-1082.70007324219,40.5,-878.100036621094,2.60774684411127,-0.193163370496754,0.384440099444207,DLL
8.16666666666667,-1.9768625497818,-3.58347463607788,8.66410064697266,-0.297257989645004,-0.167683988809586,0.167683988809586,-1070.70007324219,42.3000030517578,-887.700012207031,2.60790593405219,-0.207248342137475,0.392391728399345,DLL
8.2,-1.83151376247406,-3.43812584877014,8.44577884674072,-0.617381989955902,-0.685979962348938,0.228659987449646,-1075.5,48.3000030517578,-875.700012207031,2.60391703583606,-0.197528562317285,0.387641516142444,DLL
8.23333333333333,-1.37034559249878,-3.46205163002014,8.29564476013184,-0.37347799539566,-1.52439999580383,-0.434453994035721,-1085.10009765625,39.9000015258789,-887.700012207031,2.60406066458167,-0.149868016065654,0.395738048155599,DLL
8.26666666666667,-1.00906717777252,-3.37591886520386,8.03904151916504,-0.236281991004944,-1.2500079870224,-0.594515979290009,-1082.70007324219,42.9000015258789,-875.700012207031,2.60454059188235,-0.113572808115529,0.397957243088752,DLL
8.3,-1.2058562040329,-3.48836970329285,8.30700969696045,-0.746955990791321,-0.640248000621796,-0.556405961513519,-1087.5,44.1000022888184,-882.900024414062,2.60552960156772,-0.131150396645372,0.398907250381609,DLL
8.33333333333333,-0.866709172725677,-3.97884702682495,8.3100004196167,-0.990859985351562,0.0,-0.533540010452271,-1073.10009765625,42.3000030517578,-875.700012207031,2.61290876493188,-0.0944304036013846,0.44701802282295,DLL
8.36666666666667,-1.45707631111145,-4.64936542510986,8.78612232208252,-0.403965979814529,0.937505960464478,-2.10367202758789,-1075.5,43.5,-885.300048828125,2.62920021689278,-0.143903465497868,0.486858182450532,DLL
8.4,-2.26756000518799,-4.93527746200562,8.81363677978516,-0.0076219998300075,1.09756803512573,-3.18599581718445,-1089.90002441406,53.7000007629395,-868.500061035156,2.65042051088353,-0.217717140041194,0.511028759103606,DLL
8.43333333333333,-2.89142322540283,-4.6708984375,8.28188800811768,-0.0304879993200302,1.03659200668335,-1.55488801002502,-1094.70007324219,39.3000030517578,-878.100036621094,2.66109996962791,-0.293839781130198,0.514470419290867,DLL
8.46666666666667,-2.48648023605347,-4.81684541702271,8.58395004272461,-0.0,0.685979962348938,-0.525918006896973,-1092.30004882812,48.3000030517578,-880.500061035156,2.66470500746835,-0.248855802122981,0.511767767331137,DLL
8.5,-2.43743252754211,-4.58596229553223,8.16764259338379,0.487807989120483,0.457319974899292,-0.358233988285065,-1094.70007324219,36.3000030517578,-880.500061035156,2.66784393701508,-0.254792566114405,0.511026250044919,DLL
8.53333333333333,-2.08871531486511,-4.25698375701904,7.83088779449463,0.358233988285065,0.0685980021953583,0.426831990480423,-1085.10009765625,52.5000038146973,-885.300048828125,2.66331567770054,-0.231305267296344,0.497536232556553,DLL
8.56666666666667,-2.13058519363403,-4.04045581817627,7.86318731307983,0.388722002506256,0.472563982009888,0.792688012123108,-1080.30004882812,42.9000015258789,-890.100036621094,2.65598012777275,-0.237683402821939,0.474424271108667,DLL
8.6,-2.23167133331299,-4.01653003692627,8.07971572875977,1.02134799957275,0.861285984516144,0.830797970294952,-1092.30004882812,44.1000022888184,-887.700012207031,2.65196463265932,-0.244273652316032,0.459805358592872,DLL
8.63333333333333,-2.20415687561035,-3.88733124732971,8.08091163635254,1.10518991947174,0.0076219998300075,1.06708002090454,-1080.30004882812,38.7000007629395,-890.100036621094,2.64529982759476,-0.241906092767073,0.44640635438119,DLL
8.66666666666667,-1.8685986995697,-3.97705268859863,8.15567970275879,0.449698001146317,-0.914639949798584,1.62348592281342,-1080.30004882812,43.5,-882.900024414062,2.63763649332011,-0.203958603766331,0.452089416589438,DLL
8.7,-1.77708280086517,-4.22169303894043,9.15218544006348,0.83841997385025,-0.304879993200302,0.746955990791321,-1082.70007324219,33.9000015258789,-894.900024414062,2.63036078317597,-0.175386178967302,0.431062105303186,DLL
8.73333333333333,-1.78246605396271,-4.21391725540161,8.79748725891113,1.2576299905777,-1.16616594791412,0.0228659994900227,-1087.5,41.7000007629395,-875.700012207031,2.63099488808428,-0.178860692006517,0.444131501883862,DLL
8.76666666666667,-1.69394087791443,-4.18520641326904,8.77894401550293,1.12805593013763,-1.07470202445984,0.37347799539566,-1089.90002441406,35.7000007629395,-885.300048828125,2.62758426215092,-0.171215744082414,0.442685211293759,DLL
8.8,-0.943271458148956,-4.28808689117432,8.61744594573975,1.05183601379395,-0.914639949798584,-0.144817993044853,-1087.5,41.7000007629395,-885.300048828125,2.62908309506298,-0.0981918303026521,0.459389172276312,DLL
8.83333333333333,-0.650181412696838,-4.15948629379272,8.02648067474365,1.34909391403198,-0.685979962348938,-0.426831990480423,-1092.30004882812,37.5,-890.100036621094,2.63134660810134,-0.0711504279285289,0.475327868470159,DLL
8.86666666666667,-1.3559901714325,-4.02011871337891,8.3871603012085,2.13416004180908,0.594515979290009,-0.342989981174469,-1082.70007324219,39.3000030517578,-892.500061035156,2.63239762520056,-0.143687568549219,0.44414737607519,DLL
8.9,-1.74418485164642,-3.69652366638184,7.90685176849365,2.01982998847961,0.846041977405548,0.213415995240211,-1087.5,43.5,-882.900024414062,2.63341474737998,-0.197233924044353,0.434131881204616,DLL
8.93333333333333,-2.05462121963501,-3.76650619506836,7.88771152496338,0.724089980125427,0.533540010452271,0.457319974899292,-1073.10009765625,39.9000015258789,-890.100036621094,2.63536558808271,-0.231105160904581,0.443886097391459,DLL
8.96666666666667,-1.47382426261902,-4.01832437515259,8.16166114807129,-0.37347799539566,-0.990859985351562,0.609759986400604,-1075.5,41.7000007629395,-887.700012207031,2.63249965335578,-0.161233943164651,0.457540949974429,DLL
9.0,-1.42118775844574,-4.18101930618286,9.11270809173584,-0.609759986400604,-1.98934197425842,0.823175966739655,-1080.30004882812,38.1000022888184,-887.700012207031,2.61999455595916,-0.138891177879592,0.431554624899345,DLL
9.03333333333333,-0.787156164646149,-4.13914918899536,9.16414833068848,-0.0076219998300075,-1.99696397781372,1.16616594791412,-1082.70007324219,41.7000007629395,-887.700012207031,2.6094501863048,-0.077502423496344,0.424187322192566,DLL
9.06666666666667,-1.17893981933594,-3.78445053100586,8.53430366516113,0.846041977405548,-0.396344006061554,1.82165801525116,-1104.30004882812,43.5,-880.500061035156,2.59966726886236,-0.124945921940898,0.415761260094602,DLL
9.1,-1.81656014919281,-3.25210332870483,8.3040189743042,1.39482593536377,0.693601965904236,2.40092992782593,-1075.5,46.5,-887.700012207031,2.58369856427748,-0.201477128752268,0.371415465962412,DLL
9.13333333333333,-2.01394748687744,-2.82144045829773,8.15508079528809,0.922261953353882,0.0838419944047928,3.25459384918213,-1080.30004882812,32.7000007629395,-875.700012207031,2.56080742793977,-0.230480949243424,0.331365461690082,DLL
9.16666666666667,-2.00019001960754,-2.65575480461121,8.76159858703613,0.335367977619171,-0.815553963184357,2.83538389205933,-1077.90002441406,37.5,-902.100036621094,2.5379243971408,-0.215602330225228,0.293639592500177,DLL
9.2,-1.80579364299774,-2.78076672554016,8.90754508972168,0.0533539988100529,-1.19665396213531,1.54726600646973,-1082.70007324219,44.1000022888184,-892.500061035156,2.52918263002882,-0.19036051932193,0.301751302457433,DLL
9.23333333333333,-1.79682147502899,-3.08462333679199,9.34837627410889,0.327746003866196,-0.594515979290009,0.853663980960846,-1063.5,41.7000007629395,-882.900024414062,2.52730201573532,-0.180298855757739,0.317387670718105,DLL
9.26666666666667,-1.74418485164642,-3.34900259971619,9.20003700256348,0.457319974899292,-0.243903994560242,-0.266770005226135,-1077.90002441406,41.7000007629395,-887.700012207031,2.53393137003969,-0.175868494640115,0.347521721450594,DLL
9.3,-1.86620604991913,-3.49913644790649,9.21798133850098,0.327746003866196,0.0914639979600906,-0.777444005012512,-1080.30004882812,41.1000022888184,-873.300048828125,2.54100854460257,-0.186507362872126,0.362162859035294,DLL
9.33333333333333,-1.43135607242584,-3.81435775756836,8.56540775299072,0.144817993044853,0.762199997901917,-0.525918006896973,-1085.10009765625,43.5,-880.500061035156,2.55447468268194,-0.153280721614273,0.417385228672333,DLL
9.36666666666667,-1.58448076248169,-4.08591461181641,8.52293872833252,0.0457319989800453,0.914639949798584,-0.792688012123108,-1080.30004882812,36.3000030517578,-887.700012207031,2.56536693477294,-0.166696013902643,0.446737899344811,DLL
9.4,-2.04983592033386,-3.79701161384583,8.35725402832031,0.129574000835419,0.754577994346619,-0.297257989645004,-1087.5,36.9000015258789,-890.100036621094,2.56469095147567,-0.219220114880267,0.427012034390532,DLL
9.43333333333333,-2.01155471801758,-3.86340546607971,8.49602317810059,0.381099998950958,1.36433792114258,0.609759986400604,-1082.70007324219,34.5,-882.900024414062,2.56497419011348,-0.215006067799903,0.426144185881708,DLL
9.46666666666667,-1.91345942020416,-3.63252234458923,8.12756633758545,1.09756803512573,0.746955990791321,0.228659987449646,-1063.5,35.1000022888184,-897.300048828125,2.56507473844709,-0.213122723438536,0.418635746025133,DLL
9.5,-2.20236253738403,-3.63850378990173,7.97743272781372,-0.182927995920181,-0.457319974899292,0.724089980125427,-1065.90002441406,42.9000015258789,-878.100036621094,2.56261215763149,-0.244995652397194,0.427616254364416,DLL
9.53333333333333,-2.26038217544556,-3.63611102104187,8.29385089874268,-0.480185985565186,-0.426831990480423,1.27287399768829,-1063.5,40.5,-897.300048828125,2.55194100123306,-0.244825177988482,0.413814880917505,DLL
9.56666666666667,-2.22210121154785,-3.69712162017822,8.37220764160156,-0.449698001146317,-0.0076219998300075,1.97409796714783,-1065.90002441406,39.9000015258789,-882.900024414062,2.54216829419747,-0.239673275673942,0.415811611084512,DLL
9.6,-1.97327363491058,-3.92800498008728,8.48465824127197,-0.739333987236023,-0.327746003866196,1.02897000312805,-1068.30004882812,42.9000015258789,-882.900024414062,2.53977402970747,-0.208979595628064,0.434022867476488,DLL
9.63333333333333,-1.88534665107727,-4.08053112030029,8.3991231918335,-0.990859985351562,-0.632625997066498,1.03659200668335,-1077.90002441406,40.5,-890.100036621094,2.53645744347844,-0.199291957132688,0.453017039498201,DLL
9.66666666666667,-1.57132160663605,-3.99439883232117,8.15388488769531,-0.282013982534409,-0.259148001670837,0.846041977405548,-1063.5,39.9000015258789,-880.500061035156,2.53208580903922,-0.172262802703393,0.455675720248511,DLL
9.7,-1.30454981327057,-3.80359125137329,8.15926837921143,0.205793991684914,-0.442075997591019,0.282013982534409,-1065.90002441406,43.5,-906.900024414062,2.52691612535107,-0.144206854431777,0.436285023625814,DLL
9.73333333333333,-1.35957896709442,-3.65704607963562,8.1126127243042,-0.0685980021953583,-0.762199997901917,-0.114329993724823,-1073.10009765625,45.3000030517578,-882.900024414062,2.52396271129671,-0.150150237488881,0.42391770966111,DLL
9.76666666666667,-1.48698341846466,-3.89450883865356,8.22865295410156,-0.449698001146317,-0.0838419944047928,-0.0762199983000755,-1077.90002441406,48.9000015258789,-885.300048828125,2.52663207616871,-0.161479717773725,0.442450788684462,DLL
9.8,-2.12400579452515,-4.16367340087891,8.73169136047363,0.190549999475479,0.800309956073761,-0.685979962348938,-1070.70007324219,42.9000015258789,-878.100036621094,2.53248943018496,-0.215735521098665,0.444931616064648,DLL
9.83333333333333,-2.58756637573242,-3.96030449867249,8.68264293670654,0.952749967575073,0.731711983680725,-0.388722002506256,-1073.10009765625,42.3000030517578,-887.700012207031,2.53289317765229,-0.264472015877215,0.427015031640538,DLL
9.86666666666667,-2.97994828224182,-4.05301666259766,8.6144552230835,0.937505960464478,1.02897000312805,-0.78506600856781,-1085.10009765625,45.3000030517578,-885.300048828125,2.54317126436214,-0.303310432456879,0.438421683193507,DLL
9.9,-2.89860081672668,-4.14333629608154,8.40390872955322,0.388722002506256,0.670735955238342,-0.769822001457214,-1082.70007324219,42.9000015258789,-880.500061035156,2.5548363494417,-0.300529547565719,0.457556745437747,DLL
9.93333333333333,-2.70958757400513,-3.93817329406738,8.4057035446167,0.0914639979600906,0.0381099991500378,-0.396344006061554,-1073.10009765625,43.5,-890.100036621094,2.55139493875151,-0.284233840938678,0.43869891397613,DLL
9.96666666666667,-2.51220059394836,-4.02490425109863,8.2741117477417,0.0762199983000755,0.868907988071442,0.518296003341675,-1068.30004882812,42.3000030517578,-882.900024414062,2.55473286318678,-0.268729615702888,0.452195382568508,DLL
10.0,-2.43862891197205,-4.06318521499634,8.42603969573975,0.358233988285065,0.746955990791321,-0.327746003866196,-1056.30004882812,46.5,-880.500061035156,2.55760899344755,-0.256243180587365,0.44905658206048,DLL
10.0333333333333,-2.35070180892944,-3.81974101066589,8.24899005889893,0.670735955238342,0.0457319989800453,-0.221037998795509,-1065.90002441406,35.7000007629395,-887.700012207031,2.55569031414702,-0.253017022721693,0.432882883079798,DLL
10.0666666666667,-2.06000447273254,-3.63790559768677,8.47269535064697,0.571649968624115,0.0609759986400604,0.92988395690918,-1075.5,41.1000022888184,-880.500061035156,2.54564631787487,-0.221428078483072,0.405010943342179,DLL
10.1,-2.1892032623291,-3.71805667877197,8.83277702331543,0.655492007732391,0.190549999475479,0.396344006061554,-1065.90002441406,40.5,-902.100036621094,2.54324079124602,-0.225056482143584,0.397378789130087,DLL
10.1333333333333,-1.8907299041748,-3.59065222740173,8.32375717163086,0.579271972179413,-0.716467976570129,0.449698001146317,-1061.10009765625,42.3000030517578,-880.500061035156,2.54213877405916,-0.205334907232315,0.405758216528101,DLL
10.1666666666667,-1.87158930301666,-3.63252234458923,8.36084270477295,0.503051996231079,-0.46494197845459,0.746955990791321,-1053.90002441406,40.5,-887.700012207031,2.53882171518051,-0.202353810390728,0.408593824082687,DLL
10.2,-2.17783856391907,-3.55356740951538,8.67068004608154,0.663114011287689,-0.510673999786377,0.25152599811554,-1065.90002441406,39.9000015258789,-887.700012207031,2.53294202416554,-0.227176312633354,0.388066602434747,DLL
10.2333333333333,-1.76272737979889,-3.66781258583069,8.16405296325684,0.243903994560242,-0.861285984516144,0.449698001146317,-1068.30004882812,38.1000022888184,-890.100036621094,2.53617862069344,-0.194330694202685,0.42064645891823,DLL
10.2666666666667,-1.85603761672974,-4.02131509780884,8.60608100891113,-0.350611984729767,-0.78506600856781,0.282013982534409,-1080.30004882812,46.5,-892.500061035156,2.53600847758169,-0.191988705541544,0.437070983442025,DLL
10.3,-1.54619956016541,-4.48367977142334,8.62582015991211,-1.13567793369293,-1.37958192825317,0.3125019967556,-1087.5,45.3000030517578,-890.100036621094,2.53786409418713,-0.156828330750505,0.47989461352165,DLL
10.3333333333333,-1.93798327445984,-4.2683482170105,8.30043029785156,-0.990859985351562,-1.01372599601746,1.02134799957275,-1068.30004882812,41.1000022888184,-882.900024414062,2.5285227705989,-0.203123772818182,0.476282841678754,DLL
10.3666666666667,-2.32378554344177,-4.55485868453979,8.49901390075684,-0.541162014007568,-0.266770005226135,0.861285984516144,-1077.90002441406,46.5,-890.100036621094,2.52685860669326,-0.235864464513604,0.492108903668692,DLL
10.4,-1.88773918151855,-4.02490425109863,7.68314647674561,-0.403965979814529,-2.69818782806396,1.45580196380615,-1087.5,42.9000015258789,-878.100036621094,2.5105771244734,-0.211819364276064,0.482498088857298,DLL
10.4333333333333,-1.42477655410767,-3.79521703720093,7.74236249923706,-0.609759986400604,-3.30794787406921,2.64483404159546,-1068.30004882812,49.5000038146973,-892.500061035156,2.485548157631,-0.162019440635479,0.456428510956191,DLL
10.4666666666667,-0.791941285133362,-3.95312690734863,8.54686450958252,-1.03659200668335,-3.25459384918213,2.68294382095337,-1082.70007324219,35.7000007629395,-887.700012207031,2.46083470762975,-0.0821959724630828,0.43483824178549,DLL
10.5,-0.833213150501251,-3.76351547241211,8.81662750244141,-0.487807989120483,-2.9116039276123,2.37806391716003,-1068.30004882812,48.3000030517578,-887.700012207031,2.43921913205957,-0.0836475247712617,0.404371260832237,DLL
10.5333333333333,-1.55816245079041,-3.42855548858643,9.06007194519043,0.396344006061554,-0.327746003866196,2.81251788139343,-1085.10009765625,45.3000030517578,-885.300048828125,2.42024104435062,-0.158617736750118,0.361560018743392,DLL
10.5666666666667,-2.18382000923157,-3.23415899276733,9.33701133728027,0.46494197845459,0.541162014007568,2.13416004180908,-1077.90002441406,38.7000007629395,-868.500061035156,2.4060166228415,-0.217973339005108,0.33275958839864,DLL
10.6,-2.2131290435791,-2.98712611198425,9.19405555725098,0.487807989120483,-0.25152599811554,1.63872992992401,-1063.5,42.9000015258789,-880.500061035156,2.39400649374801,-0.225319506972563,0.313182998399004,DLL
10.6333333333333,-1.9008983373642,-2.87706780433655,8.79449653625488,0.579271972179413,-0.426831990480423,0.67835795879364,-1085.10009765625,47.1000022888184,-885.300048828125,2.39094211397744,-0.20281978849278,0.31483802497954,DLL
10.6666666666667,-1.71607220172882,-2.71198034286499,8.56301498413086,0.144817993044853,-0.663114011287689,0.152439996600151,-1087.5,49.5000038146973,-878.100036621094,2.38771593106179,-0.188164779124049,0.306576464466376,DLL
10.7,-0.930112302303314,-2.83998274803162,8.47508811950684,-0.160062000155449,-0.777444005012512,-0.365855991840363,-1082.70007324219,45.3000030517578,-885.300048828125,2.3906135441422,-0.103750874599341,0.323336152851198,DLL
10.7333333333333,-0.75545459985733,-3.16776514053345,8.464919090271,0.144817993044853,0.0838419944047928,-0.830797970294952,-1085.10009765625,40.5,-873.300048828125,2.39801455374899,-0.083592704512116,0.357016619713437,DLL
10.7666666666667,-0.763828575611115,-3.73061776161194,8.19336223602295,-0.411587983369827,0.304879993200302,-2.24848985671997,-1085.10009765625,45.9000015258789,-894.900024414062,2.41529186895378,-0.0835340931139865,0.426608358449944,DLL
10.8,-1.00188946723938,-4.16068267822266,8.11620235443115,-1.00610399246216,0.533540010452271,-1.41769194602966,-1077.90002441406,45.9000015258789,-875.700012207031,2.42759813749033,-0.108589922670019,0.474723449768789,DLL
10.8333333333333,-1.32847559452057,-4.72652578353882,8.9655647277832,-0.914639949798584,0.92988395690918,-1.11281192302704,-1073.10009765625,48.9000015258789,-873.300048828125,2.43573646291965,-0.130255495563621,0.486738793687562,DLL
10.8666666666667,-1.41400992870331,-4.25937604904175,9.04033279418945,0.655492007732391,0.914639949798584,-0.487807989120483,-1092.30004882812,39.3000030517578,-878.100036621094,2.43428236485788,-0.141330526656594,0.440656464057477,DLL
10.9,-1.18970632553101,-4.39814519882202,8.56779956817627,1.265251994133,1.82165801525116,-1.64635193347931,-1087.5,38.7000007629395,-870.900024414062,2.45100267849747,-0.124911891688614,0.47169237901281,DLL
10.9333333333333,-1.33146619796753,-4.40532302856445,8.40869426727295,0.670735955238342,1.37958192825317,-2.5076379776001,-1075.5,47.1000022888184,-894.900024414062,2.46749900487557,-0.139065616301234,0.481821645911938,DLL
10.9666666666667,-1.71068894863129,-4.15709352493286,8.85251617431641,1.88263392448425,2.24848985671997,-3.3613018989563,-1089.90002441406,45.3000030517578,-887.700012207031,2.48277703187798,-0.173248947624628,0.438169757500751,DLL
11.0,-2.35189819335938,-3.92621040344238,8.46551704406738,3.16313004493713,3.83386588096619,-2.97257995605469,-1085.10009765625,44.7000007629395,-878.100036621094,2.50896997240858,-0.249402387767153,0.430747858051469,DLL
11.0333333333333,-2.21372723579407,-3.67977547645569,7.80696201324463,2.40092992782593,2.46190595626831,-3.49849796295166,-1070.70007324219,42.9000015258789,-892.500061035156,2.53498973725155,-0.252306090121568,0.437961632576583,DLL
11.0666666666667,-2.07675242424011,-3.98482847213745,7.98939561843872,1.58537602424622,1.73019397258759,-2.59148001670837,-1070.70007324219,36.3000030517578,-878.100036621094,2.55786075646148,-0.22988456746,0.460538707763608,DLL
11.1,-1.746577501297,-4.15589714050293,8.60309028625488,1.30336201190948,0.518296003341675,-3.03355598449707,-1075.5,45.3000030517578,-890.100036621094,2.57183161302415,-0.180696957459664,0.449027884678743,DLL
11.1333333333333,-1.48758161067963,-4.03626871109009,8.21011066436768,0.594515979290009,-0.419209986925125,-1.27287399768829,-1082.70007324219,38.7000007629395,-887.700012207031,2.57842560501013,-0.16013284108484,0.455965574783565,DLL
11.1666666666667,-1.11493849754333,-4.3305549621582,8.55344486236572,0.586893975734711,0.152439996600151,-0.457319974899292,-1073.10009765625,40.5,-890.100036621094,2.58285275094573,-0.116865513738652,0.467431035626704,DLL
11.2,-1.78186786174774,-4.12658834457397,8.34469223022461,0.800309956073761,0.25152599811554,-0.457319974899292,-1080.30004882812,39.3000030517578,-885.300048828125,2.58490197388687,-0.187443266278295,0.458252102149775,DLL
11.2333333333333,-1.55457353591919,-3.93338823318481,7.71544599533081,0.426831990480423,0.792688012123108,0.884151995182037,-1061.10009765625,35.1000022888184,-885.300048828125,2.58528504293087,-0.179762899118111,0.470246489064105,DLL
11.2666666666667,-2.30763554573059,-3.60500764846802,7.94991827011108,1.01372599601746,0.762199997901917,1.18903195858002,-1075.5,39.3000030517578,-897.300048828125,2.57283512878104,-0.258336473694272,0.424916255206523,DLL
11.3,-2.55945372581482,-3.5613431930542,8.00793838500977,0.663114011287689,0.175305992364883,1.92836594581604,-1061.10009765625,39.9000015258789,-890.100036621094,2.56242996423186,-0.285285253921874,0.416596242553936,DLL
11.3333333333333,-3.51947331428528,-3.36575055122375,8.91053581237793,-0.640248000621796,-1.42531394958496,2.62196803092957,-1082.70007324219,44.1000022888184,-897.300048828125,2.52968469573108,-0.351430429498594,0.361988172128539,DLL
11.3666666666667,-2.97635936737061,-3.76351547241211,9.51107120513916,-1.32622802257538,-2.16464805603027,3.29270386695862,-1073.10009765625,33.3000030517578,-892.500061035156,2.51190106797328,-0.283201019934588,0.376803679706692,DLL
11.4,-2.5056209564209,-3.88194799423218,9.59899806976318,-0.663114011287689,-1.76068198680878,2.24086785316467,-1080.30004882812,41.7000007629395,-890.100036621094,2.49874722420264,-0.237159438588842,0.384111828735008,DLL
11.4333333333333,-1.96609592437744,-3.95671582221985,8.87404918670654,-0.190549999475479,-1.49391198158264,1.12043392658234,-1063.5,47.1000022888184,-890.100036621094,2.49770783894616,-0.199129232014438,0.418221629415044,DLL
11.4666666666667,-2.26038217544556,-3.54758596420288,8.04920959472656,0.426831990480423,-1.03659200668335,0.67835795879364,-1061.10009765625,45.3000030517578,-894.900024414062,2.49204174293543,-0.248955437718424,0.414046709170736,DLL
11.5,-1.92661845684052,-3.7192530632019,7.68673515319824,0.769822001457214,-0.0228659994900227,1.13567793369293,-1058.70007324219,41.1000022888184,-890.100036621094,2.49533012991875,-0.223200817053743,0.448268684102362,DLL
11.5333333333333,-1.97746062278748,-3.75155282020569,8.2860746383667,0.182927995920181,-1.46342396736145,1.82165801525116,-1065.90002441406,38.1000022888184,-887.700012207031,2.47822182060904,-0.213272873411965,0.424465173154223,DLL
11.5666666666667,-1.48638522624969,-3.84845185279846,8.81423473358154,0.472563982009888,-1.30336201190948,1.50915598869324,-1075.5,40.5,-897.300048828125,2.46638599854902,-0.153962108977212,0.41069530096251,DLL
11.6,-1.30933499336243,-4.06976461410522,9.08220291137695,0.655492007732391,-1.22714197635651,0.632625997066498,-1077.90002441406,43.5,-902.100036621094,2.46259401010363,-0.129973131184105,0.419633015505535,DLL
11.6333333333333,-1.07725548744202,-4.13436412811279,9.14441013336182,1.03659200668335,-0.868907988071442,-0.289635986089706,-1065.90002441406,37.5,-894.900024414062,2.46309542806564,-0.105929396963699,0.422714301004219,DLL
11.6666666666667,-0.370848655700684,-4.27851676940918,9.78801155090332,2.23324584960938,0.541162014007568,-1.51677799224854,-1080.30004882812,41.7000007629395,-878.100036621094,2.47185423311853,-0.0358035779611232,0.40857068949229,DLL
11.7,0.994711756706238,-4.46693181991577,8.83217906951904,3.51374197006226,1.57013201713562,-4.984787940979,-1077.90002441406,39.9000015258789,-887.700012207031,2.49604150275662,0.0977604029864044,0.459901254398897,DLL
11.7333333333333,1.64010798931122,-4.82282686233521,8.79030895233154,4.06252574920654,2.34757590293884,-10.4802494049072,-1085.10009765625,35.7000007629395,-911.700012207031,2.5421569950452,0.165216156733218,0.4909374880118,DLL
11.7666666666667,-1.00787091255188,-3.62235379219055,9.06784725189209,8.10218620300293,3.94819593429565,-14.42844581604,-1092.30004882812,33.3000030517578,-906.900024414062,2.62393193827661,-0.0925805316684544,0.371125521793025,DLL
11.8,-1.73102581501007,-3.52545475959778,8.1012487411499,9.98481941223145,6.51680994033813,-12.6906299591064,-1075.5,21.9000015258789,-899.700012207031,2.71617448681139,-0.193591017158795,0.397183731335936,DLL
11.8333333333333,-1.9768625497818,-3.46683669090271,7.58445310592651,10.0686616897583,6.48632192611694,-13.2013034820557,-1077.90002441406,23.7000007629395,-930.900024414062,2.80598414829547,-0.232745244349998,0.416563797190451,DLL
11.8666666666667,-3.25928115844727,-2.70540070533752,7.84703779220581,9.51225566864014,5.63265800476074,-13.6510019302368,-1082.70007324219,24.9000015258789,-926.100036621094,2.86776712433361,-0.371698667840514,0.327625534621563,DLL
11.9,-2.59235167503357,-2.57739806175232,9.51286602020264,7.05034971237183,3.26983785629272,-9.77902603149414,-1063.5,14.7000007629395,-921.300048828125,2.90805321438356,-0.26131937257789,0.259172648412335,DLL
11.9333333333333,-3.05531430244446,-1.69513714313507,9.5864372253418,6.56254196166992,2.28659987449646,-7.9954776763916,-1077.90002441406,10.5,-916.500061035156,2.93713413824475,-0.304669325366501,0.169952640559294,DLL
11.9666666666667,-3.38010597229004,-1.15501403808594,9.52004337310791,5.0838737487793,2.82013988494873,-3.59758400917053,-1053.90002441406,11.7000007629395,-926.100036621094,2.94778412834272,-0.341961432811467,0.115790191727895,DLL
12.0,-2.34711313247681,-1.0276095867157,9.46262168884277,3.89484190940857,2.4923939704895,-2.94971394538879,-1058.70007324219,9.90000057220459,-916.500061035156,2.9662032365781,-0.247854277669996,0.103155753715715,DLL
12.0333333333333,-1.94815170764923,-0.630442678928375,8.7101583480835,3.09453201293945,2.56861400604248,-3.18599581718445,-1058.70007324219,14.7000007629395,-923.700012207031,2.97898169633501,-0.224218259961395,0.0691543166409366,DLL
12.0666666666667,-1.76811063289642,-0.584983825683594,7.62572479248047,2.25611186027527,2.90398192405701,-3.28508186340332,-1051.5,6.30000019073486,-921.300048828125,3.00217333731861,-0.231686850547532,0.0739715843184881,DLL
12.1,-1.81297135353088,-1.15680849552155,7.53540515899658,0.990859985351562,3.55947399139404,-3.28508186340332,-1051.5,5.70000028610229,-930.900024414062,3.03981203045911,-0.238634087368217,0.150066277290834,DLL
12.1333333333333,-1.89551508426666,-1.4361412525177,8.12936115264893,0.3125019967556,2.53050398826599,-3.85673189163208,-1034.70007324219,8.10000038146973,-926.100036621094,3.06735450404845,-0.229160287074762,0.17533806517079,DLL
12.1666666666667,-2.47332119941711,-1.78366231918335,8.69041919708252,0.434453994035721,2.27135586738586,-3.50611996650696,-1037.10009765625,8.10000038146973,-928.500061035156,3.09546079364567,-0.273612766104886,0.202963508959173,DLL
12.2,-3.31789898872375,-2.29806518554688,9.74494552612305,0.579271972179413,2.01982998847961,-2.99544596672058,-1032.30004882812,8.70000076293945,-923.700012207031,3.12312551601778,-0.321361495348576,0.231979010469036,DLL
12.2333333333333,-3.49315500259399,-2.49664878845215,10.0577735900879,0.503051996231079,1.38720393180847,-2.54574799537659,-1025.10009765625,5.70000028610229,-928.500061035156,3.1414755350796,-0.326263480000702,0.243758258362431,DLL
12.2666666666667,-3.40642428398132,-2.53433179855347,10.0745220184326,0.327746003866196,1.16616594791412,-2.01220798492432,-1020.30004882812,4.5,-928.500061035156,-3.12912859129432,-0.318199645371431,0.247068977657383,DLL
12.3,-2.92312479019165,-2.38060903549194,9.44168663024902,0.236281991004944,1.33385002613068,-1.18140995502472,-1027.5,1.5,-928.500061035156,-3.12139549638461,-0.294069530592716,0.247354268121743,DLL
12.3333333333333,-3.01942563056946,-2.18262362480164,9.04392147064209,0.388722002506256,1.89025592803955,-0.556405961513519,-1025.10009765625,2.70000004768372,-926.100036621094,-3.11901033688608,-0.316179646839516,0.236980035271475,DLL
12.3666666666667,-2.37343120574951,-2.08751893043518,8.33871078491211,0.457319974899292,2.03507399559021,-0.236281991004944,-1020.30004882812,10.5,-938.100036621094,-3.11254368345275,-0.273925718857301,0.244652156290639,DLL
12.4,-2.67190456390381,-1.87278568744659,8.33093547821045,0.37347799539566,1.73781597614288,-0.0609759986400604,-1020.30004882812,9.90000057220459,-926.100036621094,-3.11638373253331,-0.305318676330972,0.221369711817141,DLL
12.4333333333333,-2.41709566116333,-2.08871531486511,8.40869426727295,0.0533539988100529,1.22714197635651,0.434453994035721,-1010.70001220703,9.30000019073486,-935.700012207031,-3.11086752403234,-0.275164272076051,0.242725421984377,DLL
12.4666666666667,-2.5116024017334,-2.00557327270508,8.70597076416016,0.495429992675781,0.617381989955902,0.198172003030777,-1010.70001220703,15.3000001907349,-933.300048828125,-3.11497688515523,-0.275183121892702,0.22588214994962,DLL
12.5,-2.45238614082336,-1.98703098297119,8.63359546661377,1.12043392658234,0.266770005226135,0.213415995240211,-1017.90002441406,12.3000001907349,-933.300048828125,-3.11460315025304,-0.270714810588178,0.224230875682423,DLL
12.5333333333333,-2.77299070358276,-2.00916218757629,8.85969352722168,1.21189796924591,-0.289635986089706,-0.0685980021953583,-1015.50006103516,11.7000007629395,-933.300048828125,-3.11371405645219,-0.295056494595839,0.220980345169585,DLL
12.5666666666667,-2.83699202537537,-2.08153748512268,9.05409049987793,1.13567793369293,-0.967993974685669,0.121951997280121,-1013.10003662109,11.7000007629395,-928.500061035156,-3.11285327326002,-0.294786066291662,0.223736500258803,DLL
12.6,-3.13905429840088,-1.78186786174774,8.83158111572266,1.40244793891907,-1.28049600124359,-0.144817993044853,-1022.70001220703,5.70000028610229,-928.500061035156,-3.11929891818684,-0.33198306134672,0.197320852026498,DLL
12.6333333333333,-3.02899599075317,-2.00676965713501,8.52353763580322,1.12043392658234,-0.754577994346619,-0.182927995920181,-1017.90002441406,6.90000009536743,-938.100036621094,-3.10711059085218,-0.331686582687304,0.228515764096488,DLL
12.6666666666667,-3.58048391342163,-2.12041687965393,8.39792728424072,1.07470202445984,-0.472563982009888,-1.05183601379395,-1020.30004882812,10.5,-923.700012207031,-3.09445295099292,-0.389340808598306,0.245656704246241,DLL
12.7,-3.76351547241211,-2.28131723403931,8.39194583892822,0.87652999162674,-0.533540010452271,-0.830797970294952,-1020.30004882812,4.5,-930.900024414062,-3.08207969741398,-0.406784361716297,0.264005371091321,DLL
12.7333333333333,-3.88553667068481,-2.35130000114441,9.01700496673584,0.640248000621796,-0.78506600856781,-0.640248000621796,-1013.10003662109,6.30000019073486,-926.100036621094,-3.08248140466036,-0.39380372378353,0.254535659741082,DLL
12.7666666666667,-3.43812584877014,-2.20236253738403,8.98709774017334,0.693601965904236,-1.39482593536377,-1.13567793369293,-1015.50006103516,5.10000038146973,-942.900024414062,-3.08280337555855,-0.354033565368125,0.240016844419123,DLL
12.8,-2.68147492408752,-2.2173159122467,8.77954292297363,0.411587983369827,-1.31098401546478,-0.602137982845306,-1020.30004882812,7.50000047683716,-933.300048828125,-3.07863645793271,-0.286845331806419,0.2466687189714,DLL
12.8333333333333,-2.67310094833374,-1.94874978065491,8.76099967956543,0.228659987449646,0.175305992364883,0.160062000155449,-1010.70001220703,1.5,-935.700012207031,-3.08678854888264,-0.289777231618842,0.218920392063966,ST
12.8666666666667,-2.41530132293701,-2.1252019405365,8.50619125366211,0.198172003030777,1.43293595314026,0.472563982009888,-1015.50006103516,8.70000076293945,-926.100036621094,-3.08024632541023,-0.271939217686227,0.243739690127217,ST
12.9,-2.97576117515564,-2.07077097892761,8.19575500488281,0.335367977619171,1.91312193870544,0.670735955238342,-1022.70001220703,6.30000019073486,-942.900024414062,-3.07972771665531,-0.340092415098936,0.246706218808726,ST
12.9333333333333,-3.07086610794067,-2.24243807792664,8.60309028625488,0.190549999475479,1.60061991214752,1.6844619512558,-1010.70001220703,3.90000009536743,-926.100036621094,-3.08377263823387,-0.336083733352123,0.253788275797301,ST
12.9666666666667,-3.48358464241028,-2.37761831283569,9.53679180145264,0.213415995240211,0.571649968624115,2.03507399559021,-1015.50006103516,4.5,-935.700012207031,-3.09591624243271,-0.342269514206293,0.24311564856888,ST
13.0,-3.06727719306946,-2.36146855354309,9.32923603057861,0.221037998795509,0.137196004390717,2.24848985671997,-1005.90002441406,5.70000028610229,-928.500061035156,-3.1051224234116,-0.310622735093283,0.246233745741088,ST
13.0333333333333,-3.02839779853821,-2.22568988800049,9.41835880279541,0.442075997591019,0.289635986089706,2.20275783538818,-1008.30004882812,11.1000003814697,-926.100036621094,-3.11942219723591,-0.304809637221878,0.230579524783893,ST
13.0666666666667,-2.42487168312073,-2.21970868110657,9.11091327667236,0.609759986400604,0.327746003866196,1.86738991737366,-993.900024414062,11.1000003814697,-923.700012207031,-3.12550946307917,-0.255736937872202,0.236933706505519,ST
13.1,-2.88125467300415,-2.24662494659424,9.04033279418945,1.15092194080353,0.114329993724823,1.36433792114258,-1015.50006103516,5.70000028610229,-928.500061035156,-3.12923678443815,-0.299507358223241,0.240768477358596,ST
13.1333333333333,-2.62465143203735,-2.1252019405365,8.58813667297363,1.37958192825317,0.0685980021953583,2.0655620098114,-1010.70001220703,8.10000038146973,-942.900024414062,-3.13775010358509,-0.289607814400416,0.239178836625014,ST
13.1666666666667,-2.95303177833557,-1.85125243663788,8.5187520980835,1.47104597091675,-0.358233988285065,2.02745199203491,-998.700012207031,5.70000028610229,-921.300048828125,3.12912145068982,-0.325744297533749,0.211015291148533,ST
13.2,-3.07565116882324,-1.78844749927521,8.64675521850586,1.42531394958496,-0.983237981796265,2.52288198471069,-1015.50006103516,-2.10000014305115,-942.900024414062,3.11392306442728,-0.334226700385419,0.20005645925023,ST
13.2333333333333,-3.08163261413574,-1.29497957229614,8.46133041381836,1.33385002613068,-1.65397393703461,2.60672402381897,-1008.30004882812,8.70000076293945,-930.900024414062,3.08463631600789,-0.343221780714849,0.148866164842971,ST
13.2666666666667,-3.55416560173035,-1.14424753189087,9.34718036651611,1.58537602424622,-1.60061991214752,2.9192259311676,-1003.50006103516,4.5,-926.100036621094,3.0617688482448,-0.358314626422608,0.117899358909107,ST
13.3,-2.56065011024475,-0.938486337661743,9.10194206237793,1.88263392448425,-3.08691000938416,2.13416004180908,-1017.90002441406,3.90000009536743,-930.900024414062,3.04629462007372,-0.270030972047624,0.0987125165229307,ST
13.3333333333333,-2.95362997055054,-0.503636360168457,8.5546407699585,1.51677799224854,-2.41617393493652,2.37044191360474,-1025.10009765625,3.30000019073486,-923.700012207031,3.02256457205912,-0.326911706847417,0.0554973167775046,ST
13.3666666666667,-3.43812584877014,-0.168676316738129,8.92249870300293,1.58537602424622,-0.830797970294952,2.9192259311676,-1029.90002441406,5.10000038146973,-928.500061035156,2.99746542964863,-0.365317444424858,0.015331657858043,ST
13.4,-3.13307285308838,-0.0921140164136887,8.22925090789795,0.815553963184357,-0.46494197845459,2.18751406669617,-1027.5,-2.70000004768372,-930.900024414062,2.98591748293572,-0.363046263449639,0.0085058814954729,ST
13.4333333333333,-3.75514149665833,-0.24882747232914,8.99008846282959,-0.0990860015153885,-0.198172003030777,1.36433792114258,-1027.5,1.5,-926.100036621094,2.98574897379645,-0.394372484737714,0.0263501142762286,ST
13.4666666666667,-3.57210993766785,-0.419298231601715,9.77126312255859,-0.37347799539566,-0.78506600856781,0.480185985565186,-1025.10009765625,1.5,-928.500061035156,2.98855869770225,-0.350089566266511,0.0427545747050886,ST
13.5,-3.09120297431946,-0.550889670848846,9.46321964263916,-0.602137982845306,-0.99848198890686,-0.236281991004944,-1027.5,3.30000019073486,-928.500061035156,2.99370645002362,-0.314462798685925,0.0588554555133713,ST
13.5333333333333,-3.10376381874084,-0.834409415721893,9.70785999298096,-0.967993974685669,-0.266770005226135,-0.434453994035721,-1022.70001220703,14.1000003814697,-930.900024414062,3.00283774637208,-0.308011417139594,0.0869753938192284,ST
13.5666666666667,-2.62824010848999,-0.860727727413177,9.32205867767334,-0.899396002292633,0.121951997280121,-0.548784017562866,-1034.70007324219,-1.5,-926.100036621094,3.00624027509637,-0.274751713858265,0.093730079043802,ST
13.6,-2.35787963867188,-1.52885341644287,8.65094184875488,-1.06708002090454,1.52439999580383,-1.65397393703461,-1027.5,6.90000009536743,-921.300048828125,3.03650021614352,-0.26458884952278,0.17594569988466,ST
13.6333333333333,-3.08881020545959,-1.55876052379608,8.71853160858154,-0.899396002292633,2.09605002403259,-2.0579400062561,-1015.50006103516,8.10000038146973,-926.100036621094,3.04802601568827,-0.336507904471297,0.179817279184776,ST
13.6666666666667,-2.70181179046631,-1.65386533737183,8.26155090332031,-0.663114011287689,2.00458598136902,-0.632625997066498,-1020.30004882812,3.90000009536743,-918.900024414062,3.05794790154908,-0.314154130309441,0.198785674135737,ST
13.7,-3.31371212005615,-1.4540855884552,8.3877592086792,-0.274392008781433,2.55336999893188,-0.213415995240211,-1013.10003662109,7.50000047683716,-942.900024414062,3.05210396777125,-0.373870474932605,0.173301924022199,ST
13.7333333333333,-3.85144257545471,-1.66283750534058,9.16833591461182,0.0990860015153885,2.21800184249878,0.0609759986400604,-1013.10003662109,-0.900000035762787,-940.500061035156,3.05620869759107,-0.395259066913337,0.179339279458938,ST
13.7666666666667,-4.25578737258911,-1.39247679710388,9.57327842712402,0.259148001670837,0.335367977619171,-0.129574000835419,-993.900024414062,10.5,-928.500061035156,3.04410564995054,-0.414455111596558,0.145091000295349,ST
13.8,-3.13367104530334,-1.35539197921753,9.22755146026611,-0.289635986089706,-1.15092194080353,0.381099998950958,-1015.50006103516,3.30000019073486,-926.100036621094,3.04126095391337,-0.324764381088788,0.145997223618648,ST
13.8333333333333,-2.83340334892273,-1.62395811080933,9.04631423950195,-0.99848198890686,-1.76068198680878,0.129574000835419,-1013.10003662109,11.1000003814697,-926.100036621094,3.04747454478344,-0.296837281415515,0.178236342545203,ST
13.8666666666667,-2.80768299102783,-1.52347016334534,8.56181812286377,-0.457319974899292,-1.29574000835419,-0.0152439996600151,-1008.30004882812,6.30000019073486,-926.100036621094,3.0451704430338,-0.309789830672033,0.176805591980786,ST
13.9,-2.70240998268127,-1.61917304992676,8.02887344360352,0.0762199983000755,-1.39482593536377,-0.0838419944047928,-1020.30004882812,14.1000003814697,-926.100036621094,3.05095817266268,-0.316148245602891,0.198300493572017,ST
13.9333333333333,-2.54270577430725,-1.34522354602814,7.67118358612061,0.411587983369827,-2.18751406669617,-0.0228659994900227,-1022.70001220703,6.30000019073486,-926.100036621094,3.04208462775302,-0.311924605618094,0.173373163441626,ST
13.9666666666667,-2.88125467300415,-1.33086812496185,8.82799243927002,0.381099998950958,-2.96495795249939,0.152439996600151,-1005.90002441406,5.70000028610229,-938.100036621094,3.03222805993537,-0.307218659671287,0.149221868733703,ST
14.0,-1.86201906204224,-1.89431881904602,9.04392147064209,0.221037998795509,-3.51374197006226,-1.08232402801514,-1022.70001220703,0.300000011920929,-923.700012207031,3.04835999253027,-0.195610093495298,0.204711527340274,ST
14.0333333333333,-2.64977335929871,-2.42008638381958,8.99666881561279,-0.0533539988100529,-2.99544596672058,-3.26983785629272,-1039.5,3.90000009536743,-933.300048828125,3.07429468578739,-0.268814843838832,0.262550820323246,ST
14.0666666666667,-3.46863102912903,-2.63242721557617,9.425537109375,0.0228659994900227,-2.22562384605408,-1.92074394226074,-1034.70007324219,0.300000011920929,-926.100036621094,3.08356699763355,-0.334153379728968,0.272762693017585,ST
14.1,-2.90518045425415,-2.50502276420593,9.64385890960693,0.495429992675781,-1.85976791381836,-0.480185985565186,-1039.5,0.300000011920929,-928.500061035156,3.07850201438025,-0.281632877664215,0.253729348655399,ST
14.1333333333333,-2.69403600692749,-2.13477230072021,9.65163516998291,0.83841997385025,-1.30336201190948,-0.381099998950958,-1039.5,9.30000019073486,-923.700012207031,3.07024581130018,-0.264087409356578,0.21703044905496,ST
14.1666666666667,-2.68745636940002,-1.96310520172119,9.14082050323486,0.457319974899292,-0.259148001670837,-0.205793991684914,-1046.70007324219,6.90000009536743,-930.900024414062,3.07010927469165,-0.279112097037582,0.210936229237399,ST
14.2,-2.73411154747009,-1.97028291225433,9.08280086517334,0.198172003030777,0.419209986925125,0.807931959629059,-1046.70007324219,8.10000038146973,-935.700012207031,3.06725299521326,-0.286954827312914,0.212867973304892,ST
14.2333333333333,-2.41948843002319,-1.93738508224487,8.75083160400391,-0.0,1.03659200668335,1.27287399768829,-1025.10009765625,8.70000076293945,-923.700012207031,3.06335737021878,-0.266482777893209,0.217269048066726,ST
14.2666666666667,-2.49006915092468,-1.68257617950439,8.3100004196167,-0.0838419944047928,1.05945801734924,1.70732796192169,-1039.5,3.90000009536743,-933.300048828125,3.0511717624396,-0.287477623595192,0.199667649771971,ST
14.3,-2.63481974601746,-1.78306424617767,8.33751487731934,-0.320124000310898,1.20427596569061,2.5000159740448,-1034.70007324219,11.7000007629395,-935.700012207031,3.04137726135943,-0.302446655080043,0.209891896995667,ST
14.3333333333333,-2.9320969581604,-1.83749520778656,9.50090312957764,0.0457319989800453,0.327746003866196,2.82776188850403,-1049.10009765625,7.50000047683716,-938.100036621094,3.0209076263769,-0.295826779540821,0.1898834094645,ST
14.3666666666667,-2.64797902107239,-1.85125243663788,9.40101337432861,0.365855991840363,0.289635986089706,2.64483404159546,-1029.90002441406,10.5,-923.700012207031,3.00949437030345,-0.271685635294003,0.192478119029209,ST
14.4,-2.94166707992554,-1.82313978672028,9.37708759307861,0.617381989955902,0.990859985351562,2.44666194915771,-1032.30004882812,3.30000019073486,-930.900024414062,2.99867057427765,-0.300428444945779,0.189839646988024,ST
14.4333333333333,-3.18690586090088,-1.79682147502899,9.95848274230957,0.731711983680725,1.14329993724823,2.21037983894348,-1020.30004882812,12.3000001907349,-933.300048828125,2.98608749016473,-0.307548370694437,0.176515583589489,ST
14.4666666666667,-2.55706119537354,-1.36615860462189,9.2042236328125,1.02897000312805,0.556405961513519,2.42379593849182,-1025.10009765625,9.90000057220459,-930.900024414062,2.96617460575817,-0.270446987868148,0.144997046326051,ST
14.5,-2.01275110244751,-1.11134958267212,8.34529113769531,0.800309956073761,0.556405961513519,2.21037983894348,-1017.90002441406,4.5,-930.900024414062,2.95291884562867,-0.237072305628125,0.130493582664812,ST
14.5333333333333,-2.51040601730347,-1.01564681529999,8.33871078491211,0.0990860015153885,0.327746003866196,1.41769194602966,-1020.30004882812,3.90000009536743,-947.700012207031,2.94302373964874,-0.290288662848099,0.120512203852045,ST
14.5666666666667,-2.57081842422485,-0.893027484416962,8.48645210266113,0.3125019967556,-0.99848198890686,1.53202199935913,-1025.10009765625,7.50000047683716,-928.500061035156,2.93062744630179,-0.291145674350953,0.103911445907177,ST
14.6,-2.64618444442749,-0.809287428855896,8.47149848937988,0.518296003341675,-1.63110792636871,1.63872992992401,-1017.90002441406,5.10000038146973,-921.300048828125,2.91956504247121,-0.29869530712795,0.0936661421913941,ST
14.6333333333333,-2.89919900894165,-1.02282452583313,9.32803916931152,0.571649968624115,-2.25611186027527,0.731711983680725,-1015.50006103516,5.70000028610229,-928.500061035156,2.91967193099437,-0.295948472002375,0.107316816386392,ST
14.6666666666667,-2.93508744239807,-0.669920146465302,9.68333625793457,0.861285984516144,-2.86587190628052,0.198172003030777,-1020.30004882812,3.90000009536743,-923.700012207031,2.90762446806498,-0.288882052620576,0.0684486515345506,ST
14.7,-3.32328224182129,-0.518589973449707,9.64565372467041,0.731711983680725,-1.89025592803955,1.31860601902008,-1034.70007324219,9.90000057220459,-923.700012207031,2.89661630829753,-0.327250619765517,0.0520076538691011,ST
14.7333333333333,-2.84476804733276,-0.324193477630615,9.90644359588623,0.609759986400604,-1.19665396213531,0.617381989955902,-1032.30004882812,0.900000035762787,-933.300048828125,2.88823708528385,-0.278802561629908,0.0318721014315886,ST
14.7666666666667,-2.59893131256104,-0.317015767097473,8.80406665802002,-0.0457319989800453,-0.6250039935112,-0.0685980021953583,-1039.5,13.5000009536743,-921.300048828125,2.88954814685898,-0.285584393858733,0.0359805494925052,ST
14.8,-2.87706780433655,-0.674705266952515,9.09536170959473,-0.708845973014832,0.236281991004944,-1.02897000312805,-1034.70007324219,11.7000007629395,-930.900024414062,2.90492131236114,-0.305312806538812,0.0747616806742984,ST
14.8333333333333,-2.36146855354309,-0.896018147468567,8.89558219909668,-0.800309956073761,-0.205793991684914,-2.34757590293884,-1037.10009765625,9.30000019073486,-928.500061035156,2.92298146000491,-0.258771994828628,0.102116185260556,ST
14.8666666666667,-2.02232146263123,-1.02701151371002,7.86318731307983,-0.777444005012512,0.0990860015153885,-2.34757590293884,-1039.5,5.70000028610229,-933.300048828125,2.94180874950038,-0.249540563809932,0.131652313065422,ST
14.9,-2.74368190765381,-1.48997414112091,8.19455909729004,-0.830797970294952,1.37958192825317,-2.25611186027527,-1022.70001220703,10.5,-918.900024414062,2.96662520779396,-0.317990775607754,0.18128152480647,ST
14.9333333333333,-2.90876936912537,-1.85005617141724,9.8077507019043,-0.518296003341675,-0.259148001670837,-2.52288198471069,-1022.70001220703,5.70000028610229,-921.300048828125,2.98036098762686,-0.283166053443862,0.188421230193761,ST
14.9666666666667,-2.99908876419067,-1.59464919567108,9.92977142333984,-0.129574000835419,-0.868907988071442,-0.853663980960846,-1029.90002441406,12.3000001907349,-928.500061035156,2.97586357116439,-0.28796184184424,0.160504056626092,ST
15.0,-2.60192203521729,-1.30454981327057,9.04571628570557,-0.327746003866196,1.32622802257538,0.0609759986400604,-1029.90002441406,2.70000004768372,-916.500061035156,2.97153822357938,-0.279890828183111,0.14431810686173,ST
15.0333333333333,-3.28440308570862,-1.62096750736237,9.11091327667236,-0.769822001457214,2.9116039276123,0.198172003030777,-1027.5,0.300000011920929,-926.100036621094,2.98162360344357,-0.344314337781752,0.176687422354988,ST
15.0666666666667,-3.79402089118958,-1.72025918960571,9.79817962646484,-0.457319974899292,2.23324584960938,-0.518296003341675,-1020.30004882812,6.30000019073486,-923.700012207031,2.98475587867811,-0.367472226392504,0.175232270868161,ST
15.1,-2.55287408828735,-1.86142086982727,8.59531402587891,-0.167683988809586,0.472563982009888,-1.73019397258759,-1013.10003662109,6.30000019073486,-928.500061035156,3.00587157861142,-0.284715648788399,0.213595155549257,ST
15.1333333333333,-2.60431456565857,-1.69812786579132,8.81363677978516,0.198172003030777,-0.510673999786377,-1.65397393703461,-1010.70001220703,6.90000009536743,-938.100036621094,3.00774653017399,-0.281058235936613,0.191304760986635,ST
15.1666666666667,-2.57261300086975,-1.92721664905548,8.60428619384766,0.381099998950958,-0.396344006061554,-0.25152599811554,-1025.10009765625,12.3000001907349,-933.300048828125,3.01681624508742,-0.283061184504238,0.218987036450174,ST
15.2,-2.21372723579407,-1.98404026031494,9.03554725646973,0.335367977619171,-0.487807989120483,-0.381099998950958,-1029.90002441406,4.5,-928.500061035156,3.01776098124876,-0.235247366896309,0.215771201876142,ST
15.2333333333333,-1.88235592842102,-1.69812786579132,8.44757270812988,0.67835795879364,-1.42531394958496,-0.495429992675781,-1005.90002441406,6.90000009536743,-933.300048828125,3.01552491739977,-0.213089610589999,0.197771554010092,ST
15.2666666666667,-2.10845398902893,-1.6203693151474,8.05399513244629,0.655492007732391,-1.19665396213531,0.449698001146317,-1015.50006103516,3.30000019073486,-923.700012207031,3.01245555308751,-0.24876421198203,0.197106903693208,ST
15.3,-2.16886639595032,-2.00258255004883,8.73647594451904,0.160062000155449,-0.830797970294952,0.304879993200302,-1029.90002441406,8.70000076293945,-921.300048828125,3.01674206176313,-0.236464823309722,0.224092830769913,ST
15.3333333333333,-2.50263023376465,-2.07615423202515,9.20781326293945,0.297257989645004,-0.586893975734711,-0.724089980125427,-1017.90002441406,11.1000003814697,-933.300048828125,3.01940766388618,-0.257314198997216,0.221583678928491,ST
15.3666666666667,-3.62893342971802,-2.5337336063385,9.15936374664307,0.213415995240211,0.739333987236023,-0.381099998950958,-1027.5,17.1000003814697,-918.900024414062,3.0369751129582,-0.363264298512219,0.268681491128703,ST
15.4,-4.26176881790161,-2.78136491775513,9.99078178405762,-0.0685980021953583,0.807931959629059,-0.282013982534409,-1027.5,9.30000019073486,-947.700012207031,3.0403715277959,-0.390372108128613,0.271896114797956,ST
15.4333333333333,-3.84605932235718,-2.46255469322205,9.10493278503418,0.381099998950958,0.289635986089706,0.3125019967556,-1022.70001220703,9.30000019073486,-926.100036621094,3.0367948715963,-0.387852027015382,0.263451689064831,ST
15.4666666666667,-3.30174922943115,-2.44939541816711,8.72750377655029,0.403965979814529,0.556405961513519,0.457319974899292,-1017.90002441406,10.5,-926.100036621094,3.03937765072038,-0.351474723380536,0.272475167184172,ST
15.5,-2.65635299682617,-1.64788389205933,8.20711994171143,0.983237981796265,-0.46494197845459,0.640248000621796,-998.700012207031,12.3000001907349,-928.500061035156,3.01305646858353,-0.307655767891547,0.197594823015138,ST
15.5333333333333,-2.04385447502136,-1.51330173015594,8.0175085067749,1.07470202445984,-0.556405961513519,1.32622802257538,-1025.10009765625,3.90000009536743,-930.900024414062,3.00387149583661,-0.246630525223506,0.184414439329522,ST
15.5666666666667,-2.33754277229309,-1.69752979278564,8.56241703033447,1.04421401023865,-0.282013982534409,0.167683988809586,-1017.90002441406,4.5,-911.700012207031,3.00647417648935,-0.260921246497446,0.193595817506188,ST
15.6,-2.40812349319458,-1.86500978469849,8.81244087219238,1.02897000312805,-0.419209986925125,-0.282013982534409,-1013.10003662109,6.90000009536743,-928.500061035156,3.01213286910975,-0.260432261832027,0.206487957014038,ST
15.6333333333333,-2.8603196144104,-1.98822724819183,9.11928749084473,0.846041977405548,-0.274392008781433,0.442075997591019,-1017.90002441406,0.900000035762787,-921.300048828125,3.01262044780146,-0.296194510835629,0.212774110975761,ST
15.6666666666667,-2.93389129638672,-2.29148578643799,9.56669902801514,0.586893975734711,-0.0381099991500378,0.663114011287689,-1025.10009765625,9.30000019073486,-923.700012207031,3.01613987158616,-0.29021353792483,0.233163391452278,ST
15.7,-2.55287408828735,-2.2191104888916,9.40280723571777,0.541162014007568,-0.289635986089706,0.449698001146317,-1025.10009765625,7.50000047683716,-930.900024414062,3.01356983021456,-0.258691740159259,0.230638936038677,ST
15.7333333333333,-2.73949480056763,-2.20774579048157,9.2167854309082,0.716467976570129,0.0914639979600906,0.83841997385025,-1020.30004882812,5.10000038146973,-926.100036621094,3.01133956268524,-0.281245832984226,0.233379865982638,ST
15.7666666666667,-2.94405961036682,-2.03428435325623,8.69998931884766,1.04421401023865,1.13567793369293,1.05945801734924,-1017.90002441406,5.10000038146973,-930.900024414062,3.00744309753638,-0.319582993029274,0.227597364960714,ST
15.8,-3.07983827590942,-1.86142086982727,8.78672027587891,1.18140995502472,0.853663980960846,1.53202199935913,-1005.90002441406,8.10000038146973,-935.700012207031,2.99620044894054,-0.332001718853988,0.206495662352306,ST
15.8333333333333,-2.73171901702881,-1.47741317749023,8.34887981414795,1.16616594791412,0.0152439996600151,2.21037983894348,-1003.50006103516,6.90000009536743,-935.700012207031,2.97673936355236,-0.312926740754929,0.172813031737933,ST
15.8666666666667,-2.61388468742371,-1.24712812900543,8.74485015869141,1.09756803512573,-0.960371971130371,1.45580196380615,-1025.10009765625,-1.5,-928.500061035156,2.96079987917596,-0.287129245576118,0.139838463981736,ST
15.9,-2.22150301933289,-1.11075150966644,8.66290473937988,1.2423859834671,-1.69970595836639,1.2500079870224,-1020.30004882812,5.70000028610229,-935.700012207031,2.95125465901452,-0.247515339608722,0.125113407054623,ST
15.9333333333333,-2.37881469726562,-1.07247030735016,9.54755783081055,1.37958192825317,-2.21037983894348,0.922261953353882,-1013.10003662109,2.10000014305115,-923.700012207031,2.94275450774985,-0.239191395335679,0.109208654081007,ST
15.9666666666667,-1.56534016132355,-0.905588448047638,9.23173904418945,1.22714197635651,-2.54574799537659,0.640248000621796,-1032.30004882812,5.10000038146973,-928.500061035156,2.93670240871486,-0.16493992614087,0.0957475771003427,ST
16.0,-2.18561434745789,-0.987534046173096,9.05588436126709,0.487807989120483,-0.472563982009888,0.945127964019775,-1025.10009765625,3.90000009536743,-940.500061035156,2.9342025702773,-0.233380915259892,0.107121824713336,ST
16.0333333333333,-3.3047399520874,-1.31172752380371,9.1330451965332,-0.198172003030777,1.29574000835419,1.49391198158264,-1010.70001220703,9.30000019073486,-933.300048828125,2.93711298621179,-0.343453024211834,0.141222310081392,ST
16.0666666666667,-3.6032133102417,-1.53363859653473,9.21738338470459,-0.663114011287689,1.05945801734924,1.45580196380615,-1029.90002441406,7.50000047683716,-918.900024414062,2.93786357609227,-0.369551048804144,0.164527087210784,ST
16.1,-3.41599440574646,-1.82134532928467,9.08579158782959,-0.6250039935112,-0.152439996600151,1.08232402801514,-1027.5,6.30000019073486,-923.700012207031,2.94255014178725,-0.353582948558823,0.19762074537162,ST
16.1333333333333,-3.57629680633545,-2.06478953361511,9.77245998382568,-0.358233988285065,-0.510673999786377,0.0990860015153885,-1015.50006103516,3.30000019073486,-928.500061035156,2.94462708815098,-0.343281922770172,0.208421631235649,ST
16.1666666666667,-2.8962082862854,-1.9068797826767,8.35306644439697,0.403965979814529,-0.129574000835419,-0.152439996600151,-1029.90002441406,0.300000011920929,-916.500061035156,2.95081669664805,-0.326170917874237,0.223389776107771,ST
16.2,-3.09000658988953,-2.36445927619934,8.07373428344727,0.0685980021953583,1.21951997280121,0.564027965068817,-1008.30004882812,4.5,-916.500061035156,2.96970962833549,-0.353569206243351,0.282959526990929,ST
16.2333333333333,-3.41479825973511,-2.20894193649292,8.90993785858154,0.266770005226135,0.6250039935112,1.02134799957275,-1027.5,5.10000038146973,-935.700012207031,2.95229186667134,-0.357524833611936,0.243121388650539,ST
16.2666666666667,-2.81785154342651,-2.05940628051758,8.3817777633667,0.411587983369827,-0.556405961513519,2.11129403114319,-1017.90002441406,6.90000009536743,-918.900024414062,2.94031195031563,-0.316368561524906,0.239036538616578,ST
16.3,-3.00746297836304,-1.81596207618713,9.39024639129639,0.342989981174469,-1.01372599601746,1.95885396003723,-1010.70001220703,11.7000007629395,-930.900024414062,2.91558024486096,-0.303943845648241,0.190616433936637,ST
16.3333333333333,-2.48887300491333,-1.65087461471558,9.0792121887207,0.579271972179413,-1.31098401546478,2.20275783538818,-1015.50006103516,3.30000019073486,-918.900024414062,2.90054616029931,-0.262871263738492,0.178015315062536,ST
16.3666666666667,-3.16597080230713,-1.70710003376007,9.36572265625,0.144817993044853,-0.121951997280121,2.16464805603027,-1037.10009765625,4.5,-921.300048828125,2.89033365765215,-0.319920076395124,0.178794262682844,ST
16.4,-2.67609167098999,-1.50851655006409,8.85849761962891,-0.121951997280121,-0.442075997591019,2.02745199203491,-1032.30004882812,5.10000038146973,-928.500061035156,2.8766657994677,-0.290111231038522,0.168090913743327,ST
16.4333333333333,-2.12580013275146,-1.55756425857544,8.76159858703613,-0.213415995240211,-0.899396002292633,2.05031800270081,-1025.10009765625,16.5,-928.500061035156,2.86731531938121,-0.235101709735921,0.175181837790883,ST
16.4666666666667,-2.49305987358093,-1.82014906406403,8.99487400054932,-0.0457319989800453,-0.92988395690918,1.35671591758728,-1032.30004882812,3.90000009536743,-921.300048828125,2.86540703258119,-0.263339151295255,0.19837868715555,ST
16.5,-2.5098078250885,-1.65087461471558,8.95420074462891,0.358233988285065,-1.03659200668335,1.51677799224854,-1020.30004882812,11.7000007629395,-928.500061035156,2.85301756897455,-0.267554407126602,0.18136964325042,ST
16.5333333333333,-2.1030707359314,-1.58747148513794,9.46381855010986,0.716467976570129,-1.80641400814056,1.53964400291443,-1027.5,9.30000019073486,-933.300048828125,2.84069008188872,-0.214567064525551,0.164698584725345,ST
16.5666666666667,-1.33026993274689,-1.16936945915222,8.3279447555542,1.19665396213531,-2.23324584960938,1.16616594791412,-1032.30004882812,3.90000009536743,-916.500061035156,2.82925781682229,-0.154977146097828,0.137748704947757,ST
16.6,-2.71975612640381,-1.17475283145905,8.18319416046143,0.975615978240967,0.548784017562866,1.27287399768829,-1039.5,0.900000035762787,-921.300048828125,2.8251922802781,-0.31461101805955,0.140168182747153,ST
16.6333333333333,-2.93149876594543,-1.3099330663681,9.53200626373291,0.746955990791321,0.990859985351562,0.106707997620106,-1034.70007324219,3.30000019073486,-928.500061035156,2.82506028461644,-0.297948847459447,0.135414393882281,ST
16.6666666666667,-2.37283325195312,-0.977365612983704,7.56770467758179,0.846041977405548,-0.442075997591019,0.868907988071442,-1032.30004882812,-0.300000011920929,-918.900024414062,2.8189192794398,-0.300859607583039,0.126626192049273,ST
16.7,-2.82084226608276,-1.31053125858307,8.620436668396,0.0304879993200302,0.0533539988100529,0.800309956073761,-1022.70001220703,5.10000038146973,-923.700012207031,2.82207191377964,-0.312848925746738,0.149728050160833,ST
16.7333333333333,-2.27772831916809,-1.20705246925354,9.70307540893555,0.0762199983000755,-1.45580196380615,0.0533539988100529,-1034.70007324219,3.30000019073486,-926.100036621094,2.81401543851986,-0.228151942605642,0.124064546201664,ST
16.7666666666667,-1.69394087791443,-1.36675667762756,10.6068696975708,0.228659987449646,-2.66007804870605,-0.3125019967556,-1025.10009765625,2.70000004768372,-918.900024414062,2.8147719963235,-0.154475778477176,0.127645734508697,ST
16.8,-1.19927668571472,-1.10477006435394,9.32564735412598,0.472563982009888,-1.92836594581604,-0.0838419944047928,-1041.90002441406,2.70000004768372,-921.300048828125,2.81283589594408,-0.1241416774954,0.117224831654737,ST
16.8333333333333,-1.89730954170227,-1.33326065540314,10.6517295837402,0.182927995920181,-0.0533539988100529,0.541162014007568,-1034.70007324219,14.1000003814697,-945.300048828125,2.81118406779039,-0.173577250547534,0.12385319738204,ST
16.8666666666667,-1.86680424213409,-0.635227859020233,8.52712631225586,0.46494197845459,0.259148001670837,1.15854394435883,-1032.30004882812,0.900000035762787,-923.700012207031,2.7964056972073,-0.214424023713117,0.0745149126782798,ST
16.9,-2.71676540374756,-0.762034118175507,10.0266704559326,-0.724089980125427,1.80641400814056,2.44666194915771,-1027.5,3.90000009536743,-928.500061035156,2.78425584235886,-0.265902391383955,0.0760042573204842,ST
16.9333333333333,-2.1712589263916,-0.39537250995636,10.0057353973389,-0.0914639979600906,-0.861285984516144,1.07470202445984,-1041.90002441406,5.70000028610229,-914.100036621094,2.77000874574163,-0.21357526861422,0.0402112982507201,ST
16.9666666666667,-1.32129776477814,-0.132189601659775,9.72759914398193,-0.129574000835419,-1.40244793891907,0.891773998737335,-1041.90002441406,3.90000009536743,-928.500061035156,2.76068777390069,-0.134777267774292,0.0143004784835562,ST
17.0,-2.57799625396729,-0.672910869121552,9.73058986663818,-0.693601965904236,1.47104597091675,0.129574000835419,-1034.70007324219,6.30000019073486,-938.100036621094,2.77026017119394,-0.257539429618202,0.0686749684907107,ST
17.0333333333333,-3.20245742797852,-0.766819298267365,11.083589553833,-0.571649968624115,1.40244793891907,-0.503051996231079,-1034.70007324219,0.300000011920929,-926.100036621094,2.77295675455698,-0.282415091356382,0.070333778014246,ST
17.0666666666667,-2.68207311630249,-1.04196500778198,8.45176029205322,-0.525918006896973,1.18903195858002,-1.50915598869324,-1032.30004882812,8.70000076293945,-921.300048828125,2.79605077630247,-0.306368308971324,0.123353155843554,ST
17.1,-3.26705694198608,-1.96310520172119,10.5811491012573,-1.37195992469788,1.49391198158264,-2.17227005958557,-1015.50006103516,6.90000009536743,-930.900024414062,2.82528968186912,-0.296804888209663,0.185978648512232,ST
17.1333333333333,-1.85424315929413,-1.11493849754333,12.5962924957275,0.335367977619171,-4.66466379165649,-3.33843588829041,-1020.30004882812,3.90000009536743,-928.500061035156,2.81977847585151,-0.140270453174412,0.0904467402927608,ST
17.1666666666667,2.46255469322205,-1.01803934574127,5.01901769638062,0.304879993200302,-3.89484190940857,-2.59910202026367,-1037.10009765625,5.10000038146973,-909.300048828125,2.81346191628463,0.43858757784257,0.194880913230779,ST
17.2,-5.71405982971191,-1.86800050735474,11.1768999099731,-0.365855991840363,8.54426193237305,0.0762199983000755,-1032.30004882812,6.90000009536743,-916.500061035156,2.81886924664888,-0.460101353354682,0.168484056379995,ST
17.2333333333333,-2.35070180892944,-0.925327181816101,5.95750379562378,1.47104597091675,3.02593398094177,-0.78506600856781,-1025.10009765625,5.70000028610229,-933.300048828125,2.82192983130119,-0.378509890540857,0.152728315480747,ST
17.2666666666667,-5.21640491485596,-1.73401641845703,6.85112953186035,-0.632625997066498,3.26983785629272,-0.708845973014832,-1020.30004882812,5.70000028610229,-933.300048828125,2.87389503939375,-0.636345991618271,0.248792860766319,ST
17.3,-4.87007999420166,-2.16408133506775,11.1529741287231,-1.52439999580383,0.419209986925125,-1.70732796192169,-1010.70001220703,2.70000004768372,-921.300048828125,2.85248898122993,-0.409323062638603,0.196526326273553,ST
17.3333333333333,-3.66063499450684,-1.77289581298828,9.42314434051514,0.221037998795509,-3.17837381362915,-0.823175966739655,-1022.70001220703,5.70000028610229,-906.900024414062,2.85004233394768,-0.360022486314341,0.185950284528823,ST
17.3666666666667,-4.45975399017334,-2.58218312263489,14.427806854248,0.769822001457214,-0.6250039935112,-0.853663980960846,-1025.10009765625,5.70000028610229,-909.300048828125,2.85179278127213,-0.295833083296294,0.176416012554793,ST
17.4,-3.41420006752014,-0.330174922943115,10.8826131820679,3.05642199516296,-3.49849796295166,-0.510673999786377,-1017.90002441406,-2.10000014305115,-923.700012207031,2.81458511542449,-0.29776716851106,0.0293365998078717,ST
17.4333333333333,1.251913189888,0.276940196752548,7.71305370330811,0.472563982009888,-4.67228603363037,0.37347799539566,-1020.30004882812,0.300000011920929,-916.500061035156,2.80826637747594,0.155861518906616,-0.0348460004389177,ST
17.4666666666667,1.33086812496185,0.496458679437637,6.62084436416626,-0.87652999162674,-2.16464805603027,-0.0914639979600906,-1039.5,-1.5,-909.300048828125,2.81707185297198,0.200642023648249,-0.0725945928951497,ST
17.5,0.815867006778717,0.0909177288413048,6.72851037979126,-0.0,1.57013201713562,-1.27287399768829,-1029.90002441406,6.30000019073486,-914.100036621094,2.81452899494438,0.119595267360487,-0.0149920059541951,ST
17.5333333333333,-0.516795516014099,-0.613096535205841,6.5054030418396,0.342989981174469,2.27897787094116,-2.23324584960938,-1022.70001220703,8.70000076293945,-906.900024414062,2.82577892416167,-0.0788895587400567,0.0916662705942934,ST
17.5666666666667,-3.81136703491211,-2.18980145454407,8.95420074462891,-0.609759986400604,3.45276594161987,-2.18751406669617,-1005.90002441406,2.70000004768372,-911.700012207031,2.87322782718465,-0.388347889720242,0.238298113514574,ST
