seconds,sensor_accX_m_s_,sensor_accY_m_s_,sensor_accZ_m_s_,sensor_gyroX___s_,sensor_gyroY___s_,sensor_gyroZ___s_,sensor_magX__T_,sensor_magY__T_,sensor_magZ__T_,sensor_yaw___,sensor_pitch___,sensor_roll___,label4
0.0,-0.416905641555786,-1.11194777488708,9.56011867523193,0.175305992364883,-0.426831990480423,0.205793991684914,-1104.30004882812,-12.9000005722046,-930.900024414062,2.76440843133642,-0.0426271684831348,0.115464139917117,ST
0.0333333333333333,-0.375035643577576,-1.09220910072327,9.53499698638916,0.274392008781433,-0.487807989120483,0.221037998795509,-1097.10009765625,2.10000014305115,-918.900024414062,2.76234017123072,-0.0382756224746099,0.113561985184958,ST
0.0666666666666667,-0.351708054542542,-1.07366669178009,9.54815578460693,0.304879993200302,-0.46494197845459,0.304879993200302,-1087.5,-3.30000019073486,-930.900024414062,2.75981487102559,-0.0358575629015088,0.111437383198414,ST
0.1,-0.320006489753723,-1.07665729522705,9.55593204498291,0.327746003866196,-0.442075997591019,0.365855991840363,-1080.30004882812,-2.10000014305115,-918.900024414062,2.75687617302014,-0.0325879526131002,0.111599318662289,ST
0.133333333333333,-0.337950766086578,-1.04794645309448,9.59301662445068,0.320124000310898,-0.419209986925125,0.396344006061554,-1089.90002441406,-5.10000038146973,-921.300048828125,2.75362282400182,-0.0343435816205205,0.108243253431795,ST
0.166666666666667,-0.265575468540192,-1.03060030937195,9.5266227722168,0.297257989645004,-0.335367977619171,0.365855991840363,-1097.10009765625,-2.10000014305115,-909.300048828125,2.75072566957106,-0.0272354425943727,0.107229817534039,ST
0.2,-0.428270369768143,-0.980954468250275,9.63907432556152,0.3125019967556,-0.205793991684914,0.3125019967556,-1077.90002441406,-6.30000019073486,-928.500061035156,2.74829457381989,-0.0437352312369685,0.100901249823541,ST
0.233333333333333,-0.232677608728409,-1.0276095867157,9.40938663482666,0.266770005226135,-0.266770005226135,0.3125019967556,-1101.90002441406,-5.10000038146973,-911.700012207031,2.74625529765644,-0.0243331032620117,0.108239060693983,ST
0.266666666666667,-0.425279647111893,-1.02342259883881,9.59421348571777,0.228659987449646,-0.243903994560242,0.304879993200302,-1085.10009765625,-6.30000019073486,-923.700012207031,2.74396331266731,-0.0435227887381679,0.105864937751436,ST
0.3,-0.35410064458847,-1.02641332149506,9.5391845703125,0.396344006061554,-0.243903994560242,0.457319974899292,-1089.90002441406,-6.90000009536743,-923.700012207031,2.74077259215237,-0.0366094056041065,0.106459684251747,ST
0.333333333333333,-0.427672237157822,-0.96360832452774,9.48236083984375,0.3125019967556,-0.259148001670837,0.495429992675781,-1104.30004882812,-2.10000014305115,-914.100036621094,2.73704671847399,-0.0444135005104873,0.100735313770217,ST
0.366666666666667,-0.381615221500397,-0.977365612983704,9.49851036071777,0.274392008781433,-0.221037998795509,0.525918006896973,-1094.70007324219,-5.10000038146973,-916.500061035156,2.73340953210935,-0.0396926397629559,0.102008451342202,ST
0.4,-0.402550220489502,-1.01863753795624,9.55593204498291,0.289635986089706,-0.243903994560242,0.457319974899292,-1092.30004882812,-0.900000035762787,-928.500061035156,2.72993005284819,-0.0415175159789678,0.105641794575854,ST
0.433333333333333,-0.386998504400253,-1.02282452583313,9.52841758728027,0.282013982534409,-0.243903994560242,0.426831990480423,-1092.30004882812,-9.90000057220459,-914.100036621094,2.72674651215002,-0.040025613765858,0.106407051239178,ST
0.466666666666667,-0.403746515512466,-1.00787091255188,9.55174541473389,0.3125019967556,-0.342989981174469,0.358233988285065,-1094.70007324219,-3.90000009536743,-918.900024414062,2.72397243239944,-0.0414713045559247,0.104566790628186,ST
0.5,-0.352904349565506,-0.998300611972809,9.521240234375,0.297257989645004,-0.342989981174469,0.388722002506256,-1097.10009765625,-4.5,-916.500061035156,2.7210222893505,-0.03635637926359,0.103926785600113,ST
0.533333333333333,-0.393578082323074,-1.01504862308502,9.54995059967041,0.236281991004944,-0.365855991840363,0.381099998950958,-1089.90002441406,-2.70000004768372,-916.500061035156,2.71809138926447,-0.0403708352957461,0.105440394932583,ST
0.566666666666667,-0.365465342998505,-1.01564681529999,9.53679180145264,0.221037998795509,-0.388722002506256,0.411587983369827,-1099.5,-0.900000035762787,-926.100036621094,2.71495671959853,-0.0375085005879974,0.105680816416163,ST
0.6,-0.314025074243546,-1.03418922424316,9.52363204956055,0.198172003030777,-0.426831990480423,0.37347799539566,-1099.5,-0.300000011920929,-918.900024414062,2.71219492084908,-0.0321424892702435,0.107781263582947,ST
0.633333333333333,-0.282323479652405,-1.03418922424316,9.5385856628418,0.160062000155449,-0.37347799539566,0.365855991840363,-1094.70007324219,0.900000035762787,-914.100036621094,2.70943496954781,-0.0288647211675921,0.1077006343962,ST
0.666666666666667,-0.252416342496872,-1.04017066955566,9.59421348571777,0.198172003030777,-0.327746003866196,0.381099998950958,-1092.30004882812,-3.90000009536743,-928.500061035156,2.7064368546062,-0.0256709986501477,0.107630539863383,ST
0.7,-0.289501190185547,-1.00787091255188,9.5804557800293,0.221037998795509,-0.274392008781433,0.37347799539566,-1092.30004882812,-2.70000004768372,-926.100036621094,2.70329724330918,-0.0296192213976664,0.104421370196944,ST
0.733333333333333,-0.260192185640335,-1.04615211486816,9.47159385681152,0.175305992364883,-0.121951997280121,0.335367977619171,-1099.5,-0.900000035762787,-916.500061035156,2.70094162816012,-0.0271643965401269,0.109653264633909,ST
0.766666666666667,-0.300267785787582,-1.05990934371948,9.55772686004639,0.167683988809586,-0.0228659994900227,0.419209986925125,-1089.90002441406,-1.5,-911.700012207031,2.69809444614562,-0.0312219397452243,0.110124991076355,ST
0.8,-0.343334078788757,-0.989328503608704,9.57028770446777,-0.0228659994900227,0.0914639979600906,0.327746003866196,-1101.90002441406,-2.70000004768372,-911.700012207031,2.69546742889402,-0.0358654225806998,0.103062769269913,ST
0.833333333333333,-0.269762486219406,-1.02521705627441,9.51944541931152,-0.152439996600151,0.388722002506256,0.6250039935112,-1094.70007324219,-3.30000019073486,-921.300048828125,2.69132600953858,-0.0289983694887857,0.107494775025136,ST
0.866666666666667,-0.339745193719864,-1.04136693477631,9.46441650390625,-0.335367977619171,0.724089980125427,0.83841997385025,-1092.30004882812,0.900000035762787,-916.500061035156,2.68579988805447,-0.0370374762020904,0.110110787310972,ST
0.9,-0.405540943145752,-1.09938681125641,9.51585674285889,-0.487807989120483,0.92988395690918,1.00610399246216,-1082.70007324219,-4.5,-921.300048828125,2.67971639022969,-0.0440670886950727,0.115758664601341,ST
0.933333333333333,-0.429466664791107,-1.19867849349976,9.53439903259277,-0.556405961513519,0.861285984516144,1.02134799957275,-1089.90002441406,-0.900000035762787,-923.700012207031,2.67373121459538,-0.0463579813961355,0.125879693030789,ST
0.966666666666667,-0.554478526115417,-1.19688403606415,9.49791240692139,-0.518296003341675,0.884151995182037,1.00610399246216,-1092.30004882812,-3.90000009536743,-918.900024414062,2.6672320555116,-0.0595176032601336,0.126165788160886,ST
1.0,-0.599339246749878,-1.28002595901489,9.4727897644043,-0.579271972179413,0.983237981796265,0.907018005847931,-1087.5,-5.70000028610229,-918.900024414062,2.66223403411239,-0.064490012940399,0.135163650459356,ST
1.03333333333333,-0.709995687007904,-1.28002595901489,9.47757530212402,-0.579271972179413,1.04421401023865,0.922261953353882,-1085.10009765625,-4.5,-930.900024414062,2.65661076244944,-0.076030855313329,0.135154889528689,ST
1.06666666666667,-0.805698573589325,-1.3440272808075,9.45006084442139,-0.609759986400604,1.15092194080353,1.03659200668335,-1097.10009765625,2.10000014305115,-928.500061035156,2.65010346428276,-0.0864133836029077,0.142183056406509,ST
1.1,-0.951645493507385,-1.42597281932831,9.46321964263916,-0.518296003341675,1.2576299905777,1.36433792114258,-1075.5,-2.10000014305115,-930.900024414062,2.64199611614262,-0.10155361798204,0.150213555536161,ST
1.13333333333333,-1.03418922424316,-1.49834811687469,9.41536808013916,-0.457319974899292,1.34909391403198,1.55488801002502,-1089.90002441406,3.30000019073486,-923.700012207031,2.63339818753376,-0.110729568883311,0.158290720776957,ST
1.16666666666667,-1.12331247329712,-1.52586269378662,9.33402061462402,-0.480185985565186,1.41769194602966,1.57013201713562,-1089.90002441406,6.30000019073486,-909.300048828125,2.62442753701094,-0.121015740604502,0.162563387384459,ST
1.2,-1.26267981529236,-1.52227389812469,9.29454326629639,-0.556405961513519,1.53202199935913,1.60061991214752,-1080.30004882812,-2.70000004768372,-916.500061035156,2.61397803792919,-0.136290132712236,0.162991389021446,ST
1.23333333333333,-1.43733751773834,-1.53483486175537,9.23652362823486,-0.533540010452271,1.53964400291443,1.72257196903229,-1077.90002441406,2.70000004768372,-928.500061035156,2.6029052952322,-0.155374812953978,0.165192096103648,ST
1.26666666666667,-1.41460812091827,-1.53304040431976,9.25028133392334,-0.685979962348938,1.81403601169586,1.82927989959717,-1065.90002441406,2.10000014305115,-935.700012207031,2.59186404021295,-0.153402634092455,0.165027630174238,ST
1.3,-1.71188521385193,-1.57730305194855,9.30231952667236,-0.853663980960846,2.17989206314087,2.01220798492432,-1065.90002441406,2.70000004768372,-928.500061035156,2.58045547425908,-0.183577069329535,0.168899516347131,ST
1.33333333333333,-1.67061328887939,-1.70470750331879,9.06366062164307,-0.975615978240967,2.35519790649414,2.02745199203491,-1061.10009765625,2.70000004768372,-923.700012207031,2.57187820853539,-0.183892866496867,0.186958047013479,ST
1.36666666666667,-1.76930689811707,-1.746577501297,9.31787109375,-1.15092194080353,2.65245604515076,2.09605002403259,-1068.30004882812,1.5,-935.700012207031,2.55971554634732,-0.189690561506333,0.186777976383018,ST
1.4,-1.73581087589264,-1.81596207618713,9.33282470703125,-1.15092194080353,2.67532205581665,2.17989206314087,-1039.5,2.10000014305115,-921.300048828125,2.54844225478815,-0.185921600540034,0.193593988732843,ST
1.43333333333333,-1.78964376449585,-1.93379616737366,9.2401123046875,-1.19665396213531,2.62959003448486,2.0655620098114,-1049.10009765625,0.900000035762787,-933.300048828125,2.5394330463341,-0.192530218072203,0.20777276276523,ST
1.46666666666667,-2.46853613853455,-1.85364508628845,9.13782978057861,-1.18140995502472,3.11739802360535,2.04269599914551,-1044.30004882812,-5.10000038146973,-923.700012207031,2.52683553627429,-0.264268351506895,0.201608530164575,ST
1.5,-2.69104528427124,-1.82254159450531,8.85371208190918,-1.10518991947174,3.65093803405762,2.18751406669617,-1032.30004882812,9.30000019073486,-938.100036621094,2.51606388742952,-0.296099666765754,0.20417737336769,ST
1.53333333333333,-2.8022997379303,-1.86142086982727,8.67546558380127,-1.07470202445984,3.90246391296387,2.20275783538818,-1034.70007324219,-0.300000011920929,-916.500061035156,2.5074551093657,-0.31323883810001,0.212411716498684,ST
1.56666666666667,-3.01224803924561,-2.05880808830261,8.67606353759766,-0.975615978240967,3.26983785629272,1.60824191570282,-1025.10009765625,3.90000009536743,-930.900024414062,2.50630445174574,-0.331869219527731,0.234080169693899,ST
1.6,-3.45008873939514,-2.18082928657532,8.98111629486084,-0.807931959629059,2.79727387428284,1.37958192825317,-1027.5,3.90000009536743,-938.100036621094,2.50166360456652,-0.362342603181273,0.239133223730576,ST
1.63333333333333,-3.92920112609863,-1.94934797286987,8.84832859039307,-0.457319974899292,1.92074394226074,1.6920839548111,-1005.90002441406,4.5,-933.300048828125,2.48391208961716,-0.412749790215514,0.216855372199769,ST
1.66666666666667,-4.03507232666016,-1.93020737171173,8.56181812286377,-0.3125019967556,1.61586391925812,2.00458598136902,-1017.90002441406,8.10000038146973,-942.900024414062,2.47461522192385,-0.434271490167513,0.220955137248887,ST
1.7,-3.9196310043335,-2.00676965713501,8.17003440856934,-0.3125019967556,1.76068198680878,1.21951997280121,-1017.90002441406,5.10000038146973,-930.900024414062,2.47668058021017,-0.439470947706303,0.240681976873246,ST
1.73333333333333,-4.43343591690063,-1.85723388195038,8.37041282653809,0.160062000155449,1.63872992992401,0.693601965904236,-1003.50006103516,4.5,-930.900024414062,2.46504754324154,-0.480041550488061,0.217905215276477,ST
1.76666666666667,-4.65714120864868,-1.61857485771179,8.05220031738281,1.00610399246216,1.60824191570282,1.14329993724823,-1010.70001220703,10.5,-933.300048828125,2.45300533584058,-0.51874418075924,0.195938562179874,ST
1.8,-4.61048603057861,-1.48160016536713,7.94812393188477,1.28811800479889,1.27287399768829,1.42531394958496,-998.700012207031,5.70000028610229,-938.100036621094,2.44301023390652,-0.520875313302768,0.18099928605662,ST
1.83333333333333,-4.78813457489014,-1.12749946117401,7.71843671798706,1.20427596569061,0.556405961513519,1.52439999580383,-998.700012207031,7.50000047683716,-928.500061035156,2.41883627976417,-0.551621574656661,0.141748384840549,ST
1.86666666666667,-4.51119422912598,-1.1376678943634,7.56232166290283,0.221037998795509,-0.121951997280121,1.34147191047668,-991.500061035156,3.30000019073486,-928.500061035156,2.41374129266564,-0.533164625298237,0.147525162109511,ST
1.9,-4.25758171081543,-1.31890523433685,8.11680030822754,-0.6250039935112,-1.10518991947174,0.282013982534409,-996.300048828125,5.10000038146973,-930.900024414062,2.41577909697724,-0.476389431524319,0.161647478140915,ST
1.93333333333333,-4.25937604904175,-1.61797678470612,7.90027236938477,-0.746955990791321,-2.0579400062561,-0.556405961513519,-1005.90002441406,7.50000047683716,-945.300048828125,2.43343353038625,-0.482178178659739,0.203088009729571,ST
1.96666666666667,-4.27492761611938,-1.82912123203278,7.97803115844727,-0.777444005012512,-1.6768399477005,-0.685979962348938,-1013.10003662109,9.90000057220459,-930.900024414062,2.44376140572014,-0.478230408961172,0.226802175170873,ST
2.0,-4.22348737716675,-1.93678689002991,8.1843900680542,-0.259148001670837,-1.40244793891907,-0.754577994346619,-1005.90002441406,9.90000057220459,-940.500061035156,2.44848142779308,-0.462786857049668,0.233144077234017,ST
2.03333333333333,-3.7072901725769,-2.08572459220886,8.3997220993042,0.403965979814529,-2.0731840133667,-1.14329993724823,-1008.30004882812,5.70000028610229,-945.300048828125,2.45811267840018,-0.401006917413862,0.243089266284467,ST
2.06666666666667,-3.75573968887329,-2.08273386955261,8.81662750244141,1.15854394435883,-2.66007804870605,-1.28049600124359,-1010.70001220703,4.5,-930.900024414062,2.46056471192511,-0.388064492453202,0.230493153471174,ST
2.1,-3.20006489753723,-1.9068797826767,8.69640064239502,1.43293595314026,-3.07928800582886,-1.18140995502472,-1001.10003662109,1.5,-933.300048828125,2.46119645301898,-0.339765670963938,0.213799054630732,ST
2.13333333333333,-3.53263235092163,-1.64130425453186,9.27779579162598,1.51677799224854,-2.9116039276123,-0.571649968624115,-1003.50006103516,8.10000038146973,-933.300048828125,2.45108188390116,-0.353429997956819,0.172822941026321,ST
2.16666666666667,-2.81486082077026,-1.23217451572418,8.5905294418335,1.37195992469788,-2.72105383872986,0.198172003030777,-1020.30004882812,5.70000028610229,-938.100036621094,2.43943290515882,-0.309296127883418,0.139965089610565,ST
2.2,-2.55466866493225,-0.922934591770172,7.68374443054199,0.884151995182037,-2.14940404891968,0.381099998950958,-1029.90002441406,7.50000047683716,-926.100036621094,2.43013849775278,-0.315162091543516,0.117765477949899,ST
2.23333333333333,-2.88903045654297,-0.962412059307098,7.54019021987915,0.0152439996600151,-0.792688012123108,0.754577994346619,-1017.90002441406,5.10000038146973,-933.300048828125,2.42718485974514,-0.361732735862616,0.126316176807451,ST
2.26666666666667,-3.40104103088379,-1.18910825252533,8.98709774017334,-0.419209986925125,-0.541162014007568,0.304879993200302,-1039.5,7.50000047683716,-923.700012207031,2.4254477754352,-0.35806748300486,0.132009557435032,ST
2.3,-4.0536150932312,-1.45109486579895,9.67316818237305,-0.556405961513519,0.304879993200302,-1.08994603157043,-1020.30004882812,6.30000019073486,-926.100036621094,2.43835849268319,-0.392918544253097,0.150576089530682,ST
2.33333333333333,-5.78464078903198,-2.17006278038025,10.5644016265869,-1.12805593013763,2.62959003448486,-1.46342396736145,-1020.30004882812,9.30000019073486,-938.100036621094,2.47061830565641,-0.495445776701191,0.205922285043813,ST
2.36666666666667,-7.19625806808472,-2.86570286750793,11.7445373535156,-1.48628997802734,3.69666981697083,-1.93598794937134,-1017.90002441406,11.7000007629395,-930.900024414062,2.50091008431613,-0.542002822100108,0.244485253308293,ST
2.4,-6.78054857254028,-3.02839779853821,11.8222961425781,-1.27287399768829,0.823175966739655,-2.60672402381897,-1003.50006103516,7.50000047683716,-928.500061035156,2.52001616591941,-0.50751316114182,0.255598160280628,ST
2.43333333333333,-4.92391300201416,-3.77547836303711,10.8377523422241,-1.37195992469788,-2.96495795249939,-2.40855193138123,-1025.10009765625,4.5,-933.300048828125,2.56109018250101,-0.399646396415592,0.338125434518736,ST
2.46666666666667,-2.37941265106201,-4.41489315032959,9.377685546875,-1.70732796192169,-2.99544596672058,-1.59299790859222,-1010.70001220703,5.70000028610229,-947.700012207031,2.59148470022248,-0.220994947482391,0.442373735424218,ST
2.5,-0.814072608947754,-5.404221534729,9.26822566986084,-1.64635193347931,-1.78354799747467,0.205793991684914,-1015.50006103516,11.1000003814697,-942.900024414062,2.5950009523174,-0.0738126484941597,0.530286406425128,ST
2.53333333333333,-1.67779099941254,-4.87965059280396,9.28856182098389,-0.487807989120483,0.37347799539566,1.50915598869324,-1025.10009765625,11.1000003814697,-930.900024414062,2.58053450589452,-0.159964321683079,0.484464444865944,ST
2.56666666666667,-1.04256319999695,-4.52435350418091,9.19704627990723,0.586893975734711,0.114329993724823,2.55336999893188,-1029.90002441406,11.1000003814697,-928.500061035156,2.56055043508797,-0.103778600650162,0.455872764803003,ST
2.6,-1.28720366954803,-4.12479400634766,8.32555198669434,0.92988395690918,-0.365855991840363,3.02593398094177,-1025.10009765625,6.30000019073486,-933.300048828125,2.54187746122516,-0.13913105896959,0.45765753790055,ST
2.63333333333333,-1.83330821990967,-3.47042560577393,8.47030258178711,0.815553963184357,0.472563982009888,3.88721990585327,-1027.5,11.1000003814697,-928.500061035156,2.50791451860408,-0.200505317131985,0.386823553317916,ST
2.66666666666667,-2.0851263999939,-3.18989658355713,8.05399513244629,1.2576299905777,0.381099998950958,4.28356409072876,-1020.30004882812,8.10000038146973,-933.300048828125,2.48108524103221,-0.239240340007168,0.373398314456296,ST
2.7,-2.70300817489624,-3.28858995437622,7.48575925827026,1.27287399768829,1.31860601902008,4.17685604095459,-1027.5,8.70000076293945,-930.900024414062,2.47172617566463,-0.323596154068117,0.409492321403493,ST
2.73333333333333,-3.13546538352966,-3.25808477401733,6.93247699737549,1.6920839548111,2.31708788871765,3.90246391296387,-1003.50006103516,5.10000038146973,-928.500061035156,2.46811449961377,-0.394479283408548,0.434334117247299,ST
2.76666666666667,-3.83529281616211,-3.33105826377869,6.51317882537842,1.74543797969818,3.24697184562683,3.353679895401,-1005.90002441406,15.9000005722046,-926.100036621094,2.47828057743184,-0.489787095079902,0.46801536981883,ST
2.8,-4.92570734024048,-1.84885990619659,7.67178153991699,2.82013988494873,1.59299790859222,4.17685604095459,-1022.70001220703,9.30000019073486,-942.900024414062,2.34713557126488,-0.561949061988718,0.229570870543411,ST
2.83333333333333,-4.3126106262207,-2.06239700317383,6.14591884613037,3.03355598449707,0.693601965904236,4.71039581298828,-1010.70001220703,11.1000003814697,-935.700012207031,2.3785653028765,-0.590568312572141,0.313015757738736,ST
2.86666666666667,-4.30363845825195,-1.48877787590027,7.00365591049194,2.16464805603027,0.198172003030777,4.18447780609131,-1003.50006103516,5.70000028610229,-930.900024414062,2.30271303476918,-0.543369568058329,0.202132877683937,ST
2.9,-4.70319795608521,-0.78177285194397,7.07124614715576,2.37806391716003,-0.0152439996600151,4.1311240196228,-1003.50006103516,6.30000019073486,-926.100036621094,2.23324612179349,-0.58464186907182,0.101806560710117,ST
2.93333333333333,-4.46453905105591,-0.936093747615814,8.00734043121338,1.44817996025085,-0.853663980960846,3.14788603782654,-998.700012207031,3.30000019073486,-921.300048828125,2.22359370014278,-0.505527622990535,0.110651672648728,ST
2.96666666666667,-4.80906963348389,-0.650181412696838,8.16824054718018,1.53202199935913,-1.76830399036407,2.11129403114319,-993.900024414062,4.5,-933.300048828125,2.19765621635965,-0.527752557688382,0.0747746528513427,ST
3.0,-4.01413726806641,-0.928317904472351,8.50020980834961,1.45580196380615,-1.61586391925812,1.72257196903229,-1017.90002441406,5.10000038146973,-928.500061035156,2.20431479038145,-0.437168560501206,0.104459694208196,ST
3.03333333333333,-4.19537496566772,-0.235070183873177,8.18797874450684,1.63872992992401,-1.98934197425842,0.754577994346619,-1008.30004882812,5.70000028610229,-926.100036621094,2.16964192380235,-0.469645939981255,0.0257819826052433,ST
3.06666666666667,-4.44838905334473,-0.242846041917801,7.43611335754395,1.43293595314026,-1.19665396213531,1.47104597091675,-1008.30004882812,7.50000047683716,-926.100036621094,2.16689036818871,-0.536309140188145,0.0285561173511019,ST
3.1,-5.11412239074707,-0.908579170703888,6.98750638961792,-0.434453994035721,1.22714197635651,1.82165801525116,-1020.30004882812,0.300000011920929,-923.700012207031,2.20999351932382,-0.629592877865102,0.127101556150427,ST
3.13333333333333,-4.99868059158325,-1.38769173622131,9.20362567901611,-1.46342396736145,-0.442075997591019,1.15092194080353,-1003.50006103516,3.30000019073486,-923.700012207031,2.21043422810349,-0.493508748007542,0.150872380442337,ST
3.16666666666667,-4.58775663375854,-1.09460163116455,9.28975868225098,-0.449698001146317,-4.76375007629395,0.0685980021953583,-1013.10003662109,5.70000028610229,-911.700012207031,2.18958739506418,-0.448004858254461,0.117730548502794,ST
3.2,-3.73420667648315,-0.899008870124817,8.39493656158447,0.533540010452271,-6.39485788345337,0.228659987449646,-1027.5,3.30000019073486,-935.700012207031,2.17980913087521,-0.405607369730618,0.105139823638213,ST
3.23333333333333,-3.00028514862061,-0.519188106060028,8.27112102508545,0.670735955238342,-5.61741399765015,0.0152439996600151,-1039.5,2.10000014305115,-938.100036621094,2.16289335009718,-0.338127363471769,0.0616406223144971,ST
3.26666666666667,-1.7806715965271,-0.267369896173477,7.92359972000122,0.487807989120483,-4.09301376342773,-0.0152439996600151,-1041.90002441406,5.10000038146973,-933.300048828125,2.15491497719419,-0.214814813468182,0.0330588373789825,ST
3.3,-0.213537037372589,-0.369054228067398,7.12328481674194,-0.236281991004944,-4.23783206939697,-0.685979962348938,-1051.5,3.30000019073486,-928.500061035156,2.16041173952122,-0.0240620475063821,0.0520459517389797,ST
3.33333333333333,0.480308800935745,-0.491075366735458,8.39134788513184,-0.510673999786377,-4.48935794830322,-1.61586391925812,-1065.90002441406,-0.300000011920929,-930.900024414062,2.16977872826428,0.0643357030359801,0.0591442451637569,ST
3.36666666666667,1.58149003982544,-0.47851437330246,9.39084434509277,0.541162014007568,-5.42686367034912,-2.39330792427063,-1053.90002441406,0.300000011920929,-933.300048828125,2.18607031038214,0.175766620989681,0.0493696991861266,ST
3.4,2.29447650909424,-1.51090919971466,9.74255275726318,-0.304879993200302,-4.26069784164429,-3.49849796295166,-1068.30004882812,7.50000047683716,-935.700012207031,2.1851977798116,0.236422847087172,0.152357856374915,ST
3.43333333333333,1.14903259277344,-2.18082928657532,10.04700756073,-0.403965979814529,-2.85062789916992,-3.53660798072815,-1065.90002441406,3.30000019073486,-935.700012207031,2.19467805180702,0.118439614755733,0.213343753477115,ST
3.46666666666667,-0.0753660127520561,-2.61328673362732,10.2760963439941,0.0838419944047928,-0.6250039935112,-1.91312193870544,-1080.30004882812,9.30000019073486,-921.300048828125,2.20445259158468,-0.0042175090620421,0.248593074949435,ST
3.5,-1.12151801586151,-2.44461035728455,10.2659282684326,0.525918006896973,0.106707997620106,-0.205793991684914,-1080.30004882812,-8.10000038146973,-918.900024414062,2.20543480989862,-0.105142806830346,0.23302771105563,ST
3.53333333333333,-1.05871307849884,-2.14793133735657,10.0912704467773,1.2423859834671,-0.167683988809586,0.266770005226135,-1065.90002441406,-2.10000014305115,-928.500061035156,2.20166087173482,-0.102092746746194,0.207708116427601,ST
3.56666666666667,-1.81775653362274,-1.36017715930939,10.2264499664307,2.40855193138123,0.388722002506256,0.198172003030777,-1065.90002441406,3.90000009536743,-935.700012207031,2.19239565790669,-0.174533058451186,0.128640951511723,ST
3.6,-2.07256531715393,-0.318212062120438,8.42723655700684,3.02593398094177,1.85214591026306,2.03507399559021,-1075.5,2.10000014305115,-921.300048828125,2.16409706572163,-0.24378120233177,0.0324204320706299,ST
3.63333333333333,-2.36266469955444,-0.572422802448273,9.02478122711182,1.30336201190948,2.43141794204712,1.37958192825317,-1063.5,-0.900000035762787,-933.300048828125,2.16497376872806,-0.259808776514835,0.0602708695726288,ST
3.66666666666667,-4.06916666030884,-0.751865744590759,9.84961986541748,0.358233988285065,1.10518991947174,2.03507399559021,-1073.10009765625,-1.5,-928.500061035156,2.15764064142415,-0.391843248274816,0.0740526904119663,ST
3.7,-4.17264556884766,-0.187816888093948,10.9334554672241,0.472563982009888,0.0762199983000755,3.3460578918457,-1065.90002441406,0.900000035762787,-926.100036621094,2.11531807260305,-0.364986804965652,0.014599301537806,ST
3.73333333333333,-3.380704164505,0.231481328606606,10.1451025009155,0.846041977405548,0.571649968624115,3.59758400917053,-1061.10009765625,-2.10000014305115,-923.700012207031,2.07994739732381,-0.322776625540353,-0.0260767669593592,ST
3.76666666666667,-3.99679136276245,0.365465342998505,9.56131553649902,-0.0076219998300075,1.85976791381836,1.89025592803955,-1073.10009765625,3.30000019073486,-933.300048828125,2.06224253679997,-0.398276578031237,-0.0395275157259759,ST
3.8,-4.11223316192627,0.0221312902867794,10.2270488739014,-1.08232402801514,1.47866797447205,0.586893975734711,-1053.90002441406,0.300000011920929,-923.700012207031,2.07026108183881,-0.384998851256418,-0.0010092299196455,ST
3.83333333333333,-3.39984464645386,-0.116039738059044,9.83227443695068,-1.15092194080353,0.0304879993200302,-0.891773998737335,-1053.90002441406,-6.30000019073486,-935.700012207031,2.07872243398507,-0.333351564688925,0.014226955315839,ST
3.86666666666667,-2.86988997459412,-0.632237136363983,8.40091800689697,-1.61586391925812,-0.228659987449646,-2.5076379776001,-1056.30004882812,2.10000014305115,-935.700012207031,2.1123625306546,-0.327643858054715,0.078877128014235,ST
3.9,-3.36874127388,-1.34103655815125,8.6981954574585,-2.08842802047729,0.327746003866196,-2.0579400062561,-1061.10009765625,2.70000004768372,-930.900024414062,2.14749146122355,-0.36527481383028,0.157343393818013,ST
3.93333333333333,-2.8100757598877,-1.64010798931122,9.1330451965332,-1.53202199935913,0.282013982534409,-1.82927989959717,-1051.5,-0.300000011920929,-928.500061035156,2.16412431492677,-0.294556307594231,0.181153392996061,ST
3.96666666666667,-2.98114466667175,-1.01624488830566,9.05229568481445,-0.442075997591019,0.731711983680725,-1.91312193870544,-1053.90002441406,-1.5,-942.900024414062,2.15614484748928,-0.316985223974974,0.114256649496222,ST
4.0,-2.71437287330627,-0.942075192928314,8.64914703369141,-0.647870004177094,1.03659200668335,-1.63110792636871,-1051.5,1.5,-923.700012207031,2.16511193566127,-0.304007829900456,0.11060488238971,ST
4.03333333333333,-2.25858783721924,-1.54141438007355,9.04571628570557,-1.65397393703461,0.716467976570129,-1.71494996547699,-1061.10009765625,2.10000014305115,-933.300048828125,2.190828631605,-0.24257980455262,0.171957487794173,ST
4.06666666666667,-1.9768625497818,-2.28729867935181,9.43331241607666,-1.54726600646973,-0.282013982534409,-3.12502002716064,-1061.10009765625,6.90000009536743,-923.700012207031,2.2239176823796,-0.199507265269586,0.241069740916192,ST
4.1,-2.18561434745789,-2.41051626205444,9.17012977600098,-0.922261953353882,0.190549999475479,-2.54574799537659,-1044.30004882812,4.5,-938.100036621094,2.24336369049754,-0.225522134023703,0.259508321039753,ST
4.13333333333333,-2.5098078250885,-2.61388468742371,9.15457820892334,-0.243903994560242,1.57013201713562,-1.12043392658234,-1049.10009765625,3.90000009536743,-921.300048828125,2.25771613433727,-0.259575428234309,0.279085424739513,ST
4.16666666666667,-2.84177732467651,-2.16826820373535,8.93266677856445,0.228659987449646,2.01982998847961,-0.274392008781433,-1037.10009765625,9.90000057220459,-928.500061035156,2.25194160353307,-0.302791520223259,0.238472945157026,ST
4.2,-2.8561327457428,-1.67001521587372,9.63488674163818,0.0304879993200302,1.76830399036407,0.487807989120483,-1037.10009765625,6.90000009536743,-928.500061035156,2.23168818056254,-0.287495856096472,0.172024320827238,ST
4.23333333333333,-2.63242721557617,-1.38769173622131,9.44766807556152,-0.0,0.907018005847931,0.213415995240211,-1046.70007324219,7.50000047683716,-935.700012207031,2.2240347924685,-0.270752798614758,0.146013962912317,ST
4.26666666666667,-2.22808265686035,-1.28421294689178,7.82909345626831,-1.33385002613068,1.69970595836639,-0.0304879993200302,-1039.5,6.30000019073486,-945.300048828125,2.22864100459792,-0.276654721803363,0.164906150648447,ST
4.3,-2.73291516304016,-2.27234506607056,8.47508811950684,-1.91312193870544,2.70580983161926,0.221037998795509,-1044.30004882812,4.5,-923.700012207031,2.25632455403958,-0.306406364082825,0.264871085109205,ST
4.33333333333333,-3.27303838729858,-2.85972166061401,8.40989017486572,-1.19665396213531,1.71494996547699,-0.0838419944047928,-1041.90002441406,8.70000076293945,-930.900024414062,2.27879538459727,-0.355588114679776,0.329958948350964,ST
4.36666666666667,-3.71626234054565,-2.66532516479492,8.06476211547852,-0.449698001146317,1.38720393180847,0.297257989645004,-1027.5,5.10000038146973,-947.700012207031,2.2748778354873,-0.414557885839284,0.320150293480394,ST
4.4,-4.33713483810425,-2.095294713974,8.05878067016602,0.236281991004944,2.37044191360474,0.92988395690918,-1027.5,5.70000028610229,-926.100036621094,2.24516349133912,-0.484224873309603,0.254071573001704,ST
4.43333333333333,-4.40472507476807,-1.95174050331116,7.78303623199463,0.396344006061554,3.21648383140564,1.14329993724823,-1015.50006103516,2.70000004768372,-921.300048828125,2.24007637119071,-0.507799094169198,0.244757919777551,ST
4.46666666666667,-4.36165857315063,-1.8889354467392,7.54198455810547,0.327746003866196,2.79727387428284,-0.0152439996600151,-1020.30004882812,3.90000009536743,-942.900024414062,2.24573946098274,-0.515903837564265,0.245516354990236,ST
4.5,-4.86469697952271,-1.58448076248169,8.04861164093018,-0.0533539988100529,1.81403601169586,-0.983237981796265,-1005.90002441406,14.1000003814697,-921.300048828125,2.22912913996234,-0.537927094680143,0.196125987906771,ST
4.53333333333333,-3.97765064239502,-1.56474196910858,8.32734680175781,0.0762199983000755,-0.129574000835419,-1.07470202445984,-996.300048828125,11.1000003814697,-921.300048828125,2.23143696954394,-0.439017850562113,0.186519361125603,ST
4.56666666666667,-3.51708078384399,-1.49475932121277,7.5970139503479,0.365855991840363,-2.5076379776001,-1.84452390670776,-1010.70001220703,6.90000009536743,-928.500061035156,2.24451455095715,-0.421583685599486,0.194619935303641,ST
4.6,-3.35259127616882,-1.49117040634155,8.36443138122559,0.762199997901917,-3.3689239025116,-1.63872992992401,-1005.90002441406,6.30000019073486,-930.900024414062,2.24623541764625,-0.369842939414277,0.17589125957709,ST
4.63333333333333,-1.63711726665497,-1.95592749118805,8.63479232788086,1.2500079870224,-5.38875389099121,-3.60520601272583,-1008.30004882812,3.30000019073486,-938.100036621094,2.27804007940494,-0.173237102749741,0.221106888739381,ST
4.66666666666667,-2.14852952957153,-1.73760533332825,8.35007572174072,1.49391198158264,-5.68601179122925,-3.46038794517517,-1025.10009765625,9.30000019073486,-940.500061035156,2.29271404342108,-0.235476224723038,0.203586281573765,ST
4.7,-1.68736135959625,-2.14733338356018,8.74784088134766,0.777444005012512,-3.83386588096619,-1.6692179441452,-1037.10009765625,13.5000009536743,-928.500061035156,2.30633782909081,-0.178386872204064,0.239336546845204,ST
4.73333333333333,-1.67360401153564,-1.91764640808105,9.11988544464111,0.731711983680725,-2.10367202758789,-1.74543797969818,-1032.30004882812,15.9000005722046,-930.900024414062,2.31004957251329,-0.173509960815904,0.206634767063281,ST
4.76666666666667,-1.52107763290405,-1.85603761672974,8.85371208190918,0.823175966739655,-0.632625997066498,-1.89787793159485,-1029.90002441406,9.30000019073486,-933.300048828125,2.32261703495166,-0.164901212479842,0.205715168457946,ST
4.8,-2.21492338180542,-2.26576566696167,9.82748889923096,0.792688012123108,0.106707997620106,-2.53050398826599,-1034.70007324219,3.30000019073486,-923.700012207031,2.34662087711396,-0.215182405750578,0.226074183123132,ST
4.83333333333333,-2.21671795845032,-2.49844312667847,10.0852890014648,0.640248000621796,-0.701223969459534,-2.72867584228516,-1039.5,12.9000005722046,-914.100036621094,2.36940965215428,-0.207900905036052,0.242560441733998,ST
4.86666666666667,-1.88534665107727,-2.50920987129211,9.74015998840332,-0.0228659994900227,-1.11281192302704,-2.70580983161926,-1034.70007324219,8.10000038146973,-938.100036621094,2.38729322568896,-0.182444032944144,0.252846357041709,ST
4.9,-1.7405960559845,-3.10077309608459,9.7957878112793,-0.724089980125427,-0.449698001146317,-2.12653803825378,-1041.90002441406,0.900000035762787,-930.900024414062,2.40897297451427,-0.166082531892561,0.307927737801555,ST
4.93333333333333,-1.60362136363983,-3.45307946205139,9.90764045715332,-0.724089980125427,-0.221037998795509,-1.82165801525116,-1041.90002441406,2.70000004768372,-938.100036621094,2.42403894752653,-0.1503851249569,0.336824875525083,ST
4.96666666666667,-1.54500329494476,-3.74497318267822,9.41357421875,-0.541162014007568,0.617381989955902,-1.48628997802734,-1046.70007324219,-0.300000011920929,-933.300048828125,2.44123585973669,-0.151371939445403,0.379708804724896,ST
5.0,-2.24782133102417,-4.18999147415161,9.13483905792236,-0.350611984729767,1.6920839548111,-1.46342396736145,-1049.10009765625,2.10000014305115,-926.100036621094,2.46395845871367,-0.221091678589247,0.431022230963622,DLL
5.03333333333333,-2.88723611831665,-3.89091992378235,8.97453689575195,0.274392008781433,1.6920839548111,0.106707997620106,-1039.5,8.10000038146973,-938.100036621094,2.46280422863951,-0.289238861228534,0.40909400910985,DLL
5.06666666666667,-2.71616721153259,-3.47999572753906,8.28427982330322,0.868907988071442,1.33385002613068,1.53964400291443,-1037.10009765625,-0.900000035762787,-935.700012207031,2.45448923697247,-0.296692036329497,0.395767651681342,DLL
5.1,-2.88304901123047,-2.94705033302307,8.32555198669434,0.701223969459534,1.16616594791412,2.43903994560242,-1029.90002441406,5.70000028610229,-933.300048828125,2.42547366398572,-0.318750178923322,0.338221937364563,DLL
5.13333333333333,-2.92372274398804,-2.4996395111084,8.41886234283447,0.525918006896973,1.01372599601746,3.10215401649475,-1041.90002441406,0.900000035762787,-926.100036621094,2.39177932978311,-0.324579658311127,0.286420768767392,DLL
5.16666666666667,-2.34591674804688,-2.31242084503174,8.26932621002197,0.243903994560242,0.899396002292633,3.04117798805237,-1025.10009765625,7.50000047683716,-940.500061035156,2.36834541827729,-0.269893558145386,0.271015649774209,DLL
5.2,-2.79930901527405,-2.58637022972107,8.58215522766113,-0.304879993200302,1.2576299905777,2.63721203804016,-1017.90002441406,3.30000019073486,-935.700012207031,2.35928018339488,-0.305834046746608,0.29188163633069,DLL
5.23333333333333,-3.38847994804382,-2.43145108222961,9.22456073760986,-0.221037998795509,0.762199997901917,3.22410583496094,-1025.10009765625,3.30000019073486,-926.100036621094,2.32848656880241,-0.343711381471742,0.256584550482383,DLL
5.26666666666667,-2.9422652721405,-2.69642853736877,9.34478759765625,0.0381099991500378,0.358233988285065,3.47563195228577,-1025.10009765625,14.1000003814697,-935.700012207031,2.31291428153392,-0.296301295943337,0.278991682904371,DLL
5.3,-3.19169092178345,-2.37283325195312,8.61505317687988,0.396344006061554,0.0762199983000755,3.00306797027588,-1017.90002441406,3.90000009536743,-935.700012207031,2.28995198646366,-0.344291347693514,0.266353884588308,DLL
5.33333333333333,-3.08342695236206,-2.49006915092468,8.03904151916504,0.411587983369827,0.92988395690918,3.42989993095398,-1020.30004882812,6.30000019073486,-930.900024414062,2.28033183229037,-0.354451350406484,0.297570480392399,DLL
5.36666666666667,-3.39924645423889,-2.53492999076843,8.55583667755127,0.434453994035721,1.15092194080353,3.41465592384338,-1015.50006103516,5.70000028610229,-930.900024414062,2.25696903765373,-0.367495517097644,0.285374347093376,DLL
5.4,-3.08581948280334,-2.35608506202698,7.75791454315186,0.586893975734711,0.884151995182037,2.9268479347229,-1013.10003662109,6.30000019073486,-935.700012207031,2.2434599381959,-0.366624154600219,0.292081049423033,DLL
5.43333333333333,-3.39685392379761,-2.82263660430908,8.32016849517822,-0.190549999475479,1.28049600124359,3.07166600227356,-1005.90002441406,5.10000038146973,-952.500061035156,2.23733794736889,-0.372723583404925,0.325537910801982,DLL
5.46666666666667,-3.24313116073608,-2.74786877632141,8.44219017028809,-0.144817993044853,0.144817993044853,3.26221585273743,-1010.70001220703,3.90000009536743,-933.300048828125,2.21215895115451,-0.352369623731809,0.313048955238393,DLL
5.5,-2.95602250099182,-2.57141661643982,8.34230041503906,0.320124000310898,-1.05945801734924,3.68142580986023,-1015.50006103516,7.50000047683716,-930.900024414062,2.18004893867557,-0.326732115749663,0.296247672396738,DLL
5.53333333333333,-2.60192203521729,-2.28610253334045,8.51635932922363,1.00610399246216,-1.76068198680878,3.7805118560791,-1017.90002441406,0.300000011920929,-930.900024414062,2.14356249648006,-0.285995013236164,0.258684143077209,DLL
5.56666666666667,-2.64498829841614,-2.09649109840393,8.75501823425293,1.40244793891907,-1.64635193347931,3.62807202339172,-1017.90002441406,13.5000009536743,-928.500061035156,2.10962750885289,-0.28442588543302,0.230701051107874,DLL
5.6,-2.66113805770874,-1.81835460662842,8.82141208648682,1.76068198680878,-1.63872992992401,3.30794787406921,-1008.30004882812,8.70000076293945,-926.100036621094,2.07907969701629,-0.285619331567121,0.19856281353118,DLL
5.63333333333333,-2.63781046867371,-1.17953789234161,8.98530387878418,1.95885396003723,-2.14178204536438,1.89787793159485,-1022.70001220703,6.90000009536743,-930.900024414062,2.04754652445873,-0.280000082612285,0.126434933066625,DLL
5.66666666666667,-2.51040601730347,-1.18671560287476,8.476881980896,1.63110792636871,-2.33995389938354,1.34147191047668,-1017.90002441406,2.70000004768372,-935.700012207031,2.04154895922381,-0.281550401068007,0.135366841953507,DLL
5.7,-3.24731826782227,-1.20346367359161,8.93446159362793,1.15854394435883,-2.30946588516235,1.34147191047668,-1020.30004882812,11.7000007629395,-933.300048828125,2.03205104297191,-0.341554567735795,0.130896964652756,DLL
5.73333333333333,-3.2628698348999,-0.852951884269714,9.19405555725098,1.15092194080353,-2.70580983161926,1.83690190315247,-1027.5,-1.5,-921.300048828125,2.00727521365676,-0.335317812830473,0.0895728849058896,DLL
5.76666666666667,-3.36993741989136,-0.52038437128067,8.37759017944336,0.449698001146317,-3.23934984207153,3.02593398094177,-1034.70007324219,2.70000004768372,-930.900024414062,1.97694328914285,-0.376124315233834,0.0592930217831545,DLL
5.8,-4.19716930389404,-0.229088753461838,8.67127895355225,-0.518296003341675,-3.71191382408142,4.99240970611572,-1041.90002441406,6.90000009536743,-916.500061035156,1.92690505655561,-0.444003489250526,0.0233232497179938,DLL
5.83333333333333,-4.10505533218384,0.180639177560806,8.95479869842529,-1.75305998325348,-4.93143367767334,7.85828161239624,-1044.30004882812,11.1000003814697,-938.100036621094,1.84843480941279,-0.420958640969032,-0.0229618575295637,DLL
5.86666666666667,-4.47769832611084,0.0047851437702775,8.32555198669434,-3.7728898525238,-5.28966808319092,11.1967182159424,-1051.5,9.90000057220459,-921.300048828125,1.77103967213548,-0.483760595468856,-0.0043148379294468,DLL
5.9,-3.07086610794067,-1.14903259277344,8.42185306549072,-8.05645370483398,-6.87504386901855,15.2897319793701,-1065.90002441406,11.7000007629395,-921.300048828125,1.70538401092064,-0.33952533389667,0.138483771010817,DLL
5.93333333333333,-2.70121359825134,-1.89611327648163,9.53021240234375,-10.0000638961792,-8.01834392547607,15.8766260147095,-1073.10009765625,13.5000009536743,-916.500061035156,1.59216693493793,-0.263614789564786,0.205154922968148,DLL
5.96666666666667,-2.18441820144653,-2.38180541992188,9.39443397521973,-10.3125658035278,-8.01072216033936,15.9452238082886,-1077.90002441406,22.5,-923.700012207031,1.46731446545257,-0.215567434992633,0.259229226638987,DLL
6.0,-0.768015563488007,-2.90996551513672,9.69769191741943,-10.2668333053589,-6.6235179901123,15.4116840362549,-1097.10009765625,17.1000003814697,-909.300048828125,1.35172070442548,-0.0739062817174228,0.306745027372724,DLL
6.03333333333333,-0.342137783765793,-3.00566840171814,9.7898063659668,-8.68145751953125,-5.26680183410645,12.6830081939697,-1080.30004882812,27.3000011444092,-885.300048828125,1.24894986177232,-0.0316773645129297,0.312217985521715,DLL
6.06666666666667,-0.56763768196106,-2.83699202537537,9.65761661529541,-5.44972991943359,-2.58385801315308,8.61285972595215,-1085.10009765625,31.5000019073486,-897.300048828125,1.17826590628679,-0.0562705053967047,0.29443829206037,DLL
6.1,-0.405540943145752,-3.07325863838196,10.018895149231,-3.59758400917053,-0.846041977405548,5.63265800476074,-1094.70007324219,36.3000030517578,-899.700012207031,1.13507309809791,-0.0402799658183826,0.303470318455061,DLL
6.13333333333333,-0.815268874168396,-2.99191117286682,9.27301025390625,-2.14178204536438,0.297257989645004,2.75916385650635,-1080.30004882812,37.5,-892.500061035156,1.11724456788162,-0.0850928814034165,0.315372375778051,DLL
6.16666666666667,-0.946860313415527,-3.13546538352966,10.1122055053711,-1.63110792636871,0.945127964019775,1.78354799747467,-1085.10009765625,40.5,-894.900024414062,1.10542584596321,-0.0916491635931829,0.303385065185989,DLL
6.2,-0.855942606925964,-3.01164984703064,9.73776721954346,-1.2347639799118,1.2423859834671,1.18903195858002,-1085.10009765625,38.7000007629395,-897.300048828125,1.0989207047931,-0.0864954073941658,0.301990738824768,DLL
6.23333333333333,-1.53124594688416,-2.84058094024658,9.46680927276611,-0.754577994346619,3.00306797027588,0.846041977405548,-1068.30004882812,32.1000022888184,-894.900024414062,1.0975122407851,-0.158553302010436,0.292916881681708,DLL
6.26666666666667,-2.03428435325623,-2.96738719940186,9.28617000579834,-0.67835795879364,4.1463680267334,0.350611984729767,-1080.30004882812,34.5,-887.700012207031,1.1060684447593,-0.21235326336303,0.310676212424395,DLL
6.3,-2.32617807388306,-3.09957695007324,8.04681777954102,-1.05183601379395,3.84910988807678,-0.0762199983000755,-1056.30004882812,35.7000007629395,-885.300048828125,1.1282734582896,-0.26938233390443,0.369865143246068,DLL
6.33333333333333,-2.58517384529114,-2.99310731887817,7.75851249694824,-1.09756803512573,2.96495795249939,-0.922261953353882,-1065.90002441406,39.3000030517578,-890.100036621094,1.13984173400071,-0.305435614121301,0.371157615939619,DLL
6.36666666666667,-2.25858783721924,-3.20784068107605,6.84455013275146,-1.39482593536377,1.70732796192169,-1.12805593013763,-1058.70007324219,36.3000030517578,-894.900024414062,1.16904978165079,-0.292327052304828,0.441047379251235,DLL
6.4,-2.21073651313782,-3.44410729408264,6.73449182510376,-1.88263392448425,0.99848198890686,-1.41769194602966,-1051.5,41.1000022888184,-892.500061035156,1.18685966507973,-0.284829390182752,0.476606524110064,DLL
6.43333333333333,-2.67369914054871,-3.86400365829468,7.4893479347229,-1.41006994247437,0.114329993724823,-1.34147191047668,-1049.10009765625,39.3000030517578,-882.900024414062,1.19300239835698,-0.306140904912492,0.479436045258752,DLL
6.46666666666667,-3.01763129234314,-3.69592547416687,7.67058563232422,-0.571649968624115,-0.503051996231079,-0.533540010452271,-1061.10009765625,44.1000022888184,-885.300048828125,1.18418138979376,-0.33913047201748,0.450408397995603,DLL
6.5,-2.37103867530823,-3.9758563041687,7.97683477401733,-0.800309956073761,-1.31860601902008,-0.358233988285065,-1073.10009765625,44.1000022888184,-885.300048828125,1.18476908974559,-0.258334839527433,0.463552131666173,DLL
6.53333333333333,-2.30344867706299,-4.45317459106445,8.34469223022461,-1.51677799224854,-2.03507399559021,-0.647870004177094,-1058.70007324219,44.7000007629395,-894.900024414062,1.18680090442424,-0.235405536498385,0.49245372202718,DLL
6.56666666666667,-2.16647386550903,-4.48427772521973,8.46192836761475,-1.70732796192169,-1.76068198680878,0.25152599811554,-1070.70007324219,41.7000007629395,-873.300048828125,1.17622561196495,-0.220079948485713,0.489895810920432,DLL
6.6,-1.45707631111145,-4.75224590301514,8.70955944061279,-1.41006994247437,-1.07470202445984,0.518296003341675,-1065.90002441406,43.5,-880.500061035156,1.17014837665936,-0.145223522358189,0.501599257111605,DLL
6.63333333333333,-2.38539409637451,-5.10754299163818,7.92240381240845,-0.46494197845459,0.663114011287689,-1.05945801734924,-1065.90002441406,44.1000022888184,-897.300048828125,1.19191654226202,-0.246993939611864,0.573382172384019,DLL
6.66666666666667,-3.19647598266602,-5.19068479537964,7.87873935699463,-0.0076219998300075,0.83841997385025,-1.39482593536377,-1061.10009765625,43.5,-885.300048828125,1.20578560583922,-0.325991757801223,0.583446787088895,DLL
6.7,-3.03677177429199,-4.97834396362305,8.02289199829102,0.289635986089706,-0.426831990480423,-0.571649968624115,-1061.10009765625,39.9000015258789,-885.300048828125,1.19951725320515,-0.310079976779198,0.555120192938441,DLL
6.73333333333333,-2.55466866493225,-4.70559072494507,8.14132404327393,0.548784017562866,-0.792688012123108,-0.106707997620106,-1077.90002441406,41.1000022888184,-887.700012207031,1.18946697397063,-0.264359619307511,0.523234251161774,DLL
6.76666666666667,-2.75803732872009,-4.76779747009277,8.34050559997559,0.365855991840363,-0.884151995182037,-0.152439996600151,-1058.70007324219,43.5,-906.900024414062,1.1868579133229,-0.277981158509584,0.5185559991763,DLL
6.8,-2.86151599884033,-4.79411602020264,8.74185943603516,0.754577994346619,-0.602137982845306,0.289635986089706,-1099.5,37.5,-880.500061035156,1.17962355216288,-0.278810411892783,0.500183946143187,DLL
6.83333333333333,-2.8722825050354,-4.55964374542236,8.32136535644531,1.63872992992401,0.0762199983000755,0.304879993200302,-1073.10009765625,48.3000030517578,-887.700012207031,1.18080178649299,-0.294182594923127,0.49829663208116,DLL
6.86666666666667,-3.15340971946716,-4.20793581008911,8.00135898590088,1.76830399036407,0.640248000621796,0.419209986925125,-1080.30004882812,42.3000030517578,-899.700012207031,1.17892654923619,-0.336598436189518,0.481165250399932,DLL
6.9,-3.31371212005615,-3.58407258987427,7.67656707763672,1.89025592803955,0.602137982845306,1.22714197635651,-1056.30004882812,49.5000038146973,-887.700012207031,1.16139476797265,-0.374440212616001,0.433253089631132,DLL
6.93333333333333,-3.1587929725647,-3.71686053276062,7.6269211769104,1.42531394958496,0.411587983369827,1.08994603157043,-1065.90002441406,50.7000007629395,-894.900024414062,1.16569419551838,-0.357977620950858,0.45035682594151,DLL
6.96666666666667,-2.40632915496826,-3.62594270706177,7.52822732925415,1.03659200668335,-0.891773998737335,1.39482593536377,-1075.5,36.3000030517578,-887.700012207031,1.15458663196664,-0.280343690269646,0.446234251462297,DLL
7.0,-2.32378554344177,-3.66601824760437,7.41099119186401,0.830797970294952,-0.701223969459534,1.57775402069092,-1056.30004882812,43.5,-885.300048828125,1.14702358031573,-0.274136606538975,0.457018368935536,DLL
7.03333333333333,-2.45537686347961,-3.98602485656738,8.12816524505615,0.205793991684914,-0.198172003030777,1.63110792636871,-1053.90002441406,43.5,-890.100036621094,1.13647753714478,-0.265861335636256,0.454855808670459,DLL
7.06666666666667,-2.47092866897583,-4.33175134658813,8.68683052062988,0.358233988285065,-0.510673999786377,2.00458598136902,-1065.90002441406,44.1000022888184,-882.900024414062,1.12434965315455,-0.250106266403508,0.461009808187675,DLL
7.1,-2.16886639595032,-4.41967821121216,8.80586051940918,0.67835795879364,-0.846041977405548,1.6615959405899,-1063.5,37.5,-878.100036621094,1.11335035595902,-0.216920841562652,0.463245226266748,DLL
7.13333333333333,-2.22628808021545,-4.50939989089966,8.71434497833252,1.12043392658234,-0.945127964019775,1.00610399246216,-1070.70007324219,44.1000022888184,-880.500061035156,1.10865796625923,-0.222408628677595,0.474948602059671,DLL
7.16666666666667,-2.29985976219177,-4.31799411773682,8.26095294952393,1.34147191047668,-1.56251001358032,0.975615978240967,-1075.5,38.7000007629395,-897.300048828125,1.10049787771175,-0.240160649031755,0.478601428898957,DLL
7.2,-2.18860507011414,-4.14393472671509,7.9313759803772,1.28811800479889,-1.60061991214752,1.58537602424622,-1061.10009765625,41.1000022888184,-897.300048828125,1.08813498551835,-0.238671039835281,0.478307029699385,DLL
7.23333333333333,-1.90329098701477,-4.35627508163452,8.25497150421143,0.716467976570129,-1.64635193347931,1.70732796192169,-1058.70007324219,37.5,-887.700012207031,1.07490090425258,-0.200310837103389,0.483468485833903,DLL
7.26666666666667,-1.94994604587555,-4.20614147186279,7.99178838729858,0.594515979290009,-1.80641400814056,1.85976791381836,-1075.5,35.1000022888184,-892.500061035156,1.0587425977254,-0.21127392983743,0.482512526144684,DLL
7.3,-1.90329098701477,-3.98542666435242,8.07612609863281,0.685979962348938,-1.57775402069092,2.14940404891968,-1065.90002441406,42.9000015258789,-887.700012207031,1.036019421923,-0.207483554033214,0.456436115285439,DLL
7.33333333333333,-2.19996976852417,-3.77308583259583,8.56480884552002,0.289635986089706,-2.0731840133667,2.88873791694641,-1077.90002441406,32.7000007629395,-873.300048828125,1.00361858191178,-0.22941329403492,0.413390112830211,DLL
7.36666666666667,-1.94575905799866,-3.41300368309021,8.52712631225586,0.396344006061554,-2.36281991004944,3.13264203071594,-1077.90002441406,44.1000022888184,-885.300048828125,0.970326003264124,-0.207109870164074,0.378874503365485,DLL
7.4,-1.40264523029327,-2.86869359016418,8.17123126983643,0.350611984729767,-2.68294382095337,3.66618180274963,-1075.5,39.9000015258789,-880.500061035156,0.932361276209249,-0.158602462759399,0.336083389667071,DLL
7.43333333333333,-1.35120499134064,-2.51519107818604,8.22685813903809,0.342989981174469,-2.40855193138123,3.49849796295166,-1077.90002441406,36.3000030517578,-892.500061035156,0.896973573726553,-0.153584846418347,0.295243184807775,DLL
7.46666666666667,-1.42118775844574,-2.38240337371826,8.66589546203613,0.564027965068817,-2.00458598136902,2.58385801315308,-1087.5,46.5,-885.300048828125,0.872494587880141,-0.154642619315,0.266717238329881,DLL
7.5,-1.61737859249115,-2.61268854141235,9.11270809173584,0.152439996600151,-2.66770005226135,1.27287399768829,-1077.90002441406,42.3000030517578,-890.100036621094,0.861201768369277,-0.165031642831225,0.278288527134518,DLL
7.53333333333333,-1.7483719587326,-2.93927454948425,9.76049709320068,-0.731711983680725,-2.52288198471069,0.739333987236023,-1085.10009765625,38.7000007629395,-878.100036621094,0.851810244030272,-0.166019347728055,0.29330066258522,DLL
7.56666666666667,-1.53902184963226,-3.12170815467834,9.87175178527832,-0.609759986400604,-1.46342396736145,0.708845973014832,-1077.90002441406,39.9000015258789,-882.900024414062,0.845682585795759,-0.145671893732576,0.306940686415546,DLL
7.6,-1.42477655410767,-3.31849718093872,9.7180290222168,-0.0076219998300075,0.320124000310898,-0.0457319989800453,-1087.5,43.5,-875.700012207031,0.849882399648729,-0.138402974445979,0.329007447974773,DLL
7.63333333333333,-1.76332545280457,-3.27602910995483,8.96975231170654,0.78506600856781,1.44055795669556,-0.945127964019775,-1087.5,45.9000015258789,-890.100036621094,0.863408031653287,-0.184021780219694,0.34908555714345,DLL
7.66666666666667,-1.97387182712555,-3.59244680404663,8.47269535064697,0.480185985565186,1.38720393180847,-1.74543797969818,-1070.70007324219,40.5,-887.700012207031,0.888698614682468,-0.212101913316892,0.400562246486713,DLL
7.7,-2.08393001556396,-3.6791775226593,8.1431188583374,-0.0838419944047928,0.708845973014832,-1.04421401023865,-1065.90002441406,39.3000030517578,-897.300048828125,0.902505282418224,-0.229377576224231,0.424845520500771,DLL
7.73333333333333,-2.00497531890869,-4.09309244155884,8.32076644897461,0.0990860015153885,0.899396002292633,-0.0990860015153885,-1075.5,43.5,-902.100036621094,0.913167248345574,-0.214358489270051,0.456985469097702,DLL
7.76666666666667,-2.2191104888916,-3.51708078384399,8.1425199508667,0.632625997066498,1.12043392658234,1.17378795146942,-1070.70007324219,37.5,-868.500061035156,0.898331806792352,-0.247579099177791,0.406641166573499,DLL
7.8,-2.08871531486511,-3.30713248252869,7.70049238204956,0.602137982845306,1.34909391403198,1.34147191047668,-1070.70007324219,37.5,-887.700012207031,0.894078375777502,-0.247343502227718,0.404310569173016,DLL
7.83333333333333,-2.31242084503174,-3.58407258987427,8.08390235900879,0.152439996600151,1.12043392658234,0.396344006061554,-1058.70007324219,42.9000015258789,-894.900024414062,0.898099699131306,-0.25775812231516,0.416988836225055,DLL
7.86666666666667,-2.56543517112732,-3.49794006347656,7.99477910995483,-0.175305992364883,-0.3125019967556,0.358233988285065,-1077.90002441406,44.1000022888184,-899.700012207031,0.893559122190887,-0.285448984245977,0.412545473971881,DLL
7.9,-2.52476143836975,-4.10684967041016,9.0134162902832,-0.297257989645004,-1.03659200668335,0.907018005847931,-1075.5,44.1000022888184,-899.700012207031,0.888043403404364,-0.24880291188467,0.427408005480812,DLL
7.93333333333333,-1.94097399711609,-4.20973014831543,9.49551963806152,-0.205793991684914,-1.82165801525116,1.28049600124359,-1075.5,38.1000022888184,-878.100036621094,0.872608238965389,-0.183277270636596,0.417118025208422,DLL
7.96666666666667,-1.63053774833679,-4.02490425109863,9.08878231048584,0.0609759986400604,-1.46342396736145,1.44055795669556,-1068.30004882812,38.1000022888184,-890.100036621094,0.859512641668014,-0.161448548067615,0.416241768146742,DLL
8.0,-1.55457353591919,-3.46205163002014,8.4356107711792,0.0914639979600906,-0.701223969459534,1.80641400814056,-1073.10009765625,44.7000007629395,-870.900024414062,0.841919714197808,-0.16886936387758,0.388937161089968,DLL
8.03333333333333,-1.63113594055176,-3.15161538124084,7.94632959365845,0.243903994560242,0.46494197845459,2.00458598136902,-1073.10009765625,39.9000015258789,-882.900024414062,0.828217794332456,-0.190437716565893,0.376674344608515,DLL
8.06666666666667,-1.46724474430084,-3.12469887733459,7.40261745452881,0.213415995240211,0.0609759986400604,0.396344006061554,-1065.90002441406,41.7000007629395,-880.500061035156,0.830178311680406,-0.18104635026741,0.398784312384436,DLL
8.1,-1.0455539226532,-3.41240572929382,7.28358697891235,-0.358233988285065,-1.11281192302704,-0.304879993200302,-1080.30004882812,42.9000015258789,-885.300048828125,0.834512658059697,-0.127535949172852,0.438530128900748,DLL
8.13333333333333,-1.28002595901489,-3.97406196594238,8.49004173278809,-0.571649968624115,-1.31098401546478,-0.983237981796265,-1070.70007324219,40.5,-885.300048828125,0.836320326149468,-0.13286537374587,0.438864262204147,DLL
8.16666666666667,-1.52765715122223,-4.09129810333252,8.77535533905029,-0.152439996600151,-1.06708002090454,-0.868907988071442,-1082.70007324219,39.9000015258789,-882.900024414062,0.838138370161284,-0.153986109190311,0.436640461609944,DLL
8.2,-1.95652568340302,-4.15888786315918,9.2999267578125,0.663114011287689,0.0152439996600151,-0.945127964019775,-1075.5,49.5000038146973,-892.500061035156,0.842385512721179,-0.188893325514209,0.419747797354876,DLL
8.23333333333333,-2.35309433937073,-4.15888786315918,9.84004974365234,0.205793991684914,-0.167683988809586,-0.83841997385025,-1080.30004882812,38.7000007629395,-882.900024414062,0.843464705244121,-0.215745356791856,0.3999520394193,DLL
8.26666666666667,-2.47691011428833,-3.93338823318481,9.21319580078125,0.221037998795509,0.381099998950958,-0.571649968624115,-1075.5,39.9000015258789,-882.900024414062,0.849587004377077,-0.242484893330822,0.403392660130942,DLL
8.3,-2.36864614486694,-3.93697714805603,8.75262641906738,0.87652999162674,2.14940404891968,-1.02897000312805,-1068.30004882812,41.1000022888184,-885.300048828125,0.867637613794003,-0.244639640718005,0.421802615637388,DLL
8.33333333333333,-2.89142322540283,-3.5392119884491,8.03485488891602,1.20427596569061,1.6844619512558,-1.10518991947174,-1065.90002441406,41.7000007629395,-892.500061035156,0.879880652570102,-0.319625809844033,0.413825151671696,DLL
8.36666666666667,-2.41709566116333,-3.75274896621704,7.78064393997192,0.25152599811554,0.739333987236023,-1.00610399246216,-1075.5,42.9000015258789,-897.300048828125,0.899124951965086,-0.273552406037389,0.449326552952826,DLL
8.4,-2.42128276824951,-3.62474632263184,8.04621887207031,0.487807989120483,0.434453994035721,-0.78506600856781,-1073.10009765625,47.1000022888184,-894.900024414062,0.898957331363802,-0.267951723441826,0.42305555462078,DLL
8.43333333333333,-2.24662494659424,-3.91544389724731,8.3458890914917,0.754577994346619,0.37347799539566,-0.0381099991500378,-1077.90002441406,35.1000022888184,-887.700012207031,0.905335071674147,-0.239740027782055,0.437359959362757,DLL
8.46666666666667,-2.45238614082336,-3.78983378410339,8.41946029663086,1.00610399246216,-0.3125019967556,0.297257989645004,-1065.90002441406,48.9000015258789,-885.300048828125,0.900344357409574,-0.259217532362818,0.421112893928288,DLL
8.5,-2.28370976448059,-3.60022258758545,8.82380485534668,1.07470202445984,-0.655492007732391,0.632625997066498,-1075.5,41.1000022888184,-887.700012207031,0.887662226773741,-0.2347241061319,0.385413769717976,DLL
8.53333333333333,-1.8506543636322,-3.23834609985352,8.464919090271,0.87652999162674,-0.807931959629059,1.03659200668335,-1070.70007324219,47.7000007629395,-892.500061035156,0.875696775348975,-0.201030236171884,0.363582246638843,DLL
8.56666666666667,-1.97387182712555,-3.28918814659119,8.44398403167725,0.975615978240967,0.289635986089706,0.198172003030777,-1075.5,44.7000007629395,-878.100036621094,0.877824096543619,-0.214950747572485,0.369664770760447,DLL
8.6,-2.21970868110657,-3.35558199882507,8.22745704650879,0.579271972179413,0.152439996600151,-0.426831990480423,-1082.70007324219,36.9000015258789,-885.300048828125,0.885726303368696,-0.244566402124558,0.386326221773338,DLL
8.63333333333333,-1.7986159324646,-3.9196310043335,8.15867042541504,-0.129574000835419,-0.655492007732391,-0.724089980125427,-1065.90002441406,38.7000007629395,-885.300048828125,0.901590469123586,-0.194925400313533,0.447800036560166,DLL
8.66666666666667,-1.40443968772888,-4.30902194976807,8.38297367095947,-0.564027965068817,-1.74543797969818,-0.480185985565186,-1075.5,35.7000007629395,-892.500061035156,0.903198105618199,-0.145233048316996,0.47546304019502,DLL
8.7,-1.49894630908966,-4.31440544128418,8.63897895812988,0.388722002506256,-0.556405961513519,-0.358233988285065,-1080.30004882812,36.3000030517578,-892.500061035156,0.902224910686078,-0.152807892455721,0.462591210673147,DLL
8.73333333333333,-1.52406823635101,-4.30244255065918,8.56779956817627,0.891773998737335,0.304879993200302,-0.548784017562866,-1085.10009765625,40.5,-882.900024414062,0.908000829985903,-0.15766627961155,0.463986933664007,DLL
8.76666666666667,-1.99540495872498,-4.27373170852661,8.33452415466309,0.358233988285065,-0.0990860015153885,0.0762199983000755,-1089.90002441406,38.7000007629395,-887.700012207031,0.909374273861377,-0.209451439638873,0.473084514285467,DLL
8.8,-1.8105788230896,-3.84007787704468,8.77356147766113,0.175305992364883,-1.22714197635651,0.777444005012512,-1077.90002441406,45.9000015258789,-875.700012207031,0.8894364946482,-0.185631955217076,0.412362140479112,DLL
8.83333333333333,-1.44989860057831,-3.80957269668579,8.39493656158447,0.46494197845459,-1.46342396736145,0.99848198890686,-1077.90002441406,39.3000030517578,-899.700012207031,0.88174038472114,-0.154642599969926,0.424677624375397,DLL
8.86666666666667,-1.65924859046936,-3.57689499855042,8.44637680053711,0.525918006896973,-1.34909391403198,1.08994603157043,-1092.30004882812,37.5,-885.300048828125,0.867732344735569,-0.177344048279656,0.399399357306851,DLL
8.9,-1.48399269580841,-3.57749319076538,8.92548942565918,0.175305992364883,-1.98934197425842,1.46342396736145,-1085.10009765625,40.5,-890.100036621094,0.850039522557305,-0.151028639794831,0.380474087030081,DLL
8.93333333333333,-0.884653449058533,-3.11094164848328,8.57796859741211,0.327746003866196,-1.46342396736145,1.34909391403198,-1099.5,40.5,-878.100036621094,0.832926326184831,-0.0953155600753073,0.347199792892076,DLL
8.96666666666667,-1.24054849147797,-3.03318309783936,8.40032005310059,0.426831990480423,0.533540010452271,1.46342396736145,-1094.70007324219,44.1000022888184,-887.700012207031,0.824195812392672,-0.139549653584392,0.345483044537467,DLL
9.0,-2.08692073822021,-3.03258490562439,9.04272556304932,0.213415995240211,0.830797970294952,0.777444005012512,-1085.10009765625,38.1000022888184,-873.300048828125,0.817361130025545,-0.216584301577869,0.323209571427897,DLL
9.03333333333333,-1.96908664703369,-3.15998935699463,9.17312049865723,0.205793991684914,-0.411587983369827,0.403965979814529,-1085.10009765625,46.5,-887.700012207031,0.815419297509023,-0.199849556382091,0.331178970851569,DLL
9.06666666666667,-1.65625786781311,-3.06966972351074,9.17969989776611,0.434453994035721,-0.350611984729767,0.236281991004944,-1077.90002441406,43.5,-892.500061035156,0.811854866585743,-0.169196692098917,0.321902234798892,DLL
9.1,-1.90568351745605,-2.87587141990662,8.8937873840332,0.87652999162674,0.92988395690918,-0.221037998795509,-1087.5,38.1000022888184,-887.700012207031,0.814743675746545,-0.202357971404698,0.311452522826183,DLL
9.13333333333333,-1.45767438411713,-3.16357827186584,9.00025749206543,0.358233988285065,0.647870004177094,-1.06708002090454,-1092.30004882812,37.5,-899.700012207031,0.828327979854317,-0.15241883253988,0.337536729321258,DLL
9.16666666666667,-1.25550210475922,-3.2407386302948,8.73468208312988,0.114329993724823,0.221037998795509,-1.43293595314026,-1089.90002441406,33.3000030517578,-899.700012207031,0.840691232439733,-0.133603093922892,0.35526565415138,DLL
9.2,-1.17594909667969,-3.58108186721802,8.70896148681641,0.137196004390717,0.87652999162674,-1.39482593536377,-1065.90002441406,37.5,-885.300048828125,0.856387950178046,-0.124805133487542,0.389950196613307,DLL
9.23333333333333,-1.22140789031982,-3.93757510185242,8.89618015289307,0.388722002506256,1.48628997802734,-1.53964400291443,-1087.5,40.5,-887.700012207031,0.874186938519105,-0.126173603804425,0.416279529622368,DLL
9.26666666666667,-1.81656014919281,-3.80060052871704,8.43441390991211,0.602137982845306,1.41006994247437,-1.27287399768829,-1080.30004882812,41.1000022888184,-890.100036621094,0.888564254854475,-0.194832915658453,0.422862331429447,DLL
9.3,-2.22748446464539,-3.77248764038086,8.15867042541504,0.442075997591019,1.83690190315247,-0.358233988285065,-1080.30004882812,36.3000030517578,-885.300048828125,0.899760041965379,-0.245367427918066,0.432775449573355,DLL
9.33333333333333,-2.43204927444458,-3.64568138122559,8.47508811950684,0.586893975734711,0.914639949798584,-0.160062000155449,-1063.5,41.1000022888184,-890.100036621094,0.897452584463025,-0.258990343792202,0.405671345350393,DLL
9.36666666666667,-2.74308371543884,-3.63312029838562,8.02648067474365,0.304879993200302,0.25152599811554,0.564027965068817,-1077.90002441406,41.1000022888184,-892.500061035156,0.90044903854548,-0.302279647443132,0.424139277582432,DLL
9.4,-2.53433179855347,-4.06258726119995,8.81483268737793,-0.137196004390717,-0.25152599811554,0.358233988285065,-1075.5,42.9000015258789,-890.100036621094,0.899359768930197,-0.255592088369355,0.431855024303979,DLL
9.43333333333333,-1.68496870994568,-3.88673305511475,8.52592945098877,-0.198172003030777,-2.01220798492432,0.815553963184357,-1087.5,45.3000030517578,-880.500061035156,0.886822884872262,-0.175774058078062,0.427601515463026,DLL
9.46666666666667,-1.47442245483398,-3.6773829460144,8.27291584014893,0.282013982534409,-0.99848198890686,1.44817996025085,-1077.90002441406,39.9000015258789,-880.500061035156,0.87293611949586,-0.160957654711214,0.417353071634387,DLL
9.5,-1.8105788230896,-3.40044283866882,8.16285705566406,0.777444005012512,0.510673999786377,1.09756803512573,-1094.70007324219,39.9000015258789,-890.100036621094,0.863659680046703,-0.203317852098174,0.393178888681401,DLL
9.53333333333333,-1.52227389812469,-3.42616295814514,7.70408153533936,0.0076219998300075,-0.342989981174469,1.17378795146942,-1065.90002441406,39.3000030517578,-894.900024414062,0.859629679173866,-0.179042590414664,0.417916526244726,DLL
9.56666666666667,-1.21901535987854,-3.86101293563843,8.14072608947754,-0.739333987236023,-0.990859985351562,0.37347799539566,-1077.90002441406,42.9000015258789,-902.100036621094,0.857728328237102,-0.133573159663836,0.443761128929449,DLL
9.6,-1.62216377258301,-3.89929413795471,8.82500171661377,-0.3125019967556,-1.12043392658234,-0.289635986089706,-1070.70007324219,39.9000015258789,-882.900024414062,0.852039405010118,-0.164330435508065,0.416767786177991,DLL
9.63333333333333,-1.7525589466095,-4.11163473129272,8.37878704071045,-0.0609759986400604,-0.640248000621796,-0.762199997901917,-1077.90002441406,36.9000015258789,-890.100036621094,0.861846023814971,-0.183933241640711,0.456243866710386,DLL
9.66666666666667,-2.34531855583191,-4.06139087677002,8.79748725891113,0.320124000310898,0.6250039935112,-0.350611984729767,-1065.90002441406,42.3000030517578,-880.500061035156,0.861516781349273,-0.237900036172385,0.432326485726413,DLL
9.7,-2.20296049118042,-3.77248764038086,8.59292221069336,0.647870004177094,-0.0228659994900227,0.320124000310898,-1077.90002441406,43.5,-890.100036621094,0.855936609428371,-0.230815055404329,0.412595291159756,DLL
9.73333333333333,-1.66343557834625,-3.62654089927673,8.30162620544434,0.457319974899292,-0.899396002292633,0.472563982009888,-1075.5,39.3000030517578,-890.100036621094,0.850805319699726,-0.180897998692061,0.410823340251022,DLL
9.76666666666667,-1.66164112091064,-3.30414175987244,8.536696434021,0.945127964019775,-0.160062000155449,0.6250039935112,-1085.10009765625,38.7000007629395,-882.900024414062,0.839905093761665,-0.179713197321065,0.36779578151164,DLL
9.8,-1.94456279277802,-3.22159814834595,8.65333461761475,1.18140995502472,0.289635986089706,-0.0304879993200302,-1080.30004882812,41.1000022888184,-882.900024414062,0.839852392730539,-0.207788148250031,0.354492994175626,DLL
9.83333333333333,-1.71726846694946,-3.31012320518494,8.80346870422363,0.411587983369827,-0.525918006896973,-0.685979962348938,-1092.30004882812,40.5,-885.300048828125,0.844366301644129,-0.179550754830898,0.359039004197713,DLL
9.86666666666667,-1.38948607444763,-3.57689499855042,9.48953819274902,0.3125019967556,-0.0076219998300075,-0.708845973014832,-1094.70007324219,38.7000007629395,-890.100036621094,0.849360618960458,-0.1360757204649,0.36006781786623,DLL
9.9,-1.20525813102722,-3.74616932868958,9.59361553192139,1.36433792114258,1.04421401023865,-1.37958192825317,-1085.10009765625,37.5,-880.500061035156,0.863567061198879,-0.117453226122613,0.370171560493393,DLL
9.93333333333333,-0.523973226547241,-4.02310943603516,9.51884746551514,2.05031800270081,2.27135586738586,-3.59758400917053,-1073.10009765625,36.9000015258789,-897.300048828125,0.897434905472718,-0.0522711514924822,0.396542553369212,DLL
9.96666666666667,-0.565245091915131,-4.03686714172363,9.22097206115723,5.10673999786377,3.10977602005005,-10.7470197677612,-1087.5,41.1000022888184,-897.300048828125,0.978673227722402,-0.0536897393691169,0.404723297731935,DLL
10.0,-0.406139075756073,-4.46752977371216,9.09356784820557,7.36285161972046,4.5808219909668,-14.3522253036499,-1075.5,38.1000022888184,-906.900024414062,1.09505954014571,-0.0366060994455171,0.444566493286145,DLL
10.0333333333333,-1.17535090446472,-4.45437049865723,8.86986255645752,10.2515897750854,5.46497392654419,-20.038236618042,-1092.30004882812,29.7000007629395,-902.100036621094,1.24234586851232,-0.110578431007561,0.451286693730066,DLL
10.0666666666667,-2.45597505569458,-3.53442692756653,8.79748725891113,11.4406213760376,7.20278978347778,-18.2775554656982,-1073.10009765625,26.7000007629395,-918.900024414062,1.38635264147007,-0.252703172853214,0.371223379611002,DLL
10.1,-2.2071475982666,-3.44769597053528,8.50619125366211,10.9070816040039,7.17992401123047,-15.3888177871704,-1080.30004882812,20.7000007629395,-928.500061035156,1.51824836720183,-0.237983612675014,0.373222032437047,DLL
10.1333333333333,-1.64010798931122,-2.41051626205444,7.88771152496338,8.94060611724854,4.97716569900513,-13.5900259017944,-1068.30004882812,12.3000001907349,-921.300048828125,1.60986794987755,-0.198161962537057,0.286800108271868,DLL
10.1666666666667,-3.12350249290466,-1.86201906204224,7.48575925827026,7.46193790435791,6.02900171279907,-9.98481941223145,-1061.10009765625,11.7000007629395,-923.700012207031,1.68595323506123,-0.389201623335441,0.238999779528788,DLL
10.2,-3.78624510765076,-1.86740231513977,8.27949523925781,5.71649980545044,5.9222936630249,-6.80644607543945,-1056.30004882812,9.30000019073486,-921.300048828125,1.74392073816852,-0.426794297852922,0.218310658928875,DLL
10.2333333333333,-2.11264085769653,-1.64010798931122,8.28906536102295,3.17075204849243,2.61434602737427,-3.39178991317749,-1046.70007324219,1.5,-928.500061035156,1.76683282743224,-0.249816599282198,0.191775505010937,DLL
10.2666666666667,-2.10965037345886,-1.4881796836853,9.18388748168945,2.39330792427063,1.54726600646973,-2.56861400604248,-1039.5,3.30000019073486,-918.900024414062,1.78140085991035,-0.225144362300272,0.157865482111431,DLL
10.3,-2.09409856796265,-1.20944511890411,9.0851936340332,2.10367202758789,1.37195992469788,-1.50915598869324,-1034.70007324219,2.70000004768372,-928.500061035156,1.79008396372392,-0.226646292697572,0.129542883949633,DLL
10.3333333333333,-2.31182265281677,-1.40144896507263,10.2204685211182,1.44055795669556,1.265251994133,-0.0990860015153885,-1044.30004882812,11.1000003814697,-933.300048828125,1.79528189531441,-0.222645226188043,0.133839967286904,DLL
10.3666666666667,-2.06658387184143,-0.903794050216675,9.6881217956543,1.40244793891907,0.655492007732391,0.0762199983000755,-1034.70007324219,5.10000038146973,-926.100036621094,1.78809292540668,-0.210515327196257,0.0908612286957511,DLL
10.4,-2.80708503723145,-0.655564725399017,8.51635932922363,0.731711983680725,2.33233189582825,2.31708788871765,-1044.30004882812,4.5,-933.300048828125,1.7700198594843,-0.321355449300548,0.0743994516663459,DLL
10.4333333333333,-3.73001956939697,-0.920542061328888,9.16654109954834,0.236281991004944,3.23172783851624,1.51677799224854,-1025.10009765625,1.5,-938.100036621094,1.77126653567499,-0.390012979639787,0.0986232931137515,DLL
10.4666666666667,-3.88194799423218,-0.75545459985733,9.53140830993652,0.503051996231079,2.00458598136902,0.647870004177094,-1027.5,3.90000009536743,-928.500061035156,1.76170101430434,-0.389257103632956,0.0780368321085576,DLL
10.5,-3.37292814254761,-0.903794050216675,9.0373420715332,0.0990860015153885,0.792688012123108,0.320124000310898,-1029.90002441406,6.30000019073486,-928.500061035156,1.7680774190433,-0.357279673151316,0.0991735069181079,DLL
10.5333333333333,-3.99320244789124,-0.997104346752167,9.40579795837402,-0.83841997385025,0.426831990480423,0.0304879993200302,-1027.5,9.90000057220459,-921.300048828125,1.76875195131419,-0.399983012732624,0.107044005910726,DLL
10.5666666666667,-3.29576778411865,-0.90977543592453,9.64744758605957,-1.35671591758728,-1.20427596569061,-0.579271972179413,-1017.90002441406,8.10000038146973,-933.300048828125,1.76490990958953,-0.326258389207086,0.096746982183583,DLL
10.6,-2.96260213851929,-1.11434030532837,9.61215782165527,-1.39482593536377,-0.868907988071442,-0.899396002292633,-1025.10009765625,3.30000019073486,-921.300048828125,1.77381341150165,-0.295665444728536,0.118097305985634,DLL
10.6333333333333,-2.63840866088867,-1.36017715930939,9.55114650726318,-1.55488801002502,0.746955990791321,-1.65397393703461,-1020.30004882812,12.3000001907349,-933.300048828125,1.78990074343375,-0.268059191490833,0.144791377048824,ST
10.6666666666667,-1.93977761268616,-1.40563595294952,8.60667896270752,-0.853663980960846,2.9344699382782,-2.9420919418335,-1017.90002441406,11.7000007629395,-921.300048828125,1.81599375249215,-0.22345519609612,0.164566516864251,ST
10.7,-1.96250712871552,-1.84945809841156,7.71783876419067,-0.602137982845306,4.31405210494995,-2.88111591339111,-1008.30004882812,6.30000019073486,-933.300048828125,1.85716851588832,-0.248370120114615,0.237322124431406,ST
10.7333333333333,-2.93269491195679,-2.30823373794556,7.45226335525513,-0.670735955238342,5.10673999786377,-2.79727387428284,-1015.50006103516,11.1000003814697,-926.100036621094,1.90270323011231,-0.36566399322613,0.303726080573556,ST
10.7666666666667,-3.57749319076538,-2.63123083114624,7.58863973617554,-0.449698001146317,4.03965997695923,-2.29422187805176,-991.500061035156,6.30000019073486,-926.100036621094,1.9363106842341,-0.423889558307071,0.337000574181839,ST
10.8,-3.31311392784119,-2.72573757171631,7.57368612289429,-0.693601965904236,2.40855193138123,-1.49391198158264,-993.900024414062,11.1000003814697,-928.500061035156,1.9530154246763,-0.393784004517728,0.348196965319621,ST
10.8333333333333,-3.877760887146,-3.01942563056946,8.1305570602417,-1.08994603157043,1.01372599601746,-0.975615978240967,-998.700012207031,8.70000076293945,-933.300048828125,1.96204249212237,-0.421275455916784,0.358389541131449,ST
10.8666666666667,-4.20434713363647,-2.78555178642273,8.81842136383057,-0.602137982845306,-0.472563982009888,0.0,-996.300048828125,18.3000011444092,-935.700012207031,1.93818282795342,-0.425886983077605,0.30719135613229,ST
10.9,-3.70011234283447,-2.69523215293884,9.78920745849609,0.792688012123108,-2.14178204536438,-0.381099998950958,-989.100036621094,9.30000019073486,-933.300048828125,1.92378282775544,-0.346061136205159,0.26734295740886,ST
10.9333333333333,-2.82383298873901,-2.2011661529541,8.34529113769531,1.90549993515015,-1.81403601169586,0.190549999475479,-991.500061035156,11.7000007629395,-923.700012207031,1.91946565335538,-0.313414731084489,0.254270479360467,ST
10.9666666666667,-2.78375744819641,-2.13417410850525,8.52054691314697,1.91312193870544,-1.18903195858002,-0.0304879993200302,-998.700012207031,2.70000004768372,-926.100036621094,1.91823132139157,-0.304921829181664,0.242001298037681,ST
11.0,-2.84177732467651,-1.62694883346558,8.45235824584961,1.74543797969818,-2.17227005958557,0.6250039935112,-996.300048828125,11.7000007629395,-928.500061035156,1.89827527688911,-0.315283111174731,0.186984540374686,ST
11.0333333333333,-2.35369253158569,-1.53244233131409,7.64366912841797,1.31098401546478,-2.04269599914551,0.541162014007568,-1003.50006103516,3.30000019073486,-926.100036621094,1.89721482592477,-0.2901105260832,0.195021783339338,ST
11.0666666666667,-2.47810626029968,-2.04265832901001,7.45824480056763,0.0838419944047928,-1.42531394958496,-1.31860601902008,-1003.50006103516,-0.300000011920929,-930.900024414062,1.92491678726558,-0.307008570441631,0.26717117416325,ST
11.1,-3.16298007965088,-2.21013832092285,7.10952758789062,-0.564027965068817,-1.98171997070312,-2.68294382095337,-1017.90002441406,6.30000019073486,-916.500061035156,1.94921021283589,-0.396421488437767,0.303556125427412,ST
11.1333333333333,-4.23784303665161,-2.80947756767273,8.3751974105835,-1.21951997280121,-3.25459384918213,-2.77440786361694,-1005.90002441406,9.90000057220459,-921.300048828125,1.96588878535831,-0.440159002513044,0.326980585367517,ST
11.1666666666667,-3.98303413391113,-3.54698777198792,11.0794019699097,-0.533540010452271,-4.984787940979,-3.17075204849243,-1029.90002441406,12.9000005722046,-911.700012207031,1.96849108275163,-0.320879414146855,0.311763227218844,ST
11.2,-2.00856399536133,-3.78684306144714,10.7396574020386,0.716467976570129,-5.8689398765564,-2.56861400604248,-1027.5,9.30000019073486,-923.700012207031,1.97921257894766,-0.164731552681627,0.337681586519862,ST
11.2333333333333,-2.51937818527222,-3.6594386100769,10.6343841552734,1.57775402069092,-0.358233988285065,-0.0762199983000755,-1037.10009765625,11.7000007629395,-928.500061035156,1.97942784604406,-0.219293922687993,0.328724355671927,ST
11.2666666666667,-2.75325202941895,-3.44590163230896,9.85081672668457,1.65397393703461,3.03355598449707,1.21189796924591,-1020.30004882812,7.50000047683716,-933.300048828125,1.98238284342128,-0.263275697827869,0.333509828880282,ST
11.3,-2.73889660835266,-2.44999361038208,8.1311559677124,1.73019397258759,3.81099987030029,1.76068198680878,-1017.90002441406,5.10000038146973,-933.300048828125,1.96972914501189,-0.318784047425099,0.2896683104089,ST
11.3333333333333,-2.05103230476379,-1.96908664703369,7.22197818756104,0.922261953353882,2.98782396316528,2.36281991004944,-1005.90002441406,17.7000007629395,-928.500061035156,1.953451384202,-0.27375923185974,0.263957953471783,ST
11.3666666666667,-2.08153748512268,-2.01334929466248,7.46123552322388,0.3125019967556,1.86738991737366,1.85976791381836,-1008.30004882812,8.70000076293945,-918.900024414062,1.94487457015034,-0.26714691372013,0.262405389135621,ST
11.4,-2.48947095870972,-2.44221782684326,8.27650451660156,-0.266770005226135,1.31860601902008,1.86738991737366,-993.900024414062,8.70000076293945,-923.700012207031,1.94024541907621,-0.283926199682035,0.286584552633911,ST
11.4333333333333,-3.49255681037903,-2.78136491775513,9.39084434509277,-0.282013982534409,0.823175966739655,2.080806016922,-998.700012207031,8.10000038146973,-928.500061035156,1.92757480350829,-0.344601542338186,0.287337217426441,ST
11.4666666666667,-3.49674391746521,-2.99370551109314,10.0996437072754,0.114329993724823,-0.579271972179413,2.99544596672058,-1001.10003662109,9.90000057220459,-926.100036621094,1.90638318954402,-0.32114357026064,0.286206643048442,ST
11.5,-3.35318946838379,-2.93867635726929,10.0182962417603,0.739333987236023,-0.487807989120483,3.3613018989563,-984.300048828125,8.10000038146973,-930.900024414062,1.88458874558504,-0.311663076536799,0.282177143120602,ST
11.5333333333333,-2.87288069725037,-3.06847333908081,8.75920581817627,1.02897000312805,0.655492007732391,2.74391984939575,-1005.90002441406,3.90000009536743,-933.300048828125,1.88485280603298,-0.302869599710911,0.33366234661474,ST
11.5666666666667,-3.04694032669067,-2.4356381893158,8.37818813323975,1.29574000835419,0.746955990791321,2.84300589561462,-991.500061035156,9.30000019073486,-923.700012207031,1.85385390974928,-0.338367547433429,0.279484139290229,ST
11.6,-3.22040176391602,-2.34053349494934,7.95948839187622,1.33385002613068,0.579271972179413,4.07776975631714,-998.700012207031,3.30000019073486,-918.900024414062,1.8334240477355,-0.372926524439988,0.281099989419604,ST
11.6333333333333,-3.06368827819824,-1.94934797286987,8.04801368713379,1.33385002613068,-0.0838419944047928,3.86435389518738,-1001.10003662109,9.90000057220459,-930.900024414062,1.79522396701404,-0.355931834939017,0.233247327305292,ST
11.6666666666667,-2.984135389328,-1.5623494386673,8.1903715133667,1.6692179441452,-1.6920839548111,3.54422998428345,-986.700012207031,3.90000009536743,-930.900024414062,1.75739762962148,-0.342045602917708,0.183619079215544,ST
11.7,-2.92731165885925,-1.41101932525635,8.79509449005127,2.15702605247498,-3.33081388473511,2.99544596672058,-1015.50006103516,6.30000019073486,-942.900024414062,1.72783335891263,-0.312714549032803,0.153483093440136,ST
11.7333333333333,-2.78256106376648,-1.09579789638519,9.40400409698486,2.59148001670837,-4.39789390563965,2.43903994560242,-1003.50006103516,-0.300000011920929,-918.900024414062,1.70076692501917,-0.27898272018592,0.110359129880382,ST
11.7666666666667,-2.1150336265564,-0.444420218467712,9.17012977600098,2.66007804870605,-4.75612783432007,1.98171997070312,-1029.90002441406,3.90000009536743,-935.700012207031,1.6719576315827,-0.218524722377018,0.0431817215166219,ST
11.8,-2.09649109840393,-0.084936298429966,8.49183559417725,1.95123195648193,-3.26221585273743,2.27135586738586,-1029.90002441406,2.70000004768372,-938.100036621094,1.65104701300609,-0.236222942734751,0.0059383690200956,ST
11.8333333333333,-2.87288069725037,-0.315221339464188,8.55643558502197,0.160062000155449,-1.02134799957275,2.40092992782593,-1022.70001220703,2.10000014305115,-921.300048828125,1.64332198582245,-0.321384364481065,0.0348943727990604,ST
11.8666666666667,-3.36933946609497,-0.574815392494202,9.55114650726318,-0.609759986400604,-0.503051996231079,1.82927989959717,-1037.10009765625,-2.70000004768372,-930.900024414062,1.63750809812702,-0.337771931511163,0.0598660473647089,ST
11.9,-3.04514575004578,-0.754856407642365,9.05409049987793,-0.846041977405548,-0.121951997280121,0.731711983680725,-1039.5,-0.900000035762787,-930.900024414062,1.63863505182146,-0.323411411938436,0.0840244451201639,ST
11.9333333333333,-3.3507969379425,-1.26447427272797,9.3358154296875,-1.2347639799118,1.16616594791412,-0.213415995240211,-1029.90002441406,13.5000009536743,-935.700012207031,1.65534272239147,-0.343606763553867,0.136799943345582,ST
11.9666666666667,-3.2706458568573,-1.66941702365875,9.89328479766846,-1.01372599601746,0.716467976570129,-1.30336201190948,-1034.70007324219,2.10000014305115,-933.300048828125,1.67288727473941,-0.316201272086336,0.169473309123109,ST
12.0,-3.57091355323792,-1.25251138210297,9.90345287322998,-0.419209986925125,0.342989981174469,0.46494197845459,-1027.5,9.90000057220459,-928.500061035156,1.65533470804313,-0.344009649657386,0.126632260221496,ST
12.0333333333333,-2.62704396247864,-1.32428848743439,9.66539192199707,-0.533540010452271,0.87652999162674,0.205793991684914,-1025.10009765625,-3.90000009536743,-928.500061035156,1.65683425855337,-0.265258150903906,0.136971506082173,ST
12.0666666666667,-2.31959843635559,-1.11792922019958,8.28906536102295,-0.891773998737335,2.19513607025146,-1.34147191047668,-1010.70001220703,9.30000019073486,-942.900024414062,1.66697701942784,-0.273972391126295,0.136413305609099,ST
12.1,-2.27413964271545,-1.2357634305954,7.92898321151733,-1.29574000835419,2.9268479347229,-1.76830399036407,-1015.50006103516,0.900000035762787,-933.300048828125,1.68568168769982,-0.280676268681033,0.157853840074849,ST
12.1333333333333,-2.33933711051941,-1.58388257026672,7.72262382507324,-1.31098401546478,2.75154185295105,-2.19513607025146,-1008.30004882812,11.1000003814697,-930.900024414062,1.71532614239886,-0.29232623890167,0.205722067472084,ST
12.1666666666667,-2.60132384300232,-1.49475932121277,7.94991827011108,-0.510673999786377,1.90549993515015,-2.22562384605408,-1005.90002441406,8.10000038146973,-928.500061035156,1.72584931152589,-0.313497948733117,0.188322030233134,ST
12.2,-3.38130211830139,-1.6664263010025,8.83337497711182,0.0609759986400604,1.11281192302704,-1.03659200668335,-1005.90002441406,3.90000009536743,-926.100036621094,1.73430675468906,-0.361125583099705,0.187163830546609,ST
12.2333333333333,-4.0057635307312,-1.86740231513977,9.6881217956543,0.175305992364883,-0.160062000155449,-0.647870004177094,-998.700012207031,7.50000047683716,-945.300048828125,1.74026594883397,-0.385064563722356,0.190522235439278,ST
12.2666666666667,-3.36216163635254,-1.81117689609528,9.64266300201416,-0.114329993724823,-1.94360995292664,-1.76830399036407,-1003.50006103516,6.30000019073486,-940.500061035156,1.74762990613668,-0.326717037608302,0.186716834256347,ST
12.3,-2.84895491600037,-1.93798327445984,9.01999568939209,-0.411587983369827,-2.14178204536438,-2.14940404891968,-1003.50006103516,9.30000019073486,-923.700012207031,1.76580309829258,-0.295328253437918,0.213019977848157,ST
12.3333333333333,-2.65276408195496,-2.29627084732056,8.52832221984863,-0.564027965068817,-1.58537602424622,-1.58537602424622,-1020.30004882812,9.30000019073486,-921.300048828125,1.78757864444683,-0.288427116847339,0.26433525379875,ST
12.3666666666667,-2.51519107818604,-2.27473783493042,8.05638790130615,-0.121951997280121,-1.43293595314026,-1.81403601169586,-1008.30004882812,11.7000007629395,-935.700012207031,1.79967048354057,-0.288601576695304,0.276007689647832,ST
12.4,-2.33574819564819,-2.39675879478455,8.29684162139893,0.388722002506256,-1.57775402069092,-2.080806016922,-1010.70001220703,11.1000003814697,-933.300048828125,1.81255370957918,-0.260683122662124,0.281235705190773,ST
12.4333333333333,-2.4996395111084,-2.88304901123047,8.03784561157227,0.381099998950958,-0.853663980960846,-2.72867584228516,-1010.70001220703,9.30000019073486,-923.700012207031,1.84702779905898,-0.281665362348856,0.344570525065543,ST
12.4666666666667,-3.47879958152771,-3.12350249290466,8.91831207275391,0.0228659994900227,-0.891773998737335,-1.99696397781372,-1010.70001220703,12.3000001907349,-926.100036621094,1.85598915808803,-0.349735175010293,0.337890300311042,ST
12.5,-3.79701161384583,-3.10854911804199,9.26224422454834,-0.0152439996600151,-1.73781597614288,1.03659200668335,-1025.10009765625,15.3000001907349,-923.700012207031,1.84074349170322,-0.368223319842903,0.32292133315174,ST
12.5333333333333,-2.83759021759033,-3.14742827415466,9.71563625335693,-0.304879993200302,-1.92074394226074,1.64635193347931,-1025.10009765625,7.50000047683716,-928.500061035156,1.82086101735155,-0.269096075847599,0.312809736371799,ST
12.5666666666667,-2.15032386779785,-2.71556901931763,8.9236946105957,0.327746003866196,-1.12043392658234,0.434453994035721,-1017.90002441406,0.300000011920929,-938.100036621094,1.81194799350097,-0.225283228474705,0.294683342876494,ST
12.6,-2.77059817314148,-2.54330396652222,8.74126148223877,0.670735955238342,0.724089980125427,0.525918006896973,-1015.50006103516,6.90000009536743,-930.900024414062,1.80792169402161,-0.296314130978905,0.281913413487224,ST
12.6333333333333,-2.92491912841797,-2.2352602481842,8.97812557220459,0.67835795879364,1.31860601902008,1.95885396003723,-1015.50006103516,10.5,-923.700012207031,1.78659554321563,-0.309175847934386,0.242169141277328,ST
12.6666666666667,-2.42905855178833,-2.11084651947021,7.96606826782227,0.411587983369827,1.34909391403198,2.17227005958557,-1010.70001220703,11.1000003814697,-928.500061035156,1.7798865730619,-0.290009152385702,0.257289737809524,ST
12.7,-3.18810200691223,-2.26157855987549,7.94752550125122,-0.106707997620106,2.08842802047729,2.33233189582825,-1013.10003662109,12.3000001907349,-935.700012207031,1.77481545082089,-0.372166054771832,0.276131424370442,ST
12.7333333333333,-3.84486293792725,-2.27952289581299,9.24549579620361,-0.190549999475479,1.12043392658234,3.353679895401,-1008.30004882812,8.10000038146973,-921.300048828125,1.74010830284229,-0.386980300114385,0.240114254129163,ST
12.7666666666667,-3.32926368713379,-2.20296049118042,9.10493278503418,-0.0304879993200302,-0.213415995240211,3.353679895401,-1005.90002441406,8.70000076293945,-930.900024414062,1.7168894241757,-0.342844449418309,0.2354102980639,ST
12.8,-2.31541132926941,-2.19339036941528,9.11868953704834,0.6250039935112,-1.00610399246216,2.26373386383057,-1013.10003662109,11.1000003814697,-926.100036621094,1.70136127651906,-0.242076839044731,0.233910203344375,ST
12.8333333333333,-2.43324565887451,-2.06299519538879,9.00205135345459,1.2423859834671,-0.647870004177094,1.96647596359253,-1005.90002441406,8.10000038146973,-940.500061035156,1.68683977113056,-0.257146542954877,0.22226282441468,ST
12.8666666666667,-3.28380489349365,-1.96549785137177,9.20362567901611,1.6844619512558,0.243903994560242,2.77440786361694,-996.300048828125,5.10000038146973,-935.700012207031,1.66820356914869,-0.336476762651087,0.205978819533347,ST
12.9,-2.44042325019836,-1.57909739017487,8.79569244384766,2.0731840133667,0.144817993044853,2.72105383872986,-1013.10003662109,6.30000019073486,-926.100036621094,1.64396683267931,-0.268053433611065,0.172926086072474,ST
12.9333333333333,-2.68147492408752,-1.46784281730652,8.58275318145752,1.83690190315247,0.0381099991500378,1.93598794937134,-1001.10003662109,6.90000009536743,-928.500061035156,1.63231921752623,-0.299184967519538,0.165200210706127,ST
12.9666666666667,-2.76102805137634,-1.30634427070618,8.81303882598877,1.28049600124359,-1.12805593013763,1.02134799957275,-1013.10003662109,10.5,-933.300048828125,1.62103403942022,-0.298830861737889,0.144460916777209,ST
13.0,-2.65754914283752,-1.55098474025726,8.42125511169434,0.579271972179413,-1.2423859834671,1.50153398513794,-1010.70001220703,5.70000028610229,-923.700012207031,1.62148883649661,-0.299262113786623,0.179914112609068,ST
13.0333333333333,-2.52236890792847,-1.51270353794098,9.234130859375,0.564027965068817,-1.97409796714783,0.884151995182037,-1017.90002441406,0.900000035762787,-921.300048828125,1.60932448902709,-0.260473369807299,0.160987102056441,ST
13.0666666666667,-1.93738508224487,-1.00308573246002,8.66170883178711,1.44055795669556,-2.58385801315308,1.39482593536377,-1015.50006103516,5.70000028610229,-921.300048828125,1.58808059830783,-0.214694657243344,0.112409588375364,ST
13.1,-2.65754914283752,-0.848764896392822,8.39613246917725,1.81403601169586,-0.663114011287689,2.22562384605408,-1027.5,5.70000028610229,-938.100036621094,1.57233363993991,-0.303577112923735,0.0964779441121526,ST
13.1333333333333,-3.6373074054718,-0.708799421787262,9.05887508392334,1.72257196903229,0.259148001670837,1.99696397781372,-1029.90002441406,0.900000035762787,-926.100036621094,1.55623256894852,-0.380836703224758,0.0738977783826089,ST
13.1666666666667,-3.38429284095764,-0.576011657714844,8.92309665679932,0.92988395690918,-0.716467976570129,1.37195992469788,-1025.10009765625,0.300000011920929,-933.300048828125,1.54508355717435,-0.360889549042353,0.0620041855794419,ST
13.2,-4.13914918899536,-0.674705266952515,9.41776084899902,0.0838419944047928,-0.899396002292633,0.914639949798584,-1025.10009765625,5.10000038146973,-923.700012207031,1.54233244599258,-0.411280144638348,0.0705600623796684,ST
13.2333333333333,-3.4853789806366,-0.797922730445862,10.2563571929932,-0.0685980021953583,-1.60824191570282,-0.670735955238342,-1010.70001220703,3.30000019073486,-930.900024414062,1.54874037094393,-0.324188379087304,0.0780470247193464,ST
13.2666666666667,-3.12290453910828,-0.568833947181702,9.27659893035889,0.175305992364883,-1.58537602424622,-1.12043392658234,-1022.70001220703,5.10000038146973,-933.300048828125,1.55057533138856,-0.321300475726485,0.0616651711994057,ST
13.3,-2.86988997459412,-0.730930685997009,8.81244087219238,-0.342989981174469,-0.37347799539566,-1.15854394435883,-1029.90002441406,8.70000076293945,-933.300048828125,1.56414136762874,-0.313075126730297,0.0838053306436653,ST
13.3333333333333,-2.2191104888916,-1.08622765541077,8.58933353424072,-1.02134799957275,0.388722002506256,-1.32622802257538,-1025.10009765625,6.30000019073486,-916.500061035156,1.58457821135808,-0.251536079516391,0.128020724855717,ST
13.3666666666667,-2.38659048080444,-1.1777435541153,8.40032005310059,-0.861285984516144,0.6250039935112,-1.81403601169586,-1015.50006103516,2.70000004768372,-921.300048828125,1.59907388482268,-0.274708710609899,0.141608461289025,ST
13.4,-2.87467503547668,-1.45348739624023,8.632399559021,-0.739333987236023,1.19665396213531,-1.18903195858002,-1017.90002441406,7.50000047683716,-923.700012207031,1.61491011568468,-0.318753180661056,0.1687310716421,ST
13.4333333333333,-3.11453056335449,-1.59345293045044,8.93206882476807,-0.556405961513519,1.28049600124359,-0.365855991840363,-1022.70001220703,5.70000028610229,-923.700012207031,1.62046598865629,-0.332659368470386,0.177800542798702,ST
13.4666666666667,-3.2586829662323,-1.66164112091064,9.82808685302734,-0.0304879993200302,-0.121951997280121,-0.708845973014832,-1020.30004882812,0.900000035762787,-923.700012207031,1.62211690547856,-0.315639293565395,0.167973571084987,ST
13.5,-2.61209034919739,-1.51689052581787,9.5445671081543,0.0076219998300075,-0.510673999786377,-0.663114011287689,-1020.30004882812,13.5000009536743,-938.100036621094,1.62308169346972,-0.263342799518857,0.157949208837663,ST
13.5333333333333,-2.66053986549377,-1.2118376493454,9.20841121673584,0.0990860015153885,0.0304879993200302,-0.46494197845459,-1027.5,11.7000007629395,-918.900024414062,1.61917647149237,-0.278803604184888,0.131130412237759,ST
13.5666666666667,-2.84237551689148,-1.41939330101013,8.99906063079834,0.0914639979600906,0.884151995182037,-0.0533539988100529,-1017.90002441406,9.30000019073486,-930.900024414062,1.62777733206365,-0.303730331092165,0.156173630492313,ST
13.6,-2.45836758613586,-1.56294763088226,8.78731822967529,0.449698001146317,0.442075997591019,-0.746955990791321,-1020.30004882812,9.30000019073486,-928.500061035156,1.63947715896472,-0.269591059186564,0.175474668498782,ST
13.6333333333333,-2.25440096855164,-1.47442245483398,8.75860786437988,0.693601965904236,-0.175305992364883,-1.50915598869324,-1010.70001220703,5.10000038146973,-911.700012207031,1.64808302496456,-0.248011531998903,0.16628817400712,ST
13.6666666666667,-2.01215291023254,-1.4821982383728,8.16345500946045,0.87652999162674,-0.175305992364883,-1.94360995292664,-1001.10003662109,7.50000047683716,-921.300048828125,1.66515660907033,-0.237111905905513,0.178770647773244,ST
13.7,-2.54210758209229,-1.61378967761993,8.08091163635254,0.967993974685669,0.0533539988100529,-1.89787793159485,-1022.70001220703,3.30000019073486,-940.500061035156,1.68409027250908,-0.298170489355451,0.196268946876566,ST
13.7333333333333,-3.01643490791321,-1.85424315929413,8.91472244262695,0.830797970294952,-0.663114011287689,-1.74543797969818,-1020.30004882812,10.5,-928.500061035156,1.69870655681128,-0.317982602979346,0.204457419553888,ST
13.7666666666667,-2.21013832092285,-2.10665965080261,8.9356575012207,0.426831990480423,-2.17227005958557,-2.28659987449646,-1020.30004882812,7.50000047683716,-928.500061035156,1.71840489231533,-0.232350865218246,0.231292933219606,ST
13.8,-2.94585418701172,-2.44879722595215,8.27470970153809,-0.0228659994900227,-0.518296003341675,-2.41617393493652,-1022.70001220703,10.5,-928.500061035156,1.74859611677776,-0.326134936342002,0.288543526769052,ST
13.8333333333333,-3.28141236305237,-3.10854911804199,9.1031379699707,-0.106707997620106,0.891773998737335,-0.861285984516144,-1005.90002441406,9.90000057220459,-918.900024414062,1.7692099747089,-0.329719639407197,0.329674272388679,ST
13.8666666666667,-3.35498404502869,-3.17015767097473,9.47697734832764,0.46494197845459,0.823175966739655,-0.46494197845459,-1022.70001220703,7.50000047683716,-918.900024414062,1.7730284723226,-0.325032161123882,0.322446370932021,ST
13.9,-3.53382873535156,-2.9201340675354,8.84593677520752,0.586893975734711,0.975615978240967,0.426831990480423,-1017.90002441406,5.70000028610229,-938.100036621094,1.7722197144817,-0.364107861886938,0.317795041148137,ST
13.9333333333333,-3.84665751457214,-2.9183394908905,9.46142578125,0.0609759986400604,0.708845973014832,0.777444005012512,-1013.10003662109,8.70000076293945,-923.700012207031,1.76182346005046,-0.372099093513934,0.298807660724634,ST
13.9666666666667,-3.66781258583069,-2.59474420547485,9.28916072845459,-0.0685980021953583,0.0,1.265251994133,-1008.30004882812,9.30000019073486,-928.500061035156,1.7441249933245,-0.364063624581077,0.271916938987175,ST
14.0,-2.91534876823425,-2.51698565483093,8.66469955444336,-0.205793991684914,0.434453994035721,1.85976791381836,-1010.70001220703,5.70000028610229,-921.300048828125,1.73611955426828,-0.314557197107275,0.282033411925277,ST
14.0333333333333,-2.63661432266235,-2.19339036941528,8.25915813446045,0.350611984729767,0.198172003030777,2.21800184249878,-1010.70001220703,5.10000038146973,-940.500061035156,1.71579409450751,-0.300713258997359,0.258029102892811,ST
14.0666666666667,-2.38359975814819,-1.97506809234619,8.21788597106934,0.960371971130371,-0.205793991684914,3.20123982429504,-1015.50006103516,6.30000019073486,-928.500061035156,1.6894975612604,-0.276028957916977,0.232826720510835,ST
14.1,-2.65276408195496,-1.83211195468903,8.23104572296143,1.62348592281342,0.0838419944047928,4.25307607650757,-1008.30004882812,6.30000019073486,-933.300048828125,1.66009266855496,-0.306265203275313,0.214063066364943,ST
14.1333333333333,-2.92192840576172,-1.98045134544373,9.18269062042236,1.88263392448425,-0.419209986925125,3.69666981697083,-1015.50006103516,5.10000038146973,-933.300048828125,1.63747776421716,-0.30221035598627,0.207174333315047,ST
14.1666666666667,-2.89261937141418,-1.73222208023071,9.53200626373291,2.28659987449646,-1.21189796924591,3.46800994873047,-1001.10003662109,-0.300000011920929,-933.300048828125,1.60596950476339,-0.289171530055492,0.174017692807485,ST
14.2,-3.5972318649292,-1.5623494386673,9.74733829498291,2.32470989227295,-0.259148001670837,3.44514393806458,-1013.10003662109,2.70000004768372,-933.300048828125,1.58159564347213,-0.349505168056146,0.152841981276695,ST
14.2333333333333,-2.47332119941711,-0.593357801437378,9.43929386138916,2.56099200248718,-0.670735955238342,2.75154185295105,-1020.30004882812,6.90000009536743,-923.700012207031,1.53904476586336,-0.255555652560072,0.0576586926696758,ST
14.2666666666667,-1.91764640808105,-0.385802209377289,8.60368824005127,2.27135586738586,-1.05945801734924,2.0731840133667,-1013.10003662109,7.50000047683716,-921.300048828125,1.52387511559413,-0.217650574728843,0.0401453290386674,ST
14.3,-2.65814733505249,-0.636424124240875,8.1006498336792,1.18903195858002,0.0685980021953583,0.87652999162674,-1005.90002441406,3.30000019073486,-930.900024414062,1.52982446415492,-0.315585247084025,0.0755328234900183,ST
14.3333333333333,-2.34531855583191,-0.694444000720978,8.77655220031738,0.121951997280121,-1.28811800479889,-0.655492007732391,-1008.30004882812,0.300000011920929,-942.900024414062,1.53470962986588,-0.258486599048048,0.0789760702680036,ST
14.3666666666667,-2.03308796882629,-0.977963745594025,8.60129547119141,-0.137196004390717,-2.28659987449646,-0.586893975734711,-1010.70001220703,3.90000009536743,-926.100036621094,1.545051107537,-0.226858139647809,0.11330312558463,ST
14.4,-3.06667900085449,-1.24114668369293,9.75451564788818,-0.442075997591019,-1.6768399477005,0.228659987449646,-1027.5,0.900000035762787,-935.700012207031,1.54455313318213,-0.299115881763085,0.127028563289142,ST
14.4333333333333,-2.88603973388672,-1.00188946723938,8.85012340545654,-0.182927995920181,-0.769822001457214,1.85214591026306,-1037.10009765625,-1.5,-930.900024414062,1.52696724857708,-0.312275960393336,0.112085176021519,ST
14.4666666666667,-3.36933946609497,-1.23755776882172,9.70128059387207,-0.160062000155449,0.152439996600151,1.93598794937134,-1013.10003662109,3.90000009536743,-921.300048828125,1.51853347508844,-0.332303624974589,0.125903170028274,ST
14.5,-3.22159814834595,-0.943271458148956,9.89089202880859,0.777444005012512,-0.472563982009888,0.564027965068817,-1020.30004882812,5.10000038146973,-935.700012207031,1.50598366963058,-0.312979168650464,0.0936443468968541,ST
14.5333333333333,-3.36754488945007,-0.821848452091217,8.93087291717529,0.800309956073761,0.472563982009888,0.518296003341675,-1027.5,1.5,-933.300048828125,1.50362546836305,-0.35971005235273,0.0900876114476835,ST
14.5666666666667,-3.68635511398315,-0.991122901439667,9.11569881439209,0.0533539988100529,1.43293595314026,0.602137982845306,-1017.90002441406,3.30000019073486,-933.300048828125,1.50728942287833,-0.38464635791758,0.107748176139,ST
14.6,-3.52904343605042,-0.802707850933075,8.98231315612793,0.137196004390717,1.00610399246216,0.457319974899292,-1010.70001220703,3.90000009536743,-933.300048828125,1.49828849457046,-0.374909742753976,0.0887932331597092,ST
14.6333333333333,-2.82801985740662,-0.983347058296204,8.47389125823975,-0.0228659994900227,-0.0762199983000755,-0.266770005226135,-1017.90002441406,2.10000014305115,-928.500061035156,1.5090179080125,-0.320373095334789,0.115500406829031,ST
14.6666666666667,-2.96918177604675,-0.839792728424072,8.49781703948975,-0.0381099991500378,-0.243903994560242,-0.823175966739655,-1017.90002441406,5.10000038146973,-942.900024414062,1.50887794664747,-0.333956253416091,0.0991873906169312,ST
14.7,-2.2711489200592,-1.32668113708496,8.89797496795654,-0.335367977619171,-1.07470202445984,-1.50153398513794,-1008.30004882812,3.90000009536743,-921.300048828125,1.5313905550785,-0.245777938926628,0.14878196817115,ST
14.7333333333333,-2.18441820144653,-0.974973022937775,8.57737064361572,-0.350611984729767,-1.87501192092896,-1.77592599391937,-1020.30004882812,-0.900000035762787,-945.300048828125,1.53282264855901,-0.244245716962491,0.114750624873462,ST
14.7666666666667,-2.08452820777893,-1.68496870994568,8.61206245422363,-1.35671591758728,-0.274392008781433,-0.632625997066498,-1032.30004882812,6.90000009536743,-940.500061035156,1.55349406206231,-0.232642011589803,0.195151346176069,ST
14.8,-2.64618444442749,-1.69633340835571,9.23652362823486,-0.960371971130371,1.08232402801514,0.175305992364883,-1020.30004882812,3.90000009536743,-942.900024414062,1.54882406862578,-0.276363644358398,0.183375631746336,ST
14.8333333333333,-3.41479825973511,-1.90508532524109,9.87773323059082,-0.167683988809586,1.33385002613068,0.762199997901917,-1003.50006103516,8.70000076293945,-933.300048828125,1.54698612801453,-0.329531525401197,0.190490691697822,ST
14.8666666666667,-2.58397769927979,-1.37393438816071,10.2150859832764,0.754577994346619,-0.868907988071442,0.152439996600151,-1015.50006103516,-2.10000014305115,-933.300048828125,1.5301341736905,-0.244871698101345,0.132727857987497,ST
14.9,-2.37283325195312,-1.27105379104614,8.91472244262695,0.518296003341675,-0.266770005226135,0.236281991004944,-1017.90002441406,8.10000038146973,-930.900024414062,1.53116113817771,-0.257144209806114,0.140530854023335,ST
14.9333333333333,-3.1528115272522,-1.3338588476181,9.42733097076416,-0.175305992364883,1.48628997802734,0.571649968624115,-1013.10003662109,6.30000019073486,-938.100036621094,1.528476391341,-0.32194402450987,0.140653572012262,ST
14.9666666666667,-2.11742615699768,-1.45348739624023,8.46850776672363,-0.365855991840363,0.548784017562866,-0.335367977619171,-993.900024414062,4.5,-933.300048828125,1.53912189831171,-0.242916133541707,0.170633060161887,ST
15.0,-1.94217026233673,-1.46844100952148,7.57069540023804,-0.0609759986400604,-0.152439996600151,-0.907018005847931,-1008.30004882812,5.70000028610229,-926.100036621094,1.54995118280098,-0.246125604897908,0.191893029407461,ST
15.0333333333333,-2.21013832092285,-2.1150336265564,7.93257188796997,-0.388722002506256,-0.442075997591019,-1.50153398513794,-1020.30004882812,0.900000035762787,-928.500061035156,1.57652961606233,-0.26148699362553,0.261533701842435,ST
15.0666666666667,-2.62824010848999,-2.26397109031677,7.90266513824463,-0.3125019967556,-0.87652999162674,-1.37958192825317,-1020.30004882812,5.10000038146973,-930.900024414062,1.58828307306381,-0.306934967696127,0.279997105589381,ST
15.1,-3.71506595611572,-2.64917516708374,9.3477783203125,0.160062000155449,-0.960371971130371,-0.442075997591019,-1010.70001220703,6.90000009536743,-921.300048828125,1.58858037769172,-0.36317151452719,0.276004779093862,ST
15.1333333333333,-3.2568883895874,-2.98054647445679,9.94412708282471,0.46494197845459,-1.89787793159485,-0.564027965068817,-1020.30004882812,0.300000011920929,-926.100036621094,1.594260296004,-0.301062378602465,0.290279907005679,ST
15.1666666666667,-3.18810200691223,-2.52535963058472,8.90754508972168,0.815553963184357,-1.64635193347931,-0.365855991840363,-1005.90002441406,9.90000057220459,-926.100036621094,1.59061774730489,-0.328458590826261,0.274905154096727,ST
15.2,-3.38010597229004,-2.23466205596924,8.78133678436279,0.221037998795509,0.160062000155449,1.95123195648193,-1017.90002441406,2.70000004768372,-923.700012207031,1.56966240906539,-0.35794965848484,0.247785917129536,ST
15.2333333333333,-3.19049453735352,-2.0911078453064,8.5785665512085,0.190549999475479,0.480185985565186,2.62959003448486,-1017.90002441406,7.50000047683716,-923.700012207031,1.55064431382618,-0.348707782665852,0.237299947812797,ST
15.2666666666667,-3.39565753936768,-1.88654291629791,9.07083797454834,0.510673999786377,0.571649968624115,1.95885396003723,-1008.30004882812,5.10000038146973,-940.500061035156,1.52818423960751,-0.352945984328579,0.203240702151697,ST
15.3,-3.25389766693115,-1.64967834949493,9.19644832611084,1.00610399246216,-0.46494197845459,1.34147191047668,-1005.90002441406,1.5,-933.300048828125,1.51186684942788,-0.334887185992728,0.175115493955066,ST
15.3333333333333,-2.93987274169922,-1.46066510677338,8.51935005187988,0.937505960464478,-1.08994603157043,1.41006994247437,-1013.10003662109,-0.300000011920929,-921.300048828125,1.50036916962766,-0.326420521786207,0.167272071089029,ST
15.3666666666667,-3.03736996650696,-1.45169293880463,8.58095932006836,0.495429992675781,-0.0533539988100529,2.27897787094116,-1013.10003662109,4.5,-930.900024414062,1.48530591703544,-0.336297209752389,0.165360149202649,ST
15.4,-2.19159579277039,-1.02701151371002,9.46501445770264,1.15092194080353,-0.693601965904236,1.82165801525116,-1017.90002441406,5.10000038146973,-928.500061035156,1.45704919228047,-0.225915221995021,0.10558393074328,ST
15.4333333333333,-1.55158281326294,-0.708799421787262,8.99906063079834,1.70732796192169,-1.32622802257538,1.48628997802734,-1020.30004882812,6.30000019073486,-935.700012207031,1.44246039085339,-0.168583977346469,0.0753916846637744,ST
15.4666666666667,-2.51698565483093,-0.862522184848785,9.32086181640625,1.03659200668335,-0.434453994035721,0.655492007732391,-1029.90002441406,2.10000014305115,-930.900024414062,1.44240592390632,-0.261582021427677,0.0900706257554262,ST
15.5,-2.97277045249939,-1.05213344097137,9.4315185546875,0.525918006896973,-0.205793991684914,0.190549999475479,-1010.70001220703,7.50000047683716,-918.900024414062,1.44758239693084,-0.302965064560536,0.109923351659261,ST
15.5333333333333,-2.36266469955444,-1.60003244876862,9.25865459442139,-0.403965979814529,-0.868907988071442,-0.388722002506256,-1017.90002441406,4.5,-926.100036621094,1.4652725900531,-0.245074879089879,0.171584946355765,ST
15.5666666666667,-2.38659048080444,-1.57730305194855,8.72630786895752,-0.365855991840363,-1.04421401023865,-0.983237981796265,-1013.10003662109,2.10000014305115,-921.300048828125,1.47233158468182,-0.260729190269466,0.179784892075912,ST
15.6,-2.66951203346252,-1.69095015525818,8.03724670410156,-0.175305992364883,-0.129574000835419,0.0,-1013.10003662109,3.90000009536743,-918.900024414062,1.47963879771375,-0.313599129125962,0.207423515278687,ST
15.6333333333333,-2.98054647445679,-1.64429497718811,8.10902404785156,0.0838419944047928,0.129574000835419,0.685979962348938,-1027.5,7.50000047683716,-918.900024414062,1.47257698192324,-0.346089188222371,0.199539668517182,ST
15.6666666666667,-2.72693371772766,-1.37871956825256,9.11031532287598,0.243903994560242,-2.5152599811554,0.571649968624115,-1022.70001220703,7.50000047683716,-933.300048828125,1.4508386881139,-0.283907692203931,0.149567465479871,ST
15.7,-2.00377893447876,-1.30215728282928,8.99427604675293,0.190549999475479,-3.43752193450928,1.02897000312805,-1025.10009765625,3.30000019073486,-930.900024414062,1.43932519660234,-0.211923954533744,0.142924141553813,ST
15.7333333333333,-2.28071904182434,-1.39247679710388,10.5841398239136,0.297257989645004,-2.65245604515076,0.716467976570129,-1022.70001220703,4.5,-933.300048828125,1.42988379012573,-0.206100036264498,0.130012953517301,ST
15.7666666666667,-2.68685817718506,-0.74349170923233,10.4340057373047,0.967993974685669,-1.42531394958496,0.701223969459534,-1025.10009765625,0.300000011920929,-926.100036621094,1.41232967779516,-0.248681651581585,0.0695969148339947,ST
15.8,-2.53911685943604,-1.10237753391266,8.83696460723877,0.289635986089706,1.32622802257538,1.47866797447205,-1032.30004882812,6.90000009536743,-930.900024414062,1.41765534303089,-0.280145485937081,0.122578903608031,ST
15.8333333333333,-3.20843887329102,-1.21482837200165,9.5385856628418,-0.182927995920181,2.01220798492432,0.602137982845306,-1022.70001220703,-0.300000011920929,-921.300048828125,1.41624552634488,-0.325296452755959,0.126760606020469,ST
15.8666666666667,-2.66532516479492,-0.779380261898041,7.9756383895874,0.434453994035721,0.609759986400604,0.137196004390717,-1022.70001220703,2.70000004768372,-921.300048828125,1.40720424552466,-0.322198690610692,0.096853874240768,ST
15.9,-3.07864189147949,-1.04375946521759,7.86378574371338,0.335367977619171,1.265251994133,-0.419209986925125,-1025.10009765625,0.300000011920929,-928.500061035156,1.42411094142043,-0.372097802654182,0.131628585273749,ST
15.9333333333333,-3.58586716651917,-0.955234348773956,9.54516506195068,0.282013982534409,-0.0762199983000755,-1.05945801734924,-1029.90002441406,3.90000009536743,-935.700012207031,1.42055128193814,-0.357506579258225,0.100149423293624,ST
15.9666666666667,-3.25389766693115,-1.23935222625732,9.44587421417236,0.0228659994900227,-1.12043392658234,-0.243903994560242,-1017.90002441406,5.70000028610229,-921.300048828125,1.43138853690122,-0.327383824849586,0.130232056128793,ST
16.0,-3.15101718902588,-1.25550210475922,10.0894756317139,0.121951997280121,-0.87652999162674,-1.35671591758728,-1017.90002441406,3.90000009536743,-921.300048828125,1.43796225187413,-0.298952699826939,0.124304191032652,ST
16.0333333333333,-2.32677626609802,-1.68855762481689,9.71444034576416,0.0076219998300075,-0.556405961513519,-2.59910202026367,-1034.70007324219,2.70000004768372,-933.300048828125,1.46723290083778,-0.230578568712141,0.172714024559266,ST
16.0666666666667,-2.44939541816711,-1.68975389003754,9.33461952209473,0.457319974899292,-0.708845973014832,-2.69056582450867,-1010.70001220703,5.10000038146973,-935.700012207031,1.4881014538099,-0.250534146108337,0.17937479509725,ST
16.1,-2.28251361846924,-2.14135193824768,8.92848014831543,0.274392008781433,0.152439996600151,-2.47714996337891,-1034.70007324219,5.10000038146973,-923.700012207031,1.51869102171187,-0.242979633258953,0.235503915900542,ST
16.1333333333333,-1.88953363895416,-2.24064350128174,8.53250980377197,0.144817993044853,-0.37347799539566,-1.08994603157043,-1022.70001220703,2.10000014305115,-933.300048828125,1.53016927569671,-0.210160309629386,0.256735074396798,ST
16.1666666666667,-1.77768087387085,-2.36924433708191,7.75851249694824,0.106707997620106,0.144817993044853,0.0838419944047928,-1037.10009765625,3.90000009536743,-928.500061035156,1.53833370437947,-0.215964780976147,0.29585492131138,ST
16.2,-2.03727507591248,-2.4816951751709,9.88072395324707,0.304879993200302,-0.167683988809586,-0.510673999786377,-1039.5,3.90000009536743,-926.100036621094,1.53161082761015,-0.19702826768151,0.246110319760828,ST
16.2333333333333,-1.42537474632263,-2.29567265510559,8.11620235443115,0.975615978240967,-0.556405961513519,1.05945801734924,-1037.10009765625,0.300000011920929,-923.700012207031,1.52915791644669,-0.167115260474402,0.273472325774223,ST
16.2666666666667,-2.36386108398438,-2.1150336265564,10.0816993713379,0.937505960464478,-0.426831990480423,1.50915598869324,-1025.10009765625,2.70000004768372,-916.500061035156,1.5065850387462,-0.224911827877263,0.205104849667353,ST
16.3,-2.10426688194275,-1.61020088195801,9.00683689117432,1.2500079870224,-0.548784017562866,2.27897787094116,-1027.5,0.300000011920929,-916.500061035156,1.48452047266976,-0.225797592010129,0.173934252687166,ST
16.3333333333333,-2.0731635093689,-1.82613050937653,9.36691856384277,0.617381989955902,0.0914639979600906,2.36281991004944,-1017.90002441406,8.10000038146973,-914.100036621094,1.47305451355135,-0.214925396714483,0.190471220930806,ST
16.3666666666667,-2.06778025627136,-0.843979716300964,8.63658618927002,1.52439999580383,-0.960371971130371,1.52439999580383,-1017.90002441406,5.10000038146973,-928.500061035156,1.44325186952249,-0.23238096364666,0.0948780992513621,ST
16.4,-2.11383724212646,-1.54560148715973,8.65273666381836,0.92988395690918,0.236281991004944,1.90549993515015,-1032.30004882812,5.10000038146973,-914.100036621094,1.4506844337847,-0.236952026189827,0.173713670008754,ST
16.4333333333333,-2.58098697662354,-1.57610678672791,8.83457183837891,0.937505960464478,0.655492007732391,1.21951997280121,-1010.70001220703,7.50000047683716,-921.300048828125,1.44533695336664,-0.281178690066223,0.174357977423403,ST
16.4666666666667,-2.61029601097107,-1.96908664703369,9.94651985168457,1.18140995502472,0.160062000155449,0.25152599811554,-1032.30004882812,-0.900000035762787,-921.300048828125,1.45095659458763,-0.25252254947579,0.19315324440256,ST
16.5,-2.15152025222778,-1.94456279277802,9.73896408081055,2.15702605247498,-1.28811800479889,-1.56251001358032,-1025.10009765625,6.30000019073486,-933.300048828125,1.46303669087692,-0.210958719091629,0.193789942745667,ST
16.5333333333333,-2.10187435150146,-1.97387182712555,8.80107593536377,2.37806391716003,-0.419209986925125,-1.92074394226074,-1029.90002441406,3.90000009536743,-914.100036621094,1.48378460551156,-0.22737845679765,0.216999414337726,ST
16.5666666666667,-2.13596844673157,-1.8889354467392,8.50200462341309,2.36281991004944,0.167683988809586,-1.42531394958496,-1020.30004882812,0.900000035762787,-930.900024414062,1.49677712654923,-0.240154391855667,0.215124395270758,ST
16.6,-1.60302317142487,-1.78605496883392,7.88651514053345,2.29422187805176,0.304879993200302,-0.754577994346619,-1010.70001220703,1.5,-926.100036621094,1.50707080589814,-0.196147687827032,0.218971486467714,ST
16.6333333333333,-2.60132384300232,-2.4296567440033,10.035044670105,1.72257196903229,0.609759986400604,-0.899396002292633,-1022.70001220703,2.10000014305115,-923.700012207031,1.52045529438987,-0.24712841636455,0.234872112424584,ST
16.6666666666667,-2.61807179450989,-1.55218100547791,10.3215551376343,2.9420919418335,-1.13567793369293,-1.08232402801514,-1017.90002441406,4.5,-918.900024414062,1.50979245380327,-0.243552446353932,0.145136893006119,ST
16.7,-1.71906292438507,-2.02052688598633,9.90883636474609,2.0731840133667,-0.724089980125427,0.6250039935112,-1025.10009765625,-3.30000019073486,-916.500061035156,1.51795470654618,-0.167981764324489,0.196889034229535,ST
16.7333333333333,-1.43374872207642,-1.21722090244293,9.31667518615723,2.40855193138123,-0.823175966739655,0.67835795879364,-1020.30004882812,-3.90000009536743,-921.300048828125,1.50390639230659,-0.150301782983056,0.126085384263214,ST
16.7666666666667,-1.38709354400635,-1.33924210071564,9.11988544464111,2.12653803825378,0.335367977619171,1.54726600646973,-1025.10009765625,-0.300000011920929,-923.700012207031,1.49826766158895,-0.150321634684024,0.14157539378272,ST
16.8,-1.8446729183197,-1.07366669178009,10.4423799514771,2.62959003448486,0.503051996231079,0.724089980125427,-1025.10009765625,2.10000014305115,-911.700012207031,1.48973764309238,-0.174749939889853,0.0980234208422944,DLR
16.8333333333333,-0.96360832452774,-0.442027658224106,9.78920745849609,3.42989993095398,-0.327746003866196,0.198172003030777,-1020.30004882812,-5.70000028610229,-916.500061035156,1.48306812931378,-0.0980982607805437,0.0395791972035744,DLR
16.8666666666667,-2.17544603347778,-0.125610023736954,9.07143592834473,3.61282801628113,0.945127964019775,0.37347799539566,-1022.70001220703,-10.5,-909.300048828125,1.48033940242392,-0.235863442353325,0.0076542212700158,DLR
16.9,-3.2126259803772,0.397166937589645,10.8174152374268,3.65093803405762,1.02134799957275,1.21189796924591,-1008.30004882812,-6.90000009536743,-923.700012207031,1.46567247900891,-0.28983257486808,-0.0433648163613316,DLR
16.9333333333333,-1.96968483924866,1.15321969985962,9.09895133972168,4.03965997695923,0.3125019967556,1.21951997280121,-1015.50006103516,-6.30000019073486,-918.900024414062,1.44110669220352,-0.212180518980819,-0.133174143103507,DLR
16.9666666666667,-3.43513512611389,0.403746515512466,11.1846752166748,3.01068997383118,0.83841997385025,0.983237981796265,-1013.10003662109,-9.30000019073486,-904.500061035156,1.46285778685753,-0.298788680700768,-0.0423272083702117,DLR
17.0,-1.79203629493713,1.67719292640686,11.8671569824219,4.80185985565186,-3.11739802360535,-3.75002384185791,-1015.50006103516,-11.1000003814697,-928.500061035156,1.47662896834172,-0.14472448028757,-0.147210813149308,DLR
17.0333333333333,0.926523447036743,2.27832651138306,5.0112419128418,4.57319974899292,-2.16464805603027,-5.32777786254883,-1017.90002441406,-9.90000057220459,-909.300048828125,1.51841343991599,0.164524790367025,-0.434549861497033,DLR
17.0666666666667,-5.92699861526489,1.30694234371185,10.0278673171997,0.922261953353882,3.58996200561523,-1.93598794937134,-1025.10009765625,-13.5000009536743,-909.300048828125,1.58663454191264,-0.53063979002993,-0.133342696915135,DLR
17.1,-1.40503787994385,1.03060030937195,5.96109294891357,1.38720393180847,2.19513607025146,-4.29880809783936,-1015.50006103516,-11.1000003814697,-909.300048828125,1.60073344909635,-0.235715934516815,-0.171655915550737,DLR
17.1333333333333,-5.06387853622437,0.936691880226135,6.38816690444946,-0.716467976570129,4.45124769210815,-3.76526784896851,-1008.30004882812,-18.3000011444092,-899.700012207031,1.63143608660868,-0.671117857381571,-0.140416150163123,DLR
17.1666666666667,-3.48717355728149,-1.20226740837097,10.8700523376465,-1.38720393180847,1.43293595314026,-3.08691000938416,-993.900024414062,-15.3000001907349,-916.500061035156,1.77074170342236,-0.313179028126803,0.112940727370651,DLR
17.2,-5.49513959884644,-0.660947978496552,11.4406805038452,2.37044191360474,-1.29574000835419,-5.59454774856567,-993.900024414062,-15.9000005722046,-902.100036621094,1.79194018621731,-0.443198354769854,0.058558614752913,DLR
17.2333333333333,-6.40850400924683,0.0723752975463867,12.9145050048828,3.71191382408142,-1.74543797969818,-2.68294382095337,-986.700012207031,-12.9000005722046,-906.900024414062,1.7902618259246,-0.457489523430301,-0.0092079394639772,DLR
17.2666666666667,-0.52636581659317,2.74009299278259,8.65153980255127,6.74547004699707,-6.24241781234741,-2.74391984939575,-1001.10003662109,-10.5,-904.500061035156,1.74903730103597,-0.0510627091348532,-0.316647650840635,DLR
17.3,0.325987905263901,3.2748327255249,6.31818437576294,4.50460195541382,-3.53660798072815,-3.46800994873047,-1008.30004882812,-15.9000005722046,-892.500061035156,1.78019111898321,0.0476454972325623,-0.485013917447997,DLR
17.3333333333333,0.867307305335999,3.02660346031189,6.4216628074646,2.5000159740448,0.282013982534409,-5.73936605453491,-1005.90002441406,-21.9000015258789,-906.900024414062,1.80987516889799,0.116224843839248,-0.446134735934855,DLR
17.3666666666667,0.0233275759965181,2.08871531486511,6.39295196533203,0.952749967575073,0.99848198890686,-7.82779359817505,-1001.10003662109,-26.7000007629395,-894.900024414062,1.85075099297213,-0.001543629616517,-0.318540806869731,DLR
17.4,-1.43434679508209,1.01445043087006,7.73398876190186,0.724089980125427,0.990859985351562,-8.30797958374023,-977.100036621094,-18.9000015258789,-899.700012207031,1.92886588459876,-0.184645045820328,-0.130042316979836,DLR
17.4333333333333,-2.62524938583374,-0.099889874458313,8.71913051605225,0.487807989120483,1.96647596359253,-8.18602752685547,-979.500061035156,-18.3000011444092,-899.700012207031,2.01817928977708,-0.294856271863001,0.0136591790234058,DLR
17.4666666666667,-6.26195859909058,0.442625790834427,13.071816444397,2.5000159740448,1.53202199935913,-5.47259569168091,-965.100036621094,-21.3000011444092,-887.700012207031,2.04247834589295,-0.448215214071626,-0.0333166164607219,DLR
17.5,-5.08481359481812,0.444420218467712,11.6542177200317,3.7881338596344,-0.548784017562866,-3.93295192718506,-967.500061035156,-20.7000007629395,-882.900024414062,2.07460400802422,-0.410778658409227,-0.041640070590927,DLR
17.5333333333333,-4.4202766418457,1.19030451774597,11.7146301269531,2.84300589561462,-1.08232402801514,-3.46800994873047,-957.900024414062,-15.3000001907349,-887.700012207031,2.08141748576473,-0.358287940310394,-0.10338032913561,DLR
