seconds,sensor_accX_m_s_,sensor_accY_m_s_,sensor_accZ_m_s_,sensor_gyroX___s_,sensor_gyroY___s_,sensor_gyroZ___s_,sensor_magX__T_,sensor_magY__T_,sensor_magZ__T_,sensor_yaw___,sensor_pitch___,sensor_roll___,label2
0.0,-1.40144896507263,-2.10486507415771,9.22216796875,0.457319974899292,-0.297257989645004,0.396344006061554,-1073.10009765625,6.90000009536743,-928.500061035156,2.9845783135193,-0.147508566162897,0.223250621530824,ST
0.0333333333333333,-1.44451522827148,-2.05342483520508,9.25566387176514,0.457319974899292,-0.304879993200302,0.350611984729767,-1058.70007324219,-0.300000011920929,-938.100036621094,2.98262862587223,-0.15051548163331,0.217942289416516,ST
0.0666666666666667,-1.37273812294006,-2.00138640403748,9.15278339385986,0.495429992675781,-0.228659987449646,0.335367977619171,-1056.30004882812,6.90000009536743,-930.900024414062,2.98110635266629,-0.14569766797178,0.214642218186419,ST
0.1,-1.32428848743439,-1.94994604587555,9.03853797912598,0.510673999786377,-0.129574000835419,0.350611984729767,-1068.30004882812,3.30000019073486,-923.700012207031,2.97968265494496,-0.142481212546355,0.211780570032807,ST
0.133333333333333,-1.46186137199402,-1.94575905799866,9.23891639709473,0.46494197845459,-0.0533539988100529,0.457319974899292,-1053.90002441406,6.90000009536743,-942.900024414062,2.97766587487313,-0.152672863614969,0.207104260672395,ST
0.166666666666667,-1.51748871803284,-1.88594484329224,9.20242977142334,0.571649968624115,-0.0533539988100529,0.602137982845306,-1049.10009765625,6.90000009536743,-935.700012207031,2.97505796293054,-0.159592204357313,0.201530832719813,ST
0.2,-1.41161739826202,-1.87039303779602,9.18328857421875,0.472563982009888,-0.0838419944047928,0.670735955238342,-1046.70007324219,4.5,-940.500061035156,2.97278106551275,-0.150494096903475,0.200065815287171,ST
0.233333333333333,-1.41341185569763,-1.91345942020416,9.30650615692139,0.358233988285065,-0.266770005226135,0.480185985565186,-1056.30004882812,8.70000076293945,-918.900024414062,2.97143808358874,-0.147671120669199,0.201840464431237,ST
0.266666666666667,-1.35898077487946,-2.03548049926758,9.28317928314209,0.327746003866196,-0.167683988809586,0.106707997620106,-1068.30004882812,8.10000038146973,-930.900024414062,2.97288671416889,-0.142319077759229,0.214031088071204,ST
0.3,-1.52466642856598,-1.94575905799866,9.1330451965332,0.434453994035721,0.167683988809586,0.0838419944047928,-1056.30004882812,2.10000014305115,-926.100036621094,2.97228452978953,-0.160369014089225,0.209580872141117,ST
0.333333333333333,-1.60063064098358,-1.89551508426666,9.10433387756348,0.381099998950958,0.198172003030777,0.297257989645004,-1063.5,-0.300000011920929,-926.100036621094,2.97084259861306,-0.170099901277479,0.204909146809421,ST
0.366666666666667,-1.55756425857544,-1.84766364097595,9.1802978515625,0.3125019967556,-0.0228659994900227,0.472563982009888,-1051.5,9.30000019073486,-923.700012207031,2.96826585131384,-0.165333137528484,0.198454385582771,ST
0.4,-1.47741317749023,-1.9469553232193,9.22994422912598,0.182927995920181,-0.274392008781433,0.426831990480423,-1063.5,9.30000019073486,-942.900024414062,2.96798770281626,-0.155818693796802,0.206764243348803,ST
0.433333333333333,-1.50373148918152,-1.98882532119751,9.29753398895264,0.137196004390717,-0.297257989645004,0.243903994560242,-1065.90002441406,5.10000038146973,-928.500061035156,2.9674780370613,-0.156395902502952,0.210160266944855,ST
0.466666666666667,-1.47920751571655,-2.09230422973633,9.22157001495361,0.205793991684914,-0.144817993044853,0.0,-1056.30004882812,-1.5,-942.900024414062,2.96927284179903,-0.155049842602699,0.221706872549855,ST
0.5,-1.58806955814362,-2.07077097892761,9.17910194396973,0.274392008781433,-0.0533539988100529,-0.0152439996600151,-1056.30004882812,4.5,-930.900024414062,2.96940604655412,-0.166267997242868,0.221424802655427,ST
0.533333333333333,-1.63472473621368,-2.06598591804504,9.17730808258057,0.335367977619171,-0.144817993044853,0.274392008781433,-1053.90002441406,4.5,-935.700012207031,2.96842684423909,-0.171491836801749,0.220803024790752,ST
0.566666666666667,-1.56414389610291,-2.08153748512268,9.16773700714111,0.327746003866196,-0.289635986089706,0.442075997591019,-1049.10009765625,6.90000009536743,-923.700012207031,2.96710882774707,-0.16506986996154,0.222416782983436,ST
0.6,-1.46305775642395,-2.05043411254883,9.21439266204834,0.327746003866196,-0.297257989645004,0.403965979814529,-1044.30004882812,3.90000009536743,-923.700012207031,2.96502563228084,-0.154291418255574,0.218572731462669,ST
0.633333333333333,-1.47023546695709,-1.97925508022308,9.22456073760986,0.411587983369827,-0.327746003866196,0.403965979814529,-1056.30004882812,5.10000038146973,-928.500061035156,2.96253245660102,-0.154192491413776,0.211243699020087,ST
0.666666666666667,-1.37632691860199,-1.98404026031494,9.15996170043945,0.365855991840363,-0.304879993200302,0.358233988285065,-1051.5,0.900000035762787,-921.300048828125,2.96133967248351,-0.145967459716245,0.212476414651683,ST
0.7,-1.49356305599213,-1.98822724819183,9.17551326751709,0.236281991004944,-0.0762199983000755,0.25152599811554,-1056.30004882812,8.70000076293945,-938.100036621094,2.96062751161282,-0.156662122073855,0.212867013468165,ST
0.733333333333333,-1.53363859653473,-2.04983592033386,9.2227668762207,0.221037998795509,0.0838419944047928,0.289635986089706,-1051.5,2.10000014305115,-926.100036621094,2.96056484632785,-0.160865435767238,0.21787318620365,ST
0.766666666666667,-1.69992232322693,-1.96549785137177,9.25267314910889,0.320124000310898,-0.121951997280121,0.266770005226135,-1053.90002441406,1.5,-930.900024414062,2.95833555848431,-0.176312808601892,0.209430689028845,ST
0.8,-1.5001425743103,-2.04863977432251,9.08040809631348,0.259148001670837,-0.274392008781433,0.3125019967556,-1063.5,5.10000038146973,-952.500061035156,2.95906254501822,-0.160961505594885,0.220264784285321,ST
0.833333333333333,-1.51090919971466,-2.04206013679504,9.2401123046875,0.205793991684914,-0.335367977619171,0.266770005226135,-1053.90002441406,-0.300000011920929,-933.300048828125,2.95757436105334,-0.158137483634364,0.217341870882054,ST
0.866666666666667,-1.4421226978302,-2.07136917114258,9.20302772521973,0.297257989645004,-0.396344006061554,0.182927995920181,-1065.90002441406,9.30000019073486,-928.500061035156,2.95725620756693,-0.151580573606047,0.220558585825204,ST
0.9,-1.48279643058777,-2.06897664070129,9.2287483215332,0.335367977619171,-0.388722002506256,0.198172003030777,-1041.90002441406,2.70000004768372,-930.900024414062,2.95638883425319,-0.154624626482675,0.219942173136947,ST
0.933333333333333,-1.51748871803284,-2.0612006187439,9.15936374664307,0.342989981174469,-0.274392008781433,0.327746003866196,-1063.5,8.70000076293945,-947.700012207031,2.9553784479512,-0.159428193049046,0.220581828422176,ST
0.966666666666667,-1.52047944068909,-2.07974314689636,9.21199989318848,0.320124000310898,-0.243903994560242,0.388722002506256,-1063.5,8.10000038146973,-938.100036621094,2.95419016504433,-0.159371387011512,0.22129131035964,ST
1.0,-1.51868498325348,-2.08452820777893,9.18867206573486,0.335367977619171,-0.25152599811554,0.37347799539566,-1053.90002441406,2.70000004768372,-930.900024414062,2.95309939972624,-0.159509601080228,0.222281027524748,ST
1.03333333333333,-1.48518896102905,-2.09828543663025,9.15756893157959,0.388722002506256,-0.259148001670837,0.266770005226135,-1063.5,6.90000009536743,-935.700012207031,2.95254126692804,-0.156726640921442,0.224278275450816,ST
1.06666666666667,-1.51031100749969,-2.15152025222778,9.2048225402832,0.320124000310898,-0.457319974899292,0.129574000835419,-1065.90002441406,3.90000009536743,-926.100036621094,2.95259111884836,-0.157625568390503,0.228603685987046,ST
1.1,-1.44331896305084,-2.179034948349,9.14859676361084,0.243903994560242,-0.503051996231079,0.114329993724823,-1063.5,3.30000019073486,-942.900024414062,2.95261129901768,-0.152030803119288,0.232910889663302,ST
1.13333333333333,-1.39187872409821,-2.19099760055542,9.27480506896973,0.282013982534409,-0.617381989955902,0.137196004390717,-1070.70007324219,2.70000004768372,-921.300048828125,2.95161181444601,-0.144755544156384,0.231550688402623,ST
1.16666666666667,-1.25490391254425,-2.13297772407532,9.22934627532959,0.411587983369827,-0.617381989955902,0.342989981174469,-1070.70007324219,8.70000076293945,-918.900024414062,2.94952348203953,-0.132058350342265,0.226765979891943,ST
1.2,-1.06589078903198,-2.18441820144653,9.10194206237793,0.342989981174469,-0.556405961513519,0.289635986089706,-1056.30004882812,0.900000035762787,-933.300048828125,2.94916729957823,-0.114320790971963,0.234127203387107,ST
1.23333333333333,-1.07605922222137,-2.27593398094177,9.26702880859375,0.304879993200302,-0.37347799539566,0.121951997280121,-1051.5,2.10000014305115,-942.900024414062,2.94920662461893,-0.111945115282299,0.239701169326355,ST
1.26666666666667,-1.29497957229614,-2.25559711456299,9.27420711517334,0.594515979290009,-0.152439996600151,0.0533539988100529,-1056.30004882812,5.10000038146973,-935.700012207031,2.94891788191816,-0.132566407776885,0.237720346233939,ST
1.3,-1.23695969581604,-2.29088759422302,9.10014724731445,0.541162014007568,0.266770005226135,0.198172003030777,-1063.5,2.70000004768372,-914.100036621094,2.94967345447779,-0.131683128251525,0.244926827159596,ST
1.33333333333333,-1.34103655815125,-2.18800687789917,9.27061748504639,0.487807989120483,0.282013982534409,0.190549999475479,-1058.70007324219,3.90000009536743,-928.500061035156,2.94774904810718,-0.139702106437332,0.232054466075467,ST
1.36666666666667,-1.23396897315979,-2.27653217315674,9.09775447845459,0.746955990791321,0.243903994560242,0.114329993724823,-1058.70007324219,-2.10000014305115,-930.900024414062,2.94941942774226,-0.131866994593837,0.243068224346414,ST
1.4,-1.59405100345612,-2.04206013679504,9.36751747131348,1.01372599601746,0.426831990480423,0.144817993044853,-1058.70007324219,6.90000009536743,-935.700012207031,2.94576017774166,-0.162499501571361,0.21560084840538,ST
1.43333333333333,-2.0731635093689,-1.76033473014832,9.25028133392334,1.33385002613068,0.533540010452271,0.975615978240967,-1051.5,-0.300000011920929,-928.500061035156,2.93841831143284,-0.21377553076671,0.187716625949755,ST
1.46666666666667,-1.98104953765869,-1.72504436969757,8.91113376617432,1.18140995502472,0.647870004177094,1.44817996025085,-1056.30004882812,3.90000009536743,-923.700012207031,2.93507941695822,-0.216230525122483,0.188573565541999,ST
1.5,-1.92960917949677,-1.71906292438507,8.85012340545654,0.960371971130371,0.609759986400604,1.09756803512573,-1056.30004882812,1.5,-940.500061035156,2.9327716575765,-0.212616308655324,0.189701381132685,ST
1.53333333333333,-2.35967397689819,-1.62575256824493,9.35495567321777,1.18140995502472,0.144817993044853,0.46494197845459,-1053.90002441406,-2.70000004768372,-930.900024414062,2.92818180698283,-0.241136434144546,0.171632716702368,ST
1.56666666666667,-2.11264085769653,-1.84527111053467,8.87524509429932,1.12805593013763,-0.289635986089706,0.282013982534409,-1044.30004882812,3.30000019073486,-930.900024414062,2.93460712109262,-0.229719180595331,0.200067206889169,ST
1.6,-2.30344867706299,-2.14015555381775,8.80705738067627,0.609759986400604,-0.129574000835419,-0.647870004177094,-1041.90002441406,1.5,-935.700012207031,2.94518583556708,-0.246732257796935,0.234167875649809,ST
1.63333333333333,-2.6216607093811,-1.95832014083862,9.05109977722168,0.800309956073761,-0.556405961513519,-0.937505960464478,-1049.10009765625,-1.5,-923.700012207031,2.94356923955173,-0.272670969819576,0.213594851570372,ST
1.66666666666667,-2.51818180084229,-1.99361050128937,8.85072135925293,1.40244793891907,-1.20427596569061,-0.769822001457214,-1051.5,0.300000011920929,-923.700012207031,2.9482007909367,-0.268699608481818,0.21894392786715,ST
1.7,-2.86929178237915,-1.69214642047882,8.85191822052002,1.89025592803955,-1.18140995502472,-1.05945801734924,-1049.10009765625,6.90000009536743,-921.300048828125,2.94449236509071,-0.303306481965177,0.188305465304931,ST
1.73333333333333,-2.70779323577881,-1.16039741039276,9.01879978179932,2.45428395271301,-1.57775402069092,-1.02897000312805,-1046.70007324219,0.300000011920929,-926.100036621094,2.9324959611093,-0.288008569362454,0.129891404731318,ST
1.76666666666667,-2.50203204154968,-0.563450694084167,9.01401424407959,2.84300589561462,-2.9420919418335,-0.434453994035721,-1063.5,0.900000035762787,-928.500061035156,2.91760920988679,-0.266846249224245,0.063012692241388,ST
1.8,-2.52057456970215,-0.349315494298935,8.47508811950684,1.87501192092896,-1.47866797447205,-0.0076219998300075,-1063.5,-0.900000035762787,-926.100036621094,2.91294811636503,-0.284515283555243,0.0401745801283351,ST
1.83333333333333,-2.51220059394836,-0.297277063131332,8.9117317199707,1.06708002090454,-0.983237981796265,0.495429992675781,-1061.10009765625,-0.300000011920929,-926.100036621094,2.90983502855851,-0.273732485532823,0.0318370194114685,ST
1.86666666666667,-2.25200819969177,-0.494664251804352,8.52533149719238,0.114329993724823,-1.03659200668335,0.503051996231079,-1053.90002441406,1.5,-928.500061035156,2.91423516112354,-0.257684781460179,0.0551863914518199,ST
1.9,-2.3937680721283,-0.594554126262665,8.60069751739502,-1.03659200668335,0.274392008781433,1.15092194080353,-1058.70007324219,-6.30000019073486,-928.500061035156,2.91310581924441,-0.270204281804491,0.0689180722512941,ST
1.93333333333333,-1.31053125858307,-1.59046220779419,9.14919471740723,-1.88263392448425,-0.777444005012512,0.381099998950958,-1065.90002441406,-3.30000019073486,-928.500061035156,2.93059309270887,-0.148103425265548,0.168100323715756,ST
1.96666666666667,-1.47502052783966,-1.8045973777771,9.67974758148193,-1.56251001358032,-2.24848985671997,-1.98934197425842,-1068.30004882812,-3.90000009536743,-930.900024414062,2.93770030930917,-0.144561691617466,0.185686882414586,ST
2.0,-1.91764640808105,-1.61498606204987,10.1331396102905,-0.442075997591019,-1.57013201713562,-1.27287399768829,-1063.5,8.70000076293945,-935.700012207031,2.93698960630122,-0.178623264528296,0.161339016570537,ST
2.03333333333333,-1.338045835495,-1.39187872409821,9.85440540313721,0.365855991840363,-1.21189796924591,0.114329993724823,-1087.5,1.5,-935.700012207031,2.93308178044345,-0.135840492405674,0.141561856485638,ST
2.06666666666667,-0.900803327560425,-0.767417430877686,9.62651252746582,0.358233988285065,-2.08842802047729,0.617381989955902,-1070.70007324219,-6.30000019073486,-933.300048828125,2.92343342036551,-0.0926851591360885,0.0830835359383972,ST
2.1,-0.159106031060219,-1.04076874256134,8.83397388458252,-0.411587983369827,-1.88263392448425,0.685979962348938,-1065.90002441406,0.300000011920929,-918.900024414062,2.92216026395886,-0.0218095944812502,0.114794367477193,ST
2.13333333333333,-0.583189368247986,-1.46724474430084,8.79688835144043,-1.44055795669556,-0.6250039935112,-0.213415995240211,-1061.10009765625,-1.5,-928.500061035156,2.92433757632993,-0.0603326729041918,0.162990209420301,ST
2.16666666666667,-0.66334056854248,-1.89611327648163,9.30650615692139,-1.82165801525116,-0.144817993044853,-0.891773998737335,-1070.70007324219,-0.900000035762787,-926.100036621094,2.92927429562298,-0.068386072600729,0.200530836791847,ST
2.2,-1.30335354804993,-2.05282664299011,10.0362405776978,-1.11281192302704,-0.297257989645004,-1.15854394435883,-1075.5,5.70000028610229,-926.100036621094,2.93287955569587,-0.120453375095338,0.203608528142543,ST
2.23333333333333,-1.59405100345612,-2.05342483520508,9.70845890045166,-0.388722002506256,0.160062000155449,-0.129574000835419,-1075.5,11.1000003814697,-923.700012207031,2.93393062878798,-0.155970826141208,0.20865607464573,ST
2.26666666666667,-1.54380702972412,-1.7364090681076,9.39802265167236,-0.213415995240211,0.556405961513519,1.02134799957275,-1087.5,4.5,-930.900024414062,2.92655219079646,-0.161102727466928,0.184437334006723,ST
2.3,-1.43255245685577,-1.49595558643341,9.63070011138916,-0.533540010452271,-0.167683988809586,0.632625997066498,-1068.30004882812,0.300000011920929,-938.100036621094,2.91991402391175,-0.147220323603332,0.157528781228126,ST
2.33333333333333,-1.72504436969757,-1.6383136510849,10.3365087509155,-0.967993974685669,-0.754577994346619,0.0609759986400604,-1080.30004882812,2.70000004768372,-926.100036621094,2.91886692653586,-0.161057426667035,0.158741483431621,ST
2.36666666666667,-1.41400992870331,-1.67779099941254,10.0362405776978,-1.15854394435883,-0.868907988071442,0.0609759986400604,-1068.30004882812,3.30000019073486,-928.500061035156,2.91879336162213,-0.138812471805445,0.166811681448008,ST
2.4,-0.685471832752228,-2.4577693939209,10.1522808074951,-1.99696397781372,-0.0914639979600906,0.0990860015153885,-1077.90002441406,9.90000057220459,-933.300048828125,2.92482785152426,-0.0720952307501797,0.234318953137373,ST
2.43333333333333,-0.705808699131012,-3.00626659393311,10.9537925720215,-1.98934197425842,-0.541162014007568,-0.282013982534409,-1073.10009765625,2.10000014305115,-921.300048828125,2.92710329303412,-0.0620245353482766,0.267993673969237,ST
2.46666666666667,-0.741697311401367,-3.62893342971802,9.87653636932373,-1.29574000835419,0.83841997385025,-0.0685980021953583,-1077.90002441406,2.10000014305115,-930.900024414062,2.93314750014635,-0.0708629233760817,0.346589723601479,ST
2.5,-0.905588448047638,-4.69482421875,9.73358058929443,-1.33385002613068,2.22562384605408,-1.34147191047668,-1077.90002441406,6.30000019073486,-921.300048828125,2.94752599607324,-0.0848388274109644,0.442485388372853,ST
2.53333333333333,-0.334960073232651,-6.15728378295898,9.82031154632568,-1.60824191570282,1.16616594791412,-2.39330792427063,-1053.90002441406,-0.900000035762787,-930.900024414062,2.96388591781883,-0.0324627308560738,0.554761221870212,ST
2.56666666666667,-1.45946884155273,-6.18599462509155,9.52004337310791,-0.701223969459534,2.04269599914551,-1.88263392448425,-1068.30004882812,5.10000038146973,-935.700012207031,2.97451755941681,-0.120312897446162,0.575862964462667,ST
2.6,-1.41580438613892,-5.90785789489746,8.81662750244141,0.175305992364883,2.90398192405701,1.08994603157043,-1051.5,5.10000038146973,-930.900024414062,2.97890242251175,-0.136685648076772,0.589235795150571,ST
2.63333333333333,-1.61558413505554,-5.30134105682373,9.40938663482666,0.983237981796265,1.34909391403198,3.00306797027588,-1049.10009765625,9.90000057220459,-921.300048828125,2.96280427669256,-0.151736696927001,0.5179640511978,ST
2.66666666666667,-2.83878660202026,-4.43642663955688,8.37280559539795,2.34757590293884,1.72257196903229,4.35216188430786,-1065.90002441406,7.50000047683716,-945.300048828125,2.94675985201091,-0.286347292955104,0.484624065435737,ST
2.7,-1.97865700721741,-4.78215312957764,8.60608100891113,1.88263392448425,2.0655620098114,5.62503576278687,-1051.5,7.50000047683716,-935.700012207031,2.93899422096291,-0.213462947556053,0.500786165471917,ST
2.73333333333333,-3.29816031455994,-3.46145343780518,7.47858142852783,3.17837381362915,0.807931959629059,5.66314601898193,-1058.70007324219,7.50000047683716,-933.300048828125,2.9068764938517,-0.370676649566122,0.432277981465654,ST
2.76666666666667,-2.70240998268127,-3.92920112609863,6.79550218582153,2.33233189582825,1.82927989959717,6.29577207565308,-1049.10009765625,4.5,-926.100036621094,2.92134378903284,-0.342577911310682,0.509697459199553,ST
2.8,-1.75913846492767,-2.58876276016235,9.63548469543457,2.4847719669342,-3.82624387741089,4.26832008361816,-1037.10009765625,7.50000047683716,-928.500061035156,2.84384936697883,-0.185460363202051,0.276566290979563,ST
2.83333333333333,-1.67898726463318,-1.07366669178009,8.62522125244141,4.83234786987305,-6.83693361282349,5.29728984832764,-1053.90002441406,6.30000019073486,-926.100036621094,2.79778978169591,-0.181151754500204,0.128206614131785,ST
2.86666666666667,-0.869699895381927,-0.294884473085403,7.57368612289429,4.33691787719727,-3.3689239025116,7.76681804656982,-1065.90002441406,2.70000004768372,-945.300048828125,2.75926663056926,-0.115712784953941,0.0383980520003046,ST
2.9,0.168078169226646,-0.675901532173157,8.51217269897461,2.76678586006165,-1.95885396003723,7.05034971237183,-1061.10009765625,2.10000014305115,-921.300048828125,2.73667619751175,0.0097958975854593,0.0709635811521624,ST
2.93333333333333,-1.87278568744659,-0.0406737215816975,8.0533971786499,2.13416004180908,0.160062000155449,5.86131763458252,-1065.90002441406,-3.30000019073486,-935.700012207031,2.7109809291321,-0.20722856049374,0.0063602973335307,ST
2.96666666666667,-0.504832684993744,-1.67121148109436,8.62940883636475,0.46494197845459,0.602137982845306,4.93143367767334,-1077.90002441406,1.5,-928.500061035156,2.71800967863431,-0.0732847965897474,0.173212606995938,ST
3.0,-3.31311392784119,-1.76930689811707,8.46133041381836,1.02134799957275,1.53964400291443,2.81251788139343,-1073.10009765625,-4.5,-921.300048828125,2.71541329586872,-0.350828644709383,0.201030811330026,ST
3.03333333333333,-2.66293239593506,-2.82502913475037,9.23233699798584,0.914639949798584,2.38568592071533,4.10063600540161,-1056.30004882812,-3.90000009536743,-928.500061035156,2.73145499070142,-0.28146932537344,0.286168746037903,ST
3.06666666666667,-2.34172964096069,-1.28540921211243,9.26702880859375,2.21037983894348,-0.975615978240967,1.93598794937134,-1073.10009765625,-0.900000035762787,-928.500061035156,2.68995718611128,-0.2478083082956,0.146782302708553,ST
3.1,-2.97396683692932,-0.373839348554611,8.86268424987793,2.97257995605469,-0.121951997280121,3.87197589874268,-1075.5,11.1000003814697,-928.500061035156,2.65168862814408,-0.316983947963787,0.0451864709243288,ST
3.13333333333333,-2.31541132926941,0.390587359666824,8.34170150756836,2.56861400604248,0.739333987236023,5.12198400497437,-1070.70007324219,3.30000019073486,-930.900024414062,2.61090200273179,-0.275736478201595,-0.0450454668688007,ST
3.16666666666667,-2.61807179450989,0.983945190906525,8.44757270812988,1.45580196380615,-0.0152439996600151,4.59606599807739,-1065.90002441406,-2.10000014305115,-935.700012207031,2.57769188649395,-0.295869339855804,-0.11399354714599,ST
3.2,-2.58696842193604,0.919345736503601,7.5108814239502,0.213415995240211,0.167683988809586,3.88721990585327,-1061.10009765625,-2.70000004768372,-926.100036621094,2.56145392893826,-0.326398134146193,-0.123628707616629,ST
3.23333333333333,-2.20176434516907,0.334361910820007,8.55822944641113,-1.05183601379395,-0.335367977619171,2.75154185295105,-1075.5,-3.30000019073486,-940.500061035156,2.57376375564048,-0.257673571161483,-0.046102011547237,ST
3.26666666666667,-1.28660547733307,-0.0783567279577255,10.6702728271484,-0.868907988071442,-4.18447780609131,-0.457319974899292,-1080.30004882812,3.90000009536743,-933.300048828125,2.58459818319392,-0.125869094049439,0.004079659052309,ST
3.3,0.229088753461838,-0.431859225034714,10.4950160980225,-0.693601965904236,-4.71039581298828,-1.02134799957275,-1094.70007324219,6.30000019073486,-942.900024414062,2.58953899816555,0.0159207964248309,0.0389028210290026,ST
3.33333333333333,-0.108862020075321,-1.29976463317871,9.55473613739014,-0.868907988071442,-3.04879999160767,-0.411587983369827,-1089.90002441406,-2.10000014305115,-935.700012207031,2.58946933249644,-0.0039422873995506,0.127857373916077,ST
3.36666666666667,-1.08862018585205,-1.48399269580841,7.23513746261597,-1.265251994133,1.02897000312805,0.891773998737335,-1082.70007324219,3.90000009536743,-933.300048828125,2.591511356486,-0.135288369400159,0.197380937402796,ST
3.4,-1.20824885368347,-1.23935222625732,5.86000680923462,-0.586893975734711,1.86738991737366,1.56251001358032,-1077.90002441406,-2.70000004768372,-926.100036621094,2.58899124141876,-0.19669205116253,0.208014424392471,ST
3.43333333333333,-2.67310094833374,-1.5683308839798,10.6020841598511,-1.09756803512573,0.87652999162674,0.205793991684914,-1089.90002441406,1.5,-923.700012207031,2.57627211628862,-0.241586381427806,0.154180019834049,ST
3.46666666666667,-1.20765066146851,-0.854148149490356,9.52423095703125,0.320124000310898,-2.96495795249939,-1.51677799224854,-1087.5,0.300000011920929,-921.300048828125,2.56940891292056,-0.131236858793065,0.0949992752878195,ST
3.5,-0.808689296245575,-0.817063271999359,10.5649995803833,0.518296003341675,-2.9116039276123,-0.495429992675781,-1080.30004882812,3.90000009536743,-921.300048828125,2.56871364972712,-0.0755773343634102,0.0777230111550151,ST
3.53333333333333,-0.242846041917801,-0.83261501789093,9.8077507019043,0.25152599811554,-1.84452390670776,-0.289635986089706,-1092.30004882812,-2.70000004768372,-923.700012207031,2.56953631023934,-0.0263190284465636,0.0836719528524957,ST
3.56666666666667,-0.276940196752548,-0.890036761760712,9.84662914276123,0.792688012123108,-0.853663980960846,0.426831990480423,-1087.5,6.30000019073486,-923.700012207031,2.56800701372028,-0.026560631013467,0.0882800283520479,ST
3.6,0.0675901547074318,-0.519786238670349,8.26095294952393,0.952749967575073,-0.137196004390717,-0.0990860015153885,-1087.5,-2.10000014305115,-923.700012207031,2.56807600902905,0.0052515892320384,0.063628270051314,ST
3.63333333333333,-0.842783451080322,-1.01325416564941,8.95180797576904,0.426831990480423,0.449698001146317,0.533540010452271,-1085.10009765625,6.90000009536743,-928.500061035156,2.56820406200357,-0.085147903352967,0.107515835268371,ST
3.66666666666667,-0.690257012844086,-0.875083148479462,9.90464973449707,0.708845973014832,-1.42531394958496,0.350611984729767,-1092.30004882812,3.30000019073486,-928.500061035156,2.56526850209598,-0.0685410401767551,0.0886944060634643,ST
3.7,-0.773997008800507,-0.788352429866791,9.7180290222168,0.571649968624115,-1.52439999580383,1.2423859834671,-1089.90002441406,3.30000019073486,-923.700012207031,2.55997579941769,-0.0760673336196924,0.080507999898503,ST
3.73333333333333,-1.22260427474976,-1.57610678672791,9.41177940368652,-0.137196004390717,-0.426831990480423,0.83841997385025,-1097.10009765625,3.90000009536743,-938.100036621094,2.56458248117507,-0.122324640883322,0.15819834893733,ST
3.76666666666667,-2.7382984161377,-1.72803509235382,11.2510690689087,0.525918006896973,-0.243903994560242,2.25611186027527,-1092.30004882812,5.70000028610229,-916.500061035156,2.55553746285184,-0.227652155651148,0.151235064340006,ST
3.8,-0.816465139389038,-1.15680849552155,10.4657077789307,1.32622802257538,-0.922261953353882,1.89025592803955,-1082.70007324219,1.5,-923.700012207031,2.54305949119736,-0.0899360491445222,0.111280816126938,ST
3.83333333333333,-1.69693160057068,-0.105871304869652,10.6254119873047,1.39482593536377,0.739333987236023,0.945127964019775,-1101.90002441406,-5.70000028610229,-921.300048828125,2.52908895305069,-0.153455785636274,0.0168030338325507,ST
3.86666666666667,-2.11981868743896,0.196190893650055,10.4172582626343,0.960371971130371,1.72257196903229,1.6692179441452,-1082.70007324219,-0.900000035762787,-928.500061035156,2.51794489982904,-0.199156332555655,-0.0176241982544462,ST
3.9,-1.58448076248169,0.123815596103668,9.43092060089111,0.640248000621796,1.95123195648193,0.388722002506256,-1087.5,6.30000019073486,-921.300048828125,2.51746909102854,-0.172488175477314,-0.014666949648454,ST
3.93333333333333,-2.4697322845459,-0.142956167459488,9.08459568023682,-0.0685980021953583,2.40092992782593,0.182927995920181,-1085.10009765625,-2.10000014305115,-930.900024414062,2.52276403108866,-0.260817079988585,0.0129627815228367,ST
3.96666666666667,-2.90099334716797,-0.335558205842972,8.85730075836182,-0.327746003866196,2.33995389938354,0.891773998737335,-1082.70007324219,-2.10000014305115,-935.700012207031,2.52615070404655,-0.315045662341245,0.0356909946572991,ST
4.0,-2.59354782104492,-0.425279647111893,8.30461692810059,-0.304879993200302,2.13416004180908,-0.304879993200302,-1094.70007324219,6.30000019073486,-916.500061035156,2.53186299197782,-0.306649211322838,0.0508139837685038,ST
4.03333333333333,-3.05950140953064,-0.733323276042938,9.20302772521973,-0.388722002506256,-0.0609759986400604,-0.663114011287689,-1075.5,5.10000038146973,-933.300048828125,2.54217717012725,-0.318830195046793,0.0783138863209804,ST
4.06666666666667,-2.04146194458008,-0.784165441989899,8.72152233123779,-0.495429992675781,-1.47866797447205,-1.22714197635651,-1070.70007324219,-0.300000011920929,-928.500061035156,2.54853948866616,-0.234667839009081,0.0898954792925447,ST
4.1,-1.66881883144379,-1.28241848945618,9.52542686462402,-0.0914639979600906,-1.37958192825317,-1.69970595836639,-1075.5,-1.5,-930.900024414062,2.56213731145152,-0.174604858820224,0.130840083364224,ST
4.13333333333333,-2.2232973575592,-1.40862667560577,9.4793701171875,0.304879993200302,-0.0914639979600906,-1.61586391925812,-1075.5,5.70000028610229,-928.500061035156,2.5707274090549,-0.222623668638491,0.146052333175062,ST
4.16666666666667,-2.41829204559326,-1.4301598072052,9.28317928314209,0.266770005226135,0.388722002506256,-1.04421401023865,-1077.90002441406,0.300000011920929,-928.500061035156,2.57605699719887,-0.24969581598662,0.152245116896129,ST
4.2,-2.82263660430908,-1.33086812496185,9.15876483917236,-0.0838419944047928,0.899396002292633,0.190549999475479,-1063.5,5.10000038146973,-930.900024414062,2.5737856734159,-0.294630474122194,0.144915190804007,ST
4.23333333333333,-2.98533153533936,-1.12091994285583,9.35495567321777,-0.259148001670837,0.754577994346619,0.693601965904236,-1068.30004882812,-2.70000004768372,-926.100036621094,2.56469358893504,-0.307076884833835,0.121696088318842,ST
4.26666666666667,-2.97157430648804,-0.681284844875336,9.32445049285889,-0.160062000155449,0.495429992675781,0.945127964019775,-1065.90002441406,-0.900000035762787,-933.300048828125,2.54728179425151,-0.308662641772266,0.0757727433147269,ST
4.3,-2.99011659622192,-0.583787560462952,9.31488037109375,-0.617381989955902,0.121951997280121,0.144817993044853,-1063.5,-2.10000014305115,-935.700012207031,2.54281063167915,-0.310130610814553,0.0646941531872241,ST
4.33333333333333,-3.01942563056946,-0.69264954328537,9.58165264129639,-0.800309956073761,0.388722002506256,-0.37347799539566,-1075.5,-3.30000019073486,-933.300048828125,2.54579459504136,-0.305609533758699,0.0729602211019286,ST
4.36666666666667,-3.06129574775696,-0.711790144443512,9.11091327667236,-0.792688012123108,0.960371971130371,-0.891773998737335,-1075.5,2.10000014305115,-923.700012207031,2.5500594183365,-0.323049167154099,0.0792768825609844,ST
4.4,-3.2227942943573,-0.695042133331299,9.12048435211182,-1.28049600124359,0.983237981796265,-1.27287399768829,-1053.90002441406,-0.900000035762787,-930.900024414062,2.55305624003897,-0.33886552473252,0.0791308716832486,ST
4.43333333333333,-2.81665515899658,-1.35778450965881,9.14560604095459,-2.27897787094116,0.792688012123108,-1.69970595836639,-1075.5,7.50000047683716,-928.500061035156,2.57844548105317,-0.299361005919564,0.147821417423397,ST
4.46666666666667,-2.69822287559509,-1.95054423809052,9.79877853393555,-2.19513607025146,0.716467976570129,-2.080806016922,-1065.90002441406,5.10000038146973,-921.300048828125,2.59720096289795,-0.267527635685565,0.196579646387321,ST
4.5,-2.50083565711975,-1.7184647321701,10.0266704559326,-0.609759986400604,0.960371971130371,-2.14940404891968,-1058.70007324219,5.10000038146973,-916.500061035156,2.59861850197276,-0.244353229612048,0.174041579969138,ST
4.53333333333333,-2.22090482711792,-0.980954468250275,9.32863807678223,-0.282013982534409,1.64635193347931,-1.82165801525116,-1061.10009765625,9.30000019073486,-935.700012207031,2.5905019097168,-0.235851183790764,0.112236131539418,ST
4.56666666666667,-2.17484784126282,-1.11254596710205,9.08878231048584,-1.88263392448425,2.88111591339111,-1.48628997802734,-1058.70007324219,11.1000003814697,-923.700012207031,2.59832077105051,-0.237717861587202,0.124831268129397,ST
4.6,-2.37402939796448,-1.42477655410767,8.88840484619141,-1.98171997070312,2.9344699382782,-2.09605002403259,-1051.5,3.30000019073486,-933.300048828125,2.61394690521499,-0.260328992434062,0.160341576012756,ST
4.63333333333333,-2.97935009002686,-1.61737859249115,9.22635555267334,-1.80641400814056,2.55336999893188,-1.62348592281342,-1051.5,14.7000007629395,-930.900024414062,2.62353610820534,-0.30758991684361,0.176335477469731,ST
4.66666666666667,-2.72872829437256,-1.75674593448639,9.13184833526611,-1.70732796192169,2.11891603469849,-1.71494996547699,-1046.70007324219,11.7000007629395,-933.300048828125,2.63343726434093,-0.290222224231177,0.192527820315553,ST
4.7,-2.82861804962158,-2.18142747879028,8.41288089752197,-1.38720393180847,2.34757590293884,-2.09605002403259,-1034.70007324219,8.10000038146973,-938.100036621094,2.65849454638735,-0.315520772418487,0.252169973284393,ST
4.73333333333333,-3.30952501296997,-2.38599228858948,8.28069114685059,-1.12043392658234,2.71343183517456,-2.11129403114319,-1039.5,8.70000076293945,-933.300048828125,2.676227621165,-0.365709122500663,0.281607307500327,ST
4.76666666666667,-2.74009299278259,-2.56543517112732,7.61854696273804,-1.19665396213531,2.73629784584045,-2.15702605247498,-1025.10009765625,8.70000076293945,-940.500061035156,2.69962424441373,-0.334448760802852,0.325180981256159,ST
4.8,-3.63670921325684,-2.62883830070496,8.32256126403809,-1.89025592803955,2.88873791694641,-2.37044191360474,-1025.10009765625,12.3000001907349,-930.900024414062,2.70301148831281,-0.392546897161749,0.312754795233196,ST
4.83333333333333,-3.08282876014709,-2.47212481498718,8.03784561157227,-1.6844619512558,2.33233189582825,-1.63872992992401,-1025.10009765625,9.90000057220459,-938.100036621094,2.70486999545582,-0.357861354390928,0.303694402311032,ST
4.86666666666667,-3.01763129234314,-2.84297347068787,7.82251358032227,-1.53964400291443,2.78965187072754,-1.96647596359253,-1003.50006103516,14.7000007629395,-930.900024414062,2.72895500591567,-0.351688627284507,0.349993781276326,ST
4.9,-4.21391725540161,-2.5235652923584,8.29265403747559,-0.724089980125427,2.62959003448486,-1.2347639799118,-1008.30004882812,11.1000003814697,-935.700012207031,2.71606824664916,-0.446814721522294,0.303189568930204,ST
4.93333333333333,-3.81256318092346,-2.20236253738403,7.89309453964233,0.243903994560242,1.89025592803955,-0.221037998795509,-1017.90002441406,9.30000019073486,-930.900024414062,2.70670003368476,-0.439297097447417,0.275057135485977,ST
4.96666666666667,-3.83708715438843,-2.39616084098816,7.88771152496338,0.442075997591019,0.87652999162674,-1.6920839548111,-1010.70001220703,9.30000019073486,-933.300048828125,2.72115789109868,-0.436539877734103,0.293816888723724,ST
5.0,-4.63022470474243,-2.59474420547485,8.24958801269531,0.221037998795509,0.274392008781433,-1.94360995292664,-1001.10003662109,10.5,-935.700012207031,2.73315103968381,-0.487269424355288,0.305242024394265,ST
5.03333333333333,-4.15948629379272,-2.84177732467651,8.39613246917725,0.304879993200302,-1.15092194080353,-1.94360995292664,-993.900024414062,11.1000003814697,-921.300048828125,2.74711809715788,-0.440447527949933,0.325145328423601,ST
5.06666666666667,-3.58287644386292,-3.06129574775696,8.25257873535156,0.274392008781433,-3.11739802360535,-2.34757590293884,-1005.90002441406,7.50000047683716,-935.700012207031,2.76291396775242,-0.384227952902855,0.353519613191849,ST
5.1,-2.95303177833557,-2.91714334487915,8.44936752319336,0.510673999786377,-4.1311240196228,-2.03507399559021,-1013.10003662109,15.3000001907349,-933.300048828125,2.75845417366771,-0.317718955118942,0.333815972571155,ST
5.13333333333333,-1.96131074428558,-2.97994828224182,8.89019870758057,1.28049600124359,-4.45124769210815,-1.28049600124359,-1025.10009765625,14.7000007629395,-923.700012207031,2.75576019062899,-0.205622067047022,0.321925933444556,ST
5.16666666666667,-1.94276833534241,-2.912358045578,9.06186580657959,1.47866797447205,-3.51374197006226,-0.480185985565186,-1025.10009765625,20.7000007629395,-938.100036621094,2.75208916076311,-0.196105658038894,0.309299276814644,ST
5.2,-1.83510267734528,-2.91295623779297,8.38357162475586,1.31860601902008,-2.38568592071533,0.0457319989800453,-1041.90002441406,11.1000003814697,-930.900024414062,2.75431186977485,-0.199632371006408,0.329778674038597,ST
5.23333333333333,-2.74368190765381,-3.01523876190186,8.82380485534668,1.265251994133,-1.44817996025085,0.205793991684914,-1041.90002441406,12.3000001907349,-930.900024414062,2.75245455366555,-0.276915937777423,0.3270189473982,ST
5.26666666666667,-2.71736359596252,-2.89441394805908,9.5266227722168,1.50915598869324,-2.32470989227295,0.46494197845459,-1041.90002441406,8.10000038146973,-921.300048828125,2.74117545904011,-0.26386955454986,0.294441637440895,ST
5.3,-1.76511991024017,-2.49724698066711,8.57318305969238,1.79879200458527,-2.82013988494873,-0.129574000835419,-1037.10009765625,15.9000005722046,-933.300048828125,2.73729378342407,-0.197022460082115,0.28136129684881,ST
5.33333333333333,-1.09460163116455,-2.48707842826843,8.78552436828613,1.85976791381836,-3.30794787406921,-1.21951997280121,-1037.10009765625,9.30000019073486,-938.100036621094,2.73793056830053,-0.120769526906201,0.273491113151056,ST
5.36666666666667,-0.570030272006989,-2.53014469146729,8.93266677856445,1.87501192092896,-3.81862187385559,-2.33995389938354,-1044.30004882812,8.10000038146973,-923.700012207031,2.74263586757273,-0.0598664327556593,0.2729672181339,ST
5.4,-0.910971760749817,-2.76880383491516,8.08569622039795,1.20427596569061,-2.10367202758789,-2.24848985671997,-1061.10009765625,7.50000047683716,-928.500061035156,2.75215610718343,-0.0977306979223965,0.32303649173482,ST
5.43333333333333,-1.37513065338135,-3.28380489349365,7.53600311279297,0.175305992364883,-0.350611984729767,-1.15854394435883,-1056.30004882812,10.5,-921.300048828125,2.76570443477735,-0.158416793068817,0.402842875649517,ST
5.46666666666667,-2.63721227645874,-3.90348100662231,8.99487400054932,-0.0533539988100529,-0.152439996600151,0.243903994560242,-1056.30004882812,11.1000003814697,-918.900024414062,2.76588268394262,-0.254037986035694,0.408895897213392,ST
5.5,-2.13537049293518,-3.79760980606079,9.05767917633057,0.571649968624115,-0.503051996231079,0.663114011287689,-1056.30004882812,17.1000003814697,-940.500061035156,2.76081397972773,-0.217373278323544,0.396879054805607,ST
5.53333333333333,-2.45118999481201,-3.79342269897461,9.54157638549805,0.92988395690918,0.0685980021953583,0.0685980021953583,-1053.90002441406,13.5000009536743,-945.300048828125,2.75732703259425,-0.232947342033971,0.378594828778635,ST
5.56666666666667,-3.37771344184875,-3.49973464012146,9.85739612579346,1.16616594791412,1.29574000835419,0.914639949798584,-1053.90002441406,10.5,-923.700012207031,2.74744913103338,-0.307613246905427,0.34258138534347,ST
5.6,-3.6211576461792,-3.00806093215942,10.6983852386475,1.52439999580383,1.90549993515015,1.95885396003723,-1051.5,11.7000007629395,-928.500061035156,2.72467443763715,-0.318179767940095,0.277177252648621,ST
5.63333333333333,-2.89381575584412,-2.5618462562561,10.4794645309448,1.6692179441452,1.265251994133,1.43293595314026,-1049.10009765625,12.9000005722046,-928.500061035156,2.71200118694157,-0.269667539670365,0.23995894979893,ST
5.66666666666667,-1.92841291427612,-1.85304689407349,9.84004974365234,0.884151995182037,0.0609759986400604,1.10518991947174,-1046.70007324219,2.70000004768372,-930.900024414062,2.69714293578982,-0.197299209763851,0.188736083296361,ST
5.7,-1.49176859855652,-1.76631617546082,9.46979999542236,0.3125019967556,0.403965979814529,1.44817996025085,-1051.5,10.5,-930.900024414062,2.69189082275439,-0.158641157240012,0.183937194808769,ST
5.73333333333333,-1.51868498325348,-2.03428435325623,8.50559329986572,-0.579271972179413,1.86738991737366,1.34147191047668,-1046.70007324219,6.90000009536743,-928.500061035156,2.69619325844081,-0.174114054737959,0.230829451470029,ST
5.76666666666667,-2.05701375007629,-2.15152025222778,7.51865720748901,-1.21189796924591,3.91008591651917,2.35519790649414,-1029.90002441406,4.5,-916.500061035156,2.70054488950094,-0.25666813249728,0.275768183209708,ST
5.8,-2.81545901298523,-2.41649770736694,7.5970139503479,-1.12805593013763,4.39789390563965,2.82013988494873,-1032.30004882812,6.30000019073486,-945.300048828125,2.70356112135931,-0.339994449301744,0.306061641716109,ST
5.83333333333333,-2.68207311630249,-2.46614336967468,7.46422624588013,-0.518296003341675,2.97257995605469,1.88263392448425,-1025.10009765625,15.3000001907349,-930.900024414062,2.70394861864457,-0.335114409224795,0.318566130952862,ST
5.86666666666667,-2.90099334716797,-2.6336236000061,8.01332092285156,-0.92988395690918,2.80489587783813,2.12653803825378,-1020.30004882812,12.3000001907349,-940.500061035156,2.69913287479777,-0.336886247072717,0.318468797088043,ST
5.9,-2.81127190589905,-2.90398406982422,7.86258935928345,-0.548784017562866,2.27135586738586,2.09605002403259,-1022.70001220703,7.50000047683716,-940.500061035156,2.70509984296103,-0.3293508204853,0.350840858865352,ST
5.93333333333333,-3.51708078384399,-2.97755575180054,8.49243354797363,0.46494197845459,2.34757590293884,2.03507399559021,-1010.70001220703,14.1000003814697,-938.100036621094,2.69724686781829,-0.373252665555036,0.337046779653365,ST
5.96666666666667,-3.46384596824646,-3.04694032669067,8.06775283813477,1.00610399246216,1.29574000835419,1.78354799747467,-1005.90002441406,13.5000009536743,-930.900024414062,2.70178691255404,-0.384067800779573,0.356550802425728,ST
6.0,-4.20554304122925,-3.04335141181946,8.88361930847168,1.03659200668335,0.434453994035721,1.19665396213531,-1022.70001220703,12.3000001907349,-930.900024414062,2.68974949158305,-0.419010855696499,0.330150369326255,ST
6.03333333333333,-3.51708078384399,-2.91355443000793,8.83397388458252,1.6615959405899,-0.99848198890686,1.21189796924591,-984.300048828125,14.1000003814697,-928.500061035156,2.68183935524836,-0.36578846220352,0.31606482827842,ST
6.06666666666667,-3.39386320114136,-2.8381884098053,8.9536018371582,1.52439999580383,-1.41006994247437,1.34909391403198,-1008.30004882812,8.70000076293945,-930.900024414062,2.67403633119247,-0.346969997159435,0.304375286263772,ST
6.1,-2.66353058815002,-2.60670709609985,8.67606353759766,1.30336201190948,-1.6615959405899,1.33385002613068,-1005.90002441406,14.1000003814697,-938.100036621094,2.66515158882381,-0.289564212332213,0.290057914472928,ST
6.13333333333333,-2.46255469322205,-2.14852952957153,8.50798606872559,1.6768399477005,-1.52439999580383,1.46342396736145,-1015.50006103516,9.90000057220459,-933.300048828125,2.64898475132321,-0.273305061416807,0.247733053692335,ST
6.16666666666667,-3.02480912208557,-1.758540391922,8.26454162597656,2.30184388160706,-1.16616594791412,2.0579400062561,-1010.70001220703,5.10000038146973,-933.300048828125,2.63210655025742,-0.336309934159347,0.208313673893031,ST
6.2,-2.89142322540283,-1.41759884357452,8.36682415008545,2.5000159740448,-1.29574000835419,2.66770005226135,-1013.10003662109,-0.900000035762787,-938.100036621094,2.61177108060642,-0.327833362356166,0.165971550020134,ST
6.23333333333333,-2.70480251312256,-1.14664006233215,8.51755619049072,2.75916385650635,-2.65245604515076,2.36281991004944,-1020.30004882812,3.90000009536743,-933.300048828125,2.59489902688176,-0.303332153707269,0.130962052909385,ST
6.26666666666667,-2.33933711051941,-1.23097825050354,8.89558219909668,2.37806391716003,-4.1463680267334,1.45580196380615,-1020.30004882812,4.5,-938.100036621094,2.59060097287448,-0.252169882931942,0.132326665451992,ST
6.3,-1.97865700721741,-1.23875403404236,9.43092060089111,2.26373386383057,-3.90246391296387,1.01372599601746,-1029.90002441406,5.10000038146973,-926.100036621094,2.58562987871654,-0.202247920130266,0.126521007406519,ST
6.33333333333333,-2.57022023200989,-0.90977543592453,10.0260725021362,2.33233189582825,-2.33233189582825,1.6768399477005,-1034.70007324219,3.90000009536743,-954.900024414062,2.57218571021879,-0.243181501704817,0.0884639086956897,ST
6.36666666666667,-2.87886214256287,-0.654966533184052,10.2527685165405,2.04269599914551,-1.15854394435883,2.69818782806396,-1025.10009765625,7.50000047683716,-933.300048828125,2.55679700924305,-0.269735656249464,0.0607723952716315,ST
6.4,-2.64917516708374,-0.527562081813812,9.5625114440918,1.2500079870224,-0.769822001457214,1.57775402069092,-1032.30004882812,5.10000038146973,-926.100036621094,2.55046836376551,-0.268773492730112,0.0529332581698868,ST
6.43333333333333,-3.41240572929382,-0.96659904718399,9.38785362243652,-0.350611984729767,0.228659987449646,-0.282013982534409,-1039.5,5.70000028610229,-942.900024414062,2.56525699099305,-0.34192719115521,0.0998281438373237,ST
6.46666666666667,-3.99080991744995,-1.39367318153381,9.01879978179932,-1.15092194080353,0.617381989955902,-0.396344006061554,-1034.70007324219,4.5,-930.900024414062,2.58384892980559,-0.406804149162106,0.150486584970247,ST
6.5,-3.86400365829468,-1.85005617141724,9.28975868225098,-1.49391198158264,-0.0457319989800453,0.213415995240211,-1029.90002441406,3.90000009536743,-930.900024414062,2.59828240033513,-0.38911237753096,0.194664707000892,ST
6.53333333333333,-2.91953587532043,-1.72923135757446,9.33043193817139,-0.937505960464478,-0.830797970294952,0.274392008781433,-1039.5,6.90000009536743,-923.700012207031,2.59269984708237,-0.305471198255688,0.185517312126343,ST
6.56666666666667,-2.44281578063965,-1.32129776477814,9.11988544464111,-0.144817993044853,-0.823175966739655,0.0152439996600151,-1041.90002441406,9.30000019073486,-928.500061035156,2.58139918371107,-0.261681895279374,0.14744775048545,ST
6.6,-2.03787302970886,-1.12271440029144,8.50320053100586,0.221037998795509,0.571649968624115,0.274392008781433,-1032.30004882812,2.70000004768372,-928.500061035156,2.57707575072904,-0.236207178951061,0.131941214575901,ST
6.63333333333333,-2.03548049926758,-0.944467723369598,8.78014087677002,0.205793991684914,1.53964400291443,0.472563982009888,-1027.5,8.70000076293945,-935.700012207031,2.57096334314634,-0.229935760247034,0.1089539092349,ST
6.66666666666667,-2.48947095870972,-0.937888205051422,8.50020980834961,-0.182927995920181,2.98782396316528,0.472563982009888,-1029.90002441406,4.5,-928.500061035156,2.57054435558957,-0.28452109969364,0.110061006049262,ST
6.7,-2.91534876823425,-1.20107114315033,8.60009956359863,-0.449698001146317,3.11739802360535,-0.25152599811554,-1029.90002441406,5.10000038146973,-926.100036621094,2.58070215353936,-0.326175243690461,0.137855268231269,ST
6.73333333333333,-3.52425837516785,-1.24832439422607,8.81662750244141,-0.327746003866196,2.54574799537659,-0.853663980960846,-1015.50006103516,1.5,-933.300048828125,2.58573944634587,-0.376912574344925,0.141716993032504,ST
6.76666666666667,-3.42018151283264,-1.30933499336243,8.96795749664307,-0.724089980125427,2.31708788871765,-0.403965979814529,-1003.50006103516,-2.70000004768372,-938.100036621094,2.58885195650474,-0.365852786284682,0.146281545426166,ST
6.8,-3.65226101875305,-1.41341185569763,8.3751974105835,-0.914639949798584,1.96647596359253,-1.11281192302704,-1013.10003662109,6.30000019073486,-933.300048828125,2.60020996335315,-0.405253477212654,0.167667765625496,ST
6.83333333333333,-4.42326736450195,-1.82433605194092,8.55224800109863,-1.28811800479889,2.15702605247498,-0.960371971130371,-1013.10003662109,2.10000014305115,-933.300048828125,2.62014202742366,-0.465664176954941,0.209331722278525,ST
6.86666666666667,-3.84845185279846,-2.11084651947021,8.79688835144043,-0.975615978240967,0.99848198890686,-1.07470202445984,-1008.30004882812,5.70000028610229,-930.900024414062,2.63385492681349,-0.409125090144629,0.235647386787108,ST
6.9,-3.44949054718018,-1.76392364501953,8.52114486694336,-0.152439996600151,-1.13567793369293,-1.53202199935913,-1005.90002441406,8.10000038146973,-921.300048828125,2.62703751540619,-0.3780191703742,0.207991237302371,ST
6.93333333333333,-2.74009299278259,-1.53842377662659,8.84294605255127,0.411587983369827,-1.97409796714783,-1.36433792114258,-993.900024414062,11.1000003814697,-926.100036621094,2.61984536584979,-0.298946992315916,0.174736512565201,ST
6.96666666666667,-2.41649770736694,-1.29318511486053,8.71793365478516,0.830797970294952,-2.43903994560242,-1.94360995292664,-1025.10009765625,12.3000001907349,-923.700012207031,2.61857563476122,-0.266153773906961,0.149102083538474,ST
7.0,-3.16836333274841,-1.30634427070618,8.61744594573975,1.04421401023865,-2.35519790649414,-1.96647596359253,-1013.10003662109,11.1000003814697,-926.100036621094,2.6258264481507,-0.339207285561874,0.149532775176906,ST
7.03333333333333,-3.43872404098511,-1.16278994083405,8.01332092285156,0.92988395690918,-2.36281991004944,-1.62348592281342,-1020.30004882812,8.70000076293945,-930.900024414062,2.62905362401001,-0.391865722661397,0.143931659099899,ST
7.06666666666667,-3.01583695411682,-1.46126329898834,8.15986633300781,0.388722002506256,-3.71953582763672,-1.77592599391937,-1022.70001220703,2.10000014305115,-918.900024414062,2.64419750892239,-0.346537324399071,0.174276525420567,ST
7.1,-2.33873891830444,-1.52705895900726,8.31837463378906,0.297257989645004,-5.0152759552002,-3.10977602005005,-1029.90002441406,6.90000009536743,-926.100036621094,2.65381876679834,-0.268028271614345,0.181448132455689,ST
7.13333333333333,-1.59405100345612,-1.82194352149963,8.90395641326904,0.0381099991500378,-5.53357172012329,-4.48935794830322,-1046.70007324219,9.90000057220459,-926.100036621094,2.67012670573661,-0.170594475920098,0.201299408197788,ST
7.16666666666667,-0.925925314426422,-2.56304264068604,8.52054691314697,-0.403965979814529,-4.88570165634155,-4.87045812606812,-1044.30004882812,12.3000001907349,-933.300048828125,2.69412889071981,-0.0991232160653073,0.286652533617952,ST
7.2,-1.35419571399689,-3.17195224761963,9.1509895324707,-0.571649968624115,-3.65093803405762,-4.37502813339233,-1049.10009765625,2.70000004768372,-933.300048828125,2.70934097827743,-0.127635249981496,0.330867994452447,ST
7.23333333333333,-1.36855113506317,-3.25509405136108,9.79219818115234,-0.0762199983000755,-2.9420919418335,-3.25459384918213,-1044.30004882812,6.90000009536743,-945.300048828125,2.71557713712244,-0.12540020499878,0.322379862260598,ST
7.26666666666667,-1.25849282741547,-3.38548922538757,9.96147346496582,0.106707997620106,-2.74391984939575,-2.9420919418335,-1049.10009765625,14.1000003814697,-933.300048828125,2.72317436719321,-0.113814106029404,0.327403393262976,ST
7.3,-0.994113624095917,-3.95252871513367,10.3442850112915,-0.46494197845459,-2.09605002403259,-2.79727387428284,-1061.10009765625,11.1000003814697,-933.300048828125,2.73377977261102,-0.0864323842347317,0.36343815370658,ST
7.33333333333333,-1.42298209667206,-4.22767448425293,10.5715789794922,-0.190549999475479,-1.08994603157043,-2.80489587783813,-1053.90002441406,11.1000003814697,-923.700012207031,2.74296765120956,-0.117661072402708,0.379579582517699,ST
7.36666666666667,-1.85783207416534,-4.29287195205688,9.96745491027832,0.99848198890686,1.15092194080353,-1.37195992469788,-1061.10009765625,12.9000005722046,-926.100036621094,2.75262530698744,-0.165691221468848,0.403054509613043,ST
7.4,-1.53662931919098,-3.49674391746521,8.53908920288086,1.78354799747467,2.13416004180908,0.556405961513519,-1073.10009765625,9.30000019073486,-933.300048828125,2.75205638781562,-0.168547556739993,0.387217469851458,DLL
7.43333333333333,-1.52765715122223,-2.75743913650513,8.75621509552002,1.34147191047668,2.16464805603027,2.36281991004944,-1051.5,3.90000009536743,-935.700012207031,2.73472141706831,-0.169741711812888,0.309948712539148,DLL
7.46666666666667,-1.41580438613892,-2.5456964969635,9.11450290679932,0.762199997901917,1.53202199935913,2.69056582450867,-1051.5,10.5,-923.700012207031,2.72203851803143,-0.153960963882196,0.27399292201726,DLL
7.5,-0.758445262908936,-2.22688627243042,8.99606990814209,-0.426831990480423,1.84452390670776,3.60520601272583,-1051.5,9.30000019073486,-938.100036621094,2.70802312696647,-0.0924648867218737,0.245646689716322,DLL
7.53333333333333,-0.720164120197296,-2.14852952957153,9.00863170623779,-0.861285984516144,3.25459384918213,4.07014799118042,-1049.10009765625,10.5,-926.100036621094,2.69492080846485,-0.0853246659594833,0.235860830915339,DLL
7.56666666666667,-1.53363859653473,-2.79452395439148,8.77954292297363,-0.922261953353882,4.66466379165649,3.88721990585327,-1017.90002441406,5.10000038146973,-926.100036621094,2.69438118069177,-0.166606096655931,0.302469700363775,DLL
7.6,-2.81306648254395,-3.01464056968689,9.11091327667236,-0.708845973014832,4.76375007629395,4.04728174209595,-1027.5,5.10000038146973,-928.500061035156,2.68831497461866,-0.287187843944092,0.318589388918701,DLL
7.63333333333333,-2.69702672958374,-2.8962082862854,8.84773063659668,-0.182927995920181,3.88721990585327,5.19058179855347,-1015.50006103516,10.5,-930.900024414062,2.67479860818835,-0.290876930716117,0.31507385550211,DLL
7.66666666666667,-2.74128913879395,-2.45657324790955,9.42972373962402,0.640248000621796,2.75916385650635,4.77137184143066,-1017.90002441406,4.5,-923.700012207031,2.64647647648697,-0.282017921822861,0.257443781641806,DLL
7.7,-2.28251361846924,-2.26337289810181,9.13842868804932,1.32622802257538,1.44817996025085,3.57471799850464,-1013.10003662109,9.30000019073486,-952.500061035156,2.63165468371136,-0.244324658880267,0.240223274622469,DLL
7.73333333333333,-2.36625361442566,-2.31481337547302,8.96616268157959,1.40244793891907,1.37958192825317,2.95733594894409,-1022.70001220703,5.70000028610229,-918.900024414062,2.62634312269175,-0.25292157246031,0.24827495882033,DLL
7.76666666666667,-2.68506383895874,-2.31301879882812,8.51815414428711,1.60061991214752,1.59299790859222,3.01831197738647,-1017.90002441406,5.10000038146973,-930.900024414062,2.62262762779479,-0.295145438805677,0.259888133987117,DLL
7.8,-2.84237551689148,-2.18023109436035,7.84703779220581,1.48628997802734,0.78506600856781,3.83386588096619,-1003.50006103516,2.10000014305115,-940.500061035156,2.6145643435736,-0.33491046367596,0.265745862154527,DLL
7.83333333333333,-2.75145769119263,-2.1772403717041,7.92300176620483,1.265251994133,-0.182927995920181,3.42989993095398,-1005.90002441406,11.1000003814697,-935.700012207031,2.60447657034371,-0.32533490040497,0.264145288657321,DLL
7.86666666666667,-3.49494934082031,-1.82493424415588,8.21190452575684,1.44817996025085,-0.945127964019775,2.9420919418335,-1003.50006103516,9.90000057220459,-947.700012207031,2.58039101492716,-0.387202583314715,0.218667470221803,DLL
7.9,-3.30713248252869,-1.41939330101013,8.83576774597168,1.89025592803955,-2.45428395271301,3.45276594161987,-1013.10003662109,5.70000028610229,-933.300048828125,2.54884854595401,-0.354128710762599,0.15930519687162,DLL
7.93333333333333,-2.16049242019653,-0.872092425823212,8.55165004730225,2.33995389938354,-3.43752193450928,2.27897787094116,-1027.5,5.70000028610229,-940.500061035156,2.52515133321691,-0.251029618254695,0.101825449335237,DLL
7.96666666666667,-2.40333843231201,-0.906784772872925,8.49363040924072,2.16464805603027,-2.9268479347229,1.56251001358032,-1008.30004882812,7.50000047683716,-923.700012207031,2.52086686747666,-0.267798502466714,0.101704772704078,DLL
8.0,-3.00746297836304,-0.436644375324249,8.97094821929932,2.24086785316467,-1.31098401546478,2.0579400062561,-1015.50006103516,5.10000038146973,-930.900024414062,2.50081349231015,-0.316259186116058,0.0488812210147796,DLL
8.03333333333333,-3.31610465049744,-0.248229339718819,9.11868953704834,2.14940404891968,-0.647870004177094,2.45428395271301,-1025.10009765625,-3.30000019073486,-926.100036621094,2.48720536927908,-0.344832920467445,0.0243914682039499,DLL
8.06666666666667,-4.23485231399536,0.14056359231472,9.41656494140625,1.82165801525116,-0.205793991684914,2.36281991004944,-1022.70001220703,6.90000009536743,-930.900024414062,2.46709743311809,-0.415207469758842,-0.0157629299868722,DLL
8.1,-3.61397981643677,0.0083740018308162,9.32564735412598,0.647870004177094,-0.533540010452271,1.20427596569061,-1029.90002441406,4.5,-935.700012207031,2.46851677547223,-0.372274155474546,-0.0038173899212672,DLL
8.13333333333333,-3.5332305431366,-0.364269077777863,9.25865459442139,-0.182927995920181,-1.05945801734924,-0.823175966739655,-1022.70001220703,3.90000009536743,-926.100036621094,2.48526229283527,-0.363332483833857,0.0361962733501839,DLL
8.16666666666667,-3.75753402709961,-0.613096535205841,9.22336483001709,-0.602137982845306,-1.14329993724823,-0.907018005847931,-1017.90002441406,6.30000019073486,-928.500061035156,2.49831128056101,-0.382721818719426,0.0659971393997117,DLL
8.2,-3.66960716247559,-0.761435985565186,8.90874099731445,-0.815553963184357,-1.15092194080353,-0.792688012123108,-1029.90002441406,4.5,-928.500061035156,2.50682629657695,-0.386960135386876,0.0854237842717183,DLL
8.23333333333333,-4.21092653274536,-0.766819298267365,8.76339244842529,-1.62348592281342,-2.18751406669617,0.525918006896973,-1032.30004882812,3.30000019073486,-933.300048828125,2.5037960481258,-0.437681249152946,0.0891779736971998,DLL
8.26666666666667,-5.22059202194214,-0.513804793357849,8.36443138122559,-2.75916385650635,-3.31556987762451,4.61131000518799,-1025.10009765625,5.10000038146973,-933.300048828125,2.47262921672463,-0.541591633027804,0.0640437479845059,DLL
8.3,-3.60201692581177,-1.38230836391449,6.96537494659424,-5.79271984100342,-5.32015609741211,10.2668333053589,-1032.30004882812,6.90000009536743,-926.100036621094,2.4875231924318,-0.469941357343659,0.1853648246433,DLL
8.33333333333333,-3.44470548629761,-1.66822075843811,8.12397766113281,-8.52139568328857,-5.76223182678223,15.0382061004639,-1044.30004882812,10.5,-921.300048828125,2.42755375532091,-0.394540350782061,0.204058844646057,DLL
8.36666666666667,-1.5802937746048,-2.4978449344635,8.16166114807129,-9.87811183929443,-6.31863784790039,17.0732803344727,-1053.90002441406,16.5,-923.700012207031,2.3853796531982,-0.200155241634052,0.297576161004412,DLL
8.4,-1.32309222221375,-2.86450672149658,8.41587162017822,-9.74853801727295,-6.25766181945801,15.4497938156128,-1063.5,15.3000001907349,-928.500061035156,2.32971695715306,-0.150958001679693,0.336505399883642,DLL
8.43333333333333,-0.60651695728302,-3.64627957344055,8.98171520233154,-9.14639949798584,-5.05338573455811,13.9482593536377,-1049.10009765625,15.9000005722046,-923.700012207031,2.27857732270371,-0.0700119135543334,0.394684010124019,DLL
8.46666666666667,-0.970187902450562,-3.83230209350586,9.31009578704834,-7.16468000411987,-4.36740589141846,10.6860437393188,-1073.10009765625,27.3000011444092,-928.500061035156,2.23715624304757,-0.0939248331481504,0.40061045543457,DLL
8.5,-0.860129594802856,-4.16845846176147,9.68393516540527,-4.61131000518799,-3.12502002716064,6.93601989746094,-1075.5,27.3000011444092,-916.500061035156,2.20975931148677,-0.0822709193289788,0.412342570736134,DLL
8.53333333333333,-1.44451522827148,-3.61397981643677,9.73477649688721,-2.66007804870605,-3.04879999160767,5.28204584121704,-1068.30004882812,30.9000015258789,-914.100036621094,2.18061910996045,-0.132917300110095,0.362513387472752,DLL
8.56666666666667,-1.14065861701965,-3.17195224761963,9.30949687957764,-1.41006994247437,-1.83690190315247,5.09911775588989,-1065.90002441406,30.9000015258789,-909.300048828125,2.15770490755421,-0.11698614576403,0.332656103841894,DLL
8.6,-1.29318511486053,-2.90996551513672,9.21917724609375,-0.67835795879364,-1.49391198158264,2.90398192405701,-1087.5,33.9000015258789,-906.900024414062,2.14337490231087,-0.130704325969039,0.308601070294868,DLL
8.63333333333333,-1.25430583953857,-2.73411154747009,8.03306007385254,-0.990859985351562,-1.38720393180847,1.92836594581604,-1080.30004882812,38.7000007629395,-909.300048828125,2.13770957721833,-0.144188954650625,0.327356002465805,DLL
8.66666666666667,-1.57849931716919,-2.85673093795776,8.2501859664917,-1.50153398513794,-1.37195992469788,1.77592599391937,-1070.70007324219,34.5,-899.700012207031,2.13076519982577,-0.174593825076368,0.334611176656825,DLL
8.7,-1.07007777690887,-3.01822948455811,8.53729438781738,-1.6615959405899,-2.67532205581665,0.914639949798584,-1077.90002441406,28.5000019073486,-890.100036621094,2.12439570022068,-0.117944048505172,0.341802334454785,DLL
8.73333333333333,-1.05213344097137,-3.31789898872375,8.92907810211182,-1.75305998325348,-2.4923939704895,0.693601965904236,-1087.5,31.5000019073486,-897.300048828125,2.11975825633583,-0.107146036914604,0.357392693017963,DLL
8.76666666666667,-1.11374223232269,-3.9638934135437,8.57437992095947,-2.0579400062561,-0.426831990480423,-1.2500079870224,-1087.5,33.3000030517578,-887.700012207031,2.13079617613578,-0.115226473998561,0.431337040069034,DLL
8.8,-1.79024195671082,-4.48009061813354,8.63598823547363,-1.21189796924591,0.724089980125427,-1.78354799747467,-1085.10009765625,36.9000015258789,-894.900024414062,2.14378629099778,-0.176685039200759,0.477427909998852,DLL
8.83333333333333,-2.39257192611694,-4.51837205886841,8.86089038848877,-0.800309956073761,-0.564027965068817,-2.00458598136902,-1070.70007324219,32.7000007629395,-894.900024414062,2.14818015773513,-0.230031231575145,0.473809951068253,DLL
8.86666666666667,-2.88544178009033,-4.29047966003418,8.38536643981934,-0.556405961513519,0.37347799539566,-0.0990860015153885,-1092.30004882812,31.5000019073486,-911.700012207031,2.14857782885889,-0.291634408366558,0.474031035741067,DLL
8.9,-2.35728144645691,-4.3903694152832,8.38955307006836,-0.602137982845306,1.33385002613068,0.602137982845306,-1089.90002441406,36.3000030517578,-897.300048828125,2.15053009080169,-0.250626445125295,0.482395204688022,DLL
8.93333333333333,-3.00267767906189,-4.24801158905029,8.21908283233643,-0.236281991004944,1.12805593013763,0.853663980960846,-1087.5,41.1000022888184,-902.100036621094,2.14813633301829,-0.31130936704576,0.477719463149519,DLL
8.96666666666667,-3.11333417892456,-4.24262809753418,8.48705101013184,-0.480185985565186,0.396344006061554,1.49391198158264,-1075.5,36.9000015258789,-894.900024414062,2.13941046311022,-0.318328008258626,0.464699754526333,DLL
9.0,-2.99310731887817,-3.92022895812988,8.45534896850586,-0.274392008781433,-0.541162014007568,2.31708788871765,-1089.90002441406,40.5,-916.500061035156,2.12262496072493,-0.312241208667705,0.436128741827759,DLL
9.03333333333333,-2.14494061470032,-3.86400365829468,7.94812393188477,-0.358233988285065,-0.503051996231079,2.54574799537659,-1085.10009765625,35.1000022888184,-904.500061035156,2.11789730797411,-0.245853526509892,0.45057945975546,DLL
9.06666666666667,-2.36326289176941,-4.02251148223877,8.3578519821167,0.0076219998300075,-0.0762199983000755,2.43903994560242,-1075.5,38.1000022888184,-906.900024414062,2.10952273205011,-0.250761700809913,0.447806818346808,DLL
9.1,-2.26277494430542,-3.99021172523499,8.32256126403809,0.320124000310898,-0.670735955238342,2.94971394538879,-1075.5,38.7000007629395,-909.300048828125,2.09932874655198,-0.242414307749648,0.445461098757189,DLL
9.13333333333333,-2.25440096855164,-3.8998920917511,8.16704368591309,0.541162014007568,-0.907018005847931,3.10215401649475,-1077.90002441406,38.7000007629395,-899.700012207031,2.08857172824162,-0.244784993471189,0.443373135701179,DLL
9.16666666666667,-1.96011447906494,-4.08112955093384,8.57737064361572,0.350611984729767,-0.564027965068817,2.4847719669342,-1077.90002441406,41.1000022888184,-921.300048828125,2.08004113700162,-0.207798707713457,0.442617179611632,DLL
9.2,-1.51090919971466,-4.05899810791016,8.47149848937988,0.518296003341675,-1.45580196380615,1.54726600646973,-1068.30004882812,41.1000022888184,-904.500061035156,2.07393707915088,-0.162820856504079,0.445067310796205,DLL
9.23333333333333,-1.34701800346375,-4.03806304931641,8.23941898345947,0.503051996231079,-1.98934197425842,1.41006994247437,-1075.5,47.7000007629395,-892.500061035156,2.06819099582442,-0.145441536017723,0.453423700506538,DLL
9.26666666666667,-1.49057233333588,-4.17204713821411,8.67307281494141,0.243903994560242,-0.922261953353882,1.12805593013763,-1068.30004882812,36.9000015258789,-902.100036621094,2.06268164584486,-0.152370814895297,0.448089339844644,DLL
9.3,-1.38171029090881,-4.12120485305786,8.35486125946045,0.0838419944047928,-0.556405961513519,1.28811800479889,-1082.70007324219,36.3000030517578,-890.100036621094,2.05924689075667,-0.147812524353744,0.45686482930229,DLL
9.33333333333333,-1.53722739219666,-3.9537250995636,8.0833044052124,0.327746003866196,-0.106707997620106,1.41769194602966,-1080.30004882812,35.7000007629395,-906.900024414062,2.05450307572706,-0.168102967431682,0.45421886807739,DLL
9.36666666666667,-1.75076448917389,-3.90407919883728,7.82789707183838,0.297257989645004,0.266770005226135,1.2576299905777,-1089.90002441406,37.5,-892.500061035156,2.05241605704842,-0.196381145736199,0.46115266261218,DLL
9.4,-2.10785579681396,-4.04284811019897,8.28906536102295,0.236281991004944,-0.746955990791321,0.87652999162674,-1087.5,35.7000007629395,-911.700012207031,2.04726311838815,-0.221686342063301,0.453692245547225,DLL
9.43333333333333,-2.02710652351379,-4.14333629608154,8.56959438323975,0.198172003030777,-1.99696397781372,0.891773998737335,-1075.5,36.9000015258789,-899.700012207031,2.04092006315964,-0.208661256594719,0.44977222790205,DLL
9.46666666666667,-2.03847122192383,-3.87835907936096,8.61804389953613,0.137196004390717,-2.10367202758789,1.60061991214752,-1089.90002441406,37.5,-906.900024414062,2.02726350922114,-0.210151664631786,0.423882383292158,DLL
9.5,-1.7065018415451,-3.72164559364319,8.6024923324585,0.342989981174469,-1.88263392448425,2.39330792427063,-1075.5,45.3000030517578,-887.700012207031,2.01413370428646,-0.181343920416263,0.408149650670586,DLL
9.53333333333333,-1.79981219768524,-2.92073202133179,8.99188327789307,0.87652999162674,-1.47866797447205,3.67380380630493,-1075.5,36.3000030517578,-885.300048828125,1.98351589012466,-0.187406807660475,0.317883952401763,DLL
9.56666666666667,-1.57132160663605,-2.7622241973877,9.0732307434082,0.830797970294952,-1.36433792114258,3.00306797027588,-1089.90002441406,44.7000007629395,-906.900024414062,1.9682021549022,-0.165258640678969,0.294956526607214,DLL
9.6,-1.6084064245224,-2.71616721153259,9.31607723236084,0.0533539988100529,-1.49391198158264,1.72257196903229,-1058.70007324219,44.7000007629395,-899.700012207031,1.95937536322494,-0.162842765807669,0.284083512905133,DLL
9.63333333333333,-1.56055498123169,-2.68625998497009,9.19345760345459,-0.213415995240211,-1.21189796924591,1.76830399036407,-1082.70007324219,43.5,-890.100036621094,1.95230553009878,-0.160573897678917,0.284074404679648,DLL
9.66666666666667,-1.55935871601105,-2.71437287330627,9.16953182220459,0.106707997620106,0.106707997620106,1.74543797969818,-1085.10009765625,51.9000015258789,-890.100036621094,1.94720393161048,-0.162490096734454,0.28686896140848,DLL
9.7,-1.41819703578949,-2.78914070129395,9.05289363861084,0.350611984729767,0.861285984516144,0.533540010452271,-1073.10009765625,41.1000022888184,-887.700012207031,1.94810650097883,-0.151420692688121,0.297163149775615,DLL
9.73333333333333,-1.5444051027298,-2.71138215065002,8.81902027130127,0.37347799539566,0.769822001457214,-0.167683988809586,-1087.5,38.7000007629395,-885.300048828125,1.94971057982986,-0.165636741578102,0.29768201633043,DLL
9.76666666666667,-1.74478304386139,-3.06189393997192,8.69161510467529,0.525918006896973,1.42531394958496,-1.12805593013763,-1085.10009765625,44.7000007629395,-897.300048828125,1.961671893284,-0.186759310206759,0.334588505466545,DLL
9.8,-1.93379616737366,-3.15041899681091,8.5426778793335,0.724089980125427,1.79117000102997,-1.21189796924591,-1070.70007324219,38.7000007629395,-899.700012207031,1.97131783922595,-0.209258959981996,0.351036935243259,DLL
9.83333333333333,-2.131183385849,-3.19527983665466,8.51157474517822,0.487807989120483,1.70732796192169,-1.57775402069092,-1065.90002441406,37.5,-892.500061035156,1.98027621314579,-0.230019484052513,0.358372243758946,DLL
9.86666666666667,-1.87158930301666,-3.51229548454285,8.26035404205322,-0.190549999475479,1.63872992992401,-1.65397393703461,-1075.5,43.5,-890.100036621094,1.99625604135464,-0.209207678521115,0.399147314837791,DLL
9.9,-1.84945809841156,-3.82691884040833,8.39613246917725,-0.769822001457214,1.39482593536377,-1.54726600646973,-1073.10009765625,40.5,-890.100036621094,2.00806120973644,-0.199871439684968,0.426951331938794,DLL
9.93333333333333,-2.21851229667664,-3.85802221298218,8.6981954574585,-0.503051996231079,1.36433792114258,-1.50153398513794,-1070.70007324219,38.1000022888184,-892.500061035156,2.01268789853082,-0.227420786277026,0.419826495347398,DLL
9.96666666666667,-1.86142086982727,-4.02789497375488,8.48166751861572,-0.152439996600151,1.43293595314026,-1.39482593536377,-1073.10009765625,38.1000022888184,-894.900024414062,2.02360370727997,-0.199710545033707,0.442106339796418,DLL
10.0,-1.93858134746552,-4.07873678207397,8.36443138122559,-0.0,0.861285984516144,-1.71494996547699,-1065.90002441406,43.5,-897.300048828125,2.03234361402698,-0.204911663393817,0.453280137677872,DLL
10.0333333333333,-1.80100846290588,-4.00277280807495,8.28128910064697,0.304879993200302,0.0762199983000755,-1.6844619512558,-1061.10009765625,33.9000015258789,-894.900024414062,2.03757132117583,-0.193157225507451,0.45047210857415,DLL
10.0666666666667,-1.85902833938599,-3.7312159538269,8.21728801727295,1.13567793369293,0.762199997901917,-1.60824191570282,-1065.90002441406,36.3000030517578,-899.700012207031,2.04013923903186,-0.202435107210249,0.426816334241373,DLL
10.1,-2.06478953361511,-3.54878234863281,7.74475526809692,1.44055795669556,1.09756803512573,-1.81403601169586,-1056.30004882812,37.5,-897.300048828125,2.04932316327786,-0.235755546600921,0.427928619949258,DLL
10.1333333333333,-2.4936580657959,-3.86041474342346,7.66580009460449,0.594515979290009,0.693601965904236,-2.08842802047729,-1080.30004882812,36.9000015258789,-904.500061035156,2.06605929492799,-0.278039644413871,0.462986673061308,DLL
10.1666666666667,-2.34651494026184,-4.28449821472168,8.10902404785156,-0.198172003030777,-1.05945801734924,-2.35519790649414,-1065.90002441406,40.5,-911.700012207031,2.07697945662311,-0.249766378624606,0.484978098846678,DLL
10.2,-2.32797241210938,-4.4262580871582,8.21250343322754,-1.02134799957275,-2.46952795982361,-2.23324584960938,-1070.70007324219,41.7000007629395,-899.700012207031,2.08135475096518,-0.239881009598102,0.495419603634468,DLL
10.2333333333333,-2.33275747299194,-4.64458036422729,8.43979740142822,-0.350611984729767,-0.792688012123108,-1.53964400291443,-1063.5,41.7000007629395,-899.700012207031,2.08640137563403,-0.235437424749265,0.503451174930083,DLL
10.2666666666667,-2.5558648109436,-4.58237314224243,8.44338607788086,0.297257989645004,0.365855991840363,-0.960371971130371,-1092.30004882812,44.1000022888184,-887.700012207031,2.08867196212922,-0.257583838701477,0.497748560251194,DLL
10.3,-2.76461672782898,-4.3724250793457,7.88771152496338,0.381099998950958,1.20427596569061,0.426831990480423,-1080.30004882812,34.5,-894.900024414062,2.09185995794752,-0.297024200429532,0.505113312748338,DLL
10.3333333333333,-2.7921314239502,-4.39754724502563,8.18379211425781,0.0076219998300075,0.884151995182037,1.13567793369293,-1082.70007324219,36.9000015258789,-894.900024414062,2.08643976810922,-0.294441665929199,0.493604159950093,DLL
10.3666666666667,-2.78256106376648,-4.27552604675293,8.59830474853516,0.495429992675781,-0.236281991004944,1.05183601379395,-1075.5,35.1000022888184,-892.500061035156,2.07444816505548,-0.283416052028707,0.462565953610848,DLL
10.4,-2.74188733100891,-4.11881256103516,8.41288089752197,0.411587983369827,-1.10518991947174,0.99848198890686,-1065.90002441406,41.7000007629395,-892.500061035156,2.06774662524465,-0.283768929516508,0.454514364992597,DLL
10.4333333333333,-2.43444180488586,-3.92920112609863,8.44039535522461,0.167683988809586,-0.990859985351562,2.080806016922,-1082.70007324219,40.5,-887.700012207031,2.05530048302695,-0.258274297132464,0.436125471965407,DLL
10.4666666666667,-2.10366892814636,-3.83648896217346,8.43441390991211,0.647870004177094,-0.663114011287689,2.11129403114319,-1073.10009765625,35.1000022888184,-897.300048828125,2.04599723436978,-0.226848107667384,0.425864786294878,DLL
10.5,-1.8446729183197,-3.64747595787048,7.84404706954956,0.983237981796265,-0.480185985565186,1.95123195648193,-1073.10009765625,33.9000015258789,-885.300048828125,2.0414450306178,-0.212213476042089,0.432167434744828,DLL
10.5333333333333,-2.01035857200623,-3.65405535697937,7.69989442825317,0.945127964019775,-0.266770005226135,1.94360995292664,-1077.90002441406,38.1000022888184,-902.100036621094,2.03724220824379,-0.231121914596483,0.440035968123374,DLL
10.5666666666667,-1.96011447906494,-3.93817329406738,8.03485488891602,0.411587983369827,-1.11281192302704,1.6844619512558,-1068.30004882812,38.7000007629395,-887.700012207031,2.03368111732479,-0.21662524786792,0.452950176352795,DLL
10.6,-1.64848208427429,-4.15769195556641,8.80107593536377,-0.0914639979600906,-2.45428395271301,1.98934197425842,-1075.5,36.3000030517578,-892.500061035156,2.02177351050159,-0.170022643460829,0.441701868188193,DLL
10.6333333333333,-1.18013608455658,-4.21810436248779,8.93087291717529,0.182927995920181,-1.89787793159485,1.56251001358032,-1075.5,36.3000030517578,-890.100036621094,2.01408488966997,-0.12187875280483,0.440537972917015,DLL
10.6666666666667,-1.54380702972412,-4.38199520111084,9.08579158782959,0.67835795879364,-0.419209986925125,1.07470202445984,-1073.10009765625,37.5,-890.100036621094,2.01106788228258,-0.149946583231612,0.447395435539723,DLL
10.7,-1.99121797084808,-4.0476336479187,8.92070388793945,1.59299790859222,0.0990860015153885,0.67835795879364,-1089.90002441406,33.3000030517578,-887.700012207031,2.00625539529546,-0.19656236128718,0.425211957936921,DLL
10.7333333333333,-1.67898726463318,-3.5972318649292,8.26155090332031,1.87501192092896,0.449698001146317,1.11281192302704,-1075.5,37.5,-897.300048828125,2.00135870087298,-0.18653434911858,0.408473048074024,DLL
10.7666666666667,-1.51150727272034,-3.13247466087341,7.98102188110352,1.76830399036407,0.442075997591019,0.121951997280121,-1073.10009765625,40.5,-890.100036621094,1.99645954799712,-0.17615219362612,0.373769127782447,DLL
10.8,-1.75554966926575,-2.83579587936401,7.70467948913574,1.37195992469788,-0.0533539988100529,-0.137196004390717,-1073.10009765625,33.9000015258789,-902.100036621094,1.99369050996925,-0.207904279064375,0.352097726961281,DLL
10.8333333333333,-1.60481762886047,-3.3866856098175,8.54746341705322,0.442075997591019,-0.594515979290009,-0.0076219998300075,-1080.30004882812,42.9000015258789,-887.700012207031,1.99753993931232,-0.17432720377174,0.374748720642147,DLL
10.8666666666667,-1.48459088802338,-3.25509405136108,8.72331714630127,-0.0076219998300075,-2.09605002403259,-0.815553963184357,-1073.10009765625,39.9000015258789,-890.100036621094,1.99495073783394,-0.156014856864917,0.358753868737587,DLL
10.9,-1.33026993274689,-3.54878234863281,8.72152233123779,-0.350611984729767,-1.50915598869324,1.14329993724823,-1085.10009765625,32.7000007629395,-897.300048828125,1.99299586255477,-0.140220826627722,0.384125603780092,DLL
10.9333333333333,-1.61857485771179,-3.29397344589233,9.02418327331543,0.0381099991500378,-0.99848198890686,0.411587983369827,-1087.5,45.3000030517578,-892.500061035156,1.98551857564805,-0.163641554912679,0.352322831701041,DLL
10.9666666666667,-1.84347665309906,-3.23774790763855,9.69111251831055,0.541162014007568,-0.937505960464478,1.2500079870224,-1092.30004882812,40.5,-890.100036621094,1.97558141020474,-0.176607557791869,0.323397896583461,DLL
11.0,-1.8847484588623,-2.91355443000793,9.41177940368652,0.289635986089706,-1.13567793369293,1.71494996547699,-1080.30004882812,39.9000015258789,-882.900024414062,1.96503018595778,-0.186998456744447,0.301261977050295,DLL
11.0333333333333,-1.53304040431976,-2.88364720344543,8.96078014373779,-0.426831990480423,-0.190549999475479,1.69970595836639,-1073.10009765625,42.3000030517578,-890.100036621094,1.96070589673815,-0.1642853498813,0.310658529153637,DLL
11.0666666666667,-1.53603112697601,-3.02361273765564,9.13005447387695,-0.87652999162674,-0.327746003866196,1.57775402069092,-1075.5,39.9000015258789,-887.700012207031,1.95608637428725,-0.159152326360972,0.320037970917006,DLL
11.1,-1.99540495872498,-2.77358889579773,9.50508975982666,-0.701223969459534,-0.594515979290009,1.42531394958496,-1075.5,38.7000007629395,-906.900024414062,1.94429651547112,-0.195631796167582,0.287320189191268,DLL
11.1333333333333,-1.75674593448639,-2.75803732872009,8.1126127243042,-0.106707997620106,0.990859985351562,1.2347639799118,-1087.5,44.1000022888184,-894.900024414062,1.94852736867881,-0.203744132877185,0.323940706689827,DLL
11.1666666666667,-1.51150727272034,-3.25449585914612,7.98999357223511,-0.381099998950958,1.50153398513794,-0.853663980960846,-1082.70007324219,43.5,-892.500061035156,1.96466764094168,-0.177147127546791,0.383913114210363,DLL
11.2,-2.38659048080444,-3.51887512207031,8.94881725311279,-0.777444005012512,-0.746955990791321,-1.16616594791412,-1082.70007324219,44.7000007629395,-894.900024414062,1.96541006519857,-0.235513124496689,0.37703896590203,DLL
11.2333333333333,-2.41410493850708,-3.6731960773468,9.14799880981445,-0.670735955238342,-0.990859985351562,-0.266770005226135,-1075.5,41.1000022888184,-890.100036621094,1.96572256656556,-0.238125692433024,0.382409552499863,DLL
11.2666666666667,-1.43733751773834,-3.58706331253052,8.95719146728516,-0.297257989645004,-0.0228659994900227,0.243903994560242,-1082.70007324219,45.3000030517578,-887.700012207031,1.96447254267052,-0.154814026722506,0.381446602052617,DLL
11.3,-1.18432307243347,-3.37173199653625,8.77535533905029,0.0304879993200302,0.358233988285065,0.228659987449646,-1082.70007324219,44.7000007629395,-902.100036621094,1.96231809845068,-0.128651712568471,0.368087017130025,DLL
11.3333333333333,-1.64130425453186,-3.33225440979004,8.90515232086182,0.114329993724823,0.78506600856781,-0.0152439996600151,-1070.70007324219,42.3000030517578,-892.500061035156,1.96201151145864,-0.168271378732374,0.358873015961673,DLL
11.3666666666667,-1.08263874053955,-3.43453693389893,8.29325199127197,-0.266770005226135,1.07470202445984,-0.358233988285065,-1080.30004882812,39.9000015258789,-897.300048828125,1.96895720920842,-0.125784605657921,0.390181111858992,DLL
11.4,-1.4241783618927,-3.64149451255798,8.21728801727295,-0.182927995920181,1.50915598869324,-1.42531394958496,-1075.5,40.5,-894.900024414062,1.9798286274707,-0.156515038870655,0.416225041351152,DLL
11.4333333333333,-2.28430795669556,-3.82811498641968,8.32854270935059,0.3125019967556,1.33385002613068,-1.52439999580383,-1070.70007324219,40.5,-909.300048828125,1.98970308547954,-0.238551697863611,0.42993647706877,DLL
11.4666666666667,-2.12460374832153,-3.8837423324585,7.91761827468872,0.0685980021953583,0.830797970294952,-1.30336201190948,-1070.70007324219,45.9000015258789,-892.500061035156,2.00122368332599,-0.236858290156829,0.454730399703407,DLL
11.5,-1.80998063087463,-4.05540943145752,7.84464502334595,0.144817993044853,0.182927995920181,-1.73781597614288,-1068.30004882812,39.9000015258789,-899.700012207031,2.01197671517018,-0.203536024380028,0.475927256312625,DLL
11.5333333333333,-1.56773269176483,-4.06198883056641,7.71664237976074,0.190549999475479,-0.647870004177094,-1.31098401546478,-1085.10009765625,40.5,-890.100036621094,2.01670979147277,-0.177907827539526,0.48384232027254,DLL
11.5666666666667,-1.13288283348083,-4.29646110534668,8.43262004852295,-0.0457319989800453,-1.33385002613068,-0.846041977405548,-1073.10009765625,38.7000007629395,-894.900024414062,2.01545325255058,-0.121963264204563,0.472468379515593,DLL
11.6,-1.29797029495239,-4.21571159362793,8.60667896270752,0.0762199983000755,-1.13567793369293,-1.18140995502472,-1089.90002441406,44.7000007629395,-887.700012207031,2.01541933187944,-0.131026497171446,0.457004044707406,DLL
11.6333333333333,-1.85543954372406,-3.6534571647644,8.46192836761475,1.54726600646973,1.02897000312805,-0.457319974899292,-1080.30004882812,34.5,-892.500061035156,2.01164088172706,-0.194801696311397,0.4091075213869,DLL
11.6666666666667,-1.9188426733017,-3.70609378814697,8.55404281616211,1.47104597091675,1.34909391403198,-0.952749967575073,-1089.90002441406,35.1000022888184,-894.900024414062,2.01700579363793,-0.203622162772161,0.406989482622578,DLL
11.7,-2.21253085136414,-3.6534571647644,8.9117317199707,0.67835795879364,0.358233988285065,-1.78354799747467,-1075.5,40.5,-902.100036621094,2.02065888556217,-0.223840751872406,0.389735726692122,DLL
11.7333333333333,-2.16767001152039,-3.5493803024292,9.533203125,1.02897000312805,0.967993974685669,-1.40244793891907,-1080.30004882812,35.7000007629395,-899.700012207031,2.02065626789213,-0.211574692410622,0.357611163852714,DLL
11.7666666666667,-1.49715185165405,-3.76949691772461,9.47219181060791,2.33995389938354,2.83538389205933,-2.75916385650635,-1082.70007324219,44.7000007629395,-899.700012207031,2.03814453905517,-0.153445536404391,0.374362506273139,DLL
11.8,-1.86500978469849,-3.70071053504944,8.99666881561279,4.04728174209595,3.29270386695862,-5.73174381256104,-1068.30004882812,41.7000007629395,-894.900024414062,2.0645101302343,-0.187612190341055,0.384265495011928,DLL
11.8333333333333,-2.5235652923584,-3.66900897026062,8.86507701873779,6.15095376968384,4.04728174209595,-7.46193790435791,-1097.10009765625,37.5,-914.100036621094,2.09786897856719,-0.252393321309559,0.385144353010088,DLL
11.8666666666667,-1.2238005399704,-4.26296472549438,9.49013614654541,7.11132574081421,3.26221585273743,-10.7698860168457,-1065.90002441406,27.9000015258789,-899.700012207031,2.14996740321508,-0.123591570953723,0.411007314850006,DLL
11.9,-2.24363422393799,-3.2748327255249,8.84294605255127,8.99395942687988,3.07166600227356,-10.5259819030762,-1065.90002441406,32.1000022888184,-914.100036621094,2.18569073066567,-0.224678226198969,0.347737309055625,DLL
11.9333333333333,-1.37632691860199,-3.6672146320343,8.68264293670654,8.30035781860352,3.73477983474731,-8.3613338470459,-1068.30004882812,26.7000007629395,-911.700012207031,2.23210687876809,-0.151171030977324,0.38510939854028,DLL
11.9666666666667,-2.09589290618896,-2.87587141990662,8.42185306549072,7.0732159614563,4.2149658203125,-8.95584964752197,-1061.10009765625,21.9000015258789,-911.700012207031,2.25924147257386,-0.22564252615066,0.326322605006505,DLL
12.0,-1.62216377258301,-2.73530769348145,8.48226547241211,5.80034208297729,3.91770792007446,-6.76833581924438,-1063.5,21.3000011444092,-918.900024414062,2.28504644870818,-0.186810480628512,0.306439421845463,DLL
12.0333333333333,-0.388792932033539,-2.95841503143311,8.07552814483643,4.67990779876709,3.3613018989563,-4.70277404785156,-1058.70007324219,15.3000001907349,-930.900024414062,2.31002698897908,-0.0607035897850069,0.340549801758125,DLL
12.0666666666667,-2.33096313476562,-2.53732252120972,8.69580268859863,4.6341757774353,4.61131000518799,-4.72563982009888,-1058.70007324219,20.1000003814697,-918.900024414062,2.32484719478836,-0.240886412348683,0.28334772205115,DLL
12.1,-3.75394535064697,-2.69702672958374,9.25686073303223,4.67228603363037,4.88570165634155,-2.40855193138123,-1044.30004882812,12.3000001907349,-928.500061035156,2.34033201633311,-0.36585862647589,0.278112743897286,DLL
12.1333333333333,-3.39745211601257,-2.51519107818604,9.45963096618652,4.46649169921875,3.71953582763672,-1.43293595314026,-1044.30004882812,11.1000003814697,-926.100036621094,2.3455440006411,-0.342080691724681,0.255774305584455,DLL
12.1666666666667,-3.21322393417358,-1.94815170764923,9.38247108459473,3.84910988807678,1.01372599601746,-1.64635193347931,-1049.10009765625,12.3000001907349,-938.100036621094,2.33895274512697,-0.326257706762106,0.204202326877194,DLL
12.2,-2.66353058815002,-1.67480027675629,8.81124401092529,3.3689239025116,0.67835795879364,-0.426831990480423,-1034.70007324219,9.30000019073486,-930.900024414062,2.33863567037948,-0.291988564502891,0.183617970112208,DLL
12.2333333333333,-2.59294986724854,-1.17056584358215,8.5307149887085,3.52136397361755,0.983237981796265,-0.0457319989800453,-1025.10009765625,3.30000019073486,-928.500061035156,2.32883906926726,-0.294048958722191,0.133978743346687,DLL
12.2666666666667,-2.78196287155151,-0.974973022937775,7.95051622390747,3.39941191673279,1.82927989959717,1.15854394435883,-1032.30004882812,12.3000001907349,-930.900024414062,2.3242513622568,-0.334397393669311,0.116928646179918,DLL
12.3,-3.09838056564331,-0.644199967384338,7.63948202133179,2.9116039276123,2.44666194915771,2.55336999893188,-1032.30004882812,3.90000009536743,-935.700012207031,2.30775529997396,-0.383816041686224,0.0810525764948066,DLL
12.3333333333333,-4.01234292984009,-0.433653652667999,8.45654487609863,2.37044191360474,1.73019397258759,2.64483404159546,-1025.10009765625,3.30000019073486,-928.500061035156,2.28996573717453,-0.440177886483066,0.0483608630915789,DLL
12.3666666666667,-4.50999784469604,-0.185424327850342,9.64924240112305,2.18751406669617,-0.152439996600151,2.39330792427063,-1015.50006103516,5.70000028610229,-930.900024414062,2.27217712501217,-0.437282108269707,0.0165918875599204,DLL
12.4,-3.30832886695862,-0.009570287540555,9.78561878204346,1.44055795669556,-1.93598794937134,1.18140995502472,-1032.30004882812,3.90000009536743,-930.900024414062,2.26369969803224,-0.333024082086842,-0.0006513645145874,DLL
12.4333333333333,-2.7502613067627,-0.154320880770683,9.5984001159668,0.617381989955902,-1.94360995292664,-0.0914639979600906,-1032.30004882812,0.300000011920929,-930.900024414062,2.26890477714965,-0.280826277232939,0.0136370302788487,DLL
12.4666666666667,-2.36445927619934,-0.400755792856216,9.71922492980957,0.106707997620106,-1.57775402069092,-1.44055795669556,-1032.30004882812,8.70000076293945,-926.100036621094,2.28021672218154,-0.239710456837038,0.0391246066556135,DLL
12.5,-2.68625998497009,-0.567039549350739,8.74963569641113,-0.0228659994900227,0.525918006896973,-1.05945801734924,-1025.10009765625,4.5,-935.700012207031,2.29056836901428,-0.294087136837066,0.0634795044523651,DLL
12.5333333333333,-2.27174711227417,-0.739304721355438,7.96427345275879,-0.472563982009888,1.18140995502472,-0.945127964019775,-1022.70001220703,0.900000035762787,-938.100036621094,2.30169406407089,-0.279819611964029,0.0916308672698197,ST
12.5666666666667,-2.77299070358276,-0.778183996677399,8.0653600692749,-0.762199997901917,1.18903195858002,-0.87652999162674,-1010.70001220703,2.70000004768372,-923.700012207031,2.30616131702507,-0.328085683286252,0.097641085933933,ST
12.6,-2.72992444038391,-1.03478729724884,8.01571369171143,-1.00610399246216,1.6768399477005,-0.495429992675781,-1034.70007324219,5.10000038146973,-928.500061035156,2.31693528002318,-0.328508337794075,0.127580421272158,ST
12.6333333333333,-3.07086610794067,-1.30036282539368,8.81722545623779,-1.16616594791412,1.97409796714783,-0.884151995182037,-1015.50006103516,6.90000009536743,-926.100036621094,2.32602106715507,-0.334516212896338,0.147531295063708,ST
12.6666666666667,-3.70310306549072,-1.61020088195801,9.33222675323486,-1.38720393180847,1.6615959405899,-0.967993974685669,-1005.90002441406,2.70000004768372,-928.500061035156,2.33666215797454,-0.37164053683779,0.171672442831786,ST
12.7,-4.07574605941772,-2.02411580085754,10.4154634475708,-1.37958192825317,1.12043392658234,-0.777444005012512,-1008.30004882812,2.70000004768372,-933.300048828125,2.34574285817943,-0.368714152740177,0.19290205518939,ST
12.7333333333333,-3.30414175987244,-2.15869808197021,9.86158275604248,-0.716467976570129,0.83841997385025,-0.388722002506256,-1010.70001220703,15.3000001907349,-923.700012207031,2.35416912883971,-0.322237718244137,0.214931308603584,ST
12.7666666666667,-3.26406621932983,-1.54380702972412,9.00205135345459,0.282013982534409,0.0533539988100529,-0.114329993724823,-1017.90002441406,6.90000009536743,-935.700012207031,2.34140891951849,-0.341413186514833,0.173570188133698,ST
12.8,-2.03009724617004,-1.3458217382431,7.70946455001831,0.564027965068817,-0.548784017562866,1.00610399246216,-1008.30004882812,5.10000038146973,-930.900024414062,2.33777304812499,-0.261155974253219,0.171512743483708,ST
12.8333333333333,-2.12938904762268,-1.15022897720337,7.32306432723999,0.769822001457214,0.0838419944047928,0.632625997066498,-1008.30004882812,11.1000003814697,-942.900024414062,2.33224483352401,-0.278338825630274,0.155728219411087,ST
12.8666666666667,-2.75325202941895,-0.82962429523468,6.85591459274292,0.967993974685669,0.304879993200302,0.922261953353882,-1001.10003662109,6.90000009536743,-942.900024414062,2.31960068953554,-0.370904344326529,0.121676099850237,ST
12.9,-3.18810200691223,-1.36316788196564,7.46661853790283,0.381099998950958,-0.403965979814529,1.44055795669556,-1015.50006103516,2.10000014305115,-940.500061035156,2.33475496266094,-0.395041674407122,0.173606621319989,ST
12.9333333333333,-3.87955522537231,-1.40563595294952,8.68862438201904,0.487807989120483,-1.93598794937134,0.198172003030777,-1003.50006103516,3.90000009536743,-928.500061035156,2.32848835114848,-0.410613360968088,0.160252972352508,ST
12.9666666666667,-3.76770257949829,-1.57790112495422,10.0769147872925,0.579271972179413,-3.7728898525238,-1.03659200668335,-1003.50006103516,9.30000019073486,-928.500061035156,2.32869974405717,-0.352811818244449,0.155109496003999,ST
13.0,-3.48717355728149,-2.16049242019653,10.3502655029297,0.335367977619171,-3.56709599494934,-2.32470989227295,-1032.30004882812,5.10000038146973,-940.500061035156,2.349651297138,-0.315455329286536,0.201547465176143,ST
13.0333333333333,-3.5433988571167,-1.9529367685318,9.95848274230957,0.472563982009888,-1.53202199935913,-1.95885396003723,-1029.90002441406,7.50000047683716,-928.500061035156,2.35323993223812,-0.33108881621601,0.194497791795739,ST
13.0666666666667,-3.72284173965454,-1.99002170562744,9.02777194976807,0.388722002506256,1.02897000312805,-0.213415995240211,-1022.70001220703,5.10000038146973,-923.700012207031,2.36228837902537,-0.380491475272156,0.214874121070538,ST
13.1,-3.88194799423218,-1.90987050533295,8.62163257598877,0.37347799539566,1.265251994133,0.327746003866196,-1032.30004882812,6.90000009536743,-930.900024414062,2.36349128828847,-0.413198258304105,0.217087456079544,ST
13.1333333333333,-3.6612331867218,-1.72982943058014,8.58215522766113,0.518296003341675,0.167683988809586,0.0990860015153885,-1015.50006103516,5.70000028610229,-938.100036621094,2.35712389630281,-0.397940707061169,0.199664910696309,ST
13.1666666666667,-2.98353719711304,-1.38888800144196,8.51336860656738,0.571649968624115,-1.13567793369293,0.716467976570129,-1022.70001220703,9.90000057220459,-918.900024414062,2.34195248929425,-0.337312373986936,0.163647055285779,ST
13.2,-2.8262255191803,-1.33684957027435,8.83098316192627,0.6250039935112,-1.04421401023865,0.92988395690918,-1013.10003662109,5.70000028610229,-930.900024414062,2.3347296769193,-0.307839181524462,0.149896294192169,ST
13.2333333333333,-2.51877999305725,-1.49176859855652,9.20960712432861,0.274392008781433,-0.586893975734711,1.15854394435883,-1025.10009765625,5.10000038146973,-928.500061035156,2.33308023319982,-0.266078249010689,0.158851862035168,ST
13.2666666666667,-2.28670048713684,-1.79741966724396,9.39862060546875,0.0152439996600151,0.137196004390717,0.967993974685669,-1025.10009765625,6.90000009536743,-928.500061035156,2.33671777552274,-0.237924663105851,0.185869462849771,ST
13.3,-2.36087036132812,-1.94396460056305,9.15158748626709,0.221037998795509,1.06708002090454,1.13567793369293,-1022.70001220703,9.30000019073486,-933.300048828125,2.33865009527171,-0.248694972901047,0.207108694391394,ST
13.3333333333333,-3.44051837921143,-1.77229762077332,9.92438793182373,1.05945801734924,1.50153398513794,2.11129403114319,-1010.70001220703,5.70000028610229,-935.700012207031,2.3245521660297,-0.326401808127608,0.176181027352884,ST
13.3666666666667,-2.70061540603638,-1.62694883346558,9.55593204498291,1.51677799224854,0.92988395690918,1.76830399036407,-1025.10009765625,-0.300000011920929,-926.100036621094,2.31773244495408,-0.278174644799597,0.166079686283479,ST
13.4,-3.48358464241028,-1.19808042049408,9.00922966003418,1.35671591758728,1.41769194602966,1.60061991214752,-1015.50006103516,7.50000047683716,-930.900024414062,2.30413361049536,-0.360668711150142,0.132406828863828,ST
13.4333333333333,-2.76102805137634,-1.47023546695709,9.05588436126709,0.731711983680725,0.769822001457214,1.27287399768829,-1008.30004882812,4.5,-928.500061035156,2.30906142693338,-0.300042039439613,0.156682942177538,ST
13.4666666666667,-2.86869359016418,-1.29557764530182,8.48585414886475,0.87652999162674,0.0533539988100529,0.381099998950958,-1013.10003662109,8.10000038146973,-921.300048828125,2.30678695729042,-0.321150698232835,0.150240210631698,ST
13.5,-2.69104528427124,-1.20346367359161,8.01691055297852,0.746955990791321,-0.160062000155449,0.411587983369827,-1027.5,9.30000019073486,-928.500061035156,2.30531411211759,-0.320392405158995,0.14764152802401,ST
13.5333333333333,-3.04574394226074,-1.1837249994278,8.49004173278809,0.800309956073761,-1.11281192302704,0.731711983680725,-1008.30004882812,2.10000014305115,-930.900024414062,2.29991169143656,-0.338197012854255,0.137437035595239,ST
13.5666666666667,-2.70779323577881,-1.02402079105377,8.24121379852295,1.04421401023865,-1.33385002613068,1.33385002613068,-1010.70001220703,3.90000009536743,-928.500061035156,2.29119818601095,-0.315240260493535,0.122295966661613,ST
13.6,-3.44949054718018,-0.566441416740417,8.69879341125488,1.81403601169586,-0.830797970294952,1.83690190315247,-1003.50006103516,6.90000009536743,-935.700012207031,2.26719940794239,-0.371851923156567,0.0645353269450583,ST
13.6333333333333,-3.68814945220947,-0.282323479652405,8.87883472442627,2.00458598136902,-0.945127964019775,2.05031800270081,-1008.30004882812,9.30000019073486,-923.700012207031,2.25032539495746,-0.390195519851242,0.0302386991154984,ST
13.6666666666667,-3.92740678787231,-0.1214230209589,9.21558856964111,1.49391198158264,-1.09756803512573,2.0655620098114,-1027.5,3.30000019073486,-928.500061035156,2.23803907566111,-0.400079769188642,0.010795251216609,ST
13.7,-3.89869594573975,-0.0753660127520561,9.50628662109375,0.640248000621796,-0.914639949798584,1.48628997802734,-1022.70001220703,-1.5,-954.900024414062,2.23208472961141,-0.388548967821762,0.0061183483010018,ST
13.7333333333333,-3.41539645195007,-0.276342064142227,9.36392784118652,-0.167683988809586,-0.83841997385025,0.602137982845306,-1022.70001220703,-0.900000035762787,-928.500061035156,2.23755289395706,-0.35182746992052,0.0273096580235925,ST
13.7666666666667,-3.26765513420105,-0.37623193860054,9.04152870178223,-0.205793991684914,-0.0609759986400604,-0.213415995240211,-1020.30004882812,0.900000035762787,-930.900024414062,2.24264685824956,-0.34685314687395,0.0408610724569917,ST
13.8,-3.22698140144348,-0.422887086868286,8.46252632141113,0.0533539988100529,0.564027965068817,-0.632625997066498,-1020.30004882812,3.30000019073486,-938.100036621094,2.24781527822312,-0.36319614881545,0.0494132769711395,ST
13.8333333333333,-3.2186074256897,-0.753660142421722,8.70058727264404,0.0838419944047928,0.0914639979600906,-0.899396002292633,-1025.10009765625,0.900000035762787,-930.900024414062,2.26279302726972,-0.35407453443767,0.0834692332270438,ST
13.8666666666667,-2.91116189956665,-0.613694667816162,8.70357799530029,0.144817993044853,-1.11281192302704,-1.28049600124359,-1020.30004882812,2.70000004768372,-935.700012207031,2.26303073595309,-0.323025119597014,0.0719826484940467,ST
13.9,-2.71138215065002,-0.558067381381989,8.92190074920654,0.121951997280121,-0.945127964019775,-0.693601965904236,-1027.5,6.30000019073486,-938.100036621094,2.2626298127635,-0.295503954435132,0.0634393845328671,ST
13.9333333333333,-2.75983166694641,-0.601731836795807,9.59062480926514,-0.0,-0.388722002506256,-0.571649968624115,-1015.50006103516,0.900000035762787,-935.700012207031,2.26430954979651,-0.28043091270562,0.0629820957007093,ST
13.9666666666667,-2.15211844444275,-0.515001118183136,9.29215145111084,-0.282013982534409,-0.350611984729767,-0.937505960464478,-1010.70001220703,2.70000004768372,-928.500061035156,2.26557769614256,-0.231427756026327,0.0568495812033492,ST
14.0,-2.59474420547485,-0.79373574256897,8.85909557342529,-0.960371971130371,0.663114011287689,-1.22714197635651,-1015.50006103516,0.300000011920929,-926.100036621094,2.2769796528304,-0.279998262793437,0.0884606251513029,ST
14.0333333333333,-2.74786877632141,-1.6323322057724,9.50628662109375,-2.30946588516235,0.99848198890686,-1.17378795146942,-1017.90002441406,2.70000004768372,-935.700012207031,2.30074840101318,-0.279122319465621,0.166927271780398,ST
14.0666666666667,-2.89561009407043,-1.87158930301666,9.61455059051514,-2.27897787094116,0.746955990791321,-1.38720393180847,-1032.30004882812,4.5,-921.300048828125,2.31116350128851,-0.2874390546302,0.194279517763316,ST
14.1,-2.78196287155151,-1.95114243030548,9.02478122711182,-1.49391198158264,1.89787793159485,-0.87652999162674,-1017.90002441406,3.30000019073486,-945.300048828125,2.31978111378099,-0.294954839784933,0.214536067664802,ST
14.1333333333333,-3.02540707588196,-1.85723388195038,9.65103721618652,0.121951997280121,1.18903195858002,-0.762199997901917,-1015.50006103516,-2.10000014305115,-935.700012207031,2.3168277059723,-0.299998913469481,0.192247206195615,ST
14.1666666666667,-2.85254383087158,-1.3841028213501,8.99188327789307,0.990859985351562,-0.0762199983000755,-0.754577994346619,-1022.70001220703,10.5,-933.300048828125,2.3092304161816,-0.303220763805839,0.154779181494701,ST
14.2,-2.56663155555725,-1.25968909263611,8.16764259338379,1.36433792114258,-0.0076219998300075,-0.342989981174469,-1001.10003662109,7.50000047683716,-942.900024414062,2.31088017167158,-0.301174878336958,0.151097559155449,ST
14.2333333333333,-2.46494722366333,-1.1777435541153,8.17123126983643,1.18903195858002,-0.525918006896973,-1.6844619512558,-1005.90002441406,5.70000028610229,-930.900024414062,2.31524505494908,-0.289751742003034,0.142598978725898,ST
14.2666666666667,-2.80529046058655,-1.4600670337677,7.34878444671631,0.518296003341675,-0.426831990480423,-1.85976791381836,-1005.90002441406,9.90000057220459,-933.300048828125,2.33760972695394,-0.351894927724315,0.192139997369389,ST
14.3,-3.41240572929382,-2.02710652351379,8.1132116317749,-0.503051996231079,0.335367977619171,-2.01220798492432,-1010.70001220703,8.10000038146973,-926.100036621094,2.36151856127265,-0.384036858271402,0.242079777263062,ST
14.3333333333333,-3.64568138122559,-2.78375744819641,8.86866569519043,-0.609759986400604,-0.304879993200302,-3.09453201293945,-1015.50006103516,2.70000004768372,-945.300048828125,2.39191992876659,-0.372897070006051,0.301303055354078,ST
14.3666666666667,-4.35089206695557,-3.04634213447571,8.83935642242432,-0.114329993724823,-0.449698001146317,-2.78965187072754,-1013.10003662109,8.10000038146973,-935.700012207031,2.41131352912382,-0.427797599297921,0.33098385987338,ST
14.4,-4.81086397171021,-3.39864826202393,9.26344013214111,0.0609759986400604,-0.160062000155449,-1.47866797447205,-996.300048828125,6.30000019073486,-930.900024414062,2.42395782577647,-0.450276538441684,0.350664349295266,ST
14.4333333333333,-4.01353931427002,-2.96260213851929,9.50030517578125,0.647870004177094,-1.53202199935913,-0.0914639979600906,-996.300048828125,3.30000019073486,-928.500061035156,2.40513392601398,-0.387089644840643,0.305267565207072,ST
14.4666666666667,-2.90876936912537,-1.93140363693237,8.41946029663086,1.32622802257538,-2.39330792427063,1.16616594791412,-1005.90002441406,11.1000003814697,-923.700012207031,2.3739400702527,-0.326283142149462,0.228286771937102,ST
14.5,-2.09170603752136,-1.72982943058014,8.18199729919434,0.716467976570129,-0.495429992675781,2.9192259311676,-1008.30004882812,10.5,-933.300048828125,2.35829766148756,-0.251422795537611,0.207375192817843,ST
14.5333333333333,-2.51698565483093,-1.63293027877808,9.12227821350098,0.693601965904236,-0.0152439996600151,2.53050398826599,-1003.50006103516,9.30000019073486,-942.900024414062,2.34272601450156,-0.264788354834392,0.177452771272287,ST
14.5666666666667,-2.51100420951843,-1.53483486175537,9.04990291595459,1.01372599601746,-0.175305992364883,1.61586391925812,-1015.50006103516,3.30000019073486,-950.100036621094,2.33505112030942,-0.267013458816026,0.16636014938376,ST
14.6,-2.74069118499756,-1.78126978874207,9.39802265167236,0.388722002506256,-0.0838419944047928,0.960371971130371,-1017.90002441406,7.50000047683716,-930.900024414062,2.33706647646715,-0.278108239881468,0.184363873950032,ST
14.6333333333333,-2.76760745048523,-1.69334280490875,9.36931133270264,0.0533539988100529,-0.46494197845459,0.769822001457214,-1001.10003662109,7.50000047683716,-940.500061035156,2.3327966050335,-0.281946730592422,0.178836259903819,ST
14.6666666666667,-3.03677177429199,-1.88175773620605,9.42912578582764,0.160062000155449,0.442075997591019,1.6692179441452,-1003.50006103516,-2.10000014305115,-926.100036621094,2.3320614556441,-0.305330170454339,0.194565888572619,ST
14.7,-2.87646961212158,-1.734614610672,9.1509895324707,0.571649968624115,0.403965979814529,1.57013201713562,-1025.10009765625,3.90000009536743,-928.500061035156,2.32506445589226,-0.301092387722168,0.186217070686766,ST
14.7333333333333,-2.60072565078735,-1.60421943664551,8.62701606750488,0.868907988071442,-0.0609759986400604,1.78354799747467,-1001.10003662109,9.30000019073486,-933.300048828125,2.31882677811823,-0.289725584645217,0.181845592515039,ST
14.7666666666667,-3.05471611022949,-1.69573533535004,8.73348522186279,0.731711983680725,0.510673999786377,1.79879200458527,-1013.10003662109,8.10000038146973,-930.900024414062,2.31622181534355,-0.328366479900807,0.188823136697733,ST
14.8,-3.2688512802124,-1.5121054649353,8.99128532409668,0.884151995182037,-0.0457319989800453,1.13567793369293,-1008.30004882812,9.30000019073486,-938.100036621094,2.30608945943681,-0.343178207868702,0.166403946525889,ST
14.8333333333333,-2.60610890388489,-1.28660547733307,8.82201099395752,0.762199997901917,-2.43141794204712,0.792688012123108,-1010.70001220703,8.10000038146973,-935.700012207031,2.29617903756181,-0.285140214274117,0.144630094168481,ST
14.8666666666667,-2.05581736564636,-1.50851655006409,8.52592945098877,0.449698001146317,-2.46952795982361,0.868907988071442,-1022.70001220703,4.5,-923.700012207031,2.2990642001969,-0.23336074176054,0.171617068931436,ST
14.9,-2.30643939971924,-1.36675667762756,9.21977615356445,0.739333987236023,-1.6615959405899,1.29574000835419,-1020.30004882812,1.5,-926.100036621094,2.28850003306008,-0.239560220427621,0.147223721658307,ST
14.9333333333333,-2.37462759017944,-1.10477006435394,8.75083160400391,1.12043392658234,-1.34147191047668,1.82165801525116,-1017.90002441406,3.30000019073486,-933.300048828125,2.27709935101189,-0.259302525173533,0.124758606389553,ST
14.9666666666667,-3.16537261009216,-0.670518279075623,8.81483268737793,1.08994603157043,0.0076219998300075,2.09605002403259,-1020.30004882812,9.90000057220459,-926.100036621094,2.25688047683276,-0.337788557005805,0.0768075713789367,ST
15.0,-3.68874764442444,-0.750669419765472,9.74135684967041,1.2423859834671,-0.144817993044853,1.28049600124359,-1020.30004882812,2.70000004768372,-935.700012207031,2.25327131276189,-0.358827332198179,0.0741655067922859,NLR
15.0333333333333,-2.68865275382996,-0.707004964351654,10.1205787658691,1.69970595836639,-1.16616594791412,-1.09756803512573,-1020.30004882812,4.5,-933.300048828125,2.25671850974711,-0.264598356175338,0.0678052224921644,NLR
15.0666666666667,-2.54868721961975,-0.588572680950165,9.90644359588623,3.38416790962219,-0.556405961513519,-5.27442407608032,-1020.30004882812,2.10000014305115,-942.900024414062,2.27556412088084,-0.25098974945526,0.0567106253278134,NLR
15.1,-0.653172135353088,-1.94874978065491,10.2138891220093,5.16009378433228,0.937505960464478,-10.495493888855,-1020.30004882812,5.10000038146973,-933.300048828125,2.33535947549215,-0.076208886412696,0.172310106911896,NLR
15.1333333333333,-2.06179881095886,-1.63472473621368,10.5679903030396,10.2211017608643,2.52288198471069,-19.0168895721436,-1013.10003662109,-3.90000009536743,-933.300048828125,2.40214307886308,-0.179512883224302,0.143783802509807,NLR
15.1666666666667,-2.43324565887451,-1.34641981124878,8.36921691894531,13.2165479660034,2.99544596672058,-21.8065414428711,-998.700012207031,-7.50000047683716,-923.700012207031,2.48710255704668,-0.270107743143993,0.145944197135388,NLR
15.2,-3.00267767906189,-0.88285905122757,7.45944118499756,13.8872833251953,5.57168197631836,-24.8400974273682,-986.700012207031,-18.3000011444092,-918.900024414062,2.57507634343573,-0.374257999821766,0.113115451209814,NLR
15.2333333333333,-4.18879508972168,-0.500645637512207,8.58933353424072,13.0488634109497,5.60216999053955,-24.2379589080811,-969.900024414062,-13.5000009536743,-914.100036621094,2.65006437929443,-0.45197987214289,0.0607660519591722,NLR
15.2666666666667,-4.50341844558716,-0.150732025504112,8.13474464416504,12.8049592971802,4.33691787719727,-21.6464786529541,-955.500061035156,-22.5,-921.300048828125,2.72381181721256,-0.507445805224341,0.020153714293645,NLR
15.3,-4.58297157287598,1.1556122303009,9.06246376037598,11.4939756393433,1.71494996547699,-15.6022338867188,-936.300048828125,-23.7000007629395,-902.100036621094,2.72821638732696,-0.473372707587016,-0.122625492100129,NLR
15.3333333333333,-4.49743700027466,1.36615860462189,8.40630149841309,8.89487361907959,0.0533539988100529,-11.875075340271,-938.700012207031,-21.9000015258789,-892.500061035156,2.76024421656442,-0.487688691093325,-0.16192056631545,NLR
15.3666666666667,-3.52784729003906,1.36077523231506,8.97334098815918,4.24545383453369,-0.46494197845459,-6.99699592590332,-914.700012207031,-29.7000007629395,-878.100036621094,2.7918296906449,-0.382323731105988,-0.153472280393099,NLR
15.4,-3.28619742393494,1.59704172611237,8.88421726226807,1.85976791381836,-1.08232402801514,-4.38264989852905,-905.100036621094,-22.5,-897.300048828125,2.80058309743798,-0.351645893001045,-0.175957218980236,NLR
15.4333333333333,-2.32916879653931,1.08503139019012,7.48396492004395,0.320124000310898,-0.472563982009888,-2.21800184249878,-917.100036621094,-25.5000019073486,-902.100036621094,2.81793607534717,-0.303371111338683,-0.146171477872107,NLR
15.4666666666667,-3.42436861991882,0.35410064458847,8.88840484619141,-1.73019397258759,0.411587983369827,-0.259148001670837,-914.700012207031,-20.1000003814697,-897.300048828125,2.84919825544541,-0.362510684631579,-0.046795738924464,NLR
15.5,-3.02600526809692,0.372044920921326,9.84304046630859,-0.182927995920181,-0.724089980125427,0.693601965904236,-917.100036621094,-23.7000007629395,-885.300048828125,2.84949492639603,-0.30269627804325,-0.0386366299192714,NLR
15.5333333333333,-3.15520405769348,0.227294325828552,9.53798770904541,1.265251994133,-1.04421401023865,0.213415995240211,-924.300048828125,-26.1000003814697,-909.300048828125,2.85369875647825,-0.316216023348528,-0.027280001853117,NLR
15.5666666666667,-3.22040176391602,-0.151330173015594,8.42783451080322,-0.434453994035721,-0.365855991840363,-0.419209986925125,-909.900024414062,-24.9000015258789,-902.100036621094,2.86880370996311,-0.360694155860377,0.0154245589754111,NLR
15.6,-4.33713483810425,-0.780576586723328,9.54815578460693,-1.6844619512558,0.0838419944047928,0.144817993044853,-912.300048828125,-14.1000003814697,-890.100036621094,2.89020538042359,-0.420463235371154,0.0790658411940598,NLR
15.6333333333333,-3.43214440345764,-0.520982503890991,9.49252891540527,-1.04421401023865,-1.21951997280121,2.36281991004944,-914.700012207031,-20.1000003814697,-892.500061035156,2.87279391896848,-0.351464140782343,0.0571342959114993,NLR
15.6666666666667,-3.15939116477966,0.099889874458313,8.87943267822266,-0.457319974899292,-0.937505960464478,2.75154185295105,-907.500061035156,-24.3000011444092,-890.100036621094,2.84183814037702,-0.341311456262189,-0.0059204329931308,NLR
15.7,-3.16716694831848,0.215331465005875,7.9397497177124,-1.41769194602966,-1.36433792114258,4.08539199829102,-914.700012207031,-26.1000003814697,-885.300048828125,2.81963859581711,-0.373962697331498,-0.0255613733938371,NLR
15.7333333333333,-4.67628192901611,0.14056359231472,8.98410701751709,-3.7805118560791,-2.25611186027527,6.90553188323975,-921.900024414062,-17.1000003814697,-897.300048828125,2.79658924506055,-0.466498221136449,-0.0158016974621234,NLR
15.7666666666667,-5.95810222625732,0.852353751659393,9.04451942443848,-4.83234786987305,-3.3689239025116,10.9070816040039,-929.100036621094,-21.3000011444092,-892.500061035156,2.72000170709435,-0.563672063949445,-0.0888990784821836,NLR
15.8,-2.65336227416992,0.513206660747528,7.28418493270874,-8.55188369750977,-4.59606599807739,17.3171844482422,-953.100036621094,-17.1000003814697,-902.100036621094,2.6631754029838,-0.358668534574695,-0.069880694278553,NLR
15.8333333333333,-3.3346471786499,0.30325847864151,9.29574012756348,-12.0656261444092,-4.88570165634155,15.5793676376343,-960.300048828125,-13.5000009536743,-909.300048828125,2.61421807893482,-0.336920176423443,-0.0254900787408301,NLR
15.8666666666667,-3.21501851081848,-0.846372306346893,9.41297626495361,-11.9589176177979,-4.1997218132019,17.4010257720947,-967.500061035156,-10.5,-916.500061035156,2.58044849410074,-0.323949121991212,0.0887864044564902,NLR
15.9,-1.99181604385376,-1.35718643665314,9.78561878204346,-9.69518375396729,-4.03203773498535,15.3659515380859,-993.900024414062,-11.7000007629395,-918.900024414062,2.53010479197398,-0.205191832338976,0.143924176179429,NLR
15.9333333333333,-1.96071267127991,-1.62336003780365,9.50090312957764,-7.52291393280029,-3.83386588096619,13.5138053894043,-998.700012207031,-5.70000028610229,-930.900024414062,2.48370137547079,-0.198664010747096,0.174396815050717,NLR
15.9666666666667,-0.629844546318054,-1.53902184963226,10.3855562210083,-4.97716569900513,-2.62196803092957,7.17230176925659,-1003.50006103516,-0.300000011920929,-918.900024414062,2.45010631447378,-0.0662255020056663,0.155838378671362,NLR
16.0,-2.1951847076416,-1.32847559452057,9.72281360626221,-2.24086785316467,-0.617381989955902,4.35216188430786,-1010.70001220703,2.70000004768372,-928.500061035156,2.43172444362408,-0.206159531376139,0.140010561931563,NLR
16.0333333333333,-1.67599666118622,-1.84228038787842,9.13962459564209,-1.14329993724823,0.419209986925125,3.00306797027588,-1017.90002441406,-0.900000035762787,-926.100036621094,2.43170003734231,-0.181976562526087,0.194557677525397,NLR
16.0666666666667,-2.36864614486694,-1.23995041847229,9.32744121551514,-0.114329993724823,-0.365855991840363,1.41769194602966,-1003.50006103516,-3.30000019073486,-935.700012207031,2.41471640764514,-0.240567374790938,0.137538117242837,NLR
16.1,-2.143146276474,-0.855942606925964,7.96307754516602,0.0304879993200302,-1.27287399768829,2.09605002403259,-1022.70001220703,-2.10000014305115,-921.300048828125,2.39933895936798,-0.258371762594433,0.108188588232846,NLR
16.1333333333333,-1.48160016536713,-1.23695969581604,8.40809535980225,-1.00610399246216,-1.77592599391937,2.76678586006165,-1015.50006103516,3.30000019073486,-918.900024414062,2.39618741621966,-0.178182069485264,0.143358120525502,NLR
16.1666666666667,-1.51031100749969,-0.887046039104462,9.50389385223389,-0.121951997280121,-2.9192259311676,2.32470989227295,-1015.50006103516,7.50000047683716,-923.700012207031,2.37943499599482,-0.154653864361444,0.0971237769963422,NLR
16.2,-1.76033473014832,-1.27284824848175,9.49372482299805,0.327746003866196,-2.64483404159546,2.30946588516235,-1020.30004882812,-2.10000014305115,-928.500061035156,2.37596022818807,-0.175588508966608,0.128749087379436,NLR
16.2333333333333,-2.00617146492004,-1.1035737991333,10.0607643127441,0.236281991004944,-2.35519790649414,2.08842802047729,-1029.90002441406,-0.900000035762787,-918.900024414062,2.36443213584481,-0.190656013840478,0.109781477795484,NLR
16.2666666666667,-1.41939330101013,-0.764426708221436,9.24848651885986,0.243903994560242,-1.76068198680878,2.80489587783813,-1027.5,-3.30000019073486,-926.100036621094,2.34938244710511,-0.152278640447421,0.0833529326237969,NLR
16.3,-1.87099123001099,-1.41999137401581,9.18927001953125,-0.381099998950958,0.792688012123108,2.86587190628052,-1020.30004882812,-0.300000011920929,-923.700012207031,2.35078816351896,-0.196270631219544,0.146715578886813,NLR
16.3333333333333,-3.58347463607788,-0.96958976984024,10.2539653778076,0.0914639979600906,1.60824191570282,2.37044191360474,-1029.90002441406,3.30000019073486,-918.900024414062,2.33104482929257,-0.325246582658238,0.0980031447595671,NLR
16.3666666666667,-2.75325202941895,-1.08383500576019,9.09057712554932,0.0228659994900227,1.06708002090454,2.08842802047729,-1032.30004882812,-3.90000009536743,-918.900024414062,2.330068531721,-0.297190433520753,0.11581342584465,NLR
16.4,-3.09598803520203,-1.10297560691833,9.13364315032959,-0.175305992364883,0.922261953353882,0.472563982009888,-1027.5,3.30000019073486,-928.500061035156,2.32993598378387,-0.32367817876067,0.119870073771658,NLR
16.4333333333333,-2.5098078250885,-1.20884692668915,9.27241230010986,0.228659987449646,-0.0152439996600151,-0.830797970294952,-1027.5,2.10000014305115,-926.100036621094,2.33569565220748,-0.266669489981315,0.128924360185201,NLR
16.4666666666667,-2.21611976623535,-1.21123957633972,8.77296257019043,0.594515979290009,-0.525918006896973,-2.30184388160706,-1025.10009765625,3.90000009536743,-930.900024414062,2.34550103362769,-0.245825198785017,0.136405764445937,NLR
16.5,-2.51399493217468,-1.45049667358398,8.37699222564697,0.205793991684914,-0.525918006896973,-2.26373386383057,-1032.30004882812,6.30000019073486,-935.700012207031,2.36135243503965,-0.282348576359317,0.168873545604228,NLR
16.5333333333333,-1.54261076450348,-2.11264085769653,8.98709774017334,-0.663114011287689,-1.2347639799118,-1.22714197635651,-1020.30004882812,-0.300000011920929,-933.300048828125,2.37716194551209,-0.173885331899038,0.226747294708009,NLR
16.5666666666667,-1.53662931919098,-2.03069543838501,9.83945178985596,-0.457319974899292,-1.84452390670776,-0.899396002292633,-1022.70001220703,6.30000019073486,-933.300048828125,2.37535289471719,-0.150057548588677,0.205986454842431,NLR
16.6,-0.756650865077972,-1.92901110649109,9.42673301696777,-0.0381099991500378,-1.50153398513794,-0.381099998950958,-1034.70007324219,0.300000011920929,-938.100036621094,2.37515412159344,-0.0813836277457522,0.202234698552736,NLR
16.6333333333333,-1.27225005626678,-2.03966760635376,9.5505485534668,0.160062000155449,0.0457319989800453,0.6250039935112,-1029.90002441406,6.90000009536743,-933.300048828125,2.37387074299181,-0.125464194175893,0.209298950155574,NLR
16.6666666666667,-1.71906292438507,-2.31900024414062,9.32803916931152,0.152439996600151,1.08994603157043,1.44055795669556,-1027.5,7.50000047683716,-921.300048828125,2.37458369223973,-0.174534439866166,0.239991205602301,NLR
16.7,-2.33634638786316,-2.32498168945312,9.58165264129639,0.0457319989800453,1.32622802257538,1.77592599391937,-1027.5,-6.90000009536743,-928.500061035156,2.36877128168942,-0.231829162346743,0.237578587276273,NLR
16.7333333333333,-2.38300156593323,-2.07794857025146,8.55882740020752,0.37347799539566,1.10518991947174,2.11891603469849,-1029.90002441406,3.30000019073486,-923.700012207031,2.36286431872294,-0.263804487653554,0.236777425896148,NLR
16.7666666666667,-2.8160572052002,-2.0432562828064,8.88361930847168,0.762199997901917,0.716467976570129,1.96647596359253,-1013.10003662109,4.5,-928.500061035156,2.35452089878367,-0.298202667388487,0.225002604906031,NLR
16.8,-2.47691011428833,-2.02949905395508,9.13184833526611,0.815553963184357,-0.6250039935112,1.90549993515015,-1022.70001220703,0.900000035762787,-928.500061035156,2.34646851406102,-0.262086395782478,0.217088864602829,NLR
16.8333333333333,-1.80399918556213,-1.59106028079987,8.44398403167725,0.594515979290009,-1.63872992992401,1.79879200458527,-1010.70001220703,2.10000014305115,-942.900024414062,2.33197476833284,-0.208323239015202,0.186424570566184,NLR
16.8666666666667,-1.58926582336426,-1.7986159324646,8.71374702453613,-0.0152439996600151,-1.32622802257538,2.5000159740448,-1020.30004882812,9.90000057220459,-945.300048828125,2.32561446461616,-0.178331306888931,0.201233882156247,NLR
16.9,-1.3338588476181,-1.64668762683868,9.28557109832764,0.0152439996600151,-1.50915598869324,2.04269599914551,-1013.10003662109,-0.900000035762787,-928.500061035156,2.31294331062932,-0.141047329708499,0.176532797110611,NLR
16.9333333333333,-1.47741317749023,-1.61139714717865,9.97463226318359,0.228659987449646,-1.05183601379395,1.98934197425842,-1032.30004882812,3.90000009536743,-926.100036621094,2.30351215698771,-0.143688005300379,0.160794883254599,NLR
16.9666666666667,-1.09579789638519,-1.39726197719574,9.45903301239014,1.13567793369293,-0.518296003341675,1.30336201190948,-1034.70007324219,-2.10000014305115,-923.700012207031,2.29739057344302,-0.116274708120626,0.145863255950197,NLR
17.0,-1.57550859451294,-1.21423017978668,8.86507701873779,1.70732796192169,-0.411587983369827,1.14329993724823,-1025.10009765625,6.90000009536743,-928.500061035156,2.2925026830364,-0.168643245699235,0.133997191678368,NLR
17.0333333333333,-2.09409856796265,-1.36974740028381,8.78791618347168,1.20427596569061,0.0990860015153885,1.51677799224854,-1025.10009765625,-4.5,-942.900024414062,2.29150330810721,-0.226088146712797,0.150303553984537,ST
17.0666666666667,-2.16348314285278,-1.51988124847412,8.21070861816406,-0.0304879993200302,0.472563982009888,1.41006994247437,-1032.30004882812,-3.90000009536743,-933.300048828125,2.2940138785676,-0.252175166938985,0.179582896329279,ST
17.1,-2.47750806808472,-2.1371648311615,8.66410064697266,-0.754577994346619,0.586893975734711,1.53964400291443,-1027.5,1.5,-923.700012207031,2.30351983656835,-0.270622585333038,0.236783791988294,ST
17.1333333333333,-2.77957034111023,-2.39556264877319,10.2222633361816,-0.46494197845459,-1.01372599601746,0.670735955238342,-1025.10009765625,1.5,-926.100036621094,2.29866879072813,-0.258552097650271,0.231150201334783,ST
17.1666666666667,-1.92003893852234,-2.22150301933289,10.0458116531372,0.449698001146317,-3.14026403427124,0.792688012123108,-1027.5,-1.5,-921.300048828125,2.29058860723987,-0.184889185393177,0.217349930445336,ST
17.2,-1.72145545482635,-1.86201906204224,9.18986892700195,0.899396002292633,-2.5152599811554,1.20427596569061,-1041.90002441406,-3.30000019073486,-930.900024414062,2.2821750838506,-0.178345795797183,0.199572563664084,ST
17.2333333333333,-1.23097825050354,-1.43793570995331,8.53370571136475,0.541162014007568,-0.25152599811554,2.24848985671997,-1039.5,5.70000028610229,-916.500061035156,2.2689790977068,-0.144073510479203,0.16772596152341,ST
17.2666666666667,-1.21243584156036,-1.26626861095428,8.0713415145874,0.541162014007568,0.762199997901917,2.0655620098114,-1029.90002441406,1.5,-921.300048828125,2.26089822533363,-0.148742412178822,0.155397980723061,ST
17.3,-1.93738508224487,-1.67180955410004,8.69879341125488,0.388722002506256,1.31860601902008,1.50915598869324,-1044.30004882812,-2.10000014305115,-926.100036621094,2.26230426092791,-0.211796941239013,0.185700328542707,DLR
17.3333333333333,-1.77887713909149,-1.4361412525177,9.84842395782471,1.32622802257538,-1.13567793369293,-0.137196004390717,-1032.30004882812,5.70000028610229,-923.700012207031,2.25539317510193,-0.178225616755222,0.146366011017131,DLR
17.3666666666667,-1.86500978469849,-1.30754053592682,9.88969612121582,2.05031800270081,-1.6692179441452,0.457319974899292,-1046.70007324219,2.70000004768372,-923.700012207031,2.25130651988545,-0.181695159925097,0.12934937516762,DLR
17.4,-1.48638522624969,-1.24772620201111,11.1045246124268,2.54574799537659,-1.78354799747467,-0.365855991840363,-1039.5,2.70000004768372,-923.700012207031,2.25005085500932,-0.133838441030969,0.109462478940058,DLR
17.4333333333333,-0.383409649133682,-0.35709136724472,8.03306007385254,3.09453201293945,-0.434453994035721,-1.92836594581604,-1029.90002441406,-5.10000038146973,-921.300048828125,2.25147682291914,-0.0546037384262993,0.0455875140446919,DLR
17.4666666666667,-1.51988124847412,-0.992319166660309,8.28966331481934,1.82927989959717,2.40855193138123,-1.6692179441452,-1037.10009765625,5.10000038146973,-918.900024414062,2.26660736991649,-0.174207345036852,0.110986455095414,DLR
17.5,-1.54679775238037,-1.39546751976013,8.23762512207031,1.05183601379395,2.42379593849182,-2.32470989227295,-1029.90002441406,-3.90000009536743,-921.300048828125,2.28533172065071,-0.185538540331256,0.161769923344173,DLR
17.5333333333333,-2.19039964675903,-1.99779748916626,9.73417854309082,0.746955990791321,0.83841997385025,-3.3689239025116,-1037.10009765625,-6.90000009536743,-928.500061035156,2.30535981004637,-0.214661883068956,0.199015434836674,DLR
17.5666666666667,-1.64010798931122,-1.74179232120514,10.3496675491333,1.51677799224854,-1.92074394226074,-3.84148788452148,-1034.70007324219,-2.10000014305115,-928.500061035156,2.31226953534201,-0.156366227869573,0.168159456584548,DLR
17.6,-2.18441820144653,-1.80041038990021,11.9610652923584,1.60824191570282,-1.38720393180847,-2.95733594894409,-1032.30004882812,-5.10000038146973,-933.300048828125,2.32044205441876,-0.17429633412076,0.148715711246133,DLR
