seconds,sensor_accX_m_s_,sensor_accY_m_s_,sensor_accZ_m_s_,sensor_gyroX___s_,sensor_gyroY___s_,sensor_gyroZ___s_,sensor_magX__T_,sensor_magY__T_,sensor_magZ__T_,sensor_yaw___,sensor_pitch___,sensor_roll___,label3
0.0,-0.586180091,-0.97676748,9.654625893,0.434453994,-0.792688012,-0.487807989,-1224.300049,2.700000048,-918.9000244,-0.715358133,-0.058258387,0.100890414,ST
0.033333333,-0.639414847,-1.00009501,9.367517471,0.602137983,-0.632625997,-0.61738199,-1224.300049,4.5,-928.500061,-0.713432782,-0.065438594,0.104764117,ST
0.066666667,-0.261388481,-1.156808496,9.789207458,0.853663981,-0.205793992,-0.80793196,-1224.300049,6.900000095,-926.1000366,-0.710594004,-0.03132081,0.11465028,ST
0.1,-0.39537251,-1.020431876,9.778441429,1.196653962,-0.586893976,-1.227141976,-1217.100098,0.900000036,-914.1000366,-0.707223365,-0.038130086,0.10332654,ST
0.133333333,-0.379222631,-0.980356336,9.694701195,1.158543944,-0.586893976,-1.097568035,-1231.5,0.300000012,-921.3000488,-0.703995184,-0.03773523,0.099309489,ST
0.166666667,-0.296678901,-1.018039346,9.544567108,1.227141976,-1.387203932,-1.189031959,-1233.900024,1.5,-921.3000488,-0.700736199,-0.029554267,0.103518504,ST
0.2,-0.297875196,-0.882859051,9.923789978,1.12805593,-0.952749968,-1.074702024,-1229.100098,0.900000036,-909.3000488,-0.698242073,-0.028262363,0.089065548,ST
0.233333333,-0.28471604,-0.836802006,9.685729027,1.166165948,-1.227141976,-0.83079797,-1238.700073,-5.100000381,-921.3000488,-0.696189532,-0.027187549,0.084839977,ST
0.266666667,-0.155517176,-0.779978454,9.533203125,0.922261953,-1.166165948,-0.72408998,-1219.5,9.300000191,-928.500061,-0.694422139,-0.01588892,0.080692857,ST
0.3,-0.237462759,-0.728538156,9.502696991,0.685979962,-0.899396002,-0.640248001,-1236.300049,3.900000095,-923.7000122,-0.692736637,-0.022404622,0.075961437,ST
0.333333333,-0.166283742,-0.763828576,9.624718666,0.487807989,-0.564027965,-0.457319975,-1226.700073,-0.300000012,-923.7000122,-0.69148068,-0.017018244,0.078033531,ST
0.366666667,-0.213537037,-0.784763575,9.756908417,0.350611985,-0.602137983,-0.320124,-1231.5,-0.900000036,-916.500061,-0.69057941,-0.020322533,0.079481929,ST
0.4,-0.092114016,-0.846970439,9.607970238,0.342989981,-0.800309956,-0.289635986,-1236.300049,1.5,-916.500061,-0.689762754,-0.009425971,0.086488735,ST
0.433333333,-0.135778457,-0.803305984,9.694701195,0.350611985,-0.655492008,-0.312501997,-1243.5,2.700000048,-918.9000244,-0.689011039,-0.012383079,0.082578078,ST
0.466666667,-0.112450875,-0.773997009,9.709654808,0.464941978,-0.647870004,-0.198172003,-1238.700073,-3.900000095,-918.9000244,-0.688615679,-0.010658586,0.079255815,ST
0.5,-0.058019869,-0.7554546,9.566100121,0.510674,-0.739333987,-0.091463998,-1236.300049,1.5,-911.7000122,-0.688518151,-0.005545399,0.078098269,ST
0.533333333,-0.052038439,-0.784165442,9.483556747,0.434453994,-0.670735955,-0.007622,-1236.300049,-3.300000191,-923.7000122,-0.688628334,-0.004468657,0.081248751,ST
0.566666667,-0.055627298,-0.731528878,9.587035179,0.236281991,-0.647870004,0.068598002,-1233.900024,-0.900000036,-916.500061,-0.689021739,-0.004646002,0.076334227,ST
0.6,0.016748004,-0.775791407,9.673766136,0.190549999,-0.708845973,0.251525998,-1243.5,0.900000036,-916.500061,-0.689925085,0.001976427,0.079271328,ST
0.633333333,0.020336861,-0.75306201,9.786216736,0.129574001,-0.762199998,0.388722003,-1245.900024,2.100000143,-921.3000488,-0.691323769,0.003198822,0.076865521,ST
0.666666667,0.230883181,-0.789548695,9.741954803,0.068598002,-0.685979962,0.457319975,-1236.300049,-0.300000012,-916.500061,-0.692927759,0.022247241,0.08031328,ST
0.7,0.282921612,-0.765622973,9.773655891,-0.060975999,-0.365855992,0.358233988,-1241.100098,-1.5,-918.9000244,-0.693990634,0.028467253,0.078572227,ST
0.733333333,0.230883181,-0.732725143,9.741954803,-0.144817993,-0.045731999,0.312501997,-1250.700073,0.300000012,-918.9000244,-0.694812985,0.024314881,0.075775182,ST
0.766666667,0.215929613,-0.730332553,9.661205292,-0.396344006,0.259148002,0.411587983,-1245.900024,8.100000381,-914.1000366,-0.695919196,0.022119973,0.076106326,ST
0.8,-0.14594689,-0.665733099,9.472789764,-0.91463995,0.716467977,0.663114011,-1253.100098,8.100000381,-928.500061,-0.69764113,-0.011456519,0.072343119,ST
0.833333333,-0.667527556,-0.443822086,9.022388458,-1.707327962,1.379581928,1.585376024,-1248.300049,0.900000036,-911.7000122,-0.702847108,-0.067561563,0.05474939,ST
0.866666667,-0.897214472,-0.604124427,8.736475945,-3.666181803,2.080806017,4.039659977,-1245.900024,3.900000095,-926.1000366,-0.713470229,-0.100975675,0.072089385,ST
0.9,-1.455880046,-0.818259597,8.613857269,-6.32626009,2.400929928,6.333881855,-1219.5,9.300000191,-921.3000488,-0.729665855,-0.162294666,0.09981288,ST
0.933333333,-1.701118588,-1.370345592,8.527724266,-8.490907669,3.00306797,10.02293015,-1229.100098,12.30000019,-926.1000366,-0.753351372,-0.198308666,0.163839504,ST
0.966666667,-1.162191749,-2.667119503,9.169531822,-10.6936655,3.00306797,11.95129585,-1217.100098,12.90000057,-916.500061,-0.7698604,-0.140600307,0.28062665,ST
1.0,-1.293783188,-3.013444185,9.304114342,-10.73177528,2.36281991,11.94367409,-1207.5,17.10000038,-921.3000488,-0.798719999,-0.141703102,0.322706261,ST
1.033333333,-1.125705123,-3.595437288,9.334619522,-9.375060081,1.501533985,11.21958351,-1214.700073,21.30000114,-933.3000488,-0.827644708,-0.123532939,0.375912206,ST
1.066666667,-1.692744613,-3.690542221,9.237121582,-7.72870779,1.387203932,9.725671768,-1193.100098,29.70000076,-921.3000488,-0.855616861,-0.171417797,0.389536064,ST
1.1,-1.41221559,-4.183412075,9.247888565,-5.53357172,1.257629991,8.254626274,-1197.900024,32.10000229,-914.1000366,-0.873516043,-0.149069922,0.427577452,ST
1.133333333,-1.573714137,-3.985426664,9.041528702,-3.10977602,0.754577994,5.23631382,-1185.900024,31.50000191,-909.3000488,-0.888689905,-0.161022673,0.420463992,ST
1.166666667,-2.258587837,-3.731215954,8.910535812,-1.996963978,0.647870004,4.352161884,-1195.5,31.50000191,-926.1000366,-0.903920856,-0.22387958,0.401658545,ST
1.2,-2.804692507,-3.849648237,8.6180439,-0.907018006,0.754577994,4.275941849,-1183.5,35.10000229,-918.9000244,-0.911507887,-0.285583209,0.417934691,ST
1.233333333,-3.014042377,-3.797609806,8.607875824,-1.04421401,-0.213415995,3.734779835,-1188.300049,37.5,-914.1000366,-0.923311012,-0.309212912,0.415694916,ST
1.266666667,-2.672502756,-3.840077877,8.615053177,-1.227141976,-0.739333987,4.085391998,-1176.300049,36.90000153,-921.3000488,-0.93524307,-0.281463879,0.418947183,ST
1.3,-2.650969744,-3.799404144,8.878235817,-0.922261953,-0.853663981,3.38416791,-1176.300049,36.90000153,-911.7000122,-0.948962944,-0.27059484,0.406261866,ST
1.333333333,-2.956022501,-3.520071268,8.50977993,-0.373477995,-0.396344006,3.178373814,-1183.5,30.90000153,-911.7000122,-0.962386065,-0.307634563,0.392841995,ST
1.366666667,-3.147428274,-3.336441517,8.411086082,-0.266770005,-0.106707998,3.178373814,-1176.300049,33.30000305,-906.9000244,-0.975265525,-0.3327197,0.378578161,ST
1.4,-3.183915138,-3.114530563,8.256167412,-0.556405962,-0.419209987,4.02441597,-1178.700073,40.5,-909.3000488,-0.991947172,-0.346035228,0.361883922,ST
1.433333333,-3.056510687,-3.074454784,8.331533432,-0.762199998,-0.487807989,4.283564091,-1161.900024,31.50000191,-916.500061,-1.006810676,-0.335003599,0.353571959,ST
1.466666667,-3.066679001,-3.066080809,8.360842705,-0.945127964,-0.731711984,4.032037735,-1176.300049,42.90000153,-914.1000366,-1.019495743,-0.333159754,0.351086095,ST
1.5,-3.143839359,-2.937480211,8.601894379,-0.868907988,-0.838419974,3.948195934,-1159.5,42.30000305,-904.500061,-1.038113897,-0.333795915,0.331040712,ST
1.533333333,-2.929704189,-2.920732021,8.461330414,-0.670735955,-0.655492008,3.910085917,-1166.700073,35.70000076,-899.7000122,-1.050358883,-0.319201585,0.331249014,ST
1.566666667,-2.924320936,-2.717363596,8.263943672,-0.685979962,-0.40396598,3.757645845,-1152.300049,39.90000153,-906.9000244,-1.065771239,-0.324940583,0.318408037,ST
1.6,-2.750859499,-2.851347446,8.338112831,-0.975615978,-0.678357959,3.910085917,-1154.700073,39.30000305,-906.9000244,-1.075173964,-0.306118596,0.327787485,ST
1.633333333,-2.924320936,-2.930900574,8.438002586,-1.577754021,-1.280496001,3.727157831,-1159.5,39.90000153,-906.9000244,-1.086547326,-0.315289397,0.334071942,ST
1.666666667,-2.819645882,-3.132474661,8.418862343,-2.019829988,-1.34147191,3.795755863,-1149.900024,41.10000229,-906.9000244,-1.093485609,-0.30562205,0.354567523,ST
1.7,-2.70898962,-3.447695971,8.788515091,-2.57623601,-1.310984015,3.353679895,-1169.100098,41.70000076,-897.3000488,-1.100052834,-0.282966109,0.373534317,ST
1.733333333,-2.627043962,-3.651064634,9.078614235,-2.46952796,-1.227141976,2.660078049,-1157.100098,38.70000076,-899.7000122,-1.107334751,-0.264854344,0.38368821,ST
1.766666667,-2.826225519,-3.720449209,9.057081223,-1.859767914,-1.059458017,1.989341974,-1169.100098,50.10000229,-899.7000122,-1.113083876,-0.278480145,0.390791523,ST
1.8,-2.781962872,-3.722243786,9.082800865,-0.785066009,-0.739333987,0.91463995,-1147.5,46.5,-892.500061,-1.117302948,-0.275920803,0.389869496,ST
1.833333333,-2.926713467,-3.567324638,8.77296257,0.060975999,-0.594515979,0.678357959,-1149.900024,39.30000305,-890.1000366,-1.120715365,-0.296290574,0.386185721,ST
1.866666667,-2.925517321,-3.576894999,8.720326424,0.594515979,-0.076219998,0.701223969,-1154.700073,47.10000229,-899.7000122,-1.121728425,-0.300716508,0.387653643,ST
1.9,-3.023014545,-3.543398857,8.415273666,0.800309956,0.129574001,0.251525998,-1149.900024,43.5,-899.7000122,-1.119061511,-0.317479046,0.395759722,ST
1.933333333,-3.106754541,-3.314310312,8.678456306,1.082324028,1.105189919,-0.144817993,-1157.100098,45.30000305,-894.9000244,-1.125454987,-0.32351199,0.367625224,ST
1.966666667,-2.731120825,-3.333450794,8.789710999,1.478667974,1.34147191,-0.960371971,-1152.300049,44.10000229,-904.500061,-1.122083502,-0.289232733,0.361515149,ST
2.0,-1.505525827,-3.960304499,9.337011337,2.690565825,0.53354001,-4.679907799,-1149.900024,45.90000153,-902.1000366,-1.098407701,-0.15941233,0.394497644,ST
2.033333333,-1.808186173,-3.579287529,9.08459568,5.350644112,0.541162014,-11.26531601,-1169.100098,49.50000381,-899.7000122,-1.069187405,-0.174409981,0.37259924,ST
2.066666667,-2.594146013,-3.133671045,8.4529562,7.759195805,0.373477995,-13.33850002,-1176.300049,44.70000076,-909.3000488,-1.033606008,-0.259429067,0.350360189,ST
2.1,-2.609099627,-3.414200068,7.96128273,8.68145752,-0.327746004,-14.30649376,-1176.300049,35.10000229,-916.500061,-0.978176169,-0.279881913,0.390590763,ST
2.133333333,-2.599529266,-3.365152359,7.726212978,8.475664139,-0.495429993,-14.82479,-1195.5,30.30000114,-923.7000122,-0.92965454,-0.287323857,0.401298542,ST
2.166666667,-3.094791651,-2.688054562,7.849430084,7.355229855,-0.274392009,-12.66014194,-1209.900024,24.30000114,-916.500061,-0.908647382,-0.342507496,0.332614784,ST
2.2,-2.811870098,-3.0170331,7.818924904,6.211929798,0.106707998,-8.666213989,-1190.700073,24.90000153,-918.9000244,-0.872117001,-0.32191215,0.358275725,ST
2.233333333,-2.408721685,-3.33943224,7.745951653,4.596065998,0.449698001,-7.004617691,-1195.5,26.70000076,-930.9000244,-0.838421773,-0.280728278,0.396608606,ST
2.266666667,-3.149820805,-3.162381887,8.48705101,2.507637978,0.739333987,-5.891805649,-1202.700073,27.90000153,-926.1000366,-0.831021466,-0.325262132,0.361205535,ST
2.3,-3.058903217,-3.524258375,8.903956413,1.310984015,0.53354001,-4.169233799,-1200.300049,17.10000038,-933.3000488,-0.814001506,-0.309647713,0.37494774,ST
2.333333333,-2.573809147,-3.765310049,9.536193848,0.381099999,0.228659987,-3.445143938,-1200.300049,29.10000038,-921.3000488,-0.804083803,-0.252941867,0.376690245,ST
2.366666667,-2.461956501,-4.003370762,9.374694824,0.0,-0.015244,-3.727157831,-1202.700073,20.10000038,-923.7000122,-0.788506321,-0.236950788,0.401247592,ST
2.4,-2.096491098,-3.753347158,9.121082306,0.137196004,0.068598002,-3.140264034,-1202.700073,23.10000038,-911.7000122,-0.781421806,-0.210608943,0.392328126,ST
2.433333333,-1.870393038,-3.291580677,8.199343681,1.539644003,1.333850026,-2.46952796,-1207.5,17.10000038,-933.3000488,-0.774841441,-0.209353693,0.38174788,ST
2.466666667,-2.13237977,-3.433938742,7.637687683,1.95885396,2.050318003,-1.737815976,-1190.700073,21.30000114,-933.3000488,-0.759358001,-0.245752146,0.414891822,ST
2.5,-2.052826643,-4.237843037,7.736979485,1.23476398,1.737815976,-2.06556201,-1200.300049,23.70000076,-930.9000244,-0.733325606,-0.231795514,0.489400078,ST
2.533333333,-2.698821068,-4.540503502,8.605483055,0.259148002,0.655492008,-3.079288006,-1197.900024,20.70000076,-926.1000366,-0.725318356,-0.264030622,0.486850459,ST
2.566666667,-3.091800928,-4.569214344,8.867469788,-0.304879993,-0.350611985,-2.385685921,-1202.700073,16.5,-935.7000122,-0.722419985,-0.293486,0.478640176,ST
2.6,-2.72753191,-4.581775188,9.579857826,-0.678357959,-1.394825935,0.29725799,-1202.700073,15.90000057,-938.1000366,-0.733358642,-0.254183299,0.450259777,ST
2.633333333,-2.738298416,-4.137953281,9.631896019,-0.785066009,-0.990859985,1.669217944,-1202.700073,15.90000057,-933.3000488,-0.748899293,-0.255013205,0.412201984,ST
2.666666667,-2.445208549,-3.922621489,8.739466667,-0.350611985,0.53354001,3.765267849,-1190.700073,23.10000038,-933.3000488,-0.756222813,-0.253653806,0.419848708,ST
2.7,-2.001386404,-3.645681381,9.128857613,-0.434453994,1.181409955,4.13112402,-1197.900024,24.30000114,-935.7000122,-0.775102721,-0.210681429,0.383694442,ST
2.733333333,-2.065387726,-3.112137794,8.864479065,0.076219998,0.899396002,4.176856041,-1209.900024,24.30000114,-935.7000122,-0.794745226,-0.219268945,0.341631376,ST
2.766666667,-1.693342805,-2.890226841,8.756215096,1.280496001,0.434453994,4.336917877,-1193.100098,15.90000057,-921.3000488,-0.810196683,-0.189066721,0.318503072,ST
2.8,-2.561248302,-2.476910114,9.155774117,1.669217944,0.625003994,3.51374197,-1178.700073,22.5,-942.9000244,-0.829210853,-0.256035099,0.267953782,ST
2.833333333,-2.908171177,-2.295672655,8.347084999,1.753059983,0.038109999,3.38416791,-1183.5,17.10000038,-930.9000244,-0.838291626,-0.317584858,0.264050335,ST
2.866666667,-2.604912758,-2.086322784,8.600099564,1.8292799,0.891773999,3.201239824,-1190.700073,22.5,-928.500061,-0.8526534,-0.292971935,0.237384214,ST
2.9,-3.767702579,-1.57909739,8.402712822,1.615863919,1.356715918,2.370441914,-1181.100098,20.10000038,-935.7000122,-0.8728561,-0.401244912,0.189400625,ST
2.933333333,-3.27842164,-1.943366528,8.176614761,1.432935953,0.586893976,3.185995817,-1181.100098,14.70000076,-930.9000244,-0.866321362,-0.377837474,0.223510314,ST
2.966666667,-3.121109962,-1.910468698,8.323757172,0.678357959,0.388722003,1.897877932,-1178.700073,18.90000153,-923.7000122,-0.870690445,-0.354800006,0.223306969,ST
3.0,-3.117521048,-1.955927491,8.064163208,-0.282013983,-0.739333987,1.04421401,-1181.100098,23.10000038,-938.1000366,-0.869839465,-0.358044407,0.235725474,ST
3.033333333,-2.631829023,-2.345916748,8.310598373,-0.396344006,-1.897877932,0.602137983,-1183.5,18.30000114,-935.7000122,-0.86199059,-0.301720522,0.269977358,ST
3.066666667,-3.106754541,-2.213129044,8.527126312,-0.243903995,-1.85214591,-0.060975999,-1181.100098,18.90000153,-923.7000122,-0.867620126,-0.331271471,0.256292322,ST
3.1,-2.995500088,-2.16049242,8.822010994,0.861285985,-2.797273874,0.701223969,-1195.5,14.70000076,-926.1000366,-0.875774599,-0.31627479,0.240186563,ST
3.133333333,-3.710879087,-2.088715315,9.274805069,2.59910202,-3.368923903,2.263733864,-1193.100098,16.5,-933.3000488,-0.888513909,-0.36038159,0.218514396,ST
3.166666667,-3.040958881,-2.610296011,9.173120499,3.673803806,-5.121984005,3.307947874,-1195.5,14.10000038,-928.500061,-0.882966321,-0.309494041,0.261630554,ST
3.2,-1.920038939,-2.269952536,9.597802162,4.436003685,-6.04424572,2.439039946,-1202.700073,24.90000153,-930.9000244,-0.898933713,-0.200049376,0.228177994,ST
3.233333333,-0.449803501,-2.111444712,9.981211662,5.823207855,-5.320156097,0.358233988,-1205.100098,15.30000019,-930.9000244,-0.904458298,-0.057360669,0.202162076,ST
3.266666667,-0.450401664,-1.603023171,9.925584793,5.861317635,-3.91770792,-2.263733864,-1219.5,8.700000763,-933.3000488,-0.90142471,-0.040062693,0.157044893,ST
3.3,-0.518589973,-1.387093544,9.761693001,3.704291821,-1.333850026,-3.673803806,-1236.300049,11.70000076,-930.9000244,-0.891892277,-0.048084136,0.137942031,ST
3.333333333,-0.930710435,-1.417598844,9.494921684,1.684461951,-0.304879993,-3.224105835,-1219.5,8.100000381,-933.3000488,-0.882044007,-0.088939261,0.144651194,ST
3.366666667,-1.442122698,-1.367952943,9.400414467,-0.518296003,1.280496001,-2.332331896,-1229.100098,14.10000038,-935.7000122,-0.874323401,-0.145474101,0.145858607,ST
3.4,-1.425374746,-1.71547401,9.53140831,-2.035073996,2.378063917,-0.93750596,-1226.700073,12.90000057,-933.3000488,-0.866720864,-0.149388677,0.17745149,ST
3.433333333,-1.728035092,-1.853645086,9.405797958,-2.027451992,2.964957952,-0.487807989,-1219.5,9.300000191,-921.3000488,-0.861418055,-0.179889689,0.19635374,ST
3.466666667,-2.181427479,-2.088715315,9.932164192,-1.737815976,3.391789913,-0.701223969,-1207.5,9.900000572,-928.500061,-0.85574832,-0.213236785,0.209261206,ST
3.5,-1.1227144,-2.277130365,9.470995903,-0.198172003,2.240867853,-0.335367978,-1205.100098,12.30000019,-926.1000366,-0.849443058,-0.131233037,0.23290034,ST
3.533333333,-1.122116208,-2.882451057,9.876536369,0.190549999,0.282013983,-0.518296003,-1205.100098,13.50000095,-940.500061,-0.842403874,-0.111909202,0.276892072,ST
3.566666667,-2.030097246,-2.639605045,9.749132156,0.022865999,-0.396344006,-1.76830399,-1190.700073,9.300000191,-938.1000366,-0.839380703,-0.185370619,0.266511103,ST
3.6,-1.979853272,-2.656951189,9.768871307,0.739333987,-0.388722003,-1.051836014,-1207.5,12.90000057,-935.7000122,-0.836712753,-0.191098066,0.264834947,ST
3.633333333,-2.253802776,-2.633025408,9.943529129,2.446661949,-0.510674,1.097568035,-1197.900024,11.10000038,-928.500061,-0.840505929,-0.212053355,0.255593123,ST
3.666666667,-2.036078691,-2.729326487,9.103735924,4.093013763,-0.891773999,1.669217944,-1209.900024,12.30000019,-926.1000366,-0.838181002,-0.210592382,0.279677896,ST
3.7,-1.903290987,-2.281915426,9.02777195,4.763750076,0.396344006,2.431417942,-1205.100098,4.5,-935.7000122,-0.849044542,-0.20433001,0.244004996,ST
3.733333333,-1.293185115,-1.808186173,8.537294388,4.672286034,0.609759986,2.19513607,-1202.700073,3.900000095,-933.3000488,-0.859193225,-0.156440047,0.205884729,ST
3.766666667,-1.397860169,-1.391280532,8.646755219,3.696669817,1.067080021,2.461905956,-1188.300049,3.900000095,-938.1000366,-0.871144206,-0.160255285,0.159667358,ST
3.8,-1.284811139,-0.766819298,8.52832222,2.08842802,1.135677934,2.507637978,-1202.700073,2.100000143,-921.3000488,-0.887748446,-0.152354166,0.093353639,ST
3.833333333,-1.264474273,-0.398363233,8.930872917,1.867389917,1.478667974,2.881115913,-1197.900024,-2.100000143,-933.3000488,-0.90275014,-0.144269602,0.045831851,ST
3.866666667,-2.064191341,0.005383287,9.251477242,2.164648056,1.74543798,3.00306797,-1197.900024,7.500000477,-940.500061,-0.918499433,-0.213519879,0.000617705,ST
3.9,-2.734111547,0.425279647,9.747936249,2.073184013,2.027451992,3.574717999,-1185.900024,2.700000048,-940.500061,-0.938881477,-0.270265259,-0.043920031,ST
3.933333333,-2.403338432,0.882260859,9.289160728,2.210379839,1.974097967,4.093013763,-1183.5,4.5,-942.9000244,-0.962172041,-0.256882372,-0.093444995,ST
3.966666667,-1.933796167,0.921140194,9.41536808,2.347575903,1.920743942,3.734779835,-1169.100098,-0.900000036,-923.7000122,-0.97412604,-0.210421849,-0.10201244,ST
4.0,-2.267560005,1.074264765,9.37409687,2.06556201,2.012207985,2.187514067,-1176.300049,0.900000036,-928.500061,-0.982712506,-0.235059588,-0.116426322,ST
4.033333333,-2.455975056,1.190304518,9.319067955,1.105189919,1.532021999,0.922261953,-1188.300049,-4.5,-942.9000244,-0.987953302,-0.255467816,-0.127946057,ST
4.066666667,-2.552874088,1.141256809,8.86268425,0.327746004,1.189031959,-0.045731999,-1183.5,7.500000477,-926.1000366,-0.988170496,-0.276984076,-0.128589519,ST
4.1,-2.74667263,0.778183997,8.560024261,-0.381099999,1.669217944,-0.434453994,-1171.5,-3.300000191,-938.1000366,-0.977908886,-0.308198521,-0.094379371,ST
4.133333333,-2.9063766,0.290099353,9.267626762,-0.960371971,1.8292799,-1.455801964,-1154.700073,5.700000286,-930.9000244,-0.957889159,-0.307286252,-0.037677985,ST
4.166666667,-2.965592861,-0.520384371,8.585743904,-1.440557957,0.373477995,-3.140264034,-1164.300049,-1.5,-938.1000366,-0.922824159,-0.329247575,0.050964693,ST
4.2,-3.22877574,-0.72255671,8.751429558,-2.210379839,-0.327746004,-4.169233799,-1176.300049,6.300000191,-935.7000122,-0.902039668,-0.348675286,0.084414203,ST
4.233333333,-3.764113665,-0.712388277,9.30291748,-2.934469938,-1.85214591,-2.614346027,-1157.100098,5.700000286,-935.7000122,-0.898808534,-0.375654857,0.083405957,ST
4.266666667,-3.791628361,-0.881662726,9.476977348,-2.759163857,-2.57623601,-1.280496001,-1166.700073,6.900000095,-933.3000488,-0.894207944,-0.374582239,0.096282837,ST
4.3,-3.582278252,-1.032992959,9.80236721,-2.210379839,-3.094532013,0.42683199,-1171.5,-1.5,-933.3000488,-0.895110669,-0.346405692,0.107178943,ST
4.333333333,-2.74667263,-1.311129451,9.701878548,-1.623485923,-3.704291821,1.105189919,-1183.5,3.300000191,-935.7000122,-0.893292709,-0.275845751,0.133275838,ST
4.366666667,-2.197577238,-1.035983682,9.2724123,-0.266770005,-3.81099987,-1.524399996,-1183.5,12.90000057,-940.500061,-0.895153749,-0.231341455,0.115012134,ST
4.4,-2.396160841,-1.001291275,8.97513485,0.53354001,-3.391789913,-1.623485923,-1202.700073,2.700000048,-940.500061,-0.892230535,-0.250209753,0.111297653,ST
4.433333333,-2.658745527,-0.585581958,8.911133766,0.777444005,-2.759163857,-1.692083955,-1197.900024,5.700000286,-942.9000244,-0.898116782,-0.279748106,0.071309893,ST
4.466666667,-2.432647467,-0.342137784,8.65632534,0.640248001,-2.454283953,-0.457319975,-1193.100098,5.100000381,-933.3000488,-0.904433157,-0.270844177,0.042973188,ST
4.5,-2.798711061,-0.377428204,9.284375191,0.442075998,-1.669217944,0.259148002,-1195.5,12.30000019,-935.7000122,-0.90577071,-0.287117842,0.040136494,ST
4.533333333,-2.811271906,-0.64958328,9.450658798,0.876529992,-1.981719971,0.29725799,-1202.700073,6.300000191,-933.3000488,-0.899575976,-0.285338347,0.063528543,ST
4.566666667,-2.537920713,-0.528160214,9.41118145,1.806414008,-1.440557957,-0.586893976,-1209.900024,10.5,-935.7000122,-0.899214664,-0.263800449,0.054549934,ST
4.6,-2.397955179,-0.593955994,9.113903999,2.911603928,-0.91463995,-1.150921941,-1212.300049,7.500000477,-933.3000488,-0.89234171,-0.256065587,0.059812256,ST
4.633333333,-2.573210955,-0.376231939,8.412282944,3.117398024,-1.013725996,-1.653973937,-1200.300049,10.5,-938.1000366,-0.890070111,-0.28945507,0.042746974,ST
4.666666667,-2.985331535,-0.209350035,9.085791588,1.760681987,-1.257629991,-0.152439997,-1202.700073,8.100000381,-933.3000488,-0.894078526,-0.311959163,0.02289495,ST
4.7,-2.671904564,-0.125011876,9.453051567,0.929883957,-2.568614006,0.640248001,-1214.700073,6.900000095,-935.7000122,-0.89811886,-0.276505402,0.012819754,ST
4.733333333,-1.763325453,-0.129797027,10.172019,-0.312501997,-2.721053839,1.250007987,-1221.900024,7.500000477,-930.9000244,-0.901926645,-0.181701039,0.012855962,ST
4.766666667,-0.872092426,-0.004187001,10.8186121,-1.577754021,-2.934469938,1.196653962,-1221.900024,3.300000191,-938.1000366,-0.907175891,-0.089697725,0.004238652,ST
4.8,0.368456066,0.123217449,11.67096519,-2.400929928,-2.248489857,-0.045731999,-1219.5,2.700000048,-933.3000488,-0.907574321,0.01855362,-0.004929185,ST
4.833333333,0.825437307,-0.010766573,12.18895721,-2.225623846,-0.815553963,-1.265251994,-1236.300049,-0.900000036,-928.500061,-0.903645974,0.063622593,0.003619072,ST
4.866666667,1.22140789,-0.532347262,11.74932194,-2.118916035,0.739333987,-2.560992002,-1229.100098,3.300000191,-926.1000366,-0.898462225,0.097858273,0.043335748,ST
4.9,0.534739792,-0.728538156,10.75221825,-1.974097967,2.59910202,-4.596065998,-1217.100098,9.900000572,-942.9000244,-0.885392052,0.05161368,0.067437426,ST
4.933333333,-0.263781041,-0.712388277,9.628905296,-1.653973937,3.711913824,-4.824726105,-1212.300049,8.100000381,-940.500061,-0.869050355,-0.024744203,0.075894855,ST
4.966666667,-0.809287429,-0.752463877,8.832777023,-1.532021999,4.359784126,-3.826243877,-1212.300049,4.5,-930.9000244,-0.856723751,-0.088162075,0.086537413,ST
5.0,-1.300961018,-0.742893577,7.811747074,-1.12805593,5.243936062,-2.934469938,-1188.300049,8.100000381,-938.1000366,-0.846223917,-0.161471118,0.096152074,ST
5.033333333,-1.358980775,-0.502440095,7.630509853,-0.929883957,5.975647926,-2.126538038,-1195.5,2.100000143,-928.500061,-0.843412871,-0.182690671,0.071959613,ST
5.066666667,-1.225594997,-0.727341831,7.014422417,-0.640248001,5.061007977,-2.050318003,-1185.900024,5.700000286,-933.3000488,-0.830703523,-0.180764482,0.101686909,ST
5.1,-1.924225926,-1.123312473,8.456544876,-1.486289978,4.61893177,-1.890255928,-1161.900024,14.10000038,-940.500061,-0.818366028,-0.223786588,0.131638333,ST
5.133333333,-2.640202999,-1.25669837,10.04042816,-0.983237982,3.147886038,-1.814036012,-1166.700073,3.900000095,-942.9000244,-0.813782702,-0.255346433,0.127814763,ST
5.166666667,-2.388384819,-1.454085588,11.01480293,0.121951997,1.387203932,-2.08842802,-1147.5,6.300000191,-942.9000244,-0.806550976,-0.219291773,0.13139764,ST
5.2,-2.376421928,-1.481001973,10.11399937,0.983237982,0.42683199,-3.216483831,-1157.100098,9.900000572,-933.3000488,-0.794208911,-0.227154673,0.143143452,ST
5.233333333,-2.962003946,-1.428365469,10.18757153,0.602137983,1.600619912,-3.185995817,-1152.300049,5.700000286,-938.1000366,-0.785059048,-0.274875608,0.140300881,ST
5.266666667,-2.61687541,-1.482198238,9.202429771,0.015244,1.836901903,-2.774407864,-1157.100098,-2.100000143,-945.3000488,-0.77146192,-0.275973537,0.158552752,ST
5.3,-2.759233475,-1.851850629,8.89318943,-0.571649969,3.147886038,-2.759163857,-1149.900024,12.30000019,-945.3000488,-0.74998421,-0.296667476,0.202277261,ST
5.333333333,-3.028995991,-2.034882307,8.196352959,-0.800309956,3.650938034,-2.987823963,-1145.100098,11.70000076,-928.500061,-0.728419422,-0.342263728,0.240898503,ST
5.366666667,-3.395657539,-2.604314566,7.503703594,-1.85214591,3.163130045,-2.820139885,-1125.900024,12.90000057,-942.9000244,-0.689804764,-0.399016181,0.326246548,ST
5.4,-3.179728031,-2.855534554,7.989993572,-2.400929928,2.23324585,-2.705809832,-1142.700073,9.300000191,-938.1000366,-0.675174819,-0.364751037,0.347177252,ST
5.433333333,-3.402835369,-3.031388521,8.210110664,-2.179892063,0.609759986,-2.972579956,-1130.700073,14.70000076,-933.3000488,-0.665532898,-0.369306742,0.357857752,ST
5.466666667,-3.960902691,-3.603811502,7.768681049,-2.225623846,-0.739333987,-2.621968031,-1140.300049,15.30000019,-938.1000366,-0.63393986,-0.423667446,0.430797157,ST
5.5,-4.368836403,-3.786843061,8.042630196,-1.974097967,-0.625003994,-1.242385983,-1118.700073,14.10000038,-947.7000122,-0.629099522,-0.451249293,0.442653176,ST
5.533333333,-4.179822922,-3.942360401,8.612660408,-1.387203932,-0.670735955,0.167683989,-1142.700073,8.700000763,-942.9000244,-0.636054441,-0.41957846,0.432846971,ST
5.566666667,-4.304236889,-3.71386981,9.267626762,0.015244,-0.495429993,0.739333987,-1135.5,12.90000057,-942.9000244,-0.657627289,-0.408042911,0.385620334,ST
5.6,-3.650466442,-3.128287792,8.70537281,1.440557957,-1.623485923,1.821658015,-1137.900024,14.10000038,-938.1000366,-0.677287903,-0.37854865,0.346413695,ST
5.633333333,-3.143241405,-2.804692507,8.728102684,2.339953899,-1.051836014,2.698187828,-1128.300049,14.70000076,-938.1000366,-0.695320355,-0.336579555,0.31054643,ST
5.666666667,-3.216214657,-1.985236526,8.826795578,2.759163857,-0.571649969,1.608241916,-1137.900024,19.5,-940.500061,-0.724669737,-0.340756716,0.228233085,ST
5.7,-2.173053503,-2.139557362,8.633595467,2.698187828,-0.868907988,1.478667974,-1145.100098,6.900000095,-942.9000244,-0.724761469,-0.249678528,0.236523896,ST
5.733333333,-3.186905861,-2.116827965,9.398620605,1.798792005,-0.175305992,0.282013983,-1128.300049,9.300000191,-933.3000488,-0.728541231,-0.309857379,0.22073464,ST
5.766666667,-2.804692507,-2.243036032,9.404602051,1.509155989,-0.815553963,-0.205793992,-1137.900024,6.300000191,-940.500061,-0.724487048,-0.284787056,0.230068179,ST
5.8,-2.61448288,-2.320794821,9.142017365,1.067080021,-0.975615978,-0.495429993,-1130.700073,8.700000763,-935.7000122,-0.7187856,-0.270433801,0.244926058,ST
5.833333333,-3.098380566,-2.595342398,9.740159988,0.495429993,-0.243903995,0.076219998,-1142.700073,9.900000572,-947.7000122,-0.715258689,-0.29413378,0.257491323,ST
5.866666667,-2.397356987,-2.843571663,9.390844345,0.701223969,0.030487999,0.099086002,-1149.900024,8.700000763,-928.500061,-0.706779941,-0.247098085,0.28807225,ST
5.9,-2.74667263,-3.046342134,9.677354813,1.158543944,1.501533985,0.236281991,-1135.5,3.300000191,-940.500061,-0.702072348,-0.264329748,0.30101781,ST
5.933333333,-1.955329418,-3.074454784,9.196448326,1.189031959,0.731711984,0.236281991,-1142.700073,14.10000038,-942.9000244,-0.697298062,-0.20896435,0.317967778,ST
5.966666667,-1.774092078,-3.154606104,8.802271843,1.303362012,0.777444005,0.731711984,-1125.900024,6.900000095,-935.7000122,-0.693679605,-0.191689187,0.338743011,ST
6.0,-2.597136736,-3.226981401,8.905152321,1.120433927,1.74543798,0.815553963,-1130.700073,9.300000191,-926.1000366,-0.69211918,-0.260227987,0.344675127,ST
6.033333333,-2.476311922,-3.218009233,8.581557274,1.227141976,2.012207985,2.08842802,-1125.900024,6.900000095,-947.7000122,-0.69217224,-0.267337502,0.354489439,ST
6.066666667,-2.954826355,-3.202457428,8.33631897,1.204275966,2.934469938,2.118916035,-1128.300049,8.700000763,-950.1000366,-0.69137647,-0.317745898,0.362825174,ST
6.1,-3.276627302,-2.915348768,8.641371727,1.303362012,3.178373814,2.004585981,-1113.900024,2.100000143,-940.500061,-0.703709715,-0.34679734,0.328047439,ST
6.133333333,-3.421377897,-2.585173845,8.251980782,1.722571969,2.591480017,2.629590034,-1128.300049,5.700000286,-928.500061,-0.715465441,-0.377991015,0.303030569,ST
6.166666667,-3.783254385,-2.393170118,8.553444862,2.012207985,3.10977602,2.995445967,-1101.900024,8.100000381,-945.3000488,-0.730836301,-0.405968882,0.271609056,ST
6.2,-3.257486582,-2.02172327,8.426039696,2.019829988,2.538125992,3.628072023,-1106.700073,5.100000381,-933.3000488,-0.750019791,-0.370892269,0.235495557,ST
6.233333333,-3.526650906,-1.7274369,7.693315029,1.592997909,1.55488801,4.489357948,-1101.900024,8.100000381,-945.3000488,-0.765708721,-0.417633611,0.217844938,ST
6.266666667,-4.081129551,-1.392476797,7.884122372,1.379581928,1.981719971,4.977165699,-1097.100098,5.700000286,-938.1000366,-0.793902408,-0.468482367,0.175306615,ST
6.3,-4.900585175,-0.528758407,8.698195457,1.55488801,2.042695999,6.371991634,-1099.5,2.100000143,-935.7000122,-0.857165535,-0.510585564,0.069088935,ST
6.333333333,-4.58715868,-0.270360619,8.675465584,2.118916035,1.844523907,7.126569748,-1087.5,5.700000286,-933.3000488,-0.892106021,-0.492673616,0.02727044,ST
6.366666667,-4.582971573,0.090917729,8.356057167,2.035073996,1.463423967,6.303393841,-1089.900024,3.300000191,-930.9000244,-0.924907094,-0.502608322,-0.01398467,ST
6.4,-5.060887814,0.610703945,8.739466667,2.187514067,1.867389917,5.02289772,-1089.900024,-3.300000191,-942.9000244,-0.964350833,-0.524217624,-0.072218082,ST
6.433333333,-4.489062786,0.510814071,8.484658241,3.018311977,0.754577994,2.339953899,-1094.700073,0.300000012,-938.1000366,-0.964281387,-0.491261846,-0.068134598,ST
6.466666667,-5.254087925,1.014450431,7.341008663,1.707327962,0.53354001,1.265251994,-1082.700073,5.100000381,-935.7000122,-0.997689898,-0.600341692,-0.1310844,ST
6.5,-6.012533188,0.998300612,8.437404633,0.922261953,1.791170001,1.455801964,-1092.300049,-0.300000012,-942.9000244,-0.995369105,-0.616356434,-0.122651275,ST
6.533333333,-5.147618294,0.884055316,8.265737534,0.853663981,0.381099999,1.600619912,-1089.900024,-3.300000191,-935.7000122,-0.991749721,-0.562493428,-0.111371309,ST
6.566666667,-4.946044445,0.541917503,7.9570961,0.510674,-0.144817993,0.754577994,-1082.700073,-3.300000191,-928.500061,-0.973627302,-0.555847867,-0.075292582,ST
6.6,-4.709179401,0.326586068,7.763297558,0.160062,-0.518296003,-0.609759986,-1075.5,-3.900000095,-930.9000244,-0.956564129,-0.545641187,-0.046157607,ST
6.633333333,-5.225975037,0.162694886,8.278298378,0.175305992,-1.006103992,-2.759163857,-1089.900024,-2.700000048,-942.9000244,-0.935132146,-0.559707657,-0.020093722,ST
6.666666667,-4.825817585,0.07596416,8.0695467,0.746955991,-1.371959925,-2.522881985,-1087.5,3.300000191,-926.1000366,-0.921738626,-0.539282833,-0.00942431,ST
6.7,-4.602111816,-0.374437511,8.10782814,0.480185986,-1.76830399,-2.339953899,-1077.900024,-1.5,-940.500061,-0.889469544,-0.515755332,0.041062597,ST
6.733333333,-4.444202423,-0.818857729,8.883021355,0.327746004,-3.125020027,-3.429899931,-1089.900024,-2.100000143,-945.3000488,-0.857680665,-0.462698759,0.088622586,ST
6.766666667,-4.588953018,-0.744687974,9.02358532,0.236281991,-4.016793728,-4.146368027,-1092.300049,2.100000143,-930.9000244,-0.848934594,-0.461652567,0.08568741,ST
6.8,-3.881947994,-0.798520863,8.728102684,-0.099086002,-4.542711735,-3.429899931,-1109.100098,-1.5,-950.1000366,-0.838209475,-0.41566249,0.092707728,ST
6.833333333,-2.860917807,-0.990524769,8.244204521,-0.998481989,-3.902463913,-2.568614006,-1106.700073,3.300000191,-933.3000488,-0.823244526,-0.334291205,0.119536171,ST
6.866666667,-3.418387175,-0.890634894,8.769373894,-1.211897969,-2.431417942,-2.400929928,-1121.100098,1.5,-935.7000122,-0.823077038,-0.36110454,0.106753771,ST
6.9,-3.091800928,-1.288998127,8.975733757,-1.242385983,-1.859767914,-0.975615978,-1121.100098,2.700000048,-930.9000244,-0.810988757,-0.330029404,0.140093195,ST
6.933333333,-3.020622015,-1.039572477,8.271718979,-0.998481989,-1.455801964,-1.067080021,-1113.900024,6.300000191,-942.9000244,-0.813241437,-0.342853526,0.129045685,ST
6.966666667,-3.989015579,-1.088620186,9.800572395,-0.40396598,0.586893976,-0.167683989,-1123.5,2.700000048,-926.1000366,-0.818579575,-0.381166051,0.113267244,ST
7.0,-3.59603548,-0.900803328,9.391443253,0.518296003,-0.182927996,-0.548784018,-1111.5,-2.700000048,-933.3000488,-0.822373796,-0.365616641,0.097018316,ST
7.033333333,-4.400537968,-0.837400138,9.183288574,0.548784018,0.282013983,-0.625003994,-1121.100098,-1.5,-938.1000366,-0.822228012,-0.434795633,0.091406762,ST
7.066666667,-4.205543041,-0.781174719,8.979920387,0.503051996,0.388722003,-0.373477995,-1111.5,7.500000477,-930.9000244,-0.822446959,-0.436843385,0.086925208,ST
7.1,-3.508108616,-1.064096332,8.620436668,-0.213415995,-0.678357959,-0.198172003,-1121.100098,2.100000143,-940.500061,-0.809671884,-0.389973389,0.118478671,ST
7.133333333,-3.44530344,-1.381710291,8.267532349,-1.310984015,-1.867389917,-0.716467977,-1121.100098,-0.300000012,-940.500061,-0.792998569,-0.386930531,0.163240982,ST
7.166666667,-4.191187859,-1.853645086,7.631706238,-2.522881985,-1.265251994,-1.493911982,-1116.300049,5.100000381,-947.7000122,-0.763021923,-0.476676578,0.23468265,ST
7.2,-3.875966549,-2.652764082,7.86019659,-3.315569878,-1.836901903,-1.684461951,-1111.5,3.900000095,-935.7000122,-0.726278661,-0.438332074,0.320997086,ST
7.233333333,-3.886134863,-2.62405324,8.708961487,-3.490875959,-2.042695999,-2.294221878,-1104.300049,0.300000012,-940.500061,-0.733748377,-0.404476421,0.302733531,ST
7.266666667,-3.677981138,-2.686858177,8.773561478,-1.867389917,-2.393307924,-1.318606019,-1128.300049,2.100000143,-938.1000366,-0.73497409,-0.38032333,0.301076529,ST
7.3,-3.330460072,-2.917741299,8.161062241,-0.40396598,-2.774407864,-0.983237982,-1130.700073,8.100000381,-930.9000244,-0.721440865,-0.363923038,0.339101169,ST
7.333333333,-3.529641628,-2.869291782,9.472191811,0.40396598,-2.103672028,-0.632625997,-1137.900024,7.500000477,-945.3000488,-0.734877255,-0.342162311,0.299536803,ST
7.366666667,-3.182120562,-2.814860821,8.747840881,0.670735955,-2.454283953,0.213415995,-1137.900024,12.90000057,-942.9000244,-0.733980818,-0.33086766,0.308410529,ST
7.4,-3.824526072,-2.59594059,9.688719749,0.312501997,-1.410069942,0.015244,-1128.300049,4.5,-952.500061,-0.748612723,-0.357758712,0.267467435,ST
7.433333333,-3.433938742,-2.248419523,9.74554348,0.655492008,-0.838419974,1.288118005,-1133.100098,5.100000381,-942.9000244,-0.764472024,-0.333628534,0.230438377,ST
7.466666667,-2.432647467,-2.171258926,9.436303139,1.196653962,-0.990859985,1.585376024,-1142.700073,3.900000095,-933.3000488,-0.770175936,-0.257006032,0.224194457,ST
7.5,-2.060004473,-2.199969769,9.172522545,1.34147191,-0.716467977,1.028970003,-1130.700073,0.300000012,-930.9000244,-0.77080963,-0.219984425,0.231471064,ST
7.533333333,-2.21432519,-2.380010843,8.456544876,0.899396002,0.586893976,0.464941978,-1137.900024,3.300000191,-945.3000488,-0.762621333,-0.245104949,0.26819204,ST
7.566666667,-2.205353022,-2.064191341,8.93386364,0.846041977,1.036592007,0.198172003,-1135.5,6.300000191,-935.7000122,-0.770773679,-0.238795537,0.230930498,ST
7.6,-2.489470959,-2.204156876,8.871656418,0.800309956,1.196653962,0.525918007,-1128.300049,5.100000381,-938.1000366,-0.768458519,-0.264166382,0.240509064,ST
7.633333333,-3.398648262,-2.124005795,9.497912407,1.112811923,1.478667974,0.80793196,-1128.300049,5.700000286,-935.7000122,-0.774462073,-0.328698322,0.220936293,ST
7.666666667,-3.194083452,-2.003778934,10.08110142,1.631107926,0.777444005,1.196653962,-1125.900024,6.300000191,-942.9000244,-0.783623564,-0.306023459,0.1960371,ST
7.7,-2.917143345,-1.839887738,9.990781784,1.867389917,-0.114329994,0.998481989,-1135.5,5.100000381,-938.1000366,-0.789280332,-0.283298496,0.18072094,ST
7.733333333,-2.036078691,-1.735212803,8.740663528,1.928365946,-0.365855992,0.640248001,-1137.900024,0.900000036,-945.3000488,-0.787251696,-0.232186578,0.190783543,ST
7.766666667,-2.405730963,-1.559956908,8.187978745,1.371959925,0.693601966,-0.129574001,-1123.5,1.5,-940.500061,-0.786533386,-0.275867338,0.186593688,ST
7.8,-3.109745264,-1.47561872,8.755018234,0.61738199,1.592997909,0.144817993,-1125.900024,5.700000286,-945.3000488,-0.791035774,-0.332819777,0.16823364,ST
7.833333333,-3.19348526,-1.545003295,8.46073246,-0.129574001,0.365855992,1.158543944,-1123.5,3.900000095,-930.9000244,-0.790616522,-0.353312641,0.178538749,ST
7.866666667,-3.360367298,-1.545003295,8.482863426,-0.40396598,0.419209987,1.379581928,-1128.300049,6.300000191,-942.9000244,-0.794033204,-0.370137429,0.179805161,ST
7.9,-3.425564766,-1.54380703,7.932571888,-0.373477995,0.609759986,1.821658015,-1128.300049,0.300000012,-940.500061,-0.795078215,-0.39817934,0.190038009,ST
7.933333333,-4.5536623,-1.242941141,8.440395355,-0.53354001,0.792688012,2.157026052,-1118.700073,-0.900000036,-947.7000122,-0.817192565,-0.479526198,0.151713736,ST
7.966666667,-4.354480743,-1.278829694,9.040332794,0.114329994,-0.106707998,2.919225931,-1130.700073,1.5,-945.3000488,-0.829918898,-0.450139898,0.139696117,ST
8.0,-4.166065693,-1.341036558,8.844739914,0.076219998,-0.868907988,3.826243877,-1125.900024,4.5,-933.3000488,-0.838066335,-0.436896837,0.146341632,ST
8.033333333,-3.533230543,-1.131686449,9.250879288,0.678357959,-1.737815976,2.675322056,-1130.700073,2.700000048,-938.1000366,-0.854755307,-0.369575065,0.121946423,ST
8.066666667,-2.900993347,-1.07785368,8.492433548,0.754577994,-2.347575903,1.836901903,-1123.5,5.100000381,-935.7000122,-0.859522555,-0.328453622,0.123455612,ST
8.1,-3.149222851,-0.775193274,8.66709137,0.457319975,-1.402447939,1.684461951,-1121.100098,1.5,-938.1000366,-0.875079493,-0.343322095,0.091198391,ST
8.133333333,-3.360965252,-0.744089842,9.081604958,0.609759986,-0.975615978,1.943609953,-1125.900024,1.5,-942.9000244,-0.883603937,-0.350871232,0.080885413,ST
8.166666667,-3.320291519,-0.388792932,9.145606041,1.028970003,-0.541162014,2.004585981,-1133.100098,-1.5,-938.1000366,-0.900911058,-0.347645603,0.044218227,ST
8.2,-2.735905886,-0.610105813,9.186279297,1.333850026,-0.769822001,1.455801964,-1123.5,3.300000191,-952.500061,-0.89859182,-0.295766324,0.060669225,ST
8.233333333,-3.785048723,-0.532945395,9.918406487,0.884151995,-0.289635986,0.396344006,-1135.5,2.100000143,-940.500061,-0.901355087,-0.355093406,0.053006652,ST
8.266666667,-3.070866108,-0.302062213,9.642663002,1.074702024,-0.983237982,0.198172003,-1133.100098,-6.300000191,-933.3000488,-0.907905257,-0.311685743,0.031824094,ST
8.3,-2.461956501,-0.323595345,9.017004967,1.158543944,-0.800309956,-0.442075998,-1137.900024,-0.300000012,-935.7000122,-0.905246718,-0.271256179,0.03377073,ST
8.333333333,-2.766411304,-0.253014475,8.706568718,0.746955991,0.099086002,-0.655492008,-1142.700073,-2.700000048,-928.500061,-0.904205475,-0.302746871,0.028871342,ST
8.366666667,-2.479302645,-0.46356079,9.259851456,0.42683199,0.289635986,-1.250007987,-1113.900024,4.5,-935.7000122,-0.895249008,-0.267252009,0.047094599,ST
8.4,-2.798112869,-0.537132382,9.259253502,-0.53354001,-0.449698001,-1.204275966,-1135.5,0.900000036,-938.1000366,-0.889352295,-0.288992369,0.057919258,ST
8.433333333,-2.600725651,-0.770408154,9.143811226,-0.670735955,-1.272873998,-0.853663981,-1133.100098,-2.100000143,-942.9000244,-0.880757007,-0.27548027,0.082638156,ST
8.466666667,-2.552276134,-0.791941285,9.668981552,-1.402447939,-1.036592007,-1.524399996,-1142.700073,3.900000095,-940.500061,-0.877335179,-0.257961435,0.08454194,ST
8.5,-3.220401764,-0.824241042,9.316077232,-1.250007987,-0.685979962,-1.067080021,-1137.900024,5.100000381,-935.7000122,-0.874018733,-0.320474832,0.090119759,ST
8.533333333,-2.953629971,-1.17654717,9.567894936,-1.036592007,0.884151995,-0.61738199,-1128.300049,3.900000095,-935.7000122,-0.863857887,-0.301674894,0.11993821,ST
8.566666667,-3.35139513,-0.779978454,8.996069908,-0.289635986,0.61738199,-1.059458017,-1133.100098,6.300000191,-942.9000244,-0.8699945,-0.349451382,0.091804465,ST
8.6,-3.230570078,-0.838596463,8.653932571,-0.106707998,1.204275966,-1.04421401,-1140.300049,10.5,-945.3000488,-0.865271464,-0.356564884,0.096760769,ST
8.633333333,-3.381302118,-1.250716925,8.138333321,-0.099086002,0.815553963,-1.753059983,-1123.5,0.300000012,-935.7000122,-0.84252045,-0.386105487,0.146141956,ST
8.666666667,-3.006266594,-1.556367993,8.436806679,-0.29725799,-0.175305992,-3.40703392,-1130.700073,4.5,-947.7000122,-0.821797058,-0.342534963,0.179903901,ST
8.7,-3.708486319,-1.449898601,8.476881981,-0.640248001,-0.998481989,-3.597584009,-1130.700073,4.5,-933.3000488,-0.815605157,-0.395962124,0.173904549,ST
8.733333333,-3.04275322,-2.007966042,8.875245094,-0.632625997,-1.539644003,-2.317087889,-1123.5,3.900000095,-945.3000488,-0.794628708,-0.328147713,0.219048146,ST
8.766666667,-2.600127459,-2.408721685,9.238916397,-0.121951997,-2.118916035,-3.163130045,-1137.900024,10.5,-938.1000366,-0.778024764,-0.270033486,0.251568948,ST
8.8,-3.187503815,-2.566631556,8.489442825,-0.060975999,-1.562510014,-3.056421995,-1135.5,5.100000381,-940.500061,-0.760021365,-0.331341025,0.289124159,ST
8.833333333,-2.495452404,-3.015238762,9.513463974,-0.266770005,-0.785066009,-1.379581928,-1137.900024,6.300000191,-933.3000488,-0.75223529,-0.253231571,0.305795459,ST
8.866666667,-2.778972149,-2.854936361,8.863282204,-0.083841994,-1.257629991,-0.731711984,-1130.700073,1.5,-938.1000366,-0.750023407,-0.282903707,0.311083504,ST
8.9,-2.65216589,-2.902189732,9.33581543,0.457319975,-0.350611985,0.762199998,-1147.5,6.900000095,-950.1000366,-0.754874108,-0.266520858,0.301273339,ST
8.933333333,-2.703606129,-2.665923119,9.510473251,0.762199998,-0.205793992,0.746955991,-1145.100098,8.100000381,-940.500061,-0.763575735,-0.267131083,0.274785833,ST
8.966666667,-2.499041319,-2.241241693,9.627709389,0.846041977,-0.419209987,1.920743942,-1133.100098,3.300000191,-945.3000488,-0.779158504,-0.250356584,0.232861705,ST
9.0,-2.23346591,-2.055219173,9.451855659,1.036592007,-0.213415995,2.202757835,-1142.700073,5.100000381,-926.1000366,-0.789021396,-0.230496941,0.214271386,ST
9.033333333,-2.135370493,-1.93917954,8.811841965,0.838419974,0.121951997,2.080806017,-1125.900024,4.5,-942.9000244,-0.794081683,-0.232983428,0.214313293,ST
9.066666667,-2.314215183,-1.893720627,8.777748108,0.716467977,0.998481989,2.19513607,-1125.900024,4.5,-947.7000122,-0.799807219,-0.251796725,0.2109117,ST
9.1,-2.929704189,-1.891328096,9.49432373,0.861285985,1.356715918,2.355197906,-1135.5,5.700000286,-935.7000122,-0.808662609,-0.290890309,0.196388989,ST
9.133333333,-3.283804893,-1.61438787,9.710252762,0.769822001,1.714949965,2.57623601,-1135.5,5.700000286,-940.500061,-0.823012206,-0.32102073,0.166796109,ST
9.166666667,-2.573210955,-1.535433054,9.3848629,1.272873998,0.701223969,2.347575903,-1128.300049,2.700000048,-930.9000244,-0.830038189,-0.273532545,0.159906853,ST
9.2,-2.756840944,-1.589864016,8.864479065,1.775925994,1.089946032,1.653973937,-1128.300049,0.900000036,-945.3000488,-0.829278792,-0.295926836,0.17174308,ST
9.233333333,-2.676091671,-1.22858572,9.070837975,1.859767914,0.975615978,1.04421401,-1125.900024,2.700000048,-926.1000366,-0.840623105,-0.287492746,0.135637181,ST
9.266666667,-2.834001303,-1.071872234,8.737074852,1.76830399,0.609759986,0.983237982,-1128.300049,2.100000143,-930.9000244,-0.845946992,-0.309330756,0.120816452,ST
9.3,-2.787944317,-1.064096332,8.632399559,1.570132017,0.541162014,1.501533985,-1123.5,8.700000763,-935.7000122,-0.848926786,-0.311156617,0.119340257,ST
9.333333333,-3.040360689,-0.79792273,8.27710247,1.478667974,0.182927996,1.387203932,-1121.100098,5.700000286,-945.3000488,-0.85867147,-0.345697885,0.096325899,ST
9.366666667,-4.592541695,-0.643003702,8.915919304,0.990859985,1.85214591,2.454283953,-1118.700073,2.100000143,-940.500061,-0.873796348,-0.463808876,0.071543064,ST
9.4,-4.100868225,-0.771006286,9.385461807,0.983237982,1.219519973,2.782029867,-1113.900024,2.100000143,-942.9000244,-0.877136807,-0.420030126,0.077274522,ST
9.433333333,-3.122306347,-0.690257013,9.066651344,0.556405962,-0.693601966,2.012207985,-1123.5,-0.300000012,-945.3000488,-0.883225023,-0.341979749,0.074176848,ST
9.466666667,-3.25030899,-0.419896364,8.954798698,0.663114011,-0.983237982,1.34147191,-1118.700073,2.100000143,-947.7000122,-0.89492439,-0.34567888,0.048799562,ST
9.5,-3.800002337,-0.516795516,8.891993523,0.884151995,-0.236281991,1.074702024,-1125.900024,0.900000036,-942.9000244,-0.894746352,-0.395191812,0.054777432,ST
9.533333333,-3.283206701,-0.657359123,9.4375,0.960371971,-0.198172003,0.243903995,-1121.100098,1.5,-938.1000366,-0.890394594,-0.342017643,0.066013357,ST
9.566666667,-2.806486845,-0.561058104,9.10313797,1.219519973,-0.853663981,-0.518296003,-1113.900024,-3.300000191,-938.1000366,-0.88975599,-0.303049614,0.060542436,ST
9.6,-2.557061195,-0.340941489,8.8363657,1.166165948,-1.021348,-0.868907988,-1123.5,5.100000381,-933.3000488,-0.892431572,-0.282801892,0.040124029,ST
9.633333333,-3.033183098,-0.323595345,8.173624039,0.861285985,-0.891773999,-1.120433927,-1128.300049,-1.5,-933.3000488,-0.888850333,-0.345235208,0.038889418,ST
9.666666667,-3.261075497,-0.450999796,8.849525452,0.442075998,0.579271972,-0.846041977,-1125.900024,-0.300000012,-945.3000488,-0.882565306,-0.352458567,0.049106469,ST
9.7,-3.471621752,-0.582591236,9.438097954,0.121951997,0.365855992,-1.013725996,-1116.300049,0.300000012,-938.1000366,-0.875772956,-0.352402103,0.060346765,ST
9.733333333,-2.585173845,-0.951645494,8.778944016,-0.266770005,-0.632625997,-1.570132017,-1121.100098,5.700000286,-935.7000122,-0.857663645,-0.290863471,0.104126574,ST
9.766666667,-3.27363658,-1.096994162,8.753822327,-1.310984015,0.114329994,-1.646351933,-1113.900024,1.5,-942.9000244,-0.847391261,-0.348245012,0.125371183,ST
9.8,-3.759328604,-1.460067034,9.491333008,-1.996963978,0.365855992,-0.29725799,-1123.5,-0.900000036,-950.1000366,-0.839077414,-0.370260744,0.152142735,ST
9.833333333,-2.684465647,-1.594051003,10.3694067,-1.707327962,-0.769822001,0.579271972,-1116.300049,1.5,-940.500061,-0.842024165,-0.261305157,0.154881492,ST
9.866666667,-2.255597115,-1.202267408,8.597706795,-0.655492008,-1.547266006,0.548784018,-1121.100098,3.900000095,-935.7000122,-0.847983112,-0.252971295,0.141774517,ST
9.9,-3.19348526,-0.97676748,8.635988235,0.228659987,0.922261953,0.663114011,-1128.300049,-1.5,-942.9000244,-0.856781769,-0.34020227,0.116085791,ST
9.933333333,-3.338235855,-0.888840437,8.689223289,1.242385983,1.288118005,0.449698001,-1123.5,-3.300000191,-945.3000488,-0.861297106,-0.363705426,0.101810227,ST
9.966666667,-3.204849958,-0.864316583,8.710158348,1.303362012,0.853663981,0.259148002,-1118.700073,2.700000048,-930.9000244,-0.862055118,-0.354023188,0.097234088,ST
10.0,-3.279019833,-0.925925314,8.820216179,1.04421401,-0.015244,-0.602137983,-1111.5,12.90000057,-940.500061,-0.857421732,-0.35401292,0.102470205,ST
10.03333333,-3.737197399,-1.250716925,8.537892342,0.42683199,-1.196653962,-1.257629991,-1106.700073,-0.900000036,-942.9000244,-0.840382028,-0.399303353,0.139556309,ST
10.06666667,-3.575698614,-1.855439544,8.817225456,-0.167683989,-1.577754021,-0.907018006,-1113.900024,2.100000143,-935.7000122,-0.816384788,-0.378187473,0.198926667,ST
10.1,-4.014137268,-1.989423513,9.44168663,-0.998481989,-1.714949965,-1.562510014,-1125.900024,-6.900000095,-935.7000122,-0.810643494,-0.389051524,0.208714939,ST
10.13333333,-2.004377127,-2.140753746,9.208411217,-0.952749968,-4.108257771,-2.271355867,-1113.900024,3.900000095,-935.7000122,-0.801653735,-0.222810052,0.228296303,ST
10.16666667,-2.340533495,-1.90867424,8.270523071,-0.685979962,-2.698187828,-1.280496001,-1121.100098,2.100000143,-933.3000488,-0.800346299,-0.258404417,0.228300956,ST
10.2,-2.310626268,-2.361468554,8.275307655,-0.42683199,-0.266770005,0.099086002,-1130.700073,5.100000381,-933.3000488,-0.789927418,-0.261468092,0.271832321,ST
10.23333333,-3.4052279,-2.512200594,9.993174553,-0.106707998,0.929883957,0.396344006,-1137.900024,8.700000763,-940.500061,-0.796622112,-0.312886928,0.249893414,ST
10.26666667,-3.629531622,-2.174847841,10.16783237,0.609759986,-0.144817993,0.922261953,-1137.900024,-0.300000012,-942.9000244,-0.81033601,-0.333490559,0.213512429,ST
10.3,-2.866899252,-1.712483287,9.776646614,1.814036012,-1.013725996,1.760681987,-1125.900024,3.900000095,-928.500061,-0.825761868,-0.287237089,0.17512787,ST
10.33333333,-2.074359894,-1.732820153,8.987696648,2.385685921,-0.243903995,1.661595941,-1123.5,2.700000048,-947.7000122,-0.826503369,-0.230426461,0.184408325,ST
10.36666667,-2.347711086,-1.556367993,8.771766663,2.416173935,1.181409955,0.975615978,-1128.300049,0.300000012,-945.3000488,-0.829698148,-0.256002553,0.17285683,ST
10.4,-2.351898193,-1.375728846,8.859095573,1.8292799,1.913121939,0.419209987,-1133.100098,-4.5,-930.9000244,-0.833505402,-0.259433725,0.153789107,ST
10.43333333,-3.226981401,-1.329073668,8.928480148,1.067080021,1.653973937,0.823175967,-1121.100098,0.900000036,-933.3000488,-0.836350262,-0.337019544,0.146484026,ST
10.46666667,-3.049931049,-1.514497995,8.614455223,0.609759986,1.478667974,1.12805593,-1116.300049,-8.100000381,-940.500061,-0.830645784,-0.338252338,0.169651966,ST
10.5,-3.154007912,-1.382906556,9.153382301,0.449698001,1.097568035,1.44817996,-1113.900024,-0.300000012,-942.9000244,-0.839840429,-0.331611069,0.151054082,ST
10.53333333,-2.930302382,-1.375728846,9.329833984,0.381099999,0.53354001,1.219519973,-1137.900024,2.100000143,-938.1000366,-0.844198996,-0.306423161,0.145901395,ST
10.56666667,-2.765813112,-1.174154639,8.068948746,1.013725996,0.152439997,1.120433927,-1113.900024,-3.900000095,-935.7000122,-0.847575553,-0.325463471,0.142476138,ST
10.6,-3.935182571,-1.231576324,8.514565468,0.670735955,1.951231956,1.181409955,-1116.300049,5.100000381,-938.1000366,-0.849614436,-0.421078504,0.141895858,ST
10.63333333,-2.826823711,-0.882859051,9.226953506,0.922261953,-0.983237982,2.210379839,-1111.5,-2.100000143,-935.7000122,-0.870374754,-0.311779536,0.098873453,ST
10.66666667,-4.125990391,-0.881064594,8.795692444,0.571649969,0.510674,3.40703392,-1118.700073,-1.5,-940.500061,-0.879504381,-0.420976781,0.096736511,ST
10.7,-3.107352734,-0.523375094,8.410488129,1.036592007,0.685979962,3.262215853,-1111.5,-1.5,-928.500061,-0.899716305,-0.363807011,0.063251926,ST
10.73333333,-4.094288826,-0.377428204,9.657018661,1.463423967,1.097568035,3.689047813,-1113.900024,-5.100000381,-940.500061,-0.917253207,-0.39763405,0.037904488,ST
10.76666667,-3.80538559,-0.181835458,8.756813049,2.027451992,0.685979962,3.391789913,-1113.900024,-6.900000095,-938.1000366,-0.932339806,-0.409617217,0.017385796,ST
10.8,-4.963988304,-0.129797027,9.689317703,2.057940006,1.539644003,2.484771967,-1101.900024,-3.900000095,-933.3000488,-0.93994343,-0.467789264,0.008911535,ST
10.83333333,-2.33694458,0.056823581,8.241213799,2.118916035,-1.135677934,-0.099086002,-1101.900024,-3.900000095,-926.1000366,-0.943814875,-0.300419203,-0.007910475,ST
10.86666667,-6.452168465,0.397166938,8.924891472,1.173787951,1.021348,-0.29725799,-1125.900024,-8.700000763,-926.1000366,-0.955602937,-0.582001711,-0.039883176,ST
10.9,-3.467434883,0.07117901,9.592418671,1.577754021,0.457319975,-0.137196004,-1099.5,-5.100000381,-938.1000366,-0.941036568,-0.379295223,-0.013470038,ST
10.93333333,-2.356085062,0.382811487,8.464321136,1.04421401,-2.515259981,-1.219519973,-1111.5,-4.5,-940.500061,-0.945778233,-0.280972675,-0.042285869,ST
10.96666667,-3.358572721,0.445616513,7.480974197,0.411587983,-1.989341974,-1.532021999,-1099.5,-3.300000191,-933.3000488,-0.945789643,-0.399384347,-0.056658099,ST
11.0,-2.461956501,-0.001196286,8.797487259,-0.312501997,0.068598002,-1.577754021,-1099.5,-5.100000381,-930.9000244,-0.924095333,-0.28771463,-0.004899872,ST
11.03333333,-2.782561064,-0.205761179,7.669389248,-1.105189919,-0.762199998,-1.928365946,-1111.5,-8.100000381,-938.1000366,-0.910581839,-0.338595525,0.0251197,ST
11.06666667,-4.438220978,-0.915756881,10.11938286,-1.798792005,1.402447939,-1.257629991,-1113.900024,-10.5,-935.7000122,-0.886614616,-0.405371141,0.086145415,ST
11.1,-4.022511482,-1.065292597,10.19654369,-1.463423967,-0.419209987,-1.615863919,-1118.700073,-6.300000191,-942.9000244,-0.876440622,-0.376376769,0.105451456,ST
11.13333333,-3.296365976,-1.140060544,9.744347572,-1.074702024,-1.432935953,-1.867389917,-1106.700073,2.100000143,-933.3000488,-0.868739933,-0.328711155,0.117529701,ST
11.16666667,-3.010453463,-0.964206457,8.440993309,-0.632625997,-1.219519973,-1.478667974,-1097.100098,2.700000048,-935.7000122,-0.866255908,-0.336854573,0.11590543,ST
11.2,-2.644988298,-1.008469105,9.153382301,-0.419209987,0.045731999,-1.12805593,-1111.5,-6.900000095,-935.7000122,-0.864609842,-0.285695583,0.111574312,ST
11.23333333,-2.686259985,-0.977963746,7.302727699,0.045731999,0.556405962,-0.61738199,-1104.300049,-2.700000048,-930.9000244,-0.856885711,-0.341682247,0.130447472,ST
11.26666667,-4.008155823,-1.187911987,9.406395912,-0.053353999,1.036592007,0.030487999,-1109.100098,6.300000191,-935.7000122,-0.858108108,-0.393633811,0.126439931,ST
11.3,-2.622856855,-1.309933066,9.284973145,1.34147191,-0.72408998,-0.289635986,-1104.300049,-3.900000095,-933.3000488,-0.852945553,-0.287893583,0.13648524,ST
11.33333333,-3.53741765,-1.643696904,8.131155968,1.661595941,0.815553963,-1.547266006,-1109.100098,-1.5,-945.3000488,-0.828157652,-0.391497632,0.190828323,ST
11.36666667,-4.247413158,-1.930207372,8.323757172,0.922261953,1.532021999,-1.791170001,-1111.5,-5.100000381,-930.9000244,-0.808528284,-0.453560156,0.22280938,ST
11.4,-5.080626488,-2.360870361,9.363927841,-0.495429993,1.371959925,-1.371959925,-1101.900024,-2.700000048,-945.3000488,-0.794604105,-0.481684405,0.245714176,ST
11.43333333,-4.809069633,-1.802204728,11.02676582,-1.028970003,-0.198172003,-1.440557957,-1089.900024,2.700000048,-930.9000244,-0.822864662,-0.416031587,0.17546292,ST
11.46666667,-1.935590625,-2.173053503,8.950013161,-0.53354001,-3.041177988,-0.137196004,-1111.5,-3.900000095,-928.500061,-0.806773771,-0.226807357,0.231988362,ST
11.5,-2.882451057,-2.121015072,8.674269676,-0.342989981,0.022865999,-0.792688012,-1113.900024,-2.100000143,-938.1000366,-0.802726915,-0.302024428,0.239780468,ST
11.53333333,-3.795217037,-2.283111811,8.698195457,-0.487807989,1.661595941,0.785066009,-1097.100098,2.100000143,-930.9000244,-0.799040039,-0.388860484,0.254887634,ST
11.56666667,-2.83818841,-1.645491362,9.529015541,-0.030487999,-0.236281991,1.272873998,-1106.700073,3.300000191,-926.1000366,-0.827450145,-0.299545353,0.181397832,ST
11.6,-2.592351675,-1.68496871,8.394338608,0.457319975,-1.036592007,2.865871906,-1106.700073,-5.100000381,-930.9000244,-0.832338477,-0.293873093,0.194164672,ST
11.63333333,-3.288589954,-1.477413177,8.166445732,0.472563982,0.480185986,1.821658015,-1094.700073,-6.900000095,-942.9000244,-0.841840773,-0.36953378,0.178947075,ST
11.66666667,-5.129076004,-1.624556303,9.532604218,-0.060975999,1.42531395,2.263733864,-1101.900024,0.300000012,-938.1000366,-0.851214789,-0.474311319,0.168914741,ST
11.7,-4.776171684,-1.309334993,10.47647381,-0.419209987,0.388722003,2.118916035,-1092.300049,-1.5,-928.500061,-0.874351488,-0.432562587,0.129404304,ST
11.73333333,-2.830412626,-1.405635953,8.563014984,0.663114011,-2.888737917,1.006103992,-1111.5,2.700000048,-945.3000488,-0.86732105,-0.327035938,0.15663835,ST
11.76666667,-3.543398857,-1.305148005,8.23882103,0.373477995,-1.112811923,-0.213415995,-1109.100098,-2.700000048,-938.1000366,-0.866856513,-0.391250006,0.156508897,ST
11.8,-3.862807274,-1.079648018,8.365627289,0.251525998,-0.236281991,-0.205793992,-1099.5,-2.100000143,-942.9000244,-0.875851599,-0.423902216,0.131952121,ST
11.83333333,-3.091800928,-0.940878868,8.076126099,0.442075998,-0.068598002,1.059458017,-1104.300049,-0.300000012,-940.500061,-0.884323479,-0.370477066,0.116465058,ST
11.86666667,-4.03148365,-0.950449169,8.426638603,0.137196004,0.327746004,1.821658015,-1113.900024,1.5,-942.9000244,-0.890802375,-0.434644701,0.111498221,ST
11.9,-4.620056152,-0.851755619,9.148596764,0.022865999,0.038109999,3.742401838,-1113.900024,1.5,-930.9000244,-0.908602504,-0.462285781,0.092598959,ST
11.93333333,-4.110438347,-0.692649543,8.982313156,0.228659987,-0.685979962,5.038141727,-1106.700073,8.100000381,-933.3000488,-0.929077007,-0.432240402,0.075112971,ST
11.96666667,-3.342422962,-0.629246414,8.510976791,0.480185986,-1.288118005,5.449729919,-1104.300049,-5.100000381,-933.3000488,-0.945273594,-0.379888642,0.069827216,ST
12.0,-2.926115513,-0.350511789,8.97872448,-0.007622,-2.057940006,4.420759678,-1118.700073,-0.900000036,-940.500061,-0.967522366,-0.320823979,0.040763686,ST
12.03333333,-3.468631029,0.008972145,8.145510674,0.152439997,-1.516777992,4.420759678,-1109.100098,5.100000381,-926.1000366,-0.994426807,-0.391473942,0.000583214,ST
12.06666667,-2.801103592,-0.057421725,9.209009171,0.167683989,-0.312501997,3.544229984,-1101.900024,-2.700000048,-938.1000366,-1.002900192,-0.307800008,0.003458766,ST
12.1,-4.158289909,0.159704179,8.457741737,0.175305992,0.381099999,2.57623601,-1116.300049,2.100000143,-950.1000366,-1.017306966,-0.437116858,-0.017583708,ST
12.13333333,-4.198963642,-0.265575469,10.06315708,0.541162014,1.120433927,1.432935953,-1116.300049,-3.900000095,-935.7000122,-1.00547586,-0.401835971,0.019605944,ST
12.16666667,-4.036867142,0.171068892,10.20551491,1.059458017,-0.251525998,-0.190549999,-1106.700073,-2.700000048,-935.7000122,-1.016374201,-0.379670991,-0.013372693,ST
12.2,-3.840077877,-0.029309006,9.512268066,1.486289978,-0.785066009,-0.754577994,-1109.100098,2.100000143,-942.9000244,-1.008125869,-0.381972943,-0.000930307,ST
12.23333333,-3.514090061,0.250023752,9.159363747,2.035073996,-0.472563982,-1.692083955,-1111.5,-6.300000191,-935.7000122,-1.01010214,-0.367102374,-0.026849396,ST
12.26666667,-2.749065161,0.396568775,7.934366703,1.509155989,-0.625003994,-2.76678586,-1099.5,0.300000012,-940.500061,-1.007628461,-0.336008756,-0.04828842,ST
12.3,-2.794523954,0.302660346,8.138333321,1.112811923,0.312501997,-2.682943821,-1113.900024,-1.5,-933.3000488,-0.995688209,-0.331836281,-0.038752357,ST
12.33333333,-2.506817102,0.041870009,8.28368187,0.335367978,-0.022865999,-3.163130045,-1104.300049,-2.100000143,-945.3000488,-0.97734122,-0.29903329,-0.008540171,ST
12.36666667,-3.36993742,-0.321202785,8.057583809,-0.586893976,-0.106707998,-2.774407864,-1111.5,2.700000048,-933.3000488,-0.955647658,-0.382496306,0.035590913,ST
12.4,-4.001576424,-0.805100441,9.450060844,-0.72408998,0.891773999,-2.675322056,-1099.5,-0.300000012,-940.500061,-0.931867563,-0.398093011,0.081100412,ST
12.43333333,-3.325076818,-1.033591032,9.791600227,-0.236281991,-0.960371971,-3.391789913,-1101.900024,0.300000012,-945.3000488,-0.914989158,-0.333494566,0.104160072,ST
12.46666667,-3.351993322,-1.297372103,9.146203995,0.152439997,-1.089946032,-3.475631952,-1101.900024,-2.100000143,-935.7000122,-0.894766289,-0.343824289,0.137466199,ST
12.5,-3.325076818,-1.447505951,8.855506897,0.083841994,-0.990859985,-3.971061945,-1111.5,0.300000012,-933.3000488,-0.875760626,-0.351138044,0.161156636,ST
12.53333333,-3.115726709,-1.692744613,8.993079185,0.045731999,-0.106707998,-3.376545906,-1101.900024,-6.900000095,-935.7000122,-0.858965873,-0.330207863,0.184382422,ST
12.56666667,-3.466238499,-1.866804242,8.780140877,0.320124,0.716467977,-2.957335949,-1109.100098,-1.5,-935.7000122,-0.842636422,-0.363505214,0.207292266,ST
12.6,-3.729421377,-2.043854475,9.281384468,0.388722003,0.556405962,-2.49239397,-1092.300049,-5.700000286,-930.9000244,-0.832102032,-0.372562411,0.216381127,ST
12.63333333,-3.194083452,-2.04983592,8.694007874,0.388722003,-0.823175967,-2.111294031,-1106.700073,-2.100000143,-935.7000122,-0.821868111,-0.345421375,0.229970666,ST
12.66666667,-3.684560776,-2.343524218,8.840553284,-0.358233988,-0.144817993,-1.570132017,-1113.900024,-0.900000036,-935.7000122,-0.80883537,-0.377107248,0.256551914,ST
12.7,-3.12051177,-2.193390369,9.094165802,-0.853663981,-0.61738199,-1.150921941,-1097.100098,-2.100000143,-935.7000122,-0.812404165,-0.328073918,0.241109242,ST
12.73333333,-3.674392223,-2.145538807,8.143716812,-0.907018006,-0.121951997,1.059458017,-1099.5,-1.5,-935.7000122,-0.811010045,-0.402639192,0.256534237,ST
12.76666667,-4.169654846,-2.300457954,9.665391922,-0.967993975,1.402447939,1.913121939,-1092.300049,4.5,-945.3000488,-0.823903254,-0.400803472,0.237007938,ST
12.8,-3.390872478,-2.079743147,9.041528702,-0.152439997,-0.121951997,2.926847935,-1104.300049,3.300000191,-933.3000488,-0.835812693,-0.358025446,0.226104494,ST
12.83333333,-3.572109938,-1.966095924,9.502696991,0.137196004,-0.548784018,3.246971846,-1092.300049,5.100000381,-942.9000244,-0.851921885,-0.353649278,0.204952307,ST
12.86666667,-2.969779968,-1.845869184,8.84414196,0.213415995,-1.432935953,3.971061945,-1106.700073,-5.700000286,-935.7000122,-0.864358137,-0.320839541,0.203151809,ST
12.9,-2.603118181,-1.553377271,9.058875084,0.038109999,-0.72408998,3.391789913,-1101.900024,0.300000012,-933.3000488,-0.884059621,-0.280641561,0.171703144,ST
12.93333333,-2.73710227,-1.474422455,8.469106674,0.29725799,-0.282013983,3.262215853,-1104.300049,-3.900000095,-938.1000366,-0.893201146,-0.304931741,0.170305679,ST
12.96666667,-3.432742596,-1.295577645,9.594213486,0.495429993,0.472563982,3.399411917,-1097.100098,0.900000036,-940.500061,-0.913461735,-0.338387465,0.135606783,ST
13.0,-2.968583584,-1.457674384,8.369814873,0.899396002,-0.221037999,3.51374197,-1111.5,3.300000191,-930.9000244,-0.913127979,-0.33695173,0.165160151,ST
13.03333333,-3.483584642,-0.946860313,9.03973484,0.815553963,0.556405962,3.254593849,-1104.300049,-3.300000191,-940.500061,-0.939876122,-0.363565271,0.10964543,ST
13.06666667,-4.308423996,-0.921140194,8.418862343,0.846041977,1.074702024,3.468009949,-1089.900024,-2.700000048,-938.1000366,-0.949857511,-0.460309062,0.10533755,ST
13.1,-4.292273998,-0.394176215,9.749132156,0.952749968,0.548784018,3.528985977,-1106.700073,2.700000048,-933.3000488,-0.984478151,-0.420975732,0.043883894,ST
13.13333333,-3.16537261,0.124413736,8.871058464,1.821658015,-1.379581928,3.521363974,-1106.700073,-3.900000095,-940.500061,-1.012734936,-0.351243528,-0.011160673,ST
13.16666667,-3.371133804,0.407933503,7.743558884,1.814036012,0.137196004,2.423795938,-1106.700073,-2.100000143,-945.3000488,-1.032921061,-0.40382354,-0.052464801,ST
13.2,-3.94654727,0.588572681,8.762196541,1.631107926,1.074702024,1.714949965,-1104.300049,-0.900000036,-935.7000122,-1.042406831,-0.42149541,-0.068927312,ST
13.23333333,-4.477100372,0.532347262,9.393237114,1.63872993,0.503051996,1.303362012,-1104.300049,-14.70000076,-930.9000244,-1.040905144,-0.441963015,-0.061628444,ST
13.26666667,-4.310816288,0.482701391,9.525426865,1.676839948,-0.160062,0.350611985,-1104.300049,2.700000048,-926.1000366,-1.036733696,-0.426097855,-0.054654302,ST
13.3,-3.028397799,0.534739792,8.622829437,1.600619912,-1.150921941,-1.12805593,-1101.900024,-2.700000048,-938.1000366,-1.034862903,-0.34750568,-0.062679697,ST
13.33333333,-4.824023247,0.745884299,8.552845955,1.021348,-0.449698001,-2.096050024,-1109.100098,1.5,-938.1000366,-1.036547014,-0.489129785,-0.083338997,ST
13.36666667,-3.40762043,0.111852735,9.354357719,0.609759986,-0.137196004,-1.890255928,-1104.300049,-5.100000381,-938.1000366,-1.004773998,-0.368159266,-0.020736239,ST
13.4,-3.976454496,0.213537037,8.235830307,0.312501997,-1.143299937,-2.934469938,-1101.900024,0.900000036,-933.3000488,-0.997037424,-0.439228158,-0.023719456,ST
13.43333333,-3.355581999,-0.330174923,8.904554367,-0.114329994,-0.457319975,-3.147886038,-1101.900024,-8.100000381,-926.1000366,-0.966237181,-0.368562061,0.032373161,ST
13.46666667,-4.331153393,-0.608909547,8.732289314,-0.853663981,-0.076219998,-2.797273874,-1097.100098,-6.300000191,-935.7000122,-0.945879197,-0.446806912,0.067648197,ST
13.5,-3.941164017,-0.765622973,9.7150383,-1.585376024,-0.746955991,-2.743919849,-1101.900024,-11.70000076,-935.7000122,-0.935098657,-0.391284228,0.081312794,ST
13.53333333,-3.189896584,-0.713584542,8.992481232,-1.204275966,-1.913121939,-1.798792005,-1109.100098,0.300000012,-942.9000244,-0.931614887,-0.343718943,0.08220215,ST
13.56666667,-2.91355443,-1.022824526,8.387160301,-0.579271972,-0.495429993,-1.455801964,-1099.5,-2.700000048,-933.3000488,-0.91613873,-0.332425909,0.118468098,ST
13.6,-3.517080784,-1.108358979,9.561315536,0.015244,1.074702024,-1.623485923,-1087.5,0.300000012,-928.500061,-0.911983991,-0.349234067,0.116744458,ST
13.63333333,-2.634221554,-0.723752975,9.034949303,1.42531395,0.0,-1.669217944,-1111.5,-2.100000143,-930.9000244,-0.916649029,-0.291572529,0.083458382,ST
13.66666667,-2.600725651,-0.759641588,8.659316063,1.935987949,0.327746004,-1.791170001,-1104.300049,-0.300000012,-928.500061,-0.909645888,-0.291094724,0.084853243,ST
13.7,-3.358572721,-0.977963746,8.153884888,1.646351933,0.769822001,-1.905499935,-1101.900024,-3.900000095,-933.3000488,-0.893109561,-0.376878515,0.113520817,ST
13.73333333,-4.002174854,-1.235165238,9.368115425,0.998481989,0.876529992,-2.431417942,-1094.700073,-6.300000191,-930.9000244,-0.87953944,-0.398290188,0.128774242,ST
13.76666667,-3.621157646,-1.640107989,8.923096657,0.053353999,-0.647870004,-2.782029867,-1104.300049,-5.700000286,-935.7000122,-0.854398384,-0.380655169,0.176199797,ST
13.8,-2.862712145,-1.792036295,8.421255112,-0.632625997,-1.524399996,-3.361301899,-1099.5,1.5,-935.7000122,-0.835944538,-0.325783322,0.207783451,ST
13.83333333,-4.179822922,-2.193390369,9.000257492,-1.44817996,0.175305992,-2.652456045,-1101.900024,-5.100000381,-942.9000244,-0.818195968,-0.413369984,0.23986104,ST
13.86666667,-3.453079462,-2.2520082,9.17850399,-1.272873998,-0.190549999,-1.775925994,-1097.100098,-3.900000095,-940.500061,-0.813736657,-0.357878806,0.243410762,ST
13.9,-3.720449209,-2.44760108,8.967359543,-1.303362012,0.060975999,-0.190549999,-1085.100098,-0.900000036,-935.7000122,-0.806646325,-0.377652169,0.265406483,ST
13.93333333,-3.872975826,-2.147333384,9.624718666,-1.150921941,0.022865999,1.105189919,-1094.700073,3.300000191,-933.3000488,-0.82491533,-0.375163509,0.22680033,ST
13.96666667,-3.067277193,-2.157501698,9.375890732,-0.182927996,-0.746955991,2.134160042,-1089.900024,-2.100000143,-930.9000244,-0.831670484,-0.317218711,0.225385216,ST
14.0,-2.554668665,-1.677790999,9.725206375,0.678357959,-1.028970003,2.035073996,-1104.300049,2.700000048,-935.7000122,-0.851249212,-0.260999199,0.176146113,ST
14.03333333,-2.793925762,-1.6167804,8.080911636,1.623485923,-0.121951997,3.292703867,-1104.300049,1.5,-942.9000244,-0.854771428,-0.318695333,0.190519528,ST
14.06666667,-4.310218334,-1.454085588,9.281982422,1.219519973,2.080806017,3.78813386,-1101.900024,-0.900000036,-933.3000488,-0.875624723,-0.421233055,0.15556238,ST
14.1,-3.741384268,-1.016843081,9.38845253,1.227141976,1.219519973,4.176856041,-1094.700073,3.300000191,-928.500061,-0.903226001,-0.385367416,0.109365986,ST
14.13333333,-3.787441254,-0.809287429,9.034949303,1.04421401,1.013725996,4.192100048,-1106.700073,-1.5,-926.1000366,-0.921856429,-0.396499633,0.087438087,ST
14.16666667,-3.686953306,-0.667527556,8.941040993,0.800309956,1.501533985,3.643316031,-1099.5,-4.5,-945.3000488,-0.936239775,-0.393645857,0.072679985,ST
14.2,-3.364554167,-0.532347262,8.909937859,0.708845973,0.61738199,2.46952796,-1097.100098,-8.100000381,-940.500061,-0.947534709,-0.365509355,0.05862325,ST
14.23333333,-3.952528715,-0.47313109,8.327346802,0.144817993,0.792688012,2.17227006,-1092.300049,-1.5,-933.3000488,-0.954801432,-0.43564588,0.055259706,ST
14.26666667,-3.696523666,-0.328978628,8.521742821,-0.282013983,0.487807989,2.370441914,-1092.300049,-3.900000095,-938.1000366,-0.968246933,-0.413010575,0.039330087,ST
14.3,-4.213917255,-0.28950119,8.40809536,-0.503051996,1.516777992,2.553369999,-1087.5,-2.700000048,-926.1000366,-0.977603791,-0.459820213,0.034041936,ST
14.33333333,-4.099073887,-0.004785144,8.410488129,0.083841994,1.455801964,2.759163857,-1085.100098,3.300000191,-933.3000488,-0.99904869,-0.456534913,0.002229092,ST
14.36666667,-4.966381073,-0.038879294,8.97872448,0.769822001,2.218001842,2.515259981,-1085.100098,-8.700000763,-935.7000122,-1.005581882,-0.50345072,0.000789126,ST
14.4,-5.106346607,0.209350035,9.503295898,1.356715918,1.280496001,2.096050024,-1077.900024,-2.700000048,-935.7000122,-1.020325237,-0.496260645,-0.022743221,ST
14.43333333,-4.349695683,0.257799625,8.568996429,2.012207985,0.525918007,1.646351933,-1068.300049,-5.700000286,-930.9000244,-1.026845813,-0.473857195,-0.033425774,ST
14.46666667,-4.80129385,0.486888379,7.946329594,1.623485923,0.609759986,-0.060975999,-1070.700073,-9.300000191,-935.7000122,-1.037217084,-0.534301426,-0.059730768,ST
14.5,-4.481885433,0.438438803,8.531910896,1.120433927,1.34147191,-1.074702024,-1070.700073,0.300000012,-935.7000122,-1.029974799,-0.492153947,-0.0532944,NLR
14.53333333,-4.559643745,0.462962657,9.115698814,0.967993975,0.846041977,-2.179892063,-1068.300049,-2.700000048,-940.500061,-1.02212565,-0.468625998,-0.050890371,NLR
14.56666667,-3.902882814,0.132189602,9.065454483,0.998481989,-1.150921941,-3.38416791,-1070.700073,-8.100000381,-926.1000366,-0.998146294,-0.413288039,-0.018511422,NLR
14.6,-3.957314014,0.065795727,8.048013687,0.655492008,-1.478667974,-3.719535828,-1073.100098,-8.700000763,-940.500061,-0.982046256,-0.450042913,-0.007561688,NLR
14.63333333,-4.024904251,-0.038879294,8.52413559,0.091463998,-0.106707998,-3.079288006,-1082.700073,-3.300000191,-935.7000122,-0.967594374,-0.441915456,0.005401776,NLR
14.66666667,-3.365152359,-0.302062213,8.139529228,0.449698001,-0.518296003,-2.553369999,-1068.300049,-5.700000286,-918.9000244,-0.948081175,-0.39669858,0.034490311,NLR
14.7,-4.722937107,-0.657359123,9.36213398,0.777444005,0.365855992,-2.301843882,-1073.100098,-6.900000095,-928.500061,-0.928184839,-0.457193214,0.065648242,NLR
14.73333333,-4.374219418,-0.880466461,9.305908203,1.737815976,-0.243903995,-2.301843882,-1065.900024,-3.900000095,-928.500061,-0.908704191,-0.439111566,0.090256994,NLR
14.76666667,-4.298853397,-0.817661464,8.495424271,2.591480017,0.167683989,-3.376545906,-1053.900024,-0.900000036,-938.1000366,-0.895163867,-0.462666172,0.093768474,NLR
14.8,-4.765405178,-1.013852358,8.504995346,2.530503988,0.739333987,-3.666181803,-1070.700073,0.900000036,-940.500061,-0.872703938,-0.502148739,0.114420376,NLR
14.83333333,-4.219898701,-1.096396089,9.046912193,2.675322056,-0.899396002,-4.344540119,-1065.900024,-5.100000381,-921.3000488,-0.856358712,-0.440751661,0.118878766,NLR
14.86666667,-2.657549143,-1.025217056,8.451162338,3.78813386,-2.126538038,-5.121984005,-1053.900024,0.900000036,-933.3000488,-0.838409353,-0.313110314,0.117352259,NLR
14.9,-3.494351149,-1.236361504,7.472599983,4.093013763,-1.753059983,-5.93753767,-1073.100098,-10.5,-930.9000244,-0.805779417,-0.412214956,0.154667113,NLR
14.93333333,-4.361658573,-1.745381236,8.685035706,3.704291821,-0.121951997,-5.091495991,-1061.100098,-0.300000012,-921.3000488,-0.770584746,-0.451396556,0.191793378,NLR
14.96666667,-3.9489398,-1.869794965,10.01590443,3.719535828,0.015244,-5.838451862,-1073.100098,-10.5,-923.7000122,-0.75444522,-0.379117459,0.183529823,NLR
15.0,-2.453582525,-2.080341339,9.31727314,6.204308033,-1.181409955,-7.987855911,-1056.300049,-11.70000076,-921.3000488,-0.71987326,-0.264562834,0.20908778,NLR
15.03333333,-3.299954891,-2.314215183,9.097156525,8.125051498,0.594515979,-9.154022217,-1061.100098,-15.90000057,-916.500061,-0.680315052,-0.325896795,0.235690888,NLR
15.06666667,-3.77248764,-2.031891584,9.367517471,9.48938942,0.282013983,-8.086941719,-1056.300049,-17.70000076,-916.500061,-0.659269102,-0.366169434,0.206751591,NLR
15.1,-5.043541431,-0.748875022,9.509277344,10.76988602,0.876529992,-7.591511726,-1053.900024,-17.10000038,-916.500061,-0.673845874,-0.47471083,0.080919895,NLR
15.13333333,-4.840771198,-0.147741318,9.28676796,12.12660217,0.632625997,-3.925329924,-1049.100098,-15.90000057,-904.500061,-0.680529206,-0.48053605,0.009473481,NLR
15.16666667,-3.789833784,0.808689296,8.158670425,11.62354946,0.205793992,-1.486289978,-1041.900024,-22.5,-894.9000244,-0.710971948,-0.44006062,-0.10088095,NLR
15.2,-3.3442173,1.304549813,7.882925987,10.98330212,0.335367978,-1.181409955,-1044.300049,-27.30000114,-892.500061,-0.723475278,-0.401919402,-0.173650301,NLR
15.23333333,-3.261673689,2.133575916,7.601201057,8.734811783,1.006103992,-1.875011921,-1025.100098,-26.70000076,-875.7000122,-0.747797799,-0.395479123,-0.272344797,NLR
15.26666667,-3.703701258,2.301055908,7.497722149,7.004617691,0.40396598,-1.8292799,-1017.900024,-38.10000229,-875.7000122,-0.748006273,-0.43640878,-0.303755763,NLR
15.3,-4.636804104,2.330364943,8.102444649,4.824726105,0.068598002,-1.455801964,-1010.700012,-32.70000076,-882.9000244,-0.731468051,-0.49526471,-0.289416121,NLR
15.33333333,-4.816845417,2.80289793,9.216186523,4.016793728,-1.04421401,-0.076219998,-1032.300049,-41.10000229,-858.9000244,-0.73016872,-0.466465661,-0.300220017,NLR
15.36666667,-4.492651939,2.956620693,8.595314026,3.071666002,-1.501533985,0.381099999,-1025.100098,-36.90000153,-875.7000122,-0.739967689,-0.457733572,-0.331657312,NLR
15.4,-4.317994118,2.679082394,8.426039696,2.583858013,-1.471045971,0.975615978,-1032.300049,-33.90000153,-870.9000244,-0.730698112,-0.452213625,-0.315302673,NLR
15.43333333,-4.289881229,3.027799606,8.50977993,1.135677934,-0.137196004,-0.503051996,-1029.900024,-39.30000305,-863.7000122,-0.738464288,-0.444661639,-0.339600714,NLR
15.46666667,-4.191187859,2.847160578,8.416469574,1.04421401,-0.373477995,0.259148002,-1037.100098,-40.5,-851.7000122,-0.733241086,-0.440636004,-0.329670128,NLR
15.5,-3.81017065,2.995500088,8.20592308,1.143299937,-0.419209987,-0.221037999,-1037.100098,-36.30000305,-856.500061,-0.73889425,-0.414777855,-0.348781604,NLR
15.53333333,-3.524856567,2.594146013,8.257962227,0.579271972,-0.868907988,-1.074702024,-1037.100098,-37.5,-866.1000366,-0.719753146,-0.38980469,-0.310355867,NLR
15.56666667,-4.710974216,3.347806215,8.898572922,0.015244,-1.996963978,-2.36281991,-1017.900024,-37.5,-856.500061,-0.728671009,-0.449615629,-0.351361716,NLR
15.6,-4.188197136,2.779570341,8.344094276,0.0,-2.660078049,-2.408551931,-1015.500061,-35.10000229,-856.500061,-0.70761698,-0.442362188,-0.322702835,NLR
15.63333333,-4.13256979,2.406927347,8.139529228,0.442075998,-0.769822001,-4.230209827,-1027.5,-36.30000305,-863.7000122,-0.667908016,-0.45383421,-0.284822219,NLR
15.66666667,-3.971669436,2.376421928,8.863881111,0.40396598,-0.846041977,-3.559473991,-1025.100098,-36.30000305,-866.1000366,-0.648710594,-0.41476135,-0.263092617,NLR
15.7,-4.356275082,2.271747112,8.713747025,0.099086002,-1.44817996,-3.140264034,-1022.700012,-34.5,-863.7000122,-0.635838922,-0.44482116,-0.253868976,NLR
15.73333333,-5.080626488,2.756840944,9.503893852,-0.609759986,-2.248489857,-2.019829988,-1025.100098,-36.90000153,-873.3000488,-0.639622352,-0.467908642,-0.275570745,NLR
15.76666667,-4.341919899,2.445208549,7.614958286,-2.995445967,-2.400929928,0.762199998,-1017.900024,-42.30000305,-863.7000122,-0.656114163,-0.490092473,-0.301930073,NLR
15.8,-5.12070179,1.999591947,8.026480675,-6.615895748,-2.187514067,3.696669817,-1022.700012,-26.70000076,-868.500061,-0.644855892,-0.541066885,-0.244874859,NLR
15.83333333,-4.042250156,1.382906556,8.330337524,-9.725671768,-3.10977602,6.501565933,-1039.5,-38.10000229,-882.9000244,-0.634522841,-0.45291825,-0.164757194,NLR
15.86666667,-4.262964725,1.306344271,8.363235474,-11.79885578,-4.763750076,8.559505463,-1041.900024,-30.30000114,-887.7000122,-0.660384125,-0.455679752,-0.144171366,NLR
15.9,-2.070172787,-0.199181616,8.575575829,-13.00313187,-6.62351799,13.42234135,-1063.5,-26.10000038,-899.7000122,-0.652661777,-0.256508446,0.015270991,NLR
15.93333333,-2.486480236,-0.705808699,8.527126312,-12.782094,-6.55491972,10.35067558,-1073.100098,-12.90000057,-909.3000488,-0.672966485,-0.270540893,0.088237021,NLR
15.96666667,-2.186810732,-0.223705471,9.064856529,-12.62965393,-6.55491972,9.603719711,-1099.5,-15.30000019,-916.500061,-0.719740964,-0.232301236,0.048601439,NLR
16.0,-1.327877402,-2.088715315,8.783131599,-12.0427599,-6.029001713,9.66469574,-1106.700073,-14.70000076,-926.1000366,-0.722182733,-0.151789042,0.224037725,NLR
16.03333333,-1.273446441,-1.625154495,9.920799255,-10.26683331,-4.375028133,7.583889961,-1116.300049,-6.300000191,-935.7000122,-0.755375695,-0.125263746,0.184536214,NLR
16.06666667,-0.407933503,-2.607305288,9.124670982,-8.071698189,-3.955817938,6.890287876,-1128.300049,-13.50000095,-930.9000244,-0.771055868,-0.051007843,0.277054547,NLR
16.1,-2.366253614,-2.526556015,10.78092861,-5.769854069,0.213415995,2.804895878,-1135.5,-0.900000036,-928.500061,-0.785392366,-0.193302276,0.244079127,NLR
16.13333333,-2.711980343,-2.118024349,10.96695137,-3.033555984,-0.91463995,3.368923903,-1123.5,0.900000036,-933.3000488,-0.806981164,-0.232712282,0.200495143,NLR
16.16666667,-0.810483754,-2.554070473,10.12356949,-0.396344006,-2.484771967,4.443625927,-1118.700073,-0.300000012,-933.3000488,-0.814838869,-0.094845118,0.241083609,NLR
16.2,-0.358885795,-1.604219437,9.354357719,1.280496001,-1.928365946,2.240867853,-1128.300049,-4.5,-938.1000366,-0.826688604,-0.042700978,0.176577386,NLR
16.23333333,-0.93190676,-1.731623888,10.08289623,0.609759986,1.12805593,3.102154016,-1154.700073,-5.100000381,-930.9000244,-0.835736198,-0.087774427,0.169550186,NLR
16.26666667,-0.466551512,-1.764521718,8.823804855,1.021348,0.175305992,1.722571969,-1133.100098,-12.90000057,-933.3000488,-0.838804975,-0.05706524,0.192170735,NLR
16.3,-2.508013487,-1.580293775,10.15706539,0.282013983,2.827761889,0.815553963,-1137.900024,-0.300000012,-947.7000122,-0.844336159,-0.222508429,0.158387828,NLR
16.33333333,-2.263372898,-2.011554718,9.378881454,-0.060975999,1.920743942,0.80793196,-1135.5,2.700000048,-938.1000366,-0.835295189,-0.233590415,0.204063704,NLR
16.36666667,-2.535527945,-2.001386404,9.446472168,-0.381099999,1.394825935,0.289635986,-1125.900024,-1.5,-942.9000244,-0.834427067,-0.255800597,0.208717512,NLR
16.4,-2.213727236,-1.8075881,9.526024818,-0.716467977,1.219519973,0.327746004,-1121.100098,-1.5,-930.9000244,-0.839313616,-0.230601655,0.191413188,NLR
16.43333333,-2.512200594,-1.940375805,8.568996429,-0.053353999,0.678357959,0.625003994,-1128.300049,-3.300000191,-930.9000244,-0.833967249,-0.273231741,0.218304217,ST
16.46666667,-2.983537197,-1.622163773,9.368115425,0.396344006,1.836901903,0.556405962,-1118.700073,0.300000012,-933.3000488,-0.846001771,-0.303154949,0.176670929,ST
16.5,-3.023612738,-1.201669216,8.091677666,1.333850026,1.242385983,1.326228023,-1118.700073,-0.900000036,-933.3000488,-0.856866166,-0.349852691,0.148512033,ST
16.53333333,-3.252103329,-1.375728846,8.752626419,1.509155989,2.111294031,2.218001842,-1113.900024,0.900000036,-942.9000244,-0.859376074,-0.355180469,0.151583944,ST
16.56666667,-3.685756922,-0.886447906,9.289758682,2.157026052,2.06556201,1.265251994,-1113.900024,-0.300000012,-923.7000122,-0.879550002,-0.377550376,0.096744978,ST
16.6,-3.765908241,-0.859531462,9.266430855,2.652456045,0.594515979,2.149404049,-1113.900024,-4.5,-933.3000488,-0.885609814,-0.384767152,0.087792946,ST
16.63333333,-3.599624395,-0.651975811,9.152783394,2.23324585,0.228659987,1.631107926,-1125.900024,-3.300000191,-938.1000366,-0.894891226,-0.375554464,0.068426378,ST
16.66666667,-3.081034422,-0.089123301,9.566100121,1.859767914,0.434453994,3.239349842,-1106.700073,-7.500000477,-942.9000244,-0.920852325,-0.321038209,0.012672458,ST
16.7,-2.397356987,-0.221911043,8.958387375,2.019829988,0.739333987,4.153989792,-1109.100098,-11.70000076,-935.7000122,-0.928945753,-0.270687724,0.018319976,ST
16.73333333,-3.170755863,-0.132189602,9.813732147,1.943609953,2.538125992,2.309465885,-1097.100098,-8.700000763,-930.9000244,-0.935948988,-0.31070051,0.010124302,ST
16.76666667,-2.569024086,0.074169725,9.826292992,2.446661949,1.562510014,0.731711984,-1101.900024,-7.500000477,-930.9000244,-0.941479009,-0.265488108,-0.009190446,ST
16.8,-3.011051655,-0.017346146,9.424939156,2.500015974,1.547266006,-0.510674,-1116.300049,-8.700000763,-928.500061,-0.936369877,-0.305660788,-0.003212222,DLR
16.83333333,-3.162381887,0.173461467,9.128259659,2.118916035,1.714949965,-2.187514067,-1106.700073,-7.500000477,-930.9000244,-0.932911739,-0.333187965,-0.019451147,DLR
16.86666667,-3.679177523,-0.107665733,8.493032455,1.463423967,1.105189919,-2.301843882,-1087.5,-8.700000763,-928.500061,-0.915589267,-0.400224312,0.007424868,DLR
16.9,-2.836394072,-0.556272984,7.725614548,0.53354001,0.503051996,-2.812517881,-1082.700073,-9.300000191,-926.1000366,-0.885927371,-0.35779752,0.064819218,DLR
16.93333333,-3.506314039,-0.820652127,7.783634663,-0.541162014,1.417691946,-2.759163857,-1089.900024,-2.100000143,-923.7000122,-0.863678115,-0.416164421,0.103402805,DLR
16.96666667,-4.312610626,-1.082638741,8.257363319,-1.44817996,0.945127964,-1.615863919,-1080.300049,-8.100000381,-926.1000366,-0.849136208,-0.471784841,0.130727331,DLR
17.0,-4.136756897,-1.735810876,8.805860519,-1.623485923,0.236281991,-1.562510014,-1077.900024,-4.5,-933.3000488,-0.821155423,-0.437284338,0.189735502,DLR
17.03333333,-3.923817873,-1.657454133,9.216785431,-0.42683199,-0.205793992,-1.379581928,-1089.900024,-9.300000191,-933.3000488,-0.821739284,-0.401558612,0.181005308,DLR
17.06666667,-3.709084511,-1.888337374,8.850721359,0.274392009,0.792688012,-0.998481989,-1082.700073,-5.100000381,-926.1000366,-0.808541313,-0.39155529,0.206581364,DLR
17.1,-3.049332857,-1.306344271,10.70556259,1.875011921,2.210379839,-1.737815976,-1068.300049,-5.700000286,-930.9000244,-0.826704136,-0.291066516,0.128361602,DLR
17.13333333,-1.668818831,-1.491768599,9.041528702,3.429899931,0.411587983,-2.515259981,-1075.5,-2.700000048,-930.9000244,-0.809900997,-0.192092293,0.155380364,DLR
17.16666667,-2.52057457,-2.01693821,8.007938385,4.420759678,1.34147191,-2.721053839,-1061.100098,-6.300000191,-930.9000244,-0.781413697,-0.283356659,0.228560619,DLR
17.2,-2.729326487,-1.602424979,9.061267853,4.474113941,1.74543798,-3.849109888,-1065.900024,-9.300000191,-918.9000244,-0.780855519,-0.289197638,0.177336121,DLR
17.23333333,-4.512988567,-1.236959696,10.09784985,5.091495991,2.820139885,-4.733262062,-1063.5,-15.30000019,-928.500061,-0.779782534,-0.403401757,0.125079198,DLR
17.26666667,-3.470425606,-0.766221166,10.1241684,7.743951797,0.175305992,-4.687530041,-1056.300049,-7.500000477,-928.500061,-0.778060238,-0.339006329,0.07301644,DLR
17.3,-4.410108089,-0.779978454,9.436902046,8.582371712,1.42531395,-5.510705948,-1044.300049,-12.30000019,-921.3000488,-0.75430103,-0.424314689,0.071758122,DLR
17.33333333,-3.945949078,-1.114340305,8.762794495,8.216515541,1.310984015,-6.524431705,-1041.900024,-20.70000076,-921.3000488,-0.710966402,-0.421746116,0.111220993,DLR
17.36666667,-3.995594978,0.733323276,9.85141468,6.791202068,1.8292799,-7.583889961,-1037.100098,-19.5,-911.7000122,-0.7489441,-0.392691295,-0.056867705,DLR
17.4,-3.093595505,0.197387174,8.00195694,6.105221748,1.387203932,-6.410101891,-1039.5,-21.30000114,-904.500061,-0.716975044,-0.374529072,-0.034350895,DLR
17.43333333,-3.564333916,-0.364269078,8.062369347,5.602169991,1.067080021,-5.792719841,-1013.100037,-12.30000019,-899.7000122,-0.670854368,-0.411939664,0.029538052,DLR
17.46666667,-5.170946121,0.04844958,8.373403549,4.824726105,2.690565825,-7.705842018,-1025.100098,-25.50000191,-899.7000122,-0.658884545,-0.538023424,-0.001387249,DLR
17.5,-5.053709984,-0.029309006,8.416469574,5.81558609,2.073184013,-5.198204041,-1013.100037,-21.90000153,-904.500061,-0.637340687,-0.543527557,-0.001226369,DLR
17.53333333,-5.002867699,0.062805012,8.524733543,7.225656033,0.990859985,-5.213448048,-1008.300049,-18.30000114,-902.1000366,-0.619713912,-0.534001155,-0.012780171,DLR
17.56666667,-4.791125298,-0.215929613,7.462431908,7.705842018,0.602137983,-5.42686367,-998.7000122,-19.5,-892.500061,-0.579363242,-0.56652642,0.016664841,DLR
17.6,-5.971859455,0.840988994,6.925299168,6.989373684,0.945127964,-4.199721813,-993.9000244,-26.70000076,-885.3000488,-0.630123355,-0.691082244,-0.105978455,DLR
17.63333333,-5.901278496,1.496553659,8.31418705,6.250040054,0.929883957,-1.04421401,-1008.300049,-30.30000114,-880.500061,-0.66070181,-0.622448989,-0.17723931,DLR
17.66666667,-4.644580364,0.885251582,7.241716862,4.512223721,0.236281991,-0.213415995,-1003.500061,-33.90000153,-866.1000366,-0.628035774,-0.573371989,-0.134184039,DLR
17.7,-5.300743103,1.983442068,8.740064621,3.704291821,0.137196004,-0.228659987,-977.1000366,-32.10000229,-873.3000488,-0.665860093,-0.539465658,-0.217684525,DLR
17.73333333,-5.757126331,1.927814841,8.280691147,3.018311977,0.015244,-0.754577994,-996.3000488,-32.10000229,-861.3000488,-0.666575503,-0.58795118,-0.23104474,DLR
17.76666667,-4.439417362,2.488274813,8.369814873,2.835383892,0.472563982,-1.532021999,-989.1000366,-37.5,-866.1000366,-0.686623136,-0.48759713,-0.284696855,DLR
17.8,-5.311509609,2.413506985,8.633595467,2.179892063,0.952749968,-2.553369999,-981.9000244,-27.90000153,-863.7000122,-0.672706886,-0.532321224,-0.275343643,DLR
17.83333333,-4.724133015,1.588069558,7.191473007,1.966475964,0.861285985,-3.650938034,-969.9000244,-37.5,-851.7000122,-0.632780744,-0.569282699,-0.222966352,DLR
17.86666667,-5.807370186,2.543303967,7.710062981,0.663114011,1.463423967,-5.144849777,-974.7000122,-30.90000153,-856.500061,-0.664779657,-0.618509977,-0.301500261,DLR
17.9,-4.610486031,1.168173194,7.379289627,-0.205793992,-0.327746004,-2.87349391,-960.3000488,-29.70000076,-863.7000122,-0.58622344,-0.562629377,-0.172540462,DLR
17.93333333,-5.806173801,1.455281854,7.5144701,-1.455801964,-0.373477995,-3.414655924,-974.7000122,-32.70000076,-856.500061,-0.585920011,-0.640045351,-0.182957696,DLR
17.96666667,-5.040550709,1.255502105,8.031864166,-1.265251994,-1.410069942,-1.501533985,-969.9000244,-36.90000153,-856.500061,-0.568078034,-0.564732688,-0.155043375,DLR
18.0,-3.899294138,-0.117236026,6.578376293,-1.791170001,-1.189031959,-2.17227006,-957.9000244,-26.70000076,-863.7000122,-0.482143581,-0.537337353,0.002927717,DLR
18.03333333,-5.207432747,1.092807174,8.313589096,-1.42531395,-0.548784018,-2.949713945,-953.1000366,-26.70000076,-858.9000244,-0.53423773,-0.553328185,-0.107471437,DLR
18.06666667,-3.91125679,-0.843381584,8.378787041,0.884151995,-1.63872993,-0.731711984,-974.7000122,-31.50000191,-863.7000122,-0.442131911,-0.446894668,0.076735717,DLR
18.1,-5.818136692,1.104171872,9.847826004,2.637212038,-1.265251994,-2.385685921,-962.7000122,-23.10000038,-866.1000366,-0.510329479,-0.520767438,-0.092311824,DLR
18.13333333,-4.936473846,0.084338158,9.139026642,3.018311977,-2.797273874,-0.823175967,-965.1000366,-23.10000038,-863.7000122,-0.4704513,-0.494701978,-0.02410067,DLR
18.16666667,-4.710375786,0.088525161,8.798683167,2.157026052,-2.538125992,-0.525918007,-953.1000366,-29.10000038,-861.3000488,-0.461654682,-0.488126973,-0.014759472,DLR
18.2,-4.405920982,1.346419811,8.469704628,1.23476398,-1.364337921,-0.899396002,-957.9000244,-22.5,-866.1000366,-0.516630371,-0.474496972,-0.143394516,DLR
18.23333333,-4.451379776,1.208248854,9.162354469,1.989341974,-1.097568035,1.814036012,-965.1000366,-28.50000191,-846.9000244,-0.515475606,-0.450044267,-0.136894776,DLR
18.26666667,-3.367544889,1.197482228,8.035452843,0.716467977,0.152439997,0.327746004,-977.1000366,-30.30000114,-858.9000244,-0.520039729,-0.400805642,-0.147780008,DLR
18.3,-4.74925518,1.363167882,8.798085213,0.29725799,0.952749968,0.571649969,-957.9000244,-25.50000191,-851.7000122,-0.524199935,-0.480113939,-0.153932295,DLR
18.33333333,-4.064381599,0.437242508,8.049808502,0.579271972,-0.137196004,2.888737917,-965.1000366,-30.30000114,-854.1000366,-0.492300476,-0.468136553,-0.068889543,DLR
18.36666667,-5.048924923,1.365560412,8.791505814,-0.91463995,-0.236281991,1.646351933,-967.500061,-32.10000229,-863.7000122,-0.533167116,-0.510048915,-0.143856985,DLR
18.4,-4.796508312,0.808689296,8.735877991,-1.562510014,-1.280496001,3.185995817,-969.9000244,-31.50000191,-863.7000122,-0.521428906,-0.499257408,-0.099389189,DLR
18.43333333,-4.885033607,1.052731633,9.462023735,-2.919225931,-0.647870004,3.125020027,-974.7000122,-24.30000114,-870.9000244,-0.536796462,-0.476015333,-0.107269366,DLR
18.46666667,-3.362759829,0.858335137,8.539687157,-2.271355867,-0.884151995,2.820139885,-979.500061,-24.90000153,-868.500061,-0.543895828,-0.383502769,-0.099237443,DLR
18.5,-4.16307497,0.529356539,8.256167412,-1.8292799,0.61738199,2.59910202,-977.1000366,-30.90000153,-875.7000122,-0.540293672,-0.455652564,-0.068059299,DLR
18.53333333,-4.350293636,1.181930542,8.263943672,-1.250007987,0.922261953,2.964957952,-977.1000366,-28.50000191,-858.9000244,-0.580503806,-0.478704874,-0.13449074,DLR
18.56666667,-3.856227636,0.977963746,7.519853592,-0.228659987,1.265251994,4.557955742,-991.500061,-30.30000114,-861.3000488,-0.592256255,-0.47253901,-0.133299192,DLR
18.6,-5.810958862,0.673509002,7.805167675,-0.899396002,3.582340002,2.804895878,-984.3000488,-27.30000114,-870.9000244,-0.581518701,-0.620560622,-0.09491658,DLR
18.63333333,-6.578974724,1.153817773,9.328039169,-0.167683989,3.399411917,2.736297846,-967.500061,-24.90000153,-868.500061,-0.604976546,-0.616662095,-0.122378623,DLR
18.66666667,-5.68833971,1.089816451,8.136538506,1.349093914,0.304879993,3.963439941,-977.1000366,-30.30000114,-861.3000488,-0.621343537,-0.606951332,-0.13808531,DLR
18.7,-5.700302601,1.303951621,8.054593086,0.121951997,0.609759986,1.265251994,-965.1000366,-30.30000114,-870.9000244,-0.636958208,-0.610131077,-0.159737273,DLR
18.73333333,-4.78215313,1.195089698,7.027581692,-0.640248001,-0.251525998,0.564027965,-979.500061,-29.10000038,-868.500061,-0.64347265,-0.592601096,-0.166998257,DLR
18.76666667,-4.80548048,1.275838971,8.089883804,-0.327746004,-0.42683199,1.471045971,-977.1000366,-34.5,-870.9000244,-0.642845383,-0.537987603,-0.158569752,DLR
18.8,-4.455566883,1.90149653,8.328542709,-0.053353999,-0.358233988,0.823175967,-972.3000488,-26.10000038,-858.9000244,-0.673137992,-0.487796092,-0.216316604,DLR
18.83333333,-5.781051636,0.927719772,8.473891258,0.152439997,-0.144817993,2.36281991,-986.7000122,-32.70000076,-863.7000122,-0.633039497,-0.580837619,-0.126915649,DLR
18.86666667,-5.532224178,1.69453907,9.426733017,-0.022865999,-0.152439997,1.310984015,-979.500061,-32.70000076,-863.7000122,-0.660843689,-0.529896456,-0.17325621,DLR
18.9,-4.768993855,2.004975319,8.875844002,-0.449698001,-0.777444005,1.44817996,-984.3000488,-29.10000038,-861.3000488,-0.6864841,-0.486195383,-0.217374851,DLR
18.93333333,-4.728320122,2.203558683,8.684437752,-0.152439997,-0.678357959,1.417691946,-984.3000488,-29.70000076,-861.3000488,-0.702938928,-0.484167278,-0.24533211,DLR
18.96666667,-4.644580364,1.229781985,7.594023228,-1.463423967,0.327746004,-0.106707998,-989.1000366,-31.50000191,-863.7000122,-0.667755905,-0.536452049,-0.16920096,DLR
19.0,-4.554858685,0.493467957,7.235735416,-2.08842802,0.945127964,-0.61738199,-989.1000366,-26.10000038,-863.7000122,-0.62085753,-0.559921305,-0.075304018,DLR
19.03333333,-5.452671528,0.544908226,8.232241631,-2.004585981,0.899396002,-0.815553963,-979.500061,-35.70000076,-868.500061,-0.61582716,-0.582187043,-0.063577609,DLR
19.06666667,-4.704992771,-0.236266479,8.594118118,0.213415995,-1.326228023,-0.289635986,-984.3000488,-34.5,-863.7000122,-0.567010789,-0.498793699,0.026972655,DLR
19.1,-4.896996498,-0.17764847,9.154578209,0.678357959,-1.402447939,-1.272873998,-981.9000244,-24.90000153,-882.9000244,-0.566057935,-0.489994221,0.020403008,DLR
19.13333333,-3.634914875,0.318212062,8.301028252,2.25611186,-2.393307924,-1.242385983,-984.3000488,-23.70000076,-868.500061,-0.583485683,-0.419399168,-0.033110233,DLR
19.16666667,-4.142738342,0.658555388,8.117398262,2.042695999,-1.814036012,-1.532021999,-981.9000244,-24.30000114,-868.500061,-0.595089892,-0.461113824,-0.07620054,DLR
19.2,-3.997389555,0.215331465,8.632997513,1.364337921,-0.655492008,0.739333987,-986.7000122,-30.30000114,-875.7000122,-0.57685324,-0.435993344,-0.033866441,DLR
19.23333333,-5.395249367,0.988730311,9.879527092,1.074702024,0.114329994,0.571649969,-981.9000244,-26.10000038,-868.500061,-0.603193836,-0.489582694,-0.092640286,DLR
19.26666667,-3.493753195,0.513206661,9.323254585,2.202757835,-0.503051996,1.844523907,-998.7000122,-26.10000038,-861.3000488,-0.593389928,-0.374845403,-0.064218299,DLR
19.3,-3.550576687,1.283016682,9.193457603,2.408551931,-0.373477995,0.503051996,-974.7000122,-27.30000114,-878.1000366,-0.616853579,-0.36606292,-0.132522111,DLR
19.33333333,-4.294068336,0.876279473,9.075025558,2.278977871,-0.259148002,-0.434453994,-974.7000122,-27.90000153,-863.7000122,-0.596259527,-0.439505625,-0.100000862,DLR
19.36666667,-4.330554962,0.774595141,8.723317146,1.890255928,-0.327746004,-2.301843882,-977.1000366,-37.5,-866.1000366,-0.583495098,-0.456769791,-0.09107512,DLR
19.4,-4.227674484,0.71298641,8.070743561,1.478667974,-0.335367978,-1.821658015,-979.500061,-33.30000305,-870.9000244,-0.575203742,-0.478263113,-0.089247931,DLR
19.43333333,-4.393360138,0.860727727,8.111416817,0.274392009,0.144817993,-0.647870004,-986.7000122,-33.30000305,-863.7000122,-0.579821852,-0.492240016,-0.103383085,DLR
19.46666667,-4.117018223,1.588069558,8.080911636,0.251525998,-0.259148002,0.487807989,-974.7000122,-31.50000191,-870.9000244,-0.617638565,-0.466841383,-0.183537888,DLR
19.5,-4.437622547,-0.25181818,7.291362762,-0.480185986,1.067080021,1.890255928,-974.7000122,-30.90000153,-866.1000366,-0.533210873,-0.53839928,0.002837396,DLR
19.53333333,-6.510786057,1.360775232,9.378881454,-0.487807989,1.661595941,2.187514067,-972.3000488,-28.50000191,-856.500061,-0.608215035,-0.596070012,-0.124986759,DLR
19.56666667,-5.396445751,1.311129451,9.601988792,1.722571969,-0.099086002,4.687530041,-981.9000244,-30.90000153,-846.9000244,-0.625475397,-0.518819095,-0.141001922,DLR
19.6,-4.187598705,1.375728846,7.538993835,2.240867853,-0.663114011,3.391789913,-986.7000122,-36.90000153,-866.1000366,-0.650846632,-0.500383937,-0.182139407,DLR
19.63333333,-4.940063,1.701118588,8.145510674,0.602137983,-0.365855992,2.484771967,-979.500061,-33.90000153,-868.500061,-0.667462084,-0.52968704,-0.20558246,DLR
19.66666667,-5.729013443,2.740691185,9.097754478,0.61738199,-1.890255928,3.498497963,-984.3000488,-33.30000305,-866.1000366,-0.713756051,-0.536877627,-0.284198606,DLR
19.7,-5.269639492,2.61448288,7.897281647,-0.838419974,-2.286599874,4.169233799,-981.9000244,-33.90000153,-858.9000244,-0.739944963,-0.555725907,-0.316585176,DLR
19.73333333,-5.932382107,2.082135677,7.012030125,-4.687530041,-2.134160042,4.344540119,-991.500061,-30.30000114,-854.1000366,-0.74058835,-0.659348599,-0.289558199,DLR
19.76666667,-6.386372566,1.980451345,9.693505287,-7.385717869,-2.141782045,7.256144047,-991.500061,-33.30000305,-875.7000122,-0.721137967,-0.579383723,-0.208435516,DLR
19.8,-3.788039446,2.264569283,8.945228577,-6.783579826,-4.839970112,10.24396801,-1025.100098,-27.90000153,-880.500061,-0.770762471,-0.398933849,-0.239830072,DLR
19.83333333,-4.038063049,0.558665514,6.99169302,-8.460419655,-3.315569878,7.621999741,-1029.900024,-29.70000076,-890.1000366,-0.737120716,-0.502897602,-0.090729748,DLR
19.86666667,-4.886229992,1.477413177,8.794496536,-9.62658596,0.190549999,5.602169991,-1034.700073,-24.90000153,-890.1000366,-0.791225548,-0.500843503,-0.146269507,DLR
19.9,-2.859123468,1.019833803,8.570192337,-8.544261932,-0.91463995,9.100667953,-1041.900024,-23.70000076,-890.1000366,-0.813406976,-0.337831883,-0.113666538,DLR
19.93333333,-3.63132596,0.413914949,6.257771969,-7.660109997,-0.060975999,8.64334774,-1051.5,-19.5,-894.9000244,-0.826462929,-0.498180565,-0.067857149,DLR
19.96666667,-3.88075161,-0.790146887,7.951114655,-9.580853462,0.571649969,10.86897182,-1046.700073,-22.5,-918.9000244,-0.797178403,-0.46065028,0.08311251,DLR
20.0,-3.917836428,-1.36496222,8.683241844,-9.458901405,-0.182927996,9.154022217,-1051.5,-12.90000057,-918.9000244,-0.802766683,-0.426228623,0.154931092,DLR
20.03333333,-3.155204058,-1.842280388,9.767076492,-8.689080238,-2.157026052,9.03207016,-1051.5,-13.50000095,-921.3000488,-0.823733246,-0.322727538,0.190377061,DLR
20.06666667,-2.780168533,-2.110248327,9.837059021,-7.233277798,-2.301843882,5.495461941,-1073.100098,-12.90000057,-926.1000366,-0.838134672,-0.275128339,0.216828037,DLR
20.1,-3.222196102,-1.18133235,9.74135685,-4.580821991,-1.471045971,2.896359921,-1061.100098,-12.30000019,-921.3000488,-0.872880773,-0.310248106,0.139341114,DLR
20.13333333,-2.606108904,-3.107352734,8.558229446,-3.902463913,-1.173787951,4.817103863,-1077.900024,-7.500000477,-921.3000488,-0.83571156,-0.284041987,0.323737422,DLR
20.16666667,-2.752653837,-1.819550872,10.32454586,-3.468009949,-0.221037999,0.472563982,-1087.5,-11.70000076,-918.9000244,-0.873305151,-0.26063842,0.199516789,DLR
20.2,-2.782561064,-1.505525827,8.804066658,-1.371959925,-1.653973937,2.317087889,-1085.100098,-8.700000763,-911.7000122,-0.888413128,-0.294594575,0.17442029,DLR
20.23333333,-3.712075233,-2.174249649,9.512268066,-0.967993975,0.083841994,3.346057892,-1077.900024,-9.300000191,-914.1000366,-0.884455214,-0.355377346,0.217476951,DLR
20.26666667,-4.240235329,-2.036676884,10.61584187,-0.579271972,0.060975999,3.330813885,-1080.300049,-8.100000381,-930.9000244,-0.902736244,-0.37242548,0.192324065,DLR
20.3,-2.833403349,-1.414608121,9.878331184,0.449698001,-1.34147191,2.393307924,-1077.900024,-6.300000191,-930.9000244,-0.924804546,-0.286298366,0.145977967,DLR
20.33333333,-2.432647467,-2.030097246,6.913934708,1.036592007,-1.714949965,2.865871906,-1075.5,-8.100000381,-930.9000244,-0.897596548,-0.319090413,0.263305147,DLR
20.36666667,-4.833593369,-1.859626532,8.659914017,-1.333850026,2.743919849,1.676839948,-1104.300049,-5.100000381,-928.500061,-0.918327274,-0.479567873,0.220524994,DLR
20.4,-2.627642155,-1.470235467,8.449965477,-1.036592007,0.29725799,1.440557957,-1077.900024,0.300000012,-933.3000488,-0.939282705,-0.322724421,0.179271817,DLR
20.43333333,-4.638000488,-1.350008726,7.220183849,-0.586893976,1.897877932,2.073184013,-1068.300049,-6.900000095,-930.9000244,-0.942727778,-0.535907128,0.183759974,DLR
20.46666667,-3.749160051,-1.062301874,9.381274223,-0.632625997,2.118916035,2.042695999,-1077.900024,-6.900000095,-930.9000244,-0.976244018,-0.402965632,0.121527625,DLR
20.5,-3.111539841,-0.469542235,8.422451019,1.089946032,-0.815553963,2.804895878,-1080.300049,-6.900000095,-918.9000244,-1.006083377,-0.358250135,0.059842158,DLR
20.53333333,-2.859721661,-0.534739792,7.393645287,1.158543944,-1.34147191,2.278977871,-1070.700073,-7.500000477,-926.1000366,-1.008578372,-0.365051616,0.067413184,DLR
20.56666667,-5.843258858,-0.492869794,9.728197098,-0.358233988,2.408551931,1.730193973,-1077.900024,-6.900000095,-940.500061,-1.019595625,-0.520175973,0.0524583,DLR
20.6,-4.343116283,-0.140563592,10.05777359,-0.015244,0.091463998,2.294221878,-1089.900024,-6.900000095,-914.1000366,-1.042183303,-0.420882981,0.016621829,DLR
20.63333333,-4.54229784,-0.616087258,8.737074852,-0.282013983,0.076219998,3.338435888,-1080.300049,-4.5,-928.500061,-1.032097371,-0.471066129,0.060870742,DLR
20.66666667,-3.919631004,-0.385204077,8.908143044,-0.838419974,1.524399996,1.493911982,-1075.5,-3.900000095,-926.1000366,-1.043333654,-0.4242589,0.045816976,DLR
20.7,-4.032081604,-0.104076877,9.168335915,-0.609759986,0.327746004,1.013725996,-1053.900024,-6.300000191,-923.7000122,-1.05875637,-0.416203657,0.016233656,DLR
20.73333333,-4.060792446,-0.10288059,8.886610031,-0.137196004,-0.693601966,1.478667974,-1070.700073,-11.10000038,-930.9000244,-1.064800889,-0.425904863,0.011403249,DLR
20.76666667,-4.311414719,-0.533543527,9.45604229,-0.40396598,-0.015244,1.722571969,-1080.300049,-2.100000143,-921.3000488,-1.05389028,-0.42717915,0.050942399,DLR
20.8,-3.784450531,-0.169274464,8.685633659,-0.060975999,-0.929883957,0.72408998,-1075.5,-0.900000036,-933.3000488,-1.067209376,-0.411696432,0.023304124,DLR
20.83333333,-2.413506985,-0.145348743,8.698195457,0.083841994,-1.532021999,0.678357959,-1070.700073,-5.700000286,-923.7000122,-1.07119301,-0.287360208,0.01714026,DLR
20.86666667,-5.074645042,-0.566441417,8.18977356,-0.754577994,1.006103992,1.097568035,-1087.5,-6.300000191,-926.1000366,-1.057411159,-0.518654953,0.061634567,DLR
20.9,-4.117616177,-0.827829897,9.105530739,-0.335367978,0.899396002,1.105189919,-1058.700073,-5.700000286,-933.3000488,-1.048922292,-0.434173321,0.087697029,DLR
20.93333333,-4.389173031,-0.859531462,8.439797401,0.327746004,-0.045731999,0.282013983,-1063.5,-9.300000191,-918.9000244,-1.044216394,-0.472772475,0.099248849,DLR
20.96666667,-4.637402534,-1.242342949,8.815430641,0.243903995,0.945127964,-1.097568035,-1065.900024,-3.300000191,-921.3000488,-1.023537653,-0.480704785,0.136220301,DLR
21.0,-4.788134575,-0.952841759,9.122876167,0.381099999,-0.312501997,-1.836901903,-1070.700073,-3.300000191,-935.7000122,-1.030876314,-0.480270938,0.108381901,DLR
21.03333333,-2.446404696,-1.779475331,6.871466637,0.731711984,-1.493911982,-0.647870004,-1058.700073,-5.700000286,-933.3000488,-0.978100497,-0.349999409,0.234024716,ST
21.06666667,-5.053709984,-1.15561223,9.162354469,-0.556405962,1.265251994,-2.888737917,-1073.100098,-5.700000286,-930.9000244,-1.006954176,-0.481672823,0.144396301,ST
21.1,-3.560745001,-1.434346795,9.415966988,-0.060975999,-0.762199998,-1.250007987,-1065.900024,-0.300000012,-938.1000366,-1.001270346,-0.373020508,0.151148701,ST
21.13333333,-3.372330189,-1.844672918,7.352971554,-0.358233988,-0.53354001,-1.211897969,-1053.900024,-2.100000143,-930.9000244,-0.967106465,-0.411392522,0.234003506,ST
21.16666667,-4.590747356,-1.756147742,9.600792885,-0.29725799,0.381099999,-1.95885396,-1073.100098,-11.10000038,-942.9000244,-0.980308681,-0.435884958,0.190012287,ST
21.2,-4.691833496,-1.777680874,9.566699028,0.358233988,-0.251525998,-1.585376024,-1080.300049,-6.300000191,-928.500061,-0.978022059,-0.446665112,0.185124852,ST
21.23333333,-4.501025677,-1.681379914,8.643764496,0.960371971,-1.478667974,-2.019829988,-1070.700073,-9.300000191,-926.1000366,-0.969803338,-0.466264389,0.190995001,ST
21.26666667,-4.543494225,-1.670613289,9.657616615,0.510674,-1.067080021,-2.248489857,-1075.5,0.900000036,-940.500061,-0.970765382,-0.43528193,0.174072769,ST
21.3,-2.050434113,-1.47322619,8.579164505,0.350611985,-2.812517881,-1.974097967,-1070.700073,-2.700000048,-930.9000244,-0.96704233,-0.246619828,0.170667243,ST
21.33333333,-3.255692244,-1.577901125,7.397233963,-0.137196004,-1.928365946,-1.288118005,-1085.100098,-5.700000286,-918.9000244,-0.954008241,-0.381471457,0.205263891,ST
21.36666667,-4.561438084,-1.966694117,7.589238167,-1.059458017,1.349093914,0.342989981,-1073.100098,-8.700000763,-930.9000244,-0.936897278,-0.509237166,0.248247803,ST
21.4,-4.231263161,-1.077255487,9.604381561,-0.571649969,0.121951997,1.661595941,-1075.5,-6.300000191,-926.1000366,-0.995689603,-0.426663723,0.129115262,ST
21.43333333,-4.535717964,-1.497151852,7.786026955,0.93750596,-0.236281991,3.856731892,-1073.100098,0.300000012,-930.9000244,-0.982845562,-0.507707653,0.176834943,ST
21.46666667,-5.525644779,-1.245931864,9.39682579,1.120433927,1.562510014,2.888737917,-1073.100098,-5.100000381,-930.9000244,-1.008997184,-0.528060933,0.133968954,ST
21.5,-4.530334949,-0.540721238,9.094763756,2.782029867,-0.922261953,2.378063917,-1075.5,-3.300000191,-926.1000366,-1.046959601,-0.466944627,0.060235175,ST
21.53333333,-3.561343193,-0.083740018,8.548061371,2.705809832,-1.42531395,1.250007987,-1075.5,-8.100000381,-933.3000488,-1.067638644,-0.402403266,0.011516277,ST
21.56666667,-4.090101719,0.089123301,7.469011307,1.905499935,-0.29725799,0.746955991,-1085.100098,-0.300000012,-926.1000366,-1.077359659,-0.487157072,-0.012055949,ST
21.6,-3.246720076,0.259594053,8.591127396,0.998481989,0.060975999,-0.320124,-1080.300049,-6.900000095,-930.9000244,-1.082533968,-0.378261556,-0.029123092,ST
21.63333333,-3.552371025,0.138171032,8.350075722,0.861285985,-0.960371971,-0.457319975,-1077.900024,-7.500000477,-930.9000244,-1.076585636,-0.397523657,-0.019263139,ST
21.66666667,-4.003370762,-0.250023752,9.483556747,0.42683199,-1.455801964,-0.419209987,-1073.100098,-9.300000191,-926.1000366,-1.059887251,-0.396919922,0.019801106,ST
21.7,-4.917931557,-0.593955994,9.092969894,-0.243903995,-0.396344006,-0.884151995,-1073.100098,-11.70000076,-928.500061,-1.040918345,-0.480988371,0.059854855,ST
21.73333333,-3.926210403,-0.82603544,9.616942406,-0.93750596,-0.754577994,-1.265251994,-1075.5,-5.100000381,-918.9000244,-1.028385031,-0.397798852,0.084565541,ST
21.76666667,-3.88075161,-1.175949097,8.424245834,-1.082324028,-1.265251994,-0.525918007,-1082.700073,-11.70000076,-930.9000244,-1.009249788,-0.422007837,0.133171575,ST
21.8,-3.289188147,-1.22619307,8.345889091,-0.716467977,0.045731999,-1.509155989,-1087.5,0.900000036,-930.9000244,-1.000982001,-0.378303184,0.146205366,ST
21.83333333,-4.386780739,-1.500142574,7.976236343,-0.609759986,0.884151995,-0.487807989,-1080.300049,-3.300000191,-935.7000122,-0.985314064,-0.480799046,0.18169689,ST
21.86666667,-2.796916485,-0.955832481,9.314282417,0.083841994,-0.853663981,-1.189031959,-1075.5,-3.300000191,-935.7000122,-1.009592619,-0.309205981,0.110811017,ST
21.9,-2.72992444,-1.412813663,7.374504566,1.379581928,-1.592997909,-0.320124,-1073.100098,-3.900000095,-935.7000122,-0.987109167,-0.341036675,0.176477753,ST
21.93333333,-3.754543543,-1.710090756,8.534901619,0.876529992,0.823175967,-1.097568035,-1080.300049,-6.300000191,-926.1000366,-0.976466661,-0.399174907,0.194245203,ST
21.96666667,-4.66192627,-1.511507273,9.615148544,0.602137983,0.038109999,-0.884151995,-1070.700073,-2.700000048,-926.1000366,-0.987103149,-0.440585801,0.160531893,ST
22.0,-2.988322258,-1.780671597,8.00195694,0.891773999,-1.74543798,0.106707998,-1085.100098,-6.900000095,-926.1000366,-0.967870038,-0.358437541,0.210288813,ST
22.03333333,-4.649963379,-1.93439436,9.536791801,-0.091463998,-0.099086002,-0.876529992,-1077.900024,0.900000036,-940.500061,-0.968844498,-0.433519048,0.202272716,ST
22.06666667,-3.913051367,-1.84048593,10.65412235,0.076219998,-0.891773999,-0.434453994,-1065.900024,-3.300000191,-933.3000488,-0.978511249,-0.357442901,0.175211111,ST
22.1,-2.805290461,-1.359578967,8.820814133,1.067080021,-1.897877932,-0.647870004,-1089.900024,-5.700000286,-928.500061,-0.983404209,-0.308690736,0.154461713,ST
22.13333333,-3.177335501,-1.565938354,8.856104851,1.379581928,-0.53354001,-0.228659987,-1087.5,-8.700000763,-930.9000244,-0.976792112,-0.334585164,0.170193203,ST
22.16666667,-3.206644535,-1.174154639,9.30291748,1.12805593,0.739333987,-1.158543944,-1080.300049,-6.900000095,-930.9000244,-0.985282002,-0.331091073,0.130511826,ST
22.2,-2.499639511,-0.725547433,8.679652214,1.996963978,-1.112811923,-0.663114011,-1082.700073,-1.5,-933.3000488,-0.995286036,-0.284692933,0.0869216,ST
22.23333333,-4.154102802,-1.244735479,9.471593857,0.868907988,0.83079797,-0.114329994,-1089.900024,1.5,-928.500061,-0.981773536,-0.394390796,0.123319081,ST
22.26666667,-3.130680323,-1.296773911,8.388955116,1.067080021,-0.030487999,-0.182927996,-1077.900024,-3.900000095,-940.500061,-0.971137208,-0.358807753,0.147872444,ST
22.3,-4.503418446,-1.129293919,8.977527618,0.365855992,1.326228023,-0.487807989,-1075.5,-12.30000019,-928.500061,-0.976679733,-0.449734117,0.128278845,ST
22.33333333,-4.299451828,-1.055124164,9.187476158,0.861285985,0.647870004,-0.579271972,-1077.900024,-5.100000381,-928.500061,-0.979457796,-0.438020152,0.115376272,ST
22.36666667,-4.618860245,-0.833811283,8.686232567,1.219519973,0.160062,-0.144817993,-1073.100098,5.700000286,-926.1000366,-0.985879092,-0.482199347,0.095913788,ST
22.4,-4.379004478,-0.424083352,8.098258018,0.792688012,0.060975999,1.714949965,-1065.900024,-0.900000036,-928.500061,-1.008004992,-0.493681371,0.055672183,ST
22.43333333,-3.651662827,-0.104675017,9.026576042,0.487807989,0.236281991,3.269837856,-1089.900024,-2.100000143,-921.3000488,-1.034997977,-0.39661661,0.013160665,ST
22.46666667,-3.258084774,-0.331371218,8.226260185,1.318606019,-0.076219998,4.02441597,-1073.100098,-13.50000095,-933.3000488,-1.037094453,-0.379579483,0.032192188,ST
22.5,-3.709682703,-0.209350035,8.372805595,1.021348,1.493911982,2.515259981,-1082.700073,-5.100000381,-911.7000122,-1.046946953,-0.415680246,0.022428629,NLR
22.53333333,-4.589550972,-0.21652776,10.08768082,0.838419974,1.219519973,1.059458017,-1058.700073,-14.10000038,-930.9000244,-1.049952197,-0.427501842,0.01955781,NLR
22.56666667,-4.00097847,0.14594689,9.457837105,1.646351933,-0.007622,0.411587983,-1061.100098,-9.900000572,-916.500061,-1.062603127,-0.403586403,-0.013873367,NLR
22.6,-4.667907715,0.041271865,10.11639214,1.74543798,0.091463998,-1.250007987,-1061.100098,-9.900000572,-918.9000244,-1.054583829,-0.42858603,-0.007206332,NLR
22.63333333,-3.59125042,0.421092659,8.732887268,1.814036012,-0.769822001,-1.608241916,-1063.5,-13.50000095,-930.9000244,-1.063080137,-0.393938948,-0.044412134,NLR
22.66666667,-2.73710227,0.081347443,7.873355865,0.960371971,-1.059458017,-2.141782045,-1070.700073,-8.100000381,-928.500061,-1.045387285,-0.34045132,-0.014749911,NLR
22.7,-4.371228695,-0.604722559,7.675370693,0.449698001,0.373477995,-3.414655924,-1075.5,-3.900000095,-926.1000366,-1.001269919,-0.496216589,0.068887638,NLR
22.73333333,-3.4548738,-0.560459971,9.188074112,1.013725996,0.274392009,-3.727157831,-1070.700073,-1.5,-928.500061,-0.991589486,-0.372654953,0.062579027,NLR
22.76666667,-3.012846231,-1.227389336,8.484060287,2.743919849,-0.411587983,-3.818621874,-1068.300049,-10.5,-928.500061,-0.954804648,-0.34151039,0.130781849,NLR
22.8,-3.838283539,-1.057516813,9.131848335,3.307947874,0.091463998,-5.487839699,-1061.100098,-7.500000477,-921.3000488,-0.942095959,-0.38738534,0.115691526,NLR
22.83333333,-3.225785017,-1.165780663,9.307703018,4.306429863,-0.442075998,-5.228692055,-1073.100098,-7.500000477,-921.3000488,-0.921842842,-0.336611592,0.119794544,NLR
22.86666667,-3.09718442,-0.994711757,8.734084129,4.855214119,-0.716467977,-5.396375656,-1070.700073,-18.90000153,-921.3000488,-0.90565166,-0.336476298,0.109603771,NLR
22.9,-4.68106699,-1.272848248,8.597706795,3.955817938,-0.007622,-4.153989792,-1061.100098,-8.100000381,-921.3000488,-0.878862342,-0.471787042,0.138541863,NLR
22.93333333,-3.89032197,-0.938486338,9.628905296,2.378063917,0.769822001,-4.489357948,-1051.5,-9.300000191,-911.7000122,-0.879462685,-0.394805096,0.101972111,NLR
22.96666667,-4.274329662,-0.761435986,10.10682201,2.782029867,-0.594515979,-1.592997909,-1053.900024,-5.700000286,-911.7000122,-0.882143649,-0.397515401,0.074747112,NLR
23.0,-2.705998898,-1.313521981,8.684437752,4.062525749,-1.120433927,-3.262215853,-1061.100098,-14.70000076,-923.7000122,-0.84734439,-0.308052704,0.137050182,NLR
23.03333333,-3.304739952,-0.309239924,10.06315708,3.140264034,-0.121951997,-4.603687763,-1051.5,-14.10000038,-911.7000122,-0.860542195,-0.315719169,0.039606795,NLR
23.06666667,-2.712578297,-1.705305576,8.300430298,6.036623955,-2.240867853,-5.464973927,-1051.5,-12.90000057,-916.500061,-0.798744778,-0.306447571,0.175438743,NLR
23.1,-1.754951477,-0.462962657,9.804161072,7.911635876,-2.218001842,-8.132674217,-1049.100098,-14.10000038,-918.9000244,-0.801029361,-0.190176745,0.054800651,NLR
23.13333333,-4.45975399,0.378026366,9.162354469,9.702805519,-0.411587983,-11.96653938,-1051.5,-18.90000153,-911.7000122,-0.786548704,-0.416468252,-0.034713764,NLR
23.16666667,-3.301749229,0.507823408,8.970350266,13.12508392,-0.701223969,-8.094563484,-1041.900024,-29.70000076,-897.3000488,-0.76347215,-0.360505246,-0.068633551,NLR
23.2,-4.133167744,0.349913627,7.769877434,12.94215584,0.152439997,-8.589993477,-1037.100098,-27.30000114,-899.7000122,-0.722981775,-0.472228379,-0.061839435,NLR
23.23333333,-5.016624928,1.905683517,8.805262566,11.35678005,1.303362012,-5.259180069,-1022.700012,-21.90000153,-887.7000122,-0.762065246,-0.508042142,-0.210042635,NLR
23.26666667,-4.429846764,2.065985918,8.521144867,10.23634624,0.350611985,-2.964957952,-1010.700012,-36.90000153,-880.500061,-0.757800947,-0.474104563,-0.248192431,NLR
23.3,-4.739086628,2.670110226,7.244707584,6.265284061,0.960371971,-1.753059983,-1015.500061,-42.90000153,-878.1000366,-0.793459166,-0.542567981,-0.346607492,NLR
23.33333333,-5.480783939,3.27842164,8.816029549,3.711913824,1.486289978,0.266770005,-1008.300049,-32.70000076,-861.3000488,-0.797276414,-0.531584239,-0.361041675,NLR
23.36666667,-4.393958092,3.762319326,8.660511971,3.117398024,0.327746004,1.623485923,-1003.500061,-33.90000153,-861.3000488,-0.820460547,-0.446218501,-0.410406339,NLR
23.4,-4.237244606,2.720354319,8.075528145,0.792688012,0.510674,0.365855992,-1010.700012,-36.90000153,-856.500061,-0.788434852,-0.460396886,-0.336499585,NLR
23.43333333,-4.736694336,3.414200068,9.060669899,0.236281991,0.83079797,-0.632625997,-1022.700012,-41.10000229,-856.500061,-0.796529927,-0.457222321,-0.35727619,NLR
23.46666667,-4.62902832,2.724541187,7.748942375,-0.769822001,0.396344006,-1.295740008,-1017.900024,-41.70000076,-851.7000122,-0.785601603,-0.508902714,-0.337901018,NLR
23.5,-5.869576931,3.104362011,8.121584892,-2.439039946,0.228659987,-0.464941978,-1010.700012,-30.30000114,-849.3000488,-0.798424793,-0.582882144,-0.357154149,NLR
23.53333333,-6.813446522,3.301749229,8.452358246,-7.157057762,0.609759986,1.974097967,-1003.500061,-34.5,-858.9000244,-0.81768368,-0.635585595,-0.361616213,NLR
23.56666667,-6.005355358,3.087015867,8.618641853,-11.31104755,0.350611985,7.035105705,-996.3000488,-34.5,-856.500061,-0.83762344,-0.584938035,-0.336137746,NLR
23.6,-4.505811214,1.812971354,6.951019287,-13.52904987,-2.347575903,12.15709019,-1005.900024,-29.70000076,-885.3000488,-0.84201428,-0.555303097,-0.256083701,NLR
23.63333333,-4.768395901,0.708799422,6.809259415,-16.89797401,-1.753059983,17.58395386,-1034.700073,-24.30000114,-892.500061,-0.834829878,-0.595659651,-0.1151801,NLR
23.66666667,-2.038471222,-1.083236933,7.308709145,-18.59767914,-2.57623601,22.12666512,-1046.700073,-20.70000076,-899.7000122,-0.809771008,-0.307769566,0.135376197,NLR
23.7,-2.850749493,-1.865009785,8.605483055,-18.47572708,0.335367978,15.57174587,-1056.300049,-13.50000095,-916.500061,-0.842256969,-0.317802734,0.224191715,NLR
23.73333333,-2.583977699,-2.262176752,10.43101501,-15.67083168,0.708845973,14.85527802,-1063.5,-8.700000763,-923.7000122,-0.892011799,-0.254597757,0.232587465,NLR
23.76666667,-2.127594471,-2.236456633,10.82220078,-9.733293533,0.175305992,8.589993477,-1061.100098,-4.5,-923.7000122,-0.92461865,-0.202058818,0.219555423,NLR
23.8,-2.877067804,-2.265167475,9.804759979,-6.836933613,-0.083841994,6.92077589,-1080.300049,-9.900000572,-926.1000366,-0.944848176,-0.270364447,0.233711076,NLR
23.83333333,-2.441619635,-3.06428647,8.586940765,-4.855214119,0.510674,4.489357948,-1080.300049,-0.900000036,-940.500061,-0.933618361,-0.265784116,0.333650436,NLR
23.86666667,-4.710375786,-2.634221554,8.504995346,-3.437521935,2.461905956,2.698187828,-1077.900024,-3.900000095,-930.9000244,-0.951743082,-0.467427471,0.308601387,NLR
23.9,-3.929799318,-2.749065161,9.584044456,-3.376545906,1.821658015,2.721053839,-1082.700073,0.900000036,-923.7000122,-0.971000151,-0.390013649,0.286424502,NLR
23.93333333,-4.882042885,-2.067780256,9.070240021,-2.339953899,0.381099999,2.903981924,-1051.5,-3.300000191,-930.9000244,-1.002589109,-0.472345297,0.234503103,NLR
23.96666667,-3.999782085,-2.135370493,8.432021141,-0.716467977,-0.792688012,3.300325871,-1058.700073,-2.700000048,-930.9000244,-1.007724361,-0.436626388,0.244887284,NLR
24.0,-3.107352734,-1.670613289,8.763392448,-0.236281991,-1.608241916,2.652456045,-1058.700073,-1.5,-930.9000244,-1.035571565,-0.346311435,0.193896263,NLR
24.03333333,-3.052921772,-1.503133297,8.235830307,0.144817993,-1.814036012,2.896359921,-1070.700073,0.900000036,-930.9000244,-1.048947111,-0.347341233,0.180226376,NLR
24.06666667,-3.802993059,-1.391878724,7.896085262,0.342989981,-1.661595941,2.484771967,-1065.900024,0.300000012,-935.7000122,-1.058586839,-0.428103839,0.172990324,NLR
24.1,-3.643887043,-1.07546103,8.572585106,0.487807989,-0.701223969,2.568614006,-1065.900024,-5.700000286,-928.500061,-1.082835079,-0.402561783,0.128785788,NLR
24.13333333,-3.707888365,-1.272848248,7.441496849,0.304879993,-1.158543944,2.926847935,-1073.100098,1.5,-938.1000366,-1.077297225,-0.449215648,0.161866682,NLR
24.16666667,-4.064381599,-1.527058959,9.207813263,0.060975999,0.495429993,2.439039946,-1075.5,-1.5,-928.500061,-1.083291649,-0.416865084,0.162356183,NLR
24.2,-5.172142506,-1.012656093,9.499108315,0.076219998,-0.564027965,1.821658015,-1068.300049,-2.700000048,-926.1000366,-1.109761538,-0.485039503,0.112557385,NLR
24.23333333,-4.61766386,-1.038974285,9.456640244,0.251525998,-0.762199998,3.391789913,-1075.5,-6.900000095,-933.3000488,-1.120886408,-0.455766199,0.106877556,NLR
24.26666667,-3.683962584,-0.923532724,9.424340248,0.40396598,-1.387203932,3.254593849,-1080.300049,-3.900000095,-938.1000366,-1.134587879,-0.37845053,0.095858552,NLR
24.3,-3.718056679,-0.723154843,8.827393532,0.472563982,-0.236281991,2.621968031,-1089.900024,-11.70000076,-933.3000488,-1.147345009,-0.395383428,0.080835639,NLR
24.33333333,-2.820842266,-0.840988994,9.424340248,0.777444005,-0.716467977,1.63872993,-1085.100098,-2.100000143,-935.7000122,-1.149440448,-0.303122399,0.085943741,NLR
24.36666667,-4.4412117,-0.668723822,9.314282417,0.510674,0.251525998,0.952749968,-1085.100098,-11.10000038,-940.500061,-1.156256512,-0.425272953,0.072396175,NLR
24.4,-4.438818932,-0.768015563,9.128857613,0.838419974,-1.173787951,-0.030487999,-1070.700073,-1.5,-940.500061,-1.151744772,-0.445925697,0.081043374,NLR
24.43333333,-2.880058289,-0.770408154,9.082800865,0.221037999,0.510674,0.846041977,-1073.100098,-0.300000012,-933.3000488,-1.152928227,-0.321926785,0.083519096,NLR
24.46666667,-3.77009511,-1.076059222,8.155080795,0.663114011,-0.213415995,0.510674,-1082.700073,-12.30000019,-935.7000122,-1.139217007,-0.415985887,0.123621211,NLR
24.5,-4.384985924,-0.859531462,7.93077755,0.487807989,2.042695999,0.350611985,-1068.300049,-0.300000012,-930.9000244,-1.145165533,-0.493986859,0.109356361,NLR
24.53333333,-4.889818668,-1.301559091,8.643764496,0.525918007,0.655492008,-0.091463998,-1094.700073,-6.900000095,-926.1000366,-1.127651682,-0.508866933,0.143357493,ST
24.56666667,-4.125990391,-1.213033915,8.595912933,0.464941978,0.663114011,0.487807989,-1075.5,-6.300000191,-928.500061,-1.129795749,-0.452934403,0.139589091,ST
24.6,-2.764018774,-1.195687771,7.783634663,0.769822001,-1.417691946,-1.158543944,-1082.700073,-3.300000191,-930.9000244,-1.122279704,-0.350721595,0.150209778,ST
24.63333333,-3.633718491,-1.847065449,8.259756088,1.097568035,0.640248001,-0.259148002,-1070.700073,-2.100000143,-926.1000366,-1.097372346,-0.401055234,0.211444483,ST
24.66666667,-3.605007648,-1.766914368,9.283179283,1.150921941,0.053353999,-1.265251994,-1065.900024,-1.5,-930.9000244,-1.100770559,-0.369097451,0.190211686,ST
