seconds,sensor_accX_m_s_,sensor_accY_m_s_,sensor_accZ_m_s_,sensor_gyroX___s_,sensor_gyroY___s_,sensor_gyroZ___s_,sensor_magX__T_,sensor_magY__T_,sensor_magZ__T_,sensor_yaw___,sensor_pitch___,sensor_roll___,label4
0.0,-1.07187223434448,-0.142956167459488,9.71743106842041,0.213415995240211,-0.442075997591019,0.426831990480423,-1193.10009765625,-7.50000047683716,-935.700012207031,-0.93371101287363,-0.10895753349329,0.014444728777559,ST
0.0333333333333333,-1.00368392467499,-0.17525589466095,9.71862697601318,0.228659987449646,-0.358233988285065,0.381099998950958,-1202.70007324219,-11.7000007629395,-940.500061035156,-0.934856308727502,-0.102683818531091,0.0173729302313513,ST
0.0666666666666667,-1.08862018585205,-0.120824880897999,9.66060733795166,0.282013982534409,-0.396344006061554,0.411587983369827,-1205.10009765625,-9.90000057220459,-923.700012207031,-0.936950555680085,-0.110986327528415,0.0122639127078483,ST
0.1,-1.07366669178009,-0.100488021969795,9.67077541351318,0.221037998795509,-0.472563982009888,0.510673999786377,-1209.90002441406,-13.5000009536743,-933.300048828125,-0.939163340980817,-0.109822654517609,0.0100483316466971,ST
0.133333333333333,-0.96958976984024,-0.145348742604256,9.71862697601318,0.0990860015153885,-0.495429992675781,0.548784017562866,-1207.5,-6.30000019073486,-933.300048828125,-0.940957346895182,-0.0991884636927923,0.0144311383750673,ST
0.166666666666667,-0.933701157569885,-0.147741317749023,9.76229190826416,0.0990860015153885,-0.419209986925125,0.503051996231079,-1205.10009765625,-8.10000038146973,-923.700012207031,-0.943163836068585,-0.0948039944763762,0.0148573702113401,ST
0.2,-0.957028746604919,-0.17525589466095,9.73956203460693,0.129574000835419,-0.350611984729767,0.37347799539566,-1195.5,-4.5,-926.100036621094,-0.944379310495231,-0.0971779899477216,0.0175292813461612,ST
0.233333333333333,-0.902597725391388,-0.174059599637985,9.67137336730957,0.121951997280121,-0.266770005226135,0.327746003866196,-1202.70007324219,-9.90000057220459,-926.100036621094,-0.945805158210407,-0.0927676762477865,0.0177205247896122,ST
0.266666666666667,-0.957028746604919,-0.200377896428108,9.67855167388916,0.0990860015153885,-0.205793991684914,0.266770005226135,-1217.10009765625,-7.50000047683716,-923.700012207031,-0.94669718324761,-0.0979517461229466,0.0203597008617906,ST
0.3,-1.04675018787384,-0.174059599637985,9.72819709777832,0.0533539988100529,-0.160062000155449,0.213415995240211,-1217.10009765625,-10.5,-945.300048828125,-0.947873365993235,-0.106504124004089,0.0178718673144645,ST
0.333333333333333,-1.05512416362762,-0.193798318505287,9.76468372344971,0.167683988809586,-0.152439996600151,0.381099998950958,-1207.5,-2.70000004768372,-928.500061035156,-0.949353015077833,-0.107329439147454,0.019416086342616,ST
0.366666666666667,-0.949851036071777,-0.212938904762268,9.74315071105957,0.0228659994900227,-0.304879993200302,0.106707997620106,-1205.10009765625,-7.50000047683716,-923.700012207031,-0.949569145908645,-0.097279321752764,0.0216484570644159,ST
0.4,-0.980954468250275,-0.229088753461838,9.72640323638916,0.0457319989800453,-0.381099998950958,0.221037998795509,-1197.90002441406,-9.30000019073486,-928.500061035156,-0.950307778761814,-0.0996765077717531,0.0233211512575242,ST
0.433333333333333,-0.907382905483246,-0.267369896173477,9.71862697601318,0.0533539988100529,-0.335367977619171,0.243903994560242,-1197.90002441406,-6.90000009536743,-930.900024414062,-0.950934779729729,-0.092922479247707,0.0271242696112567,ST
0.466666666666667,-0.95762687921524,-0.269164323806763,9.70427131652832,0.167683988809586,-0.259148001670837,0.228659987449646,-1202.70007324219,-13.5000009536743,-933.300048828125,-0.951897454877001,-0.0976882731606553,0.0273860441553977,ST
0.5,-0.916355013847351,-0.315221339464188,9.69111251831055,0.228659987449646,-0.282013982534409,0.198172003030777,-1200.30004882812,-11.7000007629395,-923.700012207031,-0.95221667345689,-0.0939842918579987,0.0317975294349334,ST
0.533333333333333,-1.02282452583313,-0.297277063131332,9.69589710235596,0.282013982534409,-0.46494197845459,0.0838419944047928,-1202.70007324219,-9.90000057220459,-918.900024414062,-0.952650237458202,-0.103624058196138,0.0302411832976449,ST
0.566666666666667,-1.1316864490509,-0.185424327850342,9.75331974029541,0.388722002506256,-0.602137982845306,0.327746003866196,-1197.90002441406,-1.5,-935.700012207031,-0.955067504864485,-0.11379846341963,0.0189907278714665,ST
0.6,-0.925925314426422,-0.216527760028839,9.67376613616943,0.335367977619171,-0.617381989955902,0.457319974899292,-1205.10009765625,-2.10000014305115,-935.700012207031,-0.956547074137082,-0.0955196570623411,0.0215486910344213,ST
0.633333333333333,-0.908579170703888,-0.112450875341892,9.7539176940918,0.266770005226135,-0.571649968624115,0.556405961513519,-1212.30004882812,-9.30000019073486,-938.100036621094,-0.95964572843375,-0.092111203896552,0.0116124678130573,ST
0.666666666666667,-0.802707850933075,-0.195592746138573,9.68154239654541,0.236281991004944,-0.449698001146317,0.602137982845306,-1209.90002441406,-8.10000038146973,-930.900024414062,-0.961553952436749,-0.0823874218439051,0.0193429216581704,ST
0.7,-0.801511585712433,-0.201574176549911,9.74973011016846,0.198172003030777,-0.144817993044853,0.37347799539566,-1212.30004882812,-8.10000038146973,-928.500061035156,-0.962928831617122,-0.0818047047307831,0.0202157937385997,ST
0.733333333333333,-0.852353751659393,-0.18183545768261,9.71623420715332,0.259148001670837,0.0076219998300075,0.160062000155449,-1205.10009765625,-12.9000005722046,-930.900024414062,-0.963656891033798,-0.0871930230626427,0.0183439628840368,ST
0.766666666666667,-0.97557121515274,-0.166283741593361,9.71683216094971,0.236281991004944,-0.0685980021953583,0.160062000155449,-1212.30004882812,-10.5,-923.700012207031,-0.964413044922431,-0.0993747397485275,0.016744877893441,ST
0.8,-0.994711756706238,-0.168676316738129,9.6881217956543,0.144817993044853,-0.228659987449646,0.259148001670837,-1207.5,-3.90000009536743,-926.100036621094,-0.965374742602863,-0.101754539148485,0.0170872752508494,ST
0.833333333333333,-0.924130916595459,-0.183629885315895,9.71085071563721,0.0685980021953583,-0.236281991004944,0.442075997591019,-1219.5,-5.10000038146973,-933.300048828125,-0.967199238005755,-0.0947513488570217,0.0186491515262762,ST
0.866666666666667,-0.899607002735138,-0.224303618073463,9.70845890045166,0.152439996600151,-0.221037998795509,0.495429992675781,-1195.5,-6.90000009536743,-928.500061035156,-0.96878928132565,-0.0921735420022847,0.0225040478307518,ST
0.9,-0.909177303314209,-0.224303618073463,9.76169300079346,0.228659987449646,-0.182927995920181,0.403965979814529,-1207.5,-14.7000007629395,-930.900024414062,-0.970341590888401,-0.0925193492350777,0.0225084759882775,ST
0.933333333333333,-0.930710434913635,-0.204564899206161,9.71444034576416,0.243903994560242,-0.236281991004944,0.342989981174469,-1205.10009765625,-3.30000019073486,-947.700012207031,-0.971816153536382,-0.0949384709263761,0.0206888290034562,ST
0.966666666666667,-0.886447906494141,-0.169274464249611,9.67556095123291,0.167683988809586,-0.259148001670837,0.365855991840363,-1212.30004882812,-4.5,-942.900024414062,-0.973551055766692,-0.091151767161862,0.0173561652693497,ST
1.0,-0.872690618038177,-0.208751901984215,9.67855167388916,0.121951997280121,-0.297257989645004,0.342989981174469,-1197.90002441406,-12.9000005722046,-945.300048828125,-0.974573258648235,-0.089503517663571,0.0210586039139385,ST
1.03333333333333,-0.919943869113922,-0.266173630952835,9.77126312255859,0.106707997620106,-0.259148001670837,0.221037998795509,-1219.5,-5.10000038146973,-923.700012207031,-0.975006895262136,-0.0932234401727375,0.0267485408388136,ST
1.06666666666667,-0.938486337661743,-0.202172324061394,9.73178577423096,0.144817993044853,-0.350611984729767,0.236281991004944,-1209.90002441406,-11.7000007629395,-926.100036621094,-0.976486848010839,-0.0953756390927192,0.0208583111331368,ST
1.1,-0.87687760591507,-0.215331465005875,9.74673938751221,0.137196004390717,-0.297257989645004,0.342989981174469,-1205.10009765625,-8.70000076293945,-940.500061035156,-0.977838259758178,-0.0895001073247713,0.0217485993235837,ST
1.13333333333333,-0.850559294223785,-0.247033044695854,9.72042179107666,0.137196004390717,-0.274392008781433,0.3125019967556,-1205.10009765625,-5.70000028610229,-933.300048828125,-0.978791480246219,-0.0869510785601737,0.0249158085036761,ST
1.16666666666667,-0.872690618038177,-0.259594053030014,9.70068264007568,0.137196004390717,-0.25152599811554,0.3125019967556,-1207.5,-0.300000011920929,-923.700012207031,-0.979895376476913,-0.0891235737316999,0.0263710233019469,ST
1.2,-0.931308627128601,-0.215331465005875,9.75511360168457,0.25152599811554,-0.236281991004944,0.37347799539566,-1207.5,-5.70000028610229,-928.500061035156,-0.981782138226326,-0.0944521044334628,0.0218311091970772,ST
1.23333333333333,-0.793137550354004,-0.291893780231476,9.60677433013916,0.259148001670837,-0.205793991684914,0.37347799539566,-1202.70007324219,-6.30000019073486,-928.500061035156,-0.982544804531488,-0.0827502974828875,0.0293800879019909,ST
1.26666666666667,-0.905588448047638,-0.219518467783928,9.76767444610596,0.0762199983000755,-0.213415995240211,0.144817993044853,-1214.70007324219,-6.30000019073486,-928.500061035156,-0.983719528338731,-0.0915511221291674,0.0226993779212817,ST
1.3,-0.855942606925964,-0.263781040906906,9.75451564788818,0.121951997280121,-0.304879993200302,0.304879993200302,-1202.70007324219,-7.50000047683716,-926.100036621094,-0.984693214667342,-0.0871756813017377,0.0265953270840323,ST
1.33333333333333,-0.884653449058533,-0.279930919408798,9.70666408538818,0.121951997280121,-0.243903994560242,0.342989981174469,-1205.10009765625,-5.70000028610229,-921.300048828125,-0.985889637698768,-0.0902435177789784,0.0284438835115938,ST
1.36666666666667,-0.894223749637604,-0.25839775800705,9.70367336273193,0.175305992364883,-0.0838419944047928,0.419209986925125,-1205.10009765625,-5.10000038146973,-935.700012207031,-0.987704100309512,-0.0916440610016619,0.0263822206786882,ST
1.4,-0.906784772872925,-0.256603330373764,9.76229190826416,0.274392008781433,-0.137196004390717,0.442075997591019,-1205.10009765625,-7.50000047683716,-935.700012207031,-0.989447212148385,-0.0923255118306036,0.0257679110594109,ST
1.43333333333333,-0.912168025970459,-0.228490620851517,9.66838264465332,0.236281991004944,-0.175305992364883,0.358233988285065,-1209.90002441406,-5.70000028610229,-935.700012207031,-0.991126495381773,-0.0936799622314482,0.0232847163216171,ST
1.46666666666667,-0.913962483406067,-0.236864611506462,9.67556095123291,0.266770005226135,-0.0914639979600906,0.449698001146317,-1209.90002441406,-12.9000005722046,-930.900024414062,-0.992884586125973,-0.093996248730475,0.0239039774615806,ST
1.5,-0.893625617027283,-0.232079476118088,9.77545070648193,0.243903994560242,-0.160062000155449,0.327746003866196,-1202.70007324219,-11.7000007629395,-930.900024414062,-0.994256556626749,-0.0910237088547304,0.0232895715460353,ST
1.53333333333333,-0.851755619049072,-0.18183545768261,9.75810432434082,0.335367977619171,-0.289635986089706,0.358233988285065,-1207.5,-6.90000009536743,-933.300048828125,-0.996040997987507,-0.0868284873231881,0.0183122859039426,ST
1.56666666666667,-0.855942606925964,-0.153722748160362,9.68572902679443,0.335367977619171,-0.282013982534409,0.365855991840363,-1207.5,-10.5,-938.100036621094,-0.997749343137588,-0.0876091714283587,0.0153789381450058,ST
1.6,-0.804502308368683,-0.190209463238716,9.56131553649902,0.137196004390717,-0.144817993044853,0.396344006061554,-1202.70007324219,-8.70000076293945,-923.700012207031,-0.999101021535149,-0.0838600731589117,0.0194074334031799,ST
1.63333333333333,-0.809885561466217,-0.328978627920151,9.66120529174805,-0.0914639979600906,-0.129574000835419,0.190549999475479,-1195.5,-4.5,-918.900024414062,-0.998806791908695,-0.0833913827375055,0.0335202620516249,ST
1.66666666666667,-0.75545459985733,-0.421092659235001,9.60916709899902,-0.0457319989800453,-0.205793991684914,-0.0914639979600906,-1207.5,-7.50000047683716,-933.300048828125,-0.997685980340553,-0.0783096819755155,0.0433200036951618,ST
1.7,-0.585581958293915,-0.632237136363983,9.38187217712402,0.121951997280121,-0.266770005226135,-0.510673999786377,-1205.10009765625,-0.300000011920929,-935.700012207031,-0.993879546657546,-0.0624059964881514,0.0660841848748758,ST
1.73333333333333,-0.735715866088867,-0.769211888313293,9.22216796875,0.137196004390717,-0.221037998795509,-0.777444005012512,-1200.30004882812,-5.70000028610229,-938.100036621094,-0.989671467700849,-0.0778457099853253,0.0820460371961485,ST
1.76666666666667,-1.0975923538208,-0.997702479362488,9.70367336273193,-0.0533539988100529,0.0685980021953583,-0.777444005012512,-1200.30004882812,-3.90000009536743,-926.100036621094,-0.984742629610119,-0.109960024594795,0.101438908576552,ST
1.8,-1.24353921413422,-1.11972367763519,9.66539192199707,-0.121951997280121,-0.190549999475479,-0.6250039935112,-1212.30004882812,-11.1000003814697,-928.500061035156,-0.980826552397168,-0.125649770328872,0.114812737001563,ST
1.83333333333333,-1.5683308839798,-1.08503139019012,9.49551963806152,-0.205793991684914,0.160062000155449,-0.221037998795509,-1207.5,-3.90000009536743,-942.900024414062,-0.980082160155181,-0.160623198571685,0.114237275042662,ST
1.86666666666667,-1.77827906608582,-1.10177934169769,9.08997917175293,-0.0990860015153885,0.609759986400604,0.846041977405548,-1197.90002441406,-6.30000019073486,-938.100036621094,-0.982165334830662,-0.191086152287706,0.120155938850812,ST
1.9,-2.00078821182251,-1.19748222827911,9.14141941070557,-0.335367977619171,0.769822001457214,1.2576299905777,-1190.70007324219,-6.30000019073486,-928.500061035156,-0.985045279903924,-0.213846586507628,0.129786274402996,ST
1.93333333333333,-2.36984252929688,-1.23456704616547,8.89558219909668,-0.46494197845459,0.480185985565186,1.22714197635651,-1188.30004882812,-7.50000047683716,-940.500061035156,-0.988158318566923,-0.256369205498273,0.137687850557856,ST
1.96666666666667,-3.20843887329102,-0.550889670848846,9.13483905792236,-0.46494197845459,1.2576299905777,1.30336201190948,-1193.10009765625,-6.90000009536743,-930.900024414062,-1.01439231159662,-0.334554430446359,0.0651674130415854,ST
2.0,-3.3268711566925,-0.0328978635370731,9.51824951171875,-0.0228659994900227,1.47866797447205,1.64635193347931,-1209.90002441406,-9.90000057220459,-942.900024414062,-1.04088089333404,-0.338700604030588,0.0052551543873436,ST
2.03333333333333,-3.40522789955139,0.488682806491852,9.16594314575195,0.503051996231079,0.67835795879364,1.86738991737366,-1193.10009765625,-5.70000028610229,-935.700012207031,-1.06732441809912,-0.355439274015202,-0.0523692266188739,ST
2.06666666666667,-2.98293900489807,0.922336459159851,8.93027496337891,0.198172003030777,-0.274392008781433,1.39482593536377,-1202.70007324219,-5.10000038146973,-930.900024414062,-1.08890958676096,-0.321826667804665,-0.101555075161917,ST
2.1,-2.8100757598877,1.12032175064087,8.9117317199707,-0.579271972179413,-1.6615959405899,0.967993974685669,-1202.70007324219,-7.50000047683716,-930.900024414062,-1.09961869431256,-0.301089574928487,-0.123457210443114,ST
2.13333333333333,-2.5295467376709,1.00966536998749,8.35725402832031,-1.53202199935913,-2.31708788871765,0.0228659994900227,-1200.30004882812,-6.30000019073486,-933.300048828125,-1.09877532837948,-0.288687932195704,-0.117789382922898,ST
2.16666666666667,-2.44221782684326,0.554478526115417,7.89608526229858,-2.53050398826599,-1.98171997070312,-0.762199997901917,-1202.70007324219,-12.9000005722046,-933.300048828125,-1.08390259146613,-0.295495758806573,-0.0684029638716418,ST
2.2,-2.52835035324097,-0.131591454148293,9.14022254943848,-3.14788603782654,-1.57013201713562,-1.2576299905777,-1207.5,-8.70000076293945,-940.500061035156,-1.05913900250139,-0.268859049762455,0.0151470581997761,ST
2.23333333333333,-2.03368616104126,-0.973178625106812,10.5303068161011,-3.17837381362915,-2.94971394538879,-1.82165801525116,-1195.5,-2.10000014305115,-942.900024414062,-1.03772193853262,-0.189729412788439,0.0932973270134893,ST
2.26666666666667,-1.79024195671082,-1.04914271831512,10.4525480270386,-2.56099200248718,-4.07776975631714,-2.4847719669342,-1219.5,-0.300000011920929,-926.100036621094,-1.02914286730369,-0.162821821578493,0.10446779792794,ST
2.3,-1.09579789638519,-1.25490391254425,10.3323221206665,-1.47866797447205,-3.10977602005005,-1.41006994247437,-1214.70007324219,-2.70000004768372,-938.100036621094,-1.02332870926078,-0.103064933730305,0.122489654644299,ST
2.33333333333333,-0.801511585712433,-1.37094366550446,10.4411840438843,-0.92988395690918,-2.23324584960938,-1.60061991214752,-1226.70007324219,4.5,-935.700012207031,-1.01759626593904,-0.073634107261341,0.131757778440286,ST
2.36666666666667,-0.897214472293854,-0.961215734481812,10.3347139358521,-0.342989981174469,-1.44817996025085,-1.47104597091675,-1226.70007324219,-3.90000009536743,-923.700012207031,-1.01526945007783,-0.0828634179148446,0.0958478950122874,ST
2.4,-0.607713282108307,-1.06230187416077,9.42314434051514,-0.25152599811554,-0.403965979814529,-0.350611984729767,-1233.90002441406,-0.900000035762787,-935.700012207031,-1.01294364318247,-0.0644206790500003,0.111711913418988,ST
2.43333333333333,-0.877475738525391,-0.869699895381927,10.3508644104004,-0.891773998737335,0.167683988809586,-0.472563982009888,-1224.30004882812,-7.50000047683716,-933.300048828125,-1.01304547882209,-0.0833996740593632,0.0868854858564373,ST
2.46666666666667,-0.605320692062378,-0.644798099994659,10.4178562164307,-0.67835795879364,-0.0304879993200302,0.274392008781433,-1229.10009765625,0.300000011920929,-945.300048828125,-1.0159457348994,-0.0594537295553849,0.064415547443017,ST
2.5,-0.970786035060883,-0.468345940113068,10.7946863174438,0.0152439996600151,0.739333987236023,0.182927995920181,-1214.70007324219,-0.900000035762787,-933.300048828125,-1.0179910837587,-0.089004455686658,0.0445935631664523,ST
2.53333333333333,-1.34462535381317,-0.595750391483307,10.2132911682129,0.403965979814529,1.80641400814056,0.0,-1217.10009765625,0.900000035762787,-947.700012207031,-1.01608540649458,-0.13111189542186,0.0567913075331018,ST
2.56666666666667,-2.06478953361511,-0.893027484416962,10.1157941818237,0.25152599811554,2.81251788139343,-0.510673999786377,-1226.70007324219,0.900000035762787,-940.500061035156,-1.00822782847329,-0.200902923653255,0.0859607189240177,ST
2.6,-2.24901747703552,-1.45049667358398,9.58882999420166,-0.609759986400604,2.12653803825378,-0.800309956073761,-1209.90002441406,1.5,-938.100036621094,-0.991420859735532,-0.229534717066094,0.147632410010775,ST
2.63333333333333,-2.1892032623291,-1.79622340202332,9.41477012634277,-1.46342396736145,1.14329993724823,-0.442075997591019,-1209.90002441406,0.900000035762787,-942.900024414062,-0.980983200705946,-0.226577428149973,0.188689960036509,ST
2.66666666666667,-1.09041464328766,-2.27952289581299,8.66709136962891,-1.53202199935913,0.228659987449646,0.342989981174469,-1205.10009765625,-1.5,-935.700012207031,-0.971327277146371,-0.12576411397635,0.25703607259646,ST
2.7,-0.511412262916565,-2.70480251312256,8.27650451660156,-1.28811800479889,0.221037998795509,0.350611984729767,-1205.10009765625,5.10000038146973,-935.700012207031,-0.967488652368217,-0.0624918317906564,0.315097587746799,ST
2.73333333333333,-0.574217259883881,-3.42556476593018,8.32375717163086,-1.74543797969818,0.0381099991500378,0.335367977619171,-1205.10009765625,-4.5,-942.900024414062,-0.964502908859474,-0.0638982035265614,0.388666205553058,ST
2.76666666666667,-0.466551512479782,-4.14273834228516,8.20054054260254,-2.30184388160706,-0.152439996600151,-0.564027965068817,-1224.30004882812,-0.900000035762787,-942.900024414062,-0.958691925081118,-0.0508223630358348,0.467288390622424,ST
2.8,-1.03777801990509,-4.33833074569702,8.86208629608154,-2.38568592071533,-0.701223969459534,0.518296003341675,-1200.30004882812,5.10000038146973,-952.500061035156,-0.96342127601492,-0.101481411529192,0.459678475098822,ST
2.83333333333333,-1.53662931919098,-5.02499914169312,9.35914325714111,-1.92836594581604,-1.18903195858002,3.21648383140564,-1200.30004882812,4.5,-935.700012207031,-0.973931546346764,-0.14184314820099,0.49311641981552,ST
2.86666666666667,-2.10665965080261,-5.16137552261353,10.3418922424316,-1.28049600124359,-0.0990860015153885,3.43752193450928,-1202.70007324219,2.10000014305115,-952.500061035156,-0.991459768110889,-0.180362668037814,0.465950258454433,ST
2.9,-2.66951203346252,-4.63919687271118,9.99197864532471,-0.160062000155449,0.0990860015153885,3.55185198783875,-1205.10009765625,5.10000038146973,-942.900024414062,-1.01029740897787,-0.236884099520507,0.435649507649478,ST
2.93333333333333,-2.25619530677795,-3.54459524154663,9.14859676361084,0.945127964019775,-0.533540010452271,3.39178991317749,-1207.5,-0.300000011920929,-930.900024414062,-1.03839529865328,-0.227832191308668,0.370001087749513,ST
2.96666666666667,-0.922934591770172,-3.18630766868591,9.01102352142334,1.06708002090454,-1.38720393180847,3.90246391296387,-1212.30004882812,4.5,-945.300048828125,-1.06038921933305,-0.102715432865999,0.338764690356566,ST
3.0,-0.760239720344543,-1.95592749118805,9.89208889007568,1.07470202445984,-1.69970595836639,4.27594184875488,-1217.10009765625,9.30000019073486,-928.500061035156,-1.0906315328224,-0.0757661090958327,0.201552160310851,ST
3.03333333333333,-1.06230187416077,-1.18851006031036,10.0326519012451,1.28049600124359,-2.34757590293884,4.99240970611572,-1224.30004882812,9.90000057220459,-933.300048828125,-1.11854499755144,-0.100277343027272,0.120075934487855,ST
3.06666666666667,-1.33445692062378,-1.16936945915222,9.67675685882568,1.44817996025085,-1.2500079870224,5.51070594787598,-1214.70007324219,3.90000009536743,-947.700012207031,-1.14202642581152,-0.133310119319525,0.116634599604718,ST
3.1,-2.71377468109131,-1.13647162914276,9.81433010101318,1.00610399246216,0.602137982845306,3.87197589874268,-1212.30004882812,5.70000028610229,-940.500061035156,-1.1569155167962,-0.261536311006497,0.112185753928024,ST
3.13333333333333,-3.62474632263184,-1.24593186378479,8.78672027587891,0.525918006896973,1.89025592803955,2.89635992050171,-1217.10009765625,11.1000003814697,-940.500061035156,-1.15915755389085,-0.385938623677332,0.136965659418126,ST
3.16666666666667,-3.79461908340454,-1.25370764732361,8.95180797576904,0.137196004390717,2.33233189582825,2.68294382095337,-1214.70007324219,2.70000004768372,-947.700012207031,-1.16756360245075,-0.401146091056377,0.13717339026713,ST
3.2,-3.13187670707703,-1.3338588476181,8.81184196472168,0.617381989955902,1.20427596569061,1.6768399477005,-1197.90002441406,3.30000019073486,-945.300048828125,-1.16849276223945,-0.3441184838542,0.147565575482441,ST
3.23333333333333,-2.4697322845459,-1.38230836391449,8.87883472442627,0.762199997901917,0.556405961513519,1.14329993724823,-1197.90002441406,0.300000011920929,-940.500061035156,-1.1701789096536,-0.274006384267799,0.152301295298437,ST
3.26666666666667,-1.87039303779602,-1.64788389205933,8.53370571136475,0.137196004390717,-0.320124000310898,-0.0076219998300075,-1217.10009765625,3.90000009536743,-950.100036621094,-1.16152896421512,-0.215219050244128,0.18821955694249,ST
3.3,-1.14723825454712,-2.20355868339539,8.70896148681641,-0.381099998950958,-0.609759986400604,-0.236281991004944,-1212.30004882812,9.30000019073486,-935.700012207031,-1.15160261220733,-0.131320121530305,0.244906608643948,ST
3.33333333333333,-1.76511991024017,-2.66053986549377,9.35615253448486,-1.11281192302704,-0.190549999475479,-0.602137982845306,-1212.30004882812,1.5,-947.700012207031,-1.14505975203227,-0.176809918176548,0.277635511257854,ST
3.36666666666667,-1.61020088195801,-3.02421092987061,8.93266677856445,-1.57775402069092,-0.144817993044853,0.556405961513519,-1221.90002441406,3.90000009536743,-938.100036621094,-1.14011116704261,-0.16964525197708,0.325909707265183,ST
3.4,-2.09230422973633,-2.90338587760925,9.61455059051514,-1.44055795669556,0.846041977405548,0.807931959629059,-1202.70007324219,6.90000009536743,-940.500061035156,-1.14868256431649,-0.205173316793817,0.297269098199566,ST
3.43333333333333,-1.76631617546082,-2.60491275787354,10.4052953720093,-0.0914639979600906,0.983237981796265,1.96647596359253,-1212.30004882812,5.10000038146973,-935.700012207031,-1.16437987217818,-0.168131059858294,0.248104228442629,ST
3.46666666666667,-1.72564244270325,-2.34591674804688,10.4094820022583,0.236281991004944,0.640248000621796,1.82927989959717,-1200.30004882812,9.90000057220459,-935.700012207031,-1.17494405681166,-0.162502613173365,0.222430819738703,ST
3.5,-1.88773918151855,-1.66044485569,10.2916479110718,0.327746003866196,0.891773998737335,1.45580196380615,-1200.30004882812,6.90000009536743,-942.900024414062,-1.18990361847818,-0.179997508190974,0.162844068147637,ST
3.53333333333333,-1.26686680316925,-1.61259341239929,10.2725076675415,0.419209986925125,1.79117000102997,1.89787793159485,-1200.30004882812,10.5,-950.100036621094,-1.19777473786698,-0.127265068206287,0.154967613371202,ST
3.56666666666667,-1.12271440029144,-1.64190244674683,9.92737865447998,0.388722002506256,2.76678586006165,1.38720393180847,-1195.5,5.10000038146973,-950.100036621094,-1.20038204247894,-0.116939670714667,0.162550125166235,ST
3.6,-1.37333631515503,-1.8045973777771,9.46142578125,0.259148001670837,3.89484190940857,1.05183601379395,-1183.5,5.10000038146973,-938.100036621094,-1.1984933857473,-0.146722919315658,0.186394085506137,ST
3.63333333333333,-2.11383724212646,-1.63950991630554,9.4787712097168,0.442075997591019,5.15247201919556,1.11281192302704,-1178.70007324219,7.50000047683716,-952.500061035156,-1.20170174526953,-0.221629441650403,0.17121815362046,ST
3.66666666666667,-1.75674593448639,-1.80758810043335,9.61215782165527,1.51677799224854,5.35826587677002,1.75305998325348,-1183.5,5.70000028610229,-947.700012207031,-1.20128301933675,-0.189542700123817,0.182278632015324,ST
3.7,-1.91525375843048,-2.08632278442383,8.75860786437988,1.53202199935913,4.90856790542603,1.27287399768829,-1166.70007324219,6.30000019073486,-950.100036621094,-1.19161340395921,-0.21670455295596,0.228149058366376,ST
3.73333333333333,-1.8967113494873,-1.90030026435852,8.58275318145752,0.762199997901917,4.73326206207275,1.12805593013763,-1161.90002441406,4.5,-950.100036621094,-1.19355581398212,-0.220739530087642,0.217237639230963,ST
3.76666666666667,-2.05940628051758,-2.19996976852417,8.69340991973877,0.442075997591019,4.80185985565186,0.830797970294952,-1154.70007324219,11.7000007629395,-947.700012207031,-1.18559064520356,-0.233411758382914,0.24541529076817,ST
3.8,-3.3029453754425,-2.28071904182434,8.27650451660156,0.663114011287689,5.4878396987915,0.0304879993200302,-1137.90002441406,2.70000004768372,-940.500061035156,-1.17231728772941,-0.370191808958307,0.267603769927358,ST
3.83333333333333,-4.31380701065063,-2.13895916938782,7.65922069549561,0.236281991004944,5.90704965591431,-0.25152599811554,-1123.5,6.30000019073486,-945.300048828125,-1.16223770558162,-0.500785514812565,0.273365676737509,ST
3.86666666666667,-4.81505107879639,-1.97446990013123,7.47319841384888,-0.137196004390717,5.18296003341675,0.792688012123108,-1123.5,6.30000019073486,-940.500061035156,-1.16721827783502,-0.562233932469801,0.260060150583939,ST
3.9,-4.89340782165527,-1.77528834342957,7.83268213272095,-0.510673999786377,4.46649169921875,1.32622802257538,-1111.5,5.10000038146973,-945.300048828125,-1.18735807845885,-0.555776345463775,0.225655195954272,ST
3.93333333333333,-5.44070863723755,-1.57969558238983,7.55454587936401,-0.182927995920181,3.03355598449707,1.63872992992401,-1111.5,9.90000057220459,-945.300048828125,-1.20153089186221,-0.615918151991224,0.206559647549319,ST
3.96666666666667,-5.45267152786255,-1.54619956016541,7.49233865737915,0.182927995920181,2.30184388160706,1.92074394226074,-1099.5,5.10000038146973,-945.300048828125,-1.20869375577483,-0.623407073076082,0.201701381985849,ST
4.0,-5.39465141296387,-1.08323693275452,7.48516130447388,-0.358233988285065,1.51677799224854,2.25611186027527,-1087.5,1.5,-935.700012207031,-1.24881799204421,-0.622881098977206,0.145451761012212,ST
4.03333333333333,-5.25408792495728,-0.895420014858246,7.81533622741699,-0.701223969459534,0.632625997066498,2.79727387428284,-1094.70007324219,7.50000047683716,-942.900024414062,-1.27896063763344,-0.591809167281141,0.113392227551701,ST
4.06666666666667,-5.47719526290894,-0.436644375324249,8.37101078033447,0.259148001670837,-0.327746003866196,2.19513607025146,-1087.5,11.1000003814697,-945.300048828125,-1.32040301313771,-0.579049093515053,0.0519432285449921,ST
4.1,-4.92331457138062,-0.183031752705574,8.57378101348877,1.15092194080353,-0.266770005226135,2.0579400062561,-1106.70007324219,8.70000076293945,-947.700012207031,-1.34226011667487,-0.524312035873772,0.0192810717868326,ST
4.13333333333333,-4.55246639251709,-0.318810194730759,8.01391983032227,2.14178204536438,-0.525918006896973,1.52439999580383,-1099.5,9.90000057220459,-940.500061035156,-1.3362566643219,-0.515990188689521,0.0335781865337154,ST
4.16666666666667,-5.19726419448853,-0.383409649133682,7.57488250732422,1.77592599391937,0.0838419944047928,-0.335367977619171,-1089.90002441406,3.30000019073486,-938.100036621094,-1.32402885275116,-0.596229503196461,0.0470293549575431,ST
4.2,-5.28399515151978,-0.619676113128662,7.79260683059692,0.914639949798584,0.0,-0.0228659994900227,-1082.70007324219,4.5,-947.700012207031,-1.30567521868635,-0.594524320442985,0.0759249407870885,ST
4.23333333333333,-5.7361912727356,-0.840390861034393,7.83268213272095,-0.0381099991500378,-0.548784017562866,0.403965979814529,-1089.90002441406,3.90000009536743,-947.700012207031,-1.29088926255604,-0.626446070087491,0.104484229191773,ST
4.26666666666667,-5.80138874053955,-1.21363210678101,7.76269960403442,-0.160062000155449,0.205793991684914,0.548784017562866,-1085.10009765625,5.70000028610229,-947.700012207031,-1.26511437061119,-0.635938223686771,0.151643909091225,ST
4.3,-5.82292175292969,-1.61020088195801,8.19455909729004,0.426831990480423,0.297257989645004,-0.129574000835419,-1094.70007324219,10.5,-940.500061035156,-1.24014831408641,-0.610670670705453,0.191499669385366,ST
4.33333333333333,-5.75353717803955,-1.87697267532349,7.51447010040283,0.137196004390717,-1.16616594791412,-0.647870004177094,-1097.10009765625,2.70000004768372,-945.300048828125,-1.20932971732745,-0.635119975273744,0.241675122404974,ST
4.36666666666667,-5.95032644271851,-1.85783207416534,7.74176454544067,-0.403965979814529,-2.04269599914551,0.129574000835419,-1097.10009765625,2.70000004768372,-950.100036621094,-1.21574407549052,-0.638211596484246,0.235825648521572,ST
4.4,-5.26126575469971,-1.77648460865021,8.0713415145874,-0.46494197845459,-3.38416790962219,0.899396002292633,-1099.5,0.300000011920929,-942.900024414062,-1.23403525183187,-0.56449101569317,0.216421561515847,ST
4.43333333333333,-4.7008056640625,-1.59345293045044,8.16883850097656,-0.503051996231079,-3.40703392028809,0.922261953353882,-1109.10009765625,6.90000009536743,-945.300048828125,-1.25291549239658,-0.511361578638344,0.193143511026553,ST
4.46666666666667,-4.59613037109375,-1.57072341442108,8.22685813903809,-0.320124000310898,-2.27897787094116,1.10518991947174,-1111.5,4.5,-947.700012207031,-1.26172514186009,-0.498984732136044,0.188032841887556,ST
4.5,-4.74267578125,-1.40384149551392,9.29574012756348,-0.0838419944047928,-0.861285984516144,1.07470202445984,-1109.10009765625,8.70000076293945,-952.500061035156,-1.28373126223335,-0.467655680116264,0.150860332425807,ST
4.53333333333333,-4.56622362136841,-1.44989860057831,9.24190711975098,0.160062000155449,-0.0685980021953583,0.975615978240967,-1113.90002441406,4.5,-940.500061035156,-1.28544374139639,-0.455045450309329,0.154281856756153,ST
4.56666666666667,-4.66850566864014,-1.07426476478577,9.64266300201416,0.78506600856781,0.503051996231079,0.87652999162674,-1111.5,6.30000019073486,-935.700012207031,-1.30594997120177,-0.449809188966973,0.11111343029833,ST
4.6,-4.65953397750854,-0.933701157569885,9.56909084320068,1.21189796924591,0.815553963184357,0.518296003341675,-1104.30004882812,7.50000047683716,-947.700012207031,-1.31207788411336,-0.452605779949994,0.0957723040848515,ST
4.63333333333333,-4.31739616394043,-0.668723821640015,9.05050086975098,1.32622802257538,1.11281192302704,0.144817993044853,-1104.30004882812,5.70000028610229,-952.500061035156,-1.31990983612499,-0.446409001177418,0.0728618808862945,ST
4.66666666666667,-4.13855123519897,-0.336754500865936,8.61565113067627,0.510673999786377,1.69970595836639,-0.571649968624115,-1116.30004882812,2.70000004768372,-945.300048828125,-1.3305204583817,-0.450196409829776,0.040786819528888,ST
4.7,-3.66302752494812,-0.526963949203491,8.19754981994629,-0.213415995240211,1.91312193870544,-0.777444005012512,-1101.90002441406,3.90000009536743,-938.100036621094,-1.31789824580727,-0.424379575707611,0.063817475683288,ST
4.73333333333333,-3.76949691772461,-0.302062213420868,8.01571369171143,-0.739333987236023,1.84452390670776,-1.34909391403198,-1094.70007324219,0.300000011920929,-969.300048828125,-1.32322472335966,-0.441332623154419,0.0415711616459454,ST
4.76666666666667,-3.6953272819519,-0.427074074745178,8.47628402709961,-0.548784017562866,1.82927989959717,-1.40244793891907,-1089.90002441406,6.30000019073486,-942.900024414062,-1.31441555038252,-0.415391180973767,0.0518060228013704,ST
4.8,-3.90288281440735,-0.313426911830902,8.21728801727295,-0.342989981174469,1.35671591758728,-2.12653803825378,-1094.70007324219,5.10000038146973,-950.100036621094,-1.31141158141212,-0.443529979613839,0.0412102877962878,ST
4.83333333333333,-4.13735485076904,-0.213537037372589,8.27470970153809,-0.37347799539566,1.58537602424622,-1.45580196380615,-1089.90002441406,8.70000076293945,-947.700012207031,-1.31205596417565,-0.464970717889072,0.0284998063878017,ST
4.86666666666667,-4.19956159591675,-0.37324121594429,7.96786260604858,-0.564027965068817,1.47104597091675,-1.28049600124359,-1085.10009765625,10.5,-938.100036621094,-1.29931453446437,-0.485870458896317,0.0479001491639572,ST
4.9,-5.38687562942505,-0.392979919910431,7.98580694198608,-0.693601965904236,1.60061991214752,-1.21951997280121,-1087.5,8.10000038146973,-942.900024414062,-1.29443689673713,-0.588880406067678,0.0516492785213886,ST
4.93333333333333,-5.4197735786438,-1.07007777690887,7.95948839187622,-0.87652999162674,1.77592599391937,-0.556405961513519,-1085.10009765625,4.5,-940.500061035156,-1.24963415126197,-0.596221565246528,0.130964192784323,ST
4.96666666666667,-5.42037153244019,-1.59345293045044,7.69451141357422,-0.739333987236023,1.33385002613068,-1.55488801002502,-1089.90002441406,15.3000001907349,-957.300048828125,-1.20472806854621,-0.60511103332596,0.202984143574713,ST
5.0,-5.75353717803955,-1.73162388801575,7.99059200286865,-0.556405961513519,1.31098401546478,-3.16313004493713,-1075.5,9.30000019073486,-947.700012207031,-1.18618309728446,-0.613764962512309,0.217665309793004,ST
5.03333333333333,-5.7864351272583,-1.5180869102478,7.9098424911499,1.13567793369293,0.182927995920181,-2.43141794204712,-1065.90002441406,6.90000009536743,-947.700012207031,-1.19027354032038,-0.621964591956419,0.192306310106062,ST
5.06666666666667,-5.28220081329346,-1.68078172206879,7.68852996826172,2.44666194915771,-0.579271972179413,-1.6615959405899,-1053.90002441406,6.90000009536743,-930.900024414062,-1.16869163645947,-0.591498170159161,0.211531762919529,ST
5.1,-4.85751914978027,-1.83151376247406,7.04612398147583,2.75154185295105,-1.57775402069092,-2.81251788139343,-1070.70007324219,7.50000047683716,-940.500061035156,-1.13120499768463,-0.584812019390767,0.250603638946239,ST
5.13333333333333,-4.87606143951416,-2.15152025222778,6.82540941238403,2.00458598136902,-2.5152599811554,-3.26983785629272,-1085.10009765625,5.10000038146973,-947.700012207031,-1.0887258260866,-0.591939421510484,0.302245935418766,ST
5.16666666666667,-5.53401899337769,-2.67130661010742,7.7758584022522,0.708845973014832,-3.11739802360535,-3.94819593429565,-1087.5,5.70000028610229,-940.500061035156,-1.06189633057325,-0.585489849983127,0.330980471246333,ST
5.2,-5.12309455871582,-2.89381575584412,7.65862274169922,-0.434453994035721,-4.66466379165649,-3.52136397361755,-1073.10009765625,5.70000028610229,-942.900024414062,-1.040379147612,-0.551557102589118,0.36186217384342,ST
5.23333333333333,-4.96398830413818,-3.11213779449463,8.20472717285156,-1.84452390670776,-5.0686297416687,-2.98782396316528,-1089.90002441406,12.9000005722046,-950.100036621094,-1.0383408285218,-0.507234528565232,0.366470603488485,ST
5.26666666666667,-4.60450458526611,-3.59603548049927,8.28069114685059,-1.78354799747467,-5.21344804763794,-1.50153398513794,-1097.10009765625,8.70000076293945,-945.300048828125,-1.02393657609097,-0.464239017830306,0.410220124462176,ST
5.3,-3.68515872955322,-3.6193630695343,8.36502933502197,-1.14329993724823,-5.04576396942139,-0.632625997066498,-1111.5,2.10000014305115,-952.500061035156,-1.03139955452013,-0.381055426430926,0.40938489639122,ST
5.33333333333333,-3.9357807636261,-3.37771344184875,8.82679557800293,-0.274392008781433,-2.89635992050171,0.152439996600151,-1123.5,9.90000057220459,-950.100036621094,-1.05295896327293,-0.389645389938777,0.366862816698283,ST
5.36666666666667,-3.9579119682312,-2.74906516075134,8.71314907073975,0.967993974685669,-2.59148001670837,1.39482593536377,-1116.30004882812,12.9000005722046,-938.100036621094,-1.08354869174583,-0.404499408460079,0.305547532095005,ST
5.4,-3.39087247848511,-2.34352421760559,8.70656871795654,1.94360995292664,-2.56861400604248,2.55336999893188,-1125.90002441406,8.10000038146973,-957.300048828125,-1.10938642125745,-0.359473318028441,0.26033192872692,ST
5.43333333333333,-3.23655152320862,-2.48229336738586,8.81842136383057,1.96647596359253,-2.04269599914551,2.46190595626831,-1130.70007324219,5.70000028610229,-957.300048828125,-1.11490195299531,-0.3386529204122,0.268621139251933,ST
5.46666666666667,-2.45836758613586,-2.4236752986908,9.53499698638916,1.76068198680878,-2.24086785316467,1.32622802257538,-1123.5,3.90000009536743,-962.100036621094,-1.12651836873879,-0.247513833297931,0.246413856513587,ST
5.5,-2.72334504127502,-2.26995253562927,9.7838249206543,2.09605002403259,-1.43293595314026,0.0457319989800453,-1133.10009765625,9.90000057220459,-942.900024414062,-1.13110556096844,-0.261466311442171,0.225500626168799,NLR
5.53333333333333,-2.77598142623901,-2.32737421989441,10.0296611785889,2.98020195960999,-0.510673999786377,-0.396344006061554,-1123.5,11.1000003814697,-945.300048828125,-1.12755310319178,-0.262279307294841,0.223093957978578,NLR
5.56666666666667,-2.91714334487915,-2.35787963867188,9.68632698059082,3.31556987762451,0.228659987449646,-1.89025592803955,-1125.90002441406,7.50000047683716,-947.700012207031,-1.11383210745435,-0.282971451546003,0.23327528751937,NLR
5.6,-3.14144682884216,-2.22808265686035,9.43092060089111,3.21648383140564,0.739333987236023,-2.57623600959778,-1128.30004882812,11.1000003814697,-966.900024414062,-1.10116493083785,-0.311861830877863,0.228194003950461,NLR
5.63333333333333,-2.77179455757141,-2.27653217315674,9.01879978179932,3.30032587051392,0.335367977619171,-2.20275783538818,-1125.90002441406,0.300000011920929,-947.700012207031,-1.08385045359513,-0.290376849700615,0.241965754755151,NLR
5.66666666666667,-2.63242721557617,-2.19039964675903,8.39194583892822,3.55185198783875,0.907018005847931,-2.58385801315308,-1133.10009765625,3.90000009536743,-959.700012207031,-1.06685116497691,-0.294822786383318,0.250037241146283,NLR
5.7,-2.44999361038208,-2.22868061065674,8.61266040802002,3.24697184562683,0.609759986400604,-1.93598794937134,-1128.30004882812,-2.70000004768372,-957.300048828125,-1.05576921808803,-0.270499482834752,0.248637455799619,NLR
5.73333333333333,-2.35967397689819,-2.39017939567566,8.57976245880127,3.20123982429504,0.114329993724823,-2.20275783538818,-1116.30004882812,-2.10000014305115,-964.500061035156,-1.03945975737867,-0.25893472570068,0.26599727742322,NLR
5.76666666666667,-2.23884916305542,-2.1150336265564,9.47458457946777,3.58234000205994,-0.190549999475479,-4.12350177764893,-1125.90002441406,0.900000035762787,-938.100036621094,-1.03202813123022,-0.226805174510449,0.218080368951048,NLR
5.8,-2.44520854949951,-2.05103230476379,9.39862060546875,4.81710386276245,-0.365855991840363,-5.25918006896973,-1125.90002441406,1.5,-947.700012207031,-1.00966559900261,-0.245190496451127,0.209203730283812,NLR
5.83333333333333,-2.17604422569275,-1.94276833534241,9.36273193359375,6.69973802566528,0.426831990480423,-7.62962198257446,-1125.90002441406,-2.10000014305115,-942.900024414062,-0.975582043910281,-0.223134762177942,0.196658965812832,NLR
5.86666666666667,-3.45307946205139,-0.970187902450562,9.99676322937012,10.71653175354,3.88721990585327,-11.6540374755859,-1121.10009765625,-7.50000047683716,-938.100036621094,-0.945219342329879,-0.32895929962299,0.0917522163816046,NLR
5.9,-2.95721888542175,-0.833811283111572,9.35316181182861,15.5412578582764,5.19058179855347,-10.9451913833618,-1106.70007324219,-5.70000028610229,-930.900024414062,-0.889096614822104,-0.313749868019585,0.0696857629092567,NLR
5.93333333333333,-3.32567501068115,-0.485692083835602,7.27760553359985,15.1830234527588,4.99240970611572,-12.7287397384644,-1092.30004882812,-17.1000003814697,-938.100036621094,-0.817617106797066,-0.430020974193062,0.0509778241184103,NLR
5.96666666666667,-5.25767660140991,0.973776757717133,8.01631164550781,12.6067876815796,4.91618967056274,-11.1738519668579,-1082.70007324219,-20.7000007629395,-911.700012207031,-0.831357866487929,-0.581630042441714,-0.123432355497472,NLR
6.0,-5.69491910934448,1.53842377662659,7.37450456619263,10.7393980026245,2.58385801315308,-7.24090003967285,-1068.30004882812,-29.7000007629395,-911.700012207031,-0.832109591116036,-0.650728086601817,-0.211137148906555,NLR
6.03333333333333,-5.88931560516357,1.87816894054413,7.93496465682983,6.99699592590332,2.70580983161926,-3.38416790962219,-1051.5,-27.3000011444092,-911.700012207031,-0.822841825701795,-0.632525104056811,-0.239563948449474,NLR
6.06666666666667,-4.72832012176514,1.48399269580841,7.56531238555908,3.65855979919434,0.67835795879364,0.304879993200302,-1037.10009765625,-23.7000007629395,-899.700012207031,-0.794669901333678,-0.554801946558896,-0.202118312415412,NLR
6.1,-5.28698587417603,1.40503787994385,7.78423261642456,1.44817996025085,0.716467976570129,0.106707997620106,-1046.70007324219,-29.1000003814697,-899.700012207031,-0.781638075285895,-0.588457883754035,-0.182538834753757,NLR
6.13333333333333,-5.27921009063721,1.5061240196228,8.91711521148682,0.899396002292633,0.792688012123108,1.2347639799118,-1049.10009765625,-33.3000030517578,-904.500061035156,-0.778251219930995,-0.532966943525453,-0.1709978721946,NLR
6.16666666666667,-4.84914493560791,1.10058307647705,8.22207355499268,1.06708002090454,0.83841997385025,0.167683988809586,-1041.90002441406,-25.5000019073486,-894.900024414062,-0.760027700502146,-0.530574101289557,-0.137375483067012,NLR
6.2,-5.19965696334839,1.79203629493713,8.28667259216309,0.708845973014832,1.09756803512573,-1.70732796192169,-1044.30004882812,-33.9000015258789,-894.900024414062,-0.789897462077556,-0.551794322639338,-0.209658139725548,NLR
6.23333333333333,-5.74277067184448,2.18681073188782,8.40989017486572,0.983237981796265,0.350611984729767,-1.18140995502472,-1044.30004882812,-33.9000015258789,-892.500061035156,-0.806956003673342,-0.583087419890993,-0.252099877483825,NLR
6.26666666666667,-6.14771366119385,1.56653642654419,7.83447647094727,-1.29574000835419,-1.34147191047668,1.10518991947174,-1037.10009765625,-24.9000015258789,-892.500061035156,-0.782264024993246,-0.65041475922327,-0.19847462139654,NLR
6.3,-6.27272510528564,3.53801560401917,7.42654323577881,-4.26069784164429,-2.46952795982361,3.21648383140564,-1032.30004882812,-33.9000015258789,-897.300048828125,-0.936596759507159,-0.646609395491698,-0.424847070666445,NLR
6.33333333333333,-4.50401639938354,1.87936520576477,7.12567710876465,-10.6403121948242,-3.24697184562683,9.55798816680908,-1056.30004882812,-25.5000019073486,-902.100036621094,-0.893896169007306,-0.545387261785357,-0.258510189124076,NLR
6.36666666666667,-4.81983613967896,1.4421226978302,7.85182285308838,-13.9330158233643,-2.58385801315308,10.3049440383911,-1058.70007324219,-18.3000011444092,-906.900024414062,-0.911734706225542,-0.536085589737744,-0.172901529301598,NLR
6.4,-3.73061776161194,0.302660346031189,8.0533971786499,-16.6159591674805,-3.12502002716064,13.2317914962769,-1077.90002441406,-29.1000003814697,-916.500061035156,-0.921231627498216,-0.433756534768324,-0.0285318018285509,NLR
6.43333333333333,-2.2250919342041,-1.26866126060486,8.89917087554932,-17.6830387115479,-3.32319188117981,13.0107536315918,-1101.90002441406,-8.70000076293945,-918.900024414062,-0.934346812165587,-0.250719730880197,0.155658448318075,NLR
6.46666666666667,-2.32976698875427,-1.68496870994568,8.77774810791016,-16.6616916656494,-2.47714996337891,10.0457954406738,-1101.90002441406,-11.7000007629395,-930.900024414062,-0.982644936629732,-0.254196162313317,0.211462795702336,NLR
6.5,-3.15041899681091,-2.34890747070312,9.05708122253418,-14.4665555953979,0.525918006896973,6.55491971969604,-1087.5,-6.90000009536743,-945.300048828125,-1.00886594783097,-0.324998386973922,0.27230721810098,NLR
6.53333333333333,-3.57510042190552,-2.515789270401,8.88840484619141,-11.615927696228,1.84452390670776,5.58692598342896,-1094.70007324219,0.300000011920929,-940.500061035156,-1.03679470860521,-0.372099579254162,0.291631424542283,NLR
6.56666666666667,-4.70260000228882,-2.69104528427124,9.17790603637695,-8.97871589660645,2.66007804870605,4.89332389831543,-1082.70007324219,-1.5,-938.100036621094,-1.06645598417728,-0.459857131245005,0.297378023174398,NLR
6.6,-4.49085760116577,-2.67549347877502,9.20900917053223,-6.56254196166992,1.14329993724823,5.88418388366699,-1073.10009765625,6.30000019073486,-954.900024414062,-1.10033026235524,-0.443872043122212,0.290195350116549,NLR
6.63333333333333,-4.51119422912598,-2.575603723526,8.76099967956543,-4.51984596252441,0.320124000310898,7.17230176925659,-1085.10009765625,9.30000019073486,-945.300048828125,-1.13378447821444,-0.461782586986521,0.288093926125048,NLR
6.66666666666667,-3.67499041557312,-2.59713673591614,8.34529113769531,-3.38416790962219,-0.3125019967556,5.83845186233521,-1087.5,7.50000047683716,-938.100036621094,-1.15654153074623,-0.403229955053462,0.30265954192488,NLR
6.7,-3.51708078384399,-2.75564455986023,7.63828563690186,-3.09453201293945,0.106707997620106,4.66466379165649,-1087.5,20.1000003814697,-940.500061035156,-1.16070572689844,-0.411126563803849,0.345548100153833,NLR
6.73333333333333,-4.13735485076904,-2.85673093795776,7.73039960861206,-2.75154185295105,1.21951997280121,2.52288198471069,-1077.90002441406,15.3000001907349,-930.900024414062,-1.1679463554381,-0.46527950680557,0.35641280950683,NLR
6.76666666666667,-4.20016002655029,-3.10496020317078,7.80935478210449,-1.74543797969818,1.22714197635651,-0.114329993724823,-1089.90002441406,11.1000003814697,-950.100036621094,-1.1583433057671,-0.465387777414527,0.38041889197009,NLR
6.8,-4.88084650039673,-2.99550008773804,7.34998083114624,-1.37195992469788,0.510673999786377,-0.266770005226135,-1077.90002441406,17.7000007629395,-938.100036621094,-1.1552320532463,-0.54670887348794,0.389295249325699,NLR
6.83333333333333,-4.68465566635132,-3.16298007965088,7.35356950759888,-1.45580196380615,0.160062000155449,0.327746003866196,-1068.30004882812,18.3000011444092,-942.900024414062,-1.14979808241416,-0.530979503235983,0.407346209000263,ST
6.86666666666667,-5.6165623664856,-3.22099995613098,8.10005187988281,-1.47866797447205,-0.548784017562866,0.716467976570129,-1073.10009765625,14.1000003814697,-940.500061035156,-1.16926548931606,-0.569482628770489,0.381811248859808,ST
6.9,-5.25408792495728,-3.53741765022278,8.39074993133545,-2.41617393493652,-1.71494996547699,1.85976791381836,-1058.70007324219,12.9000005722046,-940.500061035156,-1.17321662152925,-0.524717831412568,0.399632543141261,ST
6.93333333333333,-5.43293237686157,-3.67080330848694,8.56600570678711,-2.66770005226135,-1.72257196903229,1.63872992992401,-1065.90002441406,16.5,-947.700012207031,-1.18261336789993,-0.526082377268184,0.406834452388551,ST
6.96666666666667,-4.50939989089966,-3.29516959190369,8.52592945098877,-2.45428395271301,-2.32470989227295,2.31708788871765,-1080.30004882812,15.3000001907349,-938.100036621094,-1.21425871302541,-0.460278379004152,0.372560678625116,ST
7.0,-3.4853789806366,-3.48896789550781,8.43441390991211,-2.76678586006165,-2.33233189582825,3.85673189163208,-1073.10009765625,12.3000001907349,-938.100036621094,-1.2293631844436,-0.367376212936607,0.393165182076576,ST
7.03333333333333,-3.49853825569153,-3.26645874977112,7.69570732116699,-1.60824191570282,-0.167683988809586,3.26221585273743,-1097.10009765625,17.1000003814697,-938.100036621094,-1.24017550534785,-0.396399839097893,0.40145749999343,ST
7.06666666666667,-4.09129810333252,-2.98234081268311,7.17891216278076,-1.39482593536377,0.426831990480423,3.53660798072815,-1077.90002441406,18.3000011444092,-928.500061035156,-1.25702367423763,-0.481967363885786,0.39395348420046,ST
7.1,-4.15529918670654,-3.11572670936584,7.81593418121338,-1.84452390670776,0.403965979814529,4.31405210494995,-1087.5,18.3000011444092,-940.500061035156,-1.28054197054248,-0.463380288129273,0.380052407523616,ST
7.13333333333333,-5.5926365852356,-2.78375744819641,8.72750377655029,-1.10518991947174,0.137196004390717,4.09301376342773,-1080.30004882812,20.1000003814697,-938.100036621094,-1.33067288805015,-0.546327986107245,0.310495799753113,ST
7.16666666666667,-4.90058517456055,-2.76641130447388,9.23592567443848,-0.282013982534409,-1.00610399246216,4.10063600540161,-1068.30004882812,17.7000007629395,-930.900024414062,-1.35824015318272,-0.473954645132432,0.288654994735575,ST
7.2,-3.78325438499451,-2.92671346664429,8.63120269775391,0.160062000155449,-2.33233189582825,3.46800994873047,-1080.30004882812,15.3000001907349,-938.100036621094,-1.35881678905782,-0.39650194277352,0.321592916094147,NLL
7.23333333333333,-3.9196310043335,-2.5696222782135,8.04203224182129,0.701223969459534,-0.358233988285065,1.83690190315247,-1075.5,17.1000003814697,-933.300048828125,-1.37018147973128,-0.432698412435332,0.307491989474307,NLL
7.26666666666667,-4.27791833877563,-2.30165410041809,7.88771152496338,0.6250039935112,0.579271972179413,1.28811800479889,-1073.10009765625,14.1000003814697,-938.100036621094,-1.3834783366234,-0.478661445348952,0.283461921391647,NLL
7.3,-4.84196758270264,-2.06299519538879,7.82131767272949,0.472563982009888,0.3125019967556,1.02897000312805,-1077.90002441406,16.5,-950.100036621094,-1.39817938930985,-0.536635939267706,0.25785326868545,NLL
7.33333333333333,-4.25937604904175,-2.06957459449768,7.13046216964722,-0.0228659994900227,-0.503051996231079,1.73781597614288,-1082.70007324219,14.1000003814697,-933.300048828125,-1.3936851208663,-0.521789367381775,0.279329225217148,NLL
7.36666666666667,-4.26356315612793,-2.143146276474,6.59871339797974,-0.403965979814529,-0.365855991840363,1.40244793891907,-1070.70007324219,15.3000001907349,-930.900024414062,-1.38331298435912,-0.549389831357823,0.311115403021383,NLL
7.4,-6.28648281097412,-2.0791449546814,6.71535110473633,-1.32622802257538,0.0914639979600906,1.6768399477005,-1065.90002441406,18.9000015258789,-940.500061035156,-1.39822232038558,-0.721626467788531,0.300986789992574,NLL
7.43333333333333,-6.17881679534912,-2.28370976448059,7.41338396072388,-2.72867584228516,-1.87501192092896,2.96495795249939,-1073.10009765625,20.7000007629395,-933.300048828125,-1.4181536095939,-0.673498811629479,0.298924151558312,NLL
7.46666666666667,-6.5054030418396,-2.00258255004883,7.55574178695679,-4.62655401229858,-3.37654590606689,4.94667768478394,-1068.30004882812,20.1000003814697,-942.900024414062,-1.47530860482675,-0.690008898395299,0.26064846756294,NLL
7.5,-5.73918199539185,-2.17365145683289,7.71963310241699,-5.8536958694458,-4.55033397674561,6.85979986190796,-1092.30004882812,29.1000003814697,-930.900024414062,-1.50662687020146,-0.621150892242921,0.273885688260115,NLL
7.53333333333333,-5.65484380722046,-1.95233869552612,7.87335586547852,-6.98937368392944,-5.94515991210938,8.73481178283691,-1082.70007324219,24.9000015258789,-938.100036621094,-1.57212566052158,-0.603636060079283,0.245094716566747,NLL
7.56666666666667,-4.45975399017334,-2.43922710418701,7.21659517288208,-8.0640754699707,-7.50004768371582,10.5640916824341,-1080.30004882812,23.7000007629395,-928.500061035156,-1.58989960376933,-0.527831870596403,0.322306301494387,NLL
7.6,-3.41599440574646,-2.65156769752502,7.70408153533936,-8.07169818878174,-6.75309181213379,9.53512191772461,-1092.30004882812,23.7000007629395,-926.100036621094,-1.64180021929307,-0.398042931353815,0.336236451593008,NLL
7.63333333333333,-3.50152897834778,-2.912358045578,8.06894874572754,-7.59151172637939,-6.91315364837646,8.39182186126709,-1092.30004882812,33.9000015258789,-923.700012207031,-1.68869406889827,-0.382045523439834,0.351593159078074,NLL
7.66666666666667,-3.00088334083557,-3.7371973991394,8.78313159942627,-6.34150409698486,-5.65552377700806,5.79271984100342,-1111.5,33.3000030517578,-921.300048828125,-1.70840329444033,-0.303965102218349,0.405985041462331,NLL
7.7,-3.60859656333923,-3.77188968658447,9.97164154052734,-5.12198400497437,-4.39789390563965,4.29118585586548,-1111.5,33.3000030517578,-921.300048828125,-1.74745878452242,-0.320915867992083,0.369729168918081,NLL
7.73333333333333,-2.82921624183655,-4.0655779838562,9.1450080871582,-3.41465592384338,-4.89332389831543,2.85062789916992,-1123.5,37.5,-909.300048828125,-1.75453749514769,-0.272796352000054,0.418848963311507,NLL
7.76666666666667,-3.41898512840271,-3.90527534484863,8.67606353759766,-2.52288198471069,-4.02441596984863,1.53202199935913,-1116.30004882812,33.9000015258789,-914.100036621094,-1.7674547173928,-0.335601296624387,0.425165047991576,NLL
7.8,-3.28799200057983,-3.9979875087738,8.08808898925781,-1.80641400814056,-2.9192259311676,1.89025592803955,-1121.10009765625,38.7000007629395,-914.100036621094,-1.77011484596529,-0.345691554585926,0.458219759622053,NLL
7.83333333333333,-3.95851016044617,-3.70549559593201,7.28956842422485,-2.78202986717224,-2.10367202758789,1.28049600124359,-1123.5,37.5,-921.300048828125,-1.77678362164958,-0.442290579548737,0.472572074787144,NLL
7.86666666666667,-3.83409643173218,-3.96748232841492,7.02937602996826,-5.26680183410645,-2.98020195960999,3.7881338596344,-1137.90002441406,47.7000007629395,-909.300048828125,-1.78448815345087,-0.442153714132561,0.516265609049078,NLL
7.9,-3.41420006752014,-4.35507917404175,7.21539878845215,-6.87504386901855,-2.10367202758789,5.19820404052734,-1137.90002441406,40.5,-906.900024414062,-1.80281766000891,-0.389846113884595,0.54889494168313,NLL
7.93333333333333,-3.99499678611755,-4.24621677398682,7.76688671112061,-5.57168197631836,-1.16616594791412,5.32015609741211,-1128.30004882812,42.3000030517578,-916.500061035156,-1.84686776714806,-0.424553682040532,0.508639354580298,NLL
7.96666666666667,-3.93936967849731,-4.30363845825195,7.82071924209595,-3.87959790229797,-0.426831990480423,4.1997218132019,-1130.70007324219,56.7000007629395,-897.300048828125,-1.86822311011693,-0.418878371504628,0.506914061552958,NLL
8.0,-3.98482847213745,-4.19118785858154,7.38287878036499,-3.25459384918213,-1.41006994247437,3.65855979919434,-1125.90002441406,47.7000007629395,-904.500061035156,-1.88381319256264,-0.438716657217325,0.518195506539845,NLL
8.03333333333333,-3.81196522712708,-4.70020723342896,6.65015363693237,-2.54574799537659,-1.09756803512573,3.14026403427124,-1125.90002441406,53.7000007629395,-906.900024414062,-1.86097205317253,-0.439359520842614,0.612217580096049,NLL
8.06666666666667,-4.66970205307007,-4.63859891891479,6.6274242401123,-2.82013988494873,-0.899396002292633,1.92074394226074,-1118.70007324219,50.1000022888184,-890.100036621094,-1.8743096144231,-0.520421165372353,0.613533752338587,NLL
8.1,-4.9334831237793,-5.02978420257568,6.78712844848633,-3.30032587051392,-1.94360995292664,1.93598794937134,-1118.70007324219,51.3000030517578,-880.500061035156,-1.87763377153789,-0.527399527889722,0.63911459261672,NLL
8.13333333333333,-4.9873161315918,-5.14642190933228,6.75841760635376,-2.87349390983582,-2.62196803092957,2.69818782806396,-1125.90002441406,48.9000015258789,-887.700012207031,-1.89250789817011,-0.529982176793367,0.651494608448063,NLL
8.16666666666667,-4.46633338928223,-5.46642875671387,7.36314010620117,-2.34757590293884,-3.48325395584106,3.20886182785034,-1130.70007324219,56.7000007629395,-892.500061035156,-1.91928386342943,-0.45643941753259,0.639394030084083,NLL
8.2,-4.72233867645264,-5.14163684844971,7.66221141815186,-1.27287399768829,-4.84759187698364,3.68142580986023,-1116.30004882812,54.9000015258789,-882.900024414062,-1.96388613982133,-0.468873880929626,0.591301335647908,NLL
8.23333333333333,-3.92860293388367,-5.11232805252075,7.03416156768799,0.579271972179413,-3.98630595207214,2.99544596672058,-1135.5,56.7000007629395,-875.700012207031,-1.96742750917407,-0.424297192336364,0.621941776885489,NLL
8.26666666666667,-3.02660346031189,-5.49454116821289,7.55454587936401,0.914639949798584,-3.54422998428345,1.48628997802734,-1133.10009765625,51.9000015258789,-870.900024414062,-1.97871489464559,-0.314331100331309,0.625216245805129,NLL
8.3,-3.59184861183167,-4.75404024124146,7.58325672149658,1.04421401023865,-2.96495795249939,0.99848198890686,-1133.10009765625,49.5000038146973,-882.900024414062,-2.00977147985488,-0.375714303217113,0.559301264400431,NLL
8.33333333333333,-3.73480463027954,-4.71157217025757,7.66041707992554,1.89025592803955,-1.07470202445984,1.27287399768829,-1130.70007324219,54.9000015258789,-882.900024414062,-2.01765254613024,-0.3923171495743,0.547540880901069,NLL
8.36666666666667,-2.26337289810181,-5.61835670471191,7.91761827468872,1.2500079870224,-0.228659987449646,-0.144817993044853,-1130.70007324219,54.3000030517578,-892.500061035156,-1.99587606944949,-0.235823717335415,0.61222645859096,NLL
8.4,-4.03507232666016,-4.94006299972534,7.99537706375122,2.9268479347229,1.81403601169586,-3.3613018989563,-1140.30004882812,51.9000015258789,-887.700012207031,-1.99524789790001,-0.394785331069436,0.554965568298677,NLL
8.43333333333333,-3.66063499450684,-5.89110994338989,7.52942371368408,4.02441596984863,3.05642199516296,-2.46952795982361,-1145.10009765625,50.7000007629395,-890.100036621094,-1.93831123624153,-0.369208071840628,0.653263420333068,NLL
8.46666666666667,-3.57210993766785,-5.57229995727539,8.52832221984863,3.39941191673279,1.70732796192169,-2.69818782806396,-1135.5,50.7000007629395,-904.500061035156,-1.94714871136646,-0.339065130222763,0.579517581844922,NLL
8.5,-3.72463631629944,-5.12010383605957,8.89857292175293,5.92991590499878,1.53964400291443,-2.5076379776001,-1128.30004882812,41.7000007629395,-899.700012207031,-1.948757055302,-0.34761483617557,0.517618398276721,NLL
8.53333333333333,-4.58057880401611,-4.67388916015625,8.47269535064697,7.18754577636719,0.541162014007568,-1.2423859834671,-1142.70007324219,51.3000030517578,-906.900024414062,-1.94135113223638,-0.436201814870901,0.49413235905045,NLL
8.56666666666667,-2.47272300720215,-5.0734486579895,7.67058563232422,8.07169818878174,-0.46494197845459,-0.792688012123108,-1140.30004882812,51.3000030517578,-918.900024414062,-1.90367964845485,-0.271999394558071,0.566371521417016,NLL
8.6,-3.95492124557495,-3.45487380027771,7.30691432952881,8.26986980438232,1.08232402801514,-2.99544596672058,-1152.30004882812,48.3000030517578,-911.700012207031,-1.92301141554319,-0.44648332883366,0.43620219769759,NLL
8.63333333333333,-2.71198034286499,-3.96688413619995,7.77346611022949,7.73633003234863,1.33385002613068,-0.518296003341675,-1145.10009765625,42.3000030517578,-918.900024414062,-1.89992498305308,-0.311711478791803,0.457883980431527,NLL
8.66666666666667,-3.15998935699463,-3.30115103721619,6.8780460357666,6.77595806121826,1.03659200668335,-4.82472610473633,-1149.90002441406,40.5,-921.300048828125,-1.87829736089697,-0.385926206462161,0.44009210899061,NLL
8.7,-3.99439883232117,-2.67250275611877,7.73458671569824,7.85828161239624,3.50611996650696,-4.47411394119263,-1154.70007324219,38.7000007629395,-930.900024414062,-1.8897710458004,-0.452968287106248,0.330669705890676,NLL
8.73333333333333,-3.47760319709778,-3.00207948684692,7.43671178817749,8.18602752685547,2.73629784584045,-3.27745985984802,-1128.30004882812,35.1000022888184,-935.700012207031,-1.84181257991086,-0.413447621091805,0.370778504350079,NLL
8.76666666666667,-4.14572906494141,-2.46674156188965,7.93197393417358,8.07931995391846,3.07928800582886,-5.54119396209717,-1142.70007324219,25.5000019073486,-921.300048828125,-1.83434751160611,-0.462618573955922,0.296592043843647,NLL
8.8,-4.74506807327271,-1.36137342453003,8.79210376739502,7.68297576904297,2.21800184249878,-5.05338573455811,-1140.30004882812,30.9000015258789,-933.300048828125,-1.86599073489755,-0.490634594719337,0.154438463920186,NLL
8.83333333333333,-2.70779323577881,-2.26756000518799,8.3991231918335,6.05186796188354,-0.769822001457214,-4.59606599807739,-1140.30004882812,24.9000015258789,-950.100036621094,-1.80313330386268,-0.310366647887136,0.250237585113829,NLL
8.86666666666667,-3.83050751686096,-0.86790543794632,7.50430154800415,5.48021793365479,0.259148001670837,-7.39333963394165,-1149.90002441406,20.7000007629395,-935.700012207031,-1.81605128253948,-0.458513100735787,0.120618389077768,NLL
8.9,-4.2444224357605,-0.82962429523468,8.656325340271,4.60368776321411,2.63721203804016,-2.36281991004944,-1133.10009765625,23.1000003814697,-945.300048828125,-1.8102841594692,-0.458278616866582,0.0912643926106748,NLL
8.93333333333333,-3.83230209350586,-1.06768524646759,8.83875846862793,2.66007804870605,0.426831990480423,-3.24697184562683,-1133.10009765625,19.5,-950.100036621094,-1.7815234737971,-0.408851327197834,0.116953878397715,NLL
8.96666666666667,-3.45547199249268,-0.637022256851196,8.79987907409668,2.66007804870605,1.08994603157043,-3.67380380630493,-1121.10009765625,14.7000007629395,-947.700012207031,-1.77890778447095,-0.376192155284944,0.072259914049044,NLL
9.0,-3.66781258583069,-0.0394774377346039,8.68503570556641,2.97257995605469,1.265251994133,-3.55185198783875,-1130.70007324219,19.5,-945.300048828125,-1.78594721029426,-0.400194954998871,0.0062587937046495,NLL
9.03333333333333,-3.68814945220947,-0.279930919408798,8.57916450500488,4.06252574920654,2.37044191360474,-2.76678586006165,-1125.90002441406,14.7000007629395,-954.900024414062,-1.76056603357778,-0.409329799484617,0.0264968698814142,NLL
9.06666666666667,-4.4621467590332,-0.551487803459167,8.90874099731445,3.68904781341553,1.50915598869324,-4.66466379165649,-1135.5,14.1000003814697,-945.300048828125,-1.7214718954566,-0.463308013184998,0.0579621691943917,NLL
9.1,-3.75514149665833,-0.638816714286804,8.74245738983154,3.42227792739868,-0.205793991684914,-4.90856790542603,-1121.10009765625,15.3000001907349,-952.500061035156,-1.691254239554,-0.406698044367743,0.0701226024568565,NLL
9.13333333333333,-4.15828990936279,-0.783567309379578,8.9356575012207,2.56099200248718,-0.335367977619171,-5.0000319480896,-1125.90002441406,15.9000005722046,-945.300048828125,-1.66162535920363,-0.431359533659099,0.0860092779302269,NLL
9.16666666666667,-3.60082077980042,-0.768613696098328,8.95479869842529,0.899396002292633,-0.137196004390717,-3.52136397361755,-1123.5,10.5,-938.100036621094,-1.64570880665314,-0.382524742344706,0.0865291744517244,NLL
9.2,-3.06907153129578,-1.00787091255188,9.1868782043457,0.396344006061554,0.0609759986400604,-3.7957558631897,-1123.5,14.7000007629395,-957.300048828125,-1.62189277013308,-0.323079594532487,0.109684340042935,NLL
9.23333333333333,-3.9878191947937,-0.629844546318054,8.02229309082031,0.739333987236023,1.92836594581604,-3.52136397361755,-1128.30004882812,10.5,-940.500061035156,-1.61761088270588,-0.454420210431453,0.0819985086641403,NLL
9.26666666666667,-3.3107213973999,-1.13706982135773,7.98401260375977,0.282013982534409,1.99696397781372,-4.26832008361816,-1121.10009765625,9.30000019073486,-945.300048828125,-1.57382586807631,-0.3944703606256,0.141933811425602,NLL
9.3,-3.74676752090454,-1.50133883953094,8.08808898925781,0.205793991684914,2.5152599811554,-3.74240183830261,-1109.10009765625,7.50000047683716,-952.500061035156,-1.5416112194822,-0.428384834279598,0.18370429677593,NLL
9.33333333333333,-3.81196522712708,-1.82134532928467,7.97444200515747,-0.0990860015153885,1.73019397258759,-4.51222372055054,-1123.5,14.7000007629395,-947.700012207031,-1.50533766574554,-0.436892665950321,0.226404002942691,NLL
9.36666666666667,-4.01593208312988,-2.13537049293518,8.80466461181641,-0.830797970294952,0.358233988285065,-5.48021793365479,-1111.5,10.5,-952.500061035156,-1.47832161966195,-0.416501440459575,0.242833746819847,NLL
9.4,-4.76779747009277,-2.68625998497009,8.1132116317749,-0.67835795879364,-0.0762199983000755,-6.02900171279907,-1094.70007324219,10.5,-940.500061035156,-1.42185326440977,-0.501606960100405,0.322461404934486,NLL
9.43333333333333,-4.45915603637695,-3.30354356765747,8.53250980377197,-1.19665396213531,-0.327746003866196,-5.66314601898193,-1106.70007324219,12.3000001907349,-950.100036621094,-1.3803155152766,-0.451697312888694,0.373625286820263,NLL
9.46666666666667,-4.50700712203979,-3.49375319480896,8.32256126403809,-2.05031800270081,-1.47104597091675,-5.60216999053955,-1116.30004882812,15.3000001907349,-947.700012207031,-1.35431012013754,-0.456633787958343,0.403065281854458,NLL
9.5,-4.78454542160034,-3.2048499584198,7.9014687538147,-1.49391198158264,0.152439996600151,-3.60520601272583,-1118.70007324219,14.1000003814697,-945.300048828125,-1.34925184388368,-0.507120040048072,0.391696930433595,NLL
9.53333333333333,-3.88852739334106,-3.89929413795471,8.79030895233154,-0.663114011287689,2.0655620098114,0.175305992364883,-1116.30004882812,14.1000003814697,-945.300048828125,-1.33660630051697,-0.394915255645446,0.417631337511534,NLL
9.56666666666667,-5.08660793304443,-3.55835247039795,9.16654109954834,0.228659987449646,1.34909391403198,-0.0076219998300075,-1104.30004882812,24.3000011444092,-952.500061035156,-1.35296631181427,-0.474452763923203,0.373328490430934,NLL
9.6,-4.11761617660522,-3.72822523117065,9.63010215759277,1.82165801525116,0.0076219998300075,0.846041977405548,-1111.5,9.30000019073486,-940.500061035156,-1.35593260049466,-0.384577219741248,0.366027632244557,NLL
9.63333333333333,-3.7312159538269,-3.26526236534119,9.186279296875,2.75154185295105,-1.56251001358032,0.221037998795509,-1104.30004882812,13.5000009536743,-940.500061035156,-1.36493238716685,-0.364380643119976,0.338027391484945,NLL
9.66666666666667,-3.16298007965088,-2.8680956363678,8.05040645599365,2.21800184249878,-1.60061991214752,2.53812599182129,-1113.90002441406,15.9000005722046,-950.100036621094,-1.37432902006104,-0.353744959242507,0.336545659585188,NLL
9.7,-3.45906090736389,-2.77538347244263,8.12696838378906,2.21800184249878,0.67835795879364,3.20123982429504,-1118.70007324219,17.7000007629395,-952.500061035156,-1.38661419804278,-0.384243324644904,0.32390394463473,NLL
9.73333333333333,-3.6074001789093,-2.70240998268127,8.42603969573975,2.57623600959778,1.46342396736145,3.95581793785095,-1101.90002441406,5.70000028610229,-940.500061035156,-1.40229970498945,-0.391181611780528,0.304716678914856,NLL
9.76666666666667,-3.63012957572937,-2.46733975410461,9.00504207611084,2.62196803092957,0.769822001457214,2.66007804870605,-1109.10009765625,5.10000038146973,-938.100036621094,-1.42241954135877,-0.374427522366251,0.263851342399461,NLL
9.8,-3.02959418296814,-2.34053349494934,9.15457820892334,2.79727387428284,-0.320124000310898,1.89787793159485,-1116.30004882812,8.10000038146973,-947.700012207031,-1.43220234124964,-0.314408446656159,0.245493453848561,NLL
9.83333333333333,-3.57749319076538,-1.95114243030548,9.43630313873291,3.67380380630493,0.297257989645004,0.175305992364883,-1125.90002441406,5.70000028610229,-954.900024414062,-1.44247802253628,-0.35354815973512,0.200358015450132,NLL
9.86666666666667,-3.78445053100586,-1.41281366348267,8.30641174316406,4.32929611206055,0.899396002292633,0.221037998795509,-1106.70007324219,7.50000047683716,-959.700012207031,-1.44995481421083,-0.41950701995058,0.163302505058666,NLL
9.9,-4.62543964385986,-0.865512907505035,7.76389598846436,3.42989993095398,2.59910202026367,1.72257196903229,-1106.70007324219,5.10000038146973,-947.700012207031,-1.47397129323363,-0.532154222383253,0.107439984365898,NLL
9.93333333333333,-4.10266256332397,-1.24234294891357,9.16055965423584,2.09605002403259,1.99696397781372,3.07928800582886,-1101.90002441406,2.70000004768372,-947.700012207031,-1.47096890454989,-0.428516802529586,0.127685551714441,NLL
9.96666666666667,-4.38199520111084,-0.386998504400253,7.54497528076172,1.63872992992401,1.57013201713562,3.57471799850464,-1104.30004882812,6.90000009536743,-942.900024414062,-1.51560044359588,-0.522671847006488,0.0502636396942061,NLL
10.0,-5.03098058700562,-0.0945065915584564,8.44817161560059,1.52439999580383,2.9192259311676,4.5808219909668,-1092.30004882812,4.5,-947.700012207031,-1.5502441182882,-0.541105609093369,0.0066266880611161,NLL
10.0333333333333,-4.54409217834473,0.0131591456010938,8.69520473480225,2.11891603469849,1.92836594581604,4.04728174209595,-1099.5,6.90000009536743,-938.100036621094,-1.56761001336407,-0.488297903087356,-0.0080692084712857,NLL
10.0666666666667,-5.28758382797241,0.257799625396729,8.36682415008545,2.30946588516235,0.602137982845306,3.27745985984802,-1101.90002441406,-3.30000019073486,-952.500061035156,-1.58854354882657,-0.559633061075222,-0.0364788098790427,NLL
10.1,-4.70618867874146,0.131591454148293,8.64196968078613,2.69056582450867,0.99848198890686,2.65245604515076,-1087.5,0.300000011920929,-945.300048828125,-1.58579188242204,-0.5038630468137,-0.0233029174221926,NLL
10.1333333333333,-4.13735485076904,0.699827253818512,8.02648067474365,2.17989206314087,-0.884151995182037,-0.724089980125427,-1089.90002441406,1.5,-950.100036621094,-1.60841812910083,-0.474875076285771,-0.0860565219894421,ST
10.1666666666667,-6.1028528213501,0.842185318470001,8.01870441436768,1.93598794937134,0.724089980125427,0.236281991004944,-1080.30004882812,-1.5,-935.700012207031,-1.61635651196408,-0.638477406419968,-0.106909718676872,ST
10.2,-4.11103677749634,0.336156338453293,8.48824691772461,2.17227005958557,0.449698001146317,0.403965979814529,-1082.70007324219,4.5,-947.700012207031,-1.58212170643967,-0.462874943060739,-0.0470507744752777,ST
10.2333333333333,-4.75822734832764,0.512608528137207,8.45355415344238,2.09605002403259,0.160062000155449,-1.00610399246216,-1085.10009765625,1.5,-945.300048828125,-1.58133948060388,-0.509846958261246,-0.0624573652300527,ST
10.2666666666667,-4.79770469665527,0.403746515512466,8.67845630645752,1.59299790859222,-0.746955990791321,-1.70732796192169,-1101.90002441406,2.10000014305115,-940.500061035156,-1.56528695577675,-0.503797976580977,-0.0484875936260582,ST
10.3,-3.59962439537048,0.185424327850342,8.7340841293335,1.42531394958496,-1.41006994247437,-1.85214591026306,-1080.30004882812,-5.10000038146973,-935.700012207031,-1.5451833740739,-0.395457310360826,-0.023751491461698,ST
10.3333333333333,-3.59304475784302,-0.0143554313108325,7.73578310012817,1.41006994247437,-2.43141794204712,-3.50611996650696,-1077.90002441406,3.90000009536743,-950.100036621094,-1.52013172076635,-0.428476018863365,0.0005593058702139,ST
10.3666666666667,-4.32038688659668,-0.468944102525711,9.2108039855957,1.2423859834671,0.0304879993200302,-3.20886182785034,-1082.70007324219,-3.90000009536743,-952.500061035156,-1.48626872829327,-0.437370946207918,0.0482254991073943,ST
10.4,-4.32935905456543,-0.169274464249611,8.80167388916016,1.10518991947174,-0.815553963184357,-4.32929611206055,-1080.30004882812,-5.10000038146973,-947.700012207031,-1.47974707488724,-0.4543529883328,0.0226220501532295,ST
10.4333333333333,-4.14034557342529,-0.326586067676544,8.6862325668335,1.44055795669556,-1.31098401546478,-4.00154972076416,-1080.30004882812,-3.90000009536743,-942.900024414062,-1.4564246766727,-0.442740684502892,0.0374023142106164,ST
10.4666666666667,-4.24023532867432,-0.497056812047958,7.93855333328247,1.91312193870544,-0.78506600856781,-3.02593398094177,-1077.90002441406,3.30000019073486,-950.100036621094,-1.42995208168258,-0.486310754011,0.0609135438194367,ST
10.5,-4.12299966812134,-0.57660984992981,8.12098693847656,1.53964400291443,-0.114329993724823,-3.04879999160767,-1089.90002441406,1.5,-942.900024414062,-1.41146657202932,-0.469191705939534,0.0703573087382552,ST
10.5333333333333,-4.18281364440918,-0.795530140399933,7.82849502563477,1.34909391403198,-1.00610399246216,-2.82776188850403,-1087.5,-4.5,-942.900024414062,-1.38534219648367,-0.485437605644644,0.0996946508934281,ST
10.5666666666667,-3.90467739105225,-1.06469452381134,9.05827713012695,1.52439999580383,-1.34909391403198,-3.40703392028809,-1094.70007324219,0.300000011920929,-935.700012207031,-1.36251354031506,-0.405166919497996,0.116111874379401,ST
10.6,-4.27193689346313,-1.86082279682159,7.77765321731567,1.14329993724823,-1.6920839548111,-4.03203773498535,-1097.10009765625,-1.5,-942.900024414062,-1.29901525333065,-0.481472494399756,0.228428959590958,ST
10.6333333333333,-4.82163047790527,-1.91226303577423,8.33871078491211,0.0152439996600151,-0.830797970294952,-3.86435389518738,-1092.30004882812,-3.30000019073486,-942.900024414062,-1.28613153491956,-0.50853375919842,0.228836563267888,ST
10.6666666666667,-4.96638107299805,-2.2651674747467,8.51396751403809,-0.564027965068817,-0.92988395690918,-2.84300589561462,-1094.70007324219,-3.30000019073486,-947.700012207031,-1.26248204950563,-0.510370240916742,0.261365049492423,ST
10.7,-6.02329969406128,-2.33395385742188,10.0374374389648,-0.99848198890686,-1.31098401546478,-1.47866797447205,-1101.90002441406,-1.5,-942.900024414062,-1.2745051980948,-0.525172923504746,0.233200083231956,ST
10.7333333333333,-4.03686714172363,-2.32677626609802,11.0291585922241,0.0533539988100529,-2.9344699382782,-0.236281991004944,-1087.5,-2.70000004768372,-938.100036621094,-1.28647970767453,-0.346973009160951,0.208676284305139,ST
10.7666666666667,-3.26346802711487,-1.90030026435852,8.90874099731445,1.2576299905777,-3.14026403427124,-1.54726600646973,-1106.70007324219,0.900000035762787,-959.700012207031,-1.28140687410698,-0.338579403150264,0.208503067530194,ST
10.8,-2.37402939796448,-1.86022460460663,9.40878868103027,2.43141794204712,-1.87501192092896,-0.800309956073761,-1125.90002441406,-4.5,-945.300048828125,-1.28178668230803,-0.245179768298711,0.192202044527087,NLR
10.8333333333333,-2.23765277862549,-1.5001425743103,9.85440540313721,2.81251788139343,-2.5076379776001,-1.60061991214752,-1130.70007324219,-5.70000028610229,-940.500061035156,-1.28446980233695,-0.217834801654235,0.149383186480635,NLR
10.8666666666667,-1.13946235179901,-1.83091568946838,8.64077377319336,4.93905591964722,-3.71191382408142,-3.22410583496094,-1118.70007324219,0.300000011920929,-945.300048828125,-1.26297913870339,-0.126766270410883,0.197737408406534,NLR
10.9,-1.88056147098541,-1.28540921211243,9.08758640289307,6.17382001876831,-0.884151995182037,-6.04424571990967,-1113.90002441406,-9.30000019073486,-942.900024414062,-1.24553699723416,-0.194685509287692,0.135680896883189,NLR
10.9333333333333,-4.81086397171021,-1.05392789840698,10.19056224823,7.84303760528564,1.62348592281342,-6.54729795455933,-1106.70007324219,-8.70000076293945,-950.100036621094,-1.22150144238982,-0.425596148577983,0.0968600245864324,NLR
10.9666666666667,-3.76650619506836,-1.01385235786438,10.9244832992554,8.75767803192139,0.510673999786377,-6.18144178390503,-1104.30004882812,-14.1000003814697,-947.700012207031,-1.18772768032201,-0.334833295739322,0.0818805134223954,NLR
11.0,-3.31012320518494,0.234472051262856,8.95778942108154,10.5945796966553,-0.503051996231079,-9.2302417755127,-1101.90002441406,-14.7000007629395,-945.300048828125,-1.17641507853696,-0.352175642730706,-0.0314549430035159,NLR
11.0333333333333,-3.16298007965088,0.455186814069748,8.5546407699585,9.98481941223145,1.93598794937134,-9.05493545532227,-1094.70007324219,-18.9000015258789,-928.500061035156,-1.1366530889417,-0.357719169081978,-0.0631484715171801,NLR
11.0666666666667,-3.70190691947937,0.796128273010254,8.38357162475586,9.35219383239746,2.19513607025146,-9.22262001037598,-1092.30004882812,-21.9000015258789,-926.100036621094,-1.10320621855039,-0.415791727930108,-0.101740257202828,NLR
11.1,-4.05481100082397,1.39427125453949,7.37629890441895,9.08542346954346,1.2423859834671,-8.74243354797363,-1082.70007324219,-21.3000011444092,-916.500061035156,-1.0948393595034,-0.495009885561008,-0.189165688043929,NLR
11.1333333333333,-4.61527109146118,1.76691436767578,7.71903514862061,7.82779359817505,1.78354799747467,-5.64027976989746,-1063.5,-26.7000007629395,-923.700012207031,-1.08169011802501,-0.530644238366612,-0.23081506667766,NLR
11.1666666666667,-5.72841501235962,2.05043411254883,7.49712419509888,6.54729795455933,2.11129403114319,-4.34454011917114,-1063.5,-32.1000022888184,-923.700012207031,-1.07689556511763,-0.633999694120067,-0.271136185946805,NLR
11.2,-5.04832649230957,2.77538347244263,8.24599933624268,5.0686297416687,1.17378795146942,-1.98171997070312,-1073.10009765625,-36.9000015258789,-914.100036621094,-1.09228866461318,-0.535186152036964,-0.328362180147322,NLR
11.2333333333333,-4.26296472549438,2.89142322540283,9.17790603637695,5.23631381988525,-1.57775402069092,0.518296003341675,-1051.5,-34.5,-909.300048828125,-1.07674516578304,-0.421478326653261,-0.315045795257975,NLR
11.2666666666667,-3.67977547645569,2.4996395111084,7.60239696502686,3.85673189163208,-1.47104597091675,-0.3125019967556,-1070.70007324219,-35.1000022888184,-894.900024414062,-1.07092010932131,-0.428285455280297,-0.323263908468663,NLR
11.3,-4.63740253448486,2.17185711860657,7.59222888946533,1.60824191570282,0.594515979290009,-2.11129403114319,-1070.70007324219,-27.9000015258789,-897.300048828125,-1.04249877085954,-0.526704775581072,-0.28239680581775,NLR
11.3333333333333,-4.34969568252563,1.64429497718811,7.55095672607422,1.2500079870224,1.14329993724823,-3.71191382408142,-1056.30004882812,-38.1000022888184,-890.100036621094,-0.995893300325634,-0.516757662107932,-0.217378954039468,NLR
11.3666666666667,-5.13206672668457,1.9206371307373,8.85670280456543,0.640248000621796,1.51677799224854,-4.43600368499756,-1053.90002441406,-30.3000011444092,-902.100036621094,-0.977426350400537,-0.519318242863214,-0.211073016802278,NLR
11.4,-4.82521915435791,2.2370548248291,9.70427131652832,2.5000159740448,-2.08842802047729,-2.33995389938354,-1037.10009765625,-33.3000030517578,-882.900024414062,-0.970664245586225,-0.45282479633637,-0.227501811794597,NLR
11.4333333333333,-5.18649768829346,2.18860507011414,9.04571628570557,1.86738991737366,-1.96647596359253,-2.08842802047729,-1046.70007324219,-33.9000015258789,-899.700012207031,-0.962601870321453,-0.503035774894579,-0.237686123665343,NLR
11.4666666666667,-5.25588226318359,2.83101058006287,9.37050819396973,0.960371971130371,-1.6844619512558,-1.62348592281342,-1037.10009765625,-32.7000007629395,-885.300048828125,-0.978483279246973,-0.491505359169994,-0.28981663938196,NLR
11.5,-4.00396919250488,3.07624936103821,7.72681093215942,0.0685980021953583,-2.52288198471069,-1.50153398513794,-1039.5,-35.1000022888184,-897.300048828125,-1.00736529321665,-0.44839499626868,-0.371848191321113,NLR
11.5333333333333,-4.35986423492432,2.87347888946533,7.1825008392334,-3.41465592384338,-1.20427596569061,0.0152439996600151,-1041.90002441406,-26.1000003814697,-899.700012207031,-1.01344543551281,-0.507816536220374,-0.374018361629253,NLR
11.5666666666667,-4.64996337890625,3.47939777374268,6.44917774200439,-5.4192419052124,-0.846041977405548,2.33995389938354,-1039.5,-31.5000019073486,-887.700012207031,-1.08464753478315,-0.559221598503519,-0.47988187122804,NLR
11.6,-3.80837631225586,1.68915569782257,6.25059413909912,-9.16164398193359,-1.60061991214752,8.94060611724854,-1051.5,-30.3000011444092,-899.700012207031,-1.02192212641196,-0.527099224692242,-0.269627236276051,NLR
11.6333333333333,-4.42565965652466,0.191405743360519,8.3339262008667,-11.9284296035767,-0.495429992675781,9.89335536956787,-1061.10009765625,-25.5000019073486,-921.300048828125,-0.965486985848815,-0.488417115085278,-0.0214030230717266,NLR
11.6666666666667,-4.94783878326416,0.648985147476196,9.64505577087402,-11.1433639526367,-1.62348592281342,9.80951404571533,-1053.90002441406,-24.9000015258789,-906.900024414062,-1.03605815111135,-0.470607638471609,-0.0543035012502442,NLR
11.7,-2.93867635726929,-1.07904994487762,9.07801628112793,-10.0076856613159,-4.90094566345215,11.1738519668579,-1082.70007324219,-26.7000007629395,-923.700012207031,-1.02742976169832,-0.314725862935753,0.11810597046003,NLR
11.7333333333333,-2.74069118499756,-1.04375946521759,9.69230842590332,-9.55798816680908,-4.51984596252441,7.40858364105225,-1094.70007324219,-18.9000015258789,-935.700012207031,-1.06953624424779,-0.270367924206017,0.119935712026172,NLR
11.7666666666667,-2.50502276420593,-1.75315701961517,9.40998554229736,-7.89639186859131,-3.47563195228577,5.45735168457031,-1099.5,-18.9000015258789,-930.900024414062,-1.08426591748545,-0.252661253837567,0.191550491897621,NLR
11.8,-2.37103867530823,-1.63891172409058,9.62172794342041,-6.29577207565308,-1.69970595836639,3.03355598449707,-1118.70007324219,-8.70000076293945,-940.500061035156,-1.10627099053651,-0.237351392981784,0.179100407432968,NLR
11.8333333333333,-2.48468589782715,-1.73820352554321,10.0799055099487,-4.60368776321411,-1.58537602424622,3.09453201293945,-1118.70007324219,-8.70000076293945,-940.500061035156,-1.1240286567076,-0.236584790394665,0.177502963605328,NLR
11.8666666666667,-2.91355443000793,-1.73880159854889,9.72042179107666,-2.39330792427063,-0.907018005847931,2.42379593849182,-1111.5,-7.50000047683716,-940.500061035156,-1.13662815317722,-0.28367309051838,0.179808119610427,NLR
11.9,-2.22868061065674,-1.49595558643341,10.1821880340576,-1.33385002613068,-0.891773998737335,2.88111591339111,-1109.10009765625,-3.90000009536743,-930.900024414062,-1.15811549823933,-0.215983652413475,0.148598847364866,NLR
11.9333333333333,-2.6096978187561,-1.4660484790802,8.85610485076904,-0.6250039935112,-0.716467976570129,2.31708788871765,-1125.90002441406,-6.90000009536743,-940.500061035156,-1.16457945323875,-0.278300929078702,0.163039514009173,NLR
11.9666666666667,-2.93508744239807,-1.39666378498077,9.93635082244873,-1.21951997280121,0.0228659994900227,2.56099200248718,-1137.90002441406,-11.1000003814697,-947.700012207031,-1.18274265582745,-0.284952917155895,0.141479208860868,NLR
12.0,-2.13178157806396,-1.65087461471558,9.78442287445068,-0.78506600856781,-0.3125019967556,3.11739802360535,-1118.70007324219,-9.90000057220459,-945.300048828125,-1.18972625201807,-0.216393747652756,0.16573277765927,NLR
12.0333333333333,-3.26765513420105,-1.33086812496185,10.4417819976807,-1.15092194080353,0.78506600856781,2.53812599182129,-1118.70007324219,-3.30000019073486,-954.900024414062,-1.20938029837689,-0.297696909660647,0.129931793470199,NLR
12.0666666666667,-1.79562520980835,-1.37333631515503,9.3118896484375,-0.434453994035721,-1.47866797447205,2.69056582450867,-1116.30004882812,-6.90000009536743,-940.500061035156,-1.21733983293383,-0.193354443700372,0.145179900377125,NLR
12.1,-3.19049453735352,-1.41580438613892,9.43929386138916,-1.30336201190948,1.93598794937134,2.75154185295105,-1116.30004882812,-6.30000019073486,-947.700012207031,-1.22709621730459,-0.318504250796141,0.149573790580474,NLR
12.1333333333333,-2.69343781471252,-1.14065861701965,9.02238845825195,-1.10518991947174,1.09756803512573,2.83538389205933,-1121.10009765625,-3.30000019073486,-945.300048828125,-1.24602766202935,-0.291860566329078,0.127400770947052,NLR
12.1666666666667,-2.55407047271729,-1.12151801586151,8.89857292175293,-1.28811800479889,0.937505960464478,4.02441596984863,-1121.10009765625,-3.90000009536743,-945.300048828125,-1.26293186578203,-0.280654132448719,0.125763441523061,NLR
12.2,-3.49076247215271,-1.02820777893066,8.74664497375488,-1.31860601902008,1.2423859834671,4.37502813339233,-1111.5,-3.30000019073486,-940.500061035156,-1.28340891369917,-0.374343127388077,0.117145654031642,NLR
12.2333333333333,-3.49913644790649,-0.821250319480896,9.49252891540527,-0.891773998737335,0.777444005012512,3.97868394851685,-1118.70007324219,-5.10000038146973,-954.900024414062,-1.31053520980971,-0.355062167113332,0.0870421245338349,NLR
12.2666666666667,-3.40702247619629,-0.320604622364044,9.04631423950195,0.0533539988100529,0.426831990480423,3.92532992362976,-1113.90002441406,-4.5,-971.700012207031,-1.34465734029446,-0.360764945828064,0.0351631237700944,NLR
12.3,-3.6193630695343,-0.174657747149467,8.41467571258545,0.25152599811554,0.487807989120483,3.26221585273743,-1116.30004882812,-1.5,-942.900024414062,-1.36243046055088,-0.4042833058154,0.0189890882042768,NLR
12.3333333333333,-3.2168128490448,0.0239257179200649,8.19934368133545,0.350611984729767,0.792688012123108,2.79727387428284,-1121.10009765625,0.300000011920929,-938.100036621094,-1.38108360018296,-0.377015750594026,-0.0040131828228722,NLR
12.3666666666667,-3.53562307357788,0.155517175793648,9.08878231048584,-0.609759986400604,1.01372599601746,2.33233189582825,-1109.10009765625,4.5,-945.300048828125,-1.39546780333409,-0.372920866658403,-0.0168258491680924,NLR
12.4,-4.91135215759277,0.300865918397903,8.94343376159668,-0.952749967575073,1.76830399036407,2.30184388160706,-1118.70007324219,-4.5,-942.900024414062,-1.41395442783332,-0.499673689751853,-0.0333869596781543,NLR
12.4333333333333,-4.26715183258057,0.226098045706749,9.62412071228027,-1.11281192302704,1.82165801525116,1.6768399477005,-1109.10009765625,1.5,-938.100036621094,-1.41779741013527,-0.425147357652997,-0.0235475621406623,NLR
12.4666666666667,-3.6714015007019,0.116637878119946,9.38247108459473,-1.35671591758728,1.32622802257538,1.42531394958496,-1097.10009765625,-3.30000019073486,-947.700012207031,-1.4213043491877,-0.377439156350958,-0.0116158197419636,NLR
12.5,-2.96977996826172,0.112450875341892,9.20242977142334,-0.67835795879364,-0.205793991684914,-0.129574000835419,-1116.30004882812,-2.10000014305115,-954.900024414062,-1.421506664977,-0.315763226556316,-0.0109963816228554,NLR
12.5333333333333,-3.86220908164978,0.113647162914276,8.42245101928711,-0.358233988285065,0.716467976570129,-0.480185985565186,-1113.90002441406,-3.90000009536743,-940.500061035156,-1.42081150023104,-0.424150888713771,-0.0123891238329706,ST
12.5666666666667,-4.92690372467041,-0.185424327850342,8.58514595031738,-0.449698001146317,2.4847719669342,-0.685979962348938,-1109.10009765625,-2.10000014305115,-942.900024414062,-1.40403910187992,-0.519075487917949,0.0208540973044783,ST
12.6,-3.61577415466309,-0.516197383403778,8.23762512207031,0.0381099991500378,1.55488801002502,-2.03507399559021,-1089.90002441406,-1.5,-940.500061035156,-1.37779136558128,-0.4216904971829,0.0617570146124304,ST
12.6333333333333,-3.865797996521,-0.681882977485657,9.07622146606445,0.160062000155449,1.52439999580383,-1.57775402069092,-1087.5,-2.70000004768372,-940.500061035156,-1.36594776934543,-0.405159922492181,0.0751245658682043,ST
12.6666666666667,-4.55366230010986,-0.96958976984024,9.83705902099609,0.602137982845306,0.137196004390717,-1.79117000102997,-1099.5,-1.5,-945.300048828125,-1.34939761265956,-0.430042395948673,0.0971823202219886,ST
12.7,-3.64149451255798,-0.888242304325104,9.11390399932861,1.17378795146942,-1.10518991947174,-1.60824191570282,-1094.70007324219,-3.90000009536743,-950.100036621094,-1.34238291575492,-0.379555019584465,0.0962358182155764,ST
12.7333333333333,-3.52246403694153,-0.914560616016388,7.48994636535645,1.37958192825317,-0.579271972179413,-1.34147191047668,-1092.30004882812,-0.900000035762787,-945.300048828125,-1.32663405020279,-0.432096633882566,0.118606674016329,ST
12.7666666666667,-3.61457800865173,-1.09340536594391,7.82131767272949,1.02134799957275,1.00610399246216,-1.6768399477005,-1085.10009765625,1.5,-942.900024414062,-1.31019842322821,-0.430667122204744,0.13747289237633,ST
12.8,-2.81246829032898,-1.42597281932831,7.82670068740845,0.708845973014832,0.922261953353882,-1.56251001358032,-1089.90002441406,-8.70000076293945,-945.300048828125,-1.28756066279327,-0.346376262597194,0.177619136427276,ST
12.8333333333333,-4.02071714401245,-1.87936520576477,7.97384405136108,0.518296003341675,0.670735955238342,-3.05642199516296,-1085.10009765625,-6.30000019073486,-938.100036621094,-1.25449087073204,-0.450213205708782,0.229958053430645,ST
12.8666666666667,-5.4556622505188,-2.15391278266907,9.02836990356445,0.83841997385025,1.04421401023865,-3.23934984207153,-1087.5,-3.30000019073486,-942.900024414062,-1.23816397814875,-0.526881895500096,0.235731613756558,ST
12.9,-3.69413089752197,-2.70360612869263,9.18269062042236,1.50153398513794,-1.10518991947174,-3.12502002716064,-1094.70007324219,-4.5,-942.900024414062,-1.20493506052376,-0.37476557855222,0.282936125309761,ST
12.9333333333333,-3.49195861816406,-2.52655601501465,8.4176664352417,1.34909391403198,-1.81403601169586,-3.14788603782654,-1080.30004882812,5.10000038146973,-945.300048828125,-1.1904330600488,-0.373660576469171,0.290509504670501,ST
12.9666666666667,-4.59134531021118,-2.25559711456299,8.61804389953613,1.265251994133,-2.01220798492432,-2.40092992782593,-1087.5,2.10000014305115,-940.500061035156,-1.19521909744596,-0.465473900354151,0.257569312110606,ST
13.0,-3.98004341125488,-2.40154409408569,8.14072608947754,1.2423859834671,-0.762199997901917,0.0914639979600906,-1092.30004882812,-12.3000001907349,-940.500061035156,-1.18306091173463,-0.43896989534099,0.282848882869557,ST
13.0333333333333,-4.3544807434082,-2.28610253334045,8.83038425445557,0.670735955238342,-0.0304879993200302,1.34147191047668,-1099.5,0.300000011920929,-940.500061035156,-1.19941747164451,-0.445522459978497,0.253003939033718,ST
13.0666666666667,-3.73659920692444,-2.05641555786133,9.74494552612305,0.541162014007568,-0.952749967575073,2.57623600959778,-1089.90002441406,-1.5,-933.300048828125,-1.22724262553345,-0.362531072595813,0.207462420166879,ST
13.1,-3.47221994400024,-1.96549785137177,9.59122276306152,0.945127964019775,-1.52439999580383,2.37806391716003,-1080.30004882812,-1.5,-952.500061035156,-1.23871970914679,-0.340456007070534,0.199357264858222,ST
13.1333333333333,-2.72573757171631,-1.80160665512085,9.54396915435791,1.01372599601746,-1.76068198680878,1.45580196380615,-1097.10009765625,-3.30000019073486,-942.900024414062,-1.24871123679482,-0.275257410828615,0.184841008640147,ST
13.1666666666667,-2.74727058410645,-1.68257617950439,8.59352016448975,1.08994603157043,-1.50915598869324,1.54726600646973,-1094.70007324219,-3.30000019073486,-938.100036621094,-1.25306806448303,-0.300474540521461,0.190167699341415,ST
13.2,-3.42377042770386,-1.65147268772125,8.91532135009766,0.327746003866196,0.190549999475479,1.54726600646973,-1113.90002441406,-5.70000028610229,-950.100036621094,-1.26086752430625,-0.358142482246647,0.182173834326966,ST
13.2333333333333,-3.72702884674072,-1.44152450561523,8.34289836883545,-0.167683988809586,0.0304879993200302,1.53202199935913,-1101.90002441406,-6.90000009536743,-938.100036621094,-1.27091736589164,-0.411725722622704,0.17100832978405,ST
13.2666666666667,-3.11871743202209,-1.33266258239746,9.03674411773682,-0.327746003866196,0.419209986925125,2.98782396316528,-1092.30004882812,0.300000011920929,-947.700012207031,-1.29115761526459,-0.335438997227654,0.146702252994728,ST
13.3,-3.65704607963562,-1.26148355007172,8.83217906951904,0.0685980021953583,0.114329993724823,2.94971394538879,-1101.90002441406,-1.5,-952.500061035156,-1.30428772316761,-0.386619354683694,0.140158229173019,ST
13.3333333333333,-3.94475293159485,-0.977365612983704,8.85012340545654,0.167683988809586,0.243903994560242,2.36281991004944,-1101.90002441406,-5.70000028610229,-954.900024414062,-1.32441256293722,-0.416046265380468,0.109907382779969,ST
13.3666666666667,-4.06797027587891,-0.684873700141907,8.83457183837891,0.205793991684914,-0.152439996600151,3.60520601272583,-1099.5,0.900000035762787,-940.500061035156,-1.35108250705465,-0.429750194255113,0.076321484899793,ST
13.4,-3.41420006752014,-0.742893576622009,8.6264181137085,0.144817993044853,-0.457319974899292,4.00917196273804,-1104.30004882812,-4.5,-940.500061035156,-1.36345042742893,-0.378678573161171,0.0824246505857592,ST
13.4333333333333,-4.50939989089966,-0.394774347543716,8.24480247497559,-0.228659987449646,-0.0914639979600906,3.15550804138184,-1097.10009765625,-6.30000019073486,-942.900024414062,-1.3913371923644,-0.494753653133818,0.0471144575661171,ST
13.4666666666667,-4.79052686691284,-0.310436189174652,8.84892749786377,-0.228659987449646,0.594515979290009,3.26983785629272,-1101.90002441406,-3.30000019073486,-947.700012207031,-1.40985083213176,-0.497026924767283,0.0332883101768706,ST
13.5,-4.37900447845459,-0.0430662930011749,9.46262168884277,0.716467976570129,0.388722002506256,3.33081388473511,-1097.10009765625,-6.90000009536743,-930.900024414062,-1.43448147787064,-0.437953852048747,0.0024745320854106,ST
13.5333333333333,-4.58057880401611,0.151330173015594,8.56959438323975,1.39482593536377,0.564027965068817,3.32319188117981,-1104.30004882812,-5.10000038146973,-933.300048828125,-1.45464454603556,-0.48842857329783,-0.0215515064295208,ST
13.5666666666667,-3.39685392379761,0.209350034594536,9.55114650726318,1.76830399036407,-0.205793991684914,1.82165801525116,-1097.10009765625,-7.50000047683716,-942.900024414062,-1.46041879954779,-0.350109322393681,-0.0258892431209998,ST
13.6,-3.85263895988464,0.342735916376114,8.84294605255127,1.89787793159485,-0.952749967575073,-0.449698001146317,-1111.5,-6.90000009536743,-945.300048828125,-1.46088653234771,-0.406379132033035,-0.04098716072805,ST
13.6333333333333,-3.46564030647278,0.382811486721039,9.23712158203125,1.30336201190948,-1.37195992469788,-1.84452390670776,-1113.90002441406,-5.70000028610229,-940.500061035156,-1.45179299406212,-0.358839921535895,-0.0423516577834051,ST
13.6666666666667,-2.52894854545593,0.112450875341892,8.86388111114502,0.983237981796265,-2.09605002403259,-2.85062789916992,-1106.70007324219,-6.30000019073486,-957.300048828125,-1.43073162195014,-0.279456848586593,-0.0146213443122688,ST
13.7,-3.18750381469727,-0.0406737215816975,8.668288230896,-0.25152599811554,0.0914639979600906,-3.23172783851624,-1109.10009765625,-5.70000028610229,-938.100036621094,-1.41239462393866,-0.348084775318646,0.0057801589120348,ST
13.7333333333333,-3.09239912033081,-0.52935653924942,8.64196968078613,-0.266770005226135,-0.0533539988100529,-3.67380380630493,-1106.70007324219,-10.5,-940.500061035156,-1.3803074521737,-0.342971251457668,0.0604217605528054,ST
13.7666666666667,-4.00695991516113,-0.878672003746033,9.0732307434082,0.114329993724823,1.63110792636871,-3.30794787406921,-1092.30004882812,-6.30000019073486,-947.700012207031,-1.35303593826006,-0.41284868724901,0.0969881083024466,ST
13.8,-3.70968270301819,-1.06648886203766,10.0984477996826,1.43293595314026,1.41006994247437,-3.55947399139404,-1101.90002441406,-6.90000009536743,-942.900024414062,-1.33419350386429,-0.355735507971694,0.104693782843824,ST
13.8333333333333,-3.41240572929382,-1.06050753593445,8.90694713592529,2.72105383872986,0.503051996231079,-4.15398979187012,-1087.5,-1.5,-950.100036621094,-1.31061690296172,-0.363098475486135,0.115804215669798,ST
13.8666666666667,-4.24023532867432,-1.4421226978302,8.31837463378906,2.5152599811554,1.94360995292664,-4.45124769210815,-1092.30004882812,-4.5,-938.100036621094,-1.26840312156028,-0.461241445954526,0.167707579542061,ST
13.9,-3.9579119682312,-1.56892895698547,9.02777194976807,2.79727387428284,0.480185985565186,-5.21344804763794,-1075.5,-2.70000004768372,-947.700012207031,-1.24314157748758,-0.410287428918964,0.171030042272951,ST
13.9333333333333,-3.57510042190552,-1.35180306434631,8.60368824005127,3.16313004493713,0.0,-5.37350988388062,-1082.70007324219,-0.300000011920929,-935.700012207031,-1.22393581821748,-0.389261016859434,0.155065612646229,ST
13.9666666666667,-3.31251573562622,-1.42118775844574,7.95051622390747,3.55185198783875,-0.396344006061554,-4.48173570632935,-1097.10009765625,-4.5,-947.700012207031,-1.19488943700904,-0.387329439622062,0.172762187314084,ST
14.0,-4.03208160400391,-1.53543305397034,9.02418327331543,2.9420919418335,0.670735955238342,-4.15398979187012,-1075.5,-11.7000007629395,-935.700012207031,-1.17628277118048,-0.41335203357636,0.166923919928479,ST
14.0333333333333,-3.75215077400208,-1.75734400749207,8.9057502746582,2.94971394538879,0.243903994560242,-3.61282801628113,-1077.90002441406,-11.1000003814697,-935.700012207031,-1.14891559351877,-0.392554133910507,0.190777788140207,ST
14.0666666666667,-3.46564030647278,-1.46365582942963,8.68742847442627,3.28508186340332,-0.320124000310898,-2.98020195960999,-1070.70007324219,-8.10000038146973,-933.300048828125,-1.14165724938026,-0.374213061094719,0.164374895815023,ST
14.1,-3.48059391975403,-1.45827257633209,8.82799243927002,2.9192259311676,0.259148001670837,-2.36281991004944,-1080.30004882812,-9.90000057220459,-940.500061035156,-1.12987555360448,-0.370979270412819,0.160478503703704,NLR
14.1333333333333,-4.01054859161377,-1.47262799739838,8.82739353179932,2.52288198471069,-0.228659987449646,-1.73019397258759,-1063.5,-11.7000007629395,-930.900024414062,-1.11910527323272,-0.417424653391119,0.162054763863744,NLR
14.1666666666667,-4.77796602249146,-1.49176859855652,10.5638027191162,2.27897787094116,0.167683988809586,-0.0228659994900227,-1065.90002441406,-11.1000003814697,-928.500061035156,-1.12501813979311,-0.421115979426438,0.137905364355119,NLR
14.2,-3.74736571311951,-1.15082705020905,10.5099697113037,4.2302098274231,-1.17378795146942,-0.327746003866196,-1065.90002441406,-16.5,-914.100036621094,-1.13052630261608,-0.34256060742131,0.103563373946145,NLR
14.2333333333333,-2.32737421989441,0.0442625805735588,9.1922607421875,5.73174381256104,-1.08232402801514,-2.00458598136902,-1082.70007324219,-13.5000009536743,-923.700012207031,-1.1483339514975,-0.250838838161732,-0.0082306482134705,NLR
14.2666666666667,-1.45588004589081,-0.336156338453293,9.52781963348389,7.85065984725952,-0.487807989120483,-2.52288198471069,-1061.10009765625,-15.3000001907349,-918.900024414062,-1.12649543474877,-0.156707661219734,0.0205495142999233,NLR
14.3,-2.92910623550415,-0.0197387188673019,8.1784086227417,9.98481941223145,0.358233988285065,-7.52291393280029,-1073.10009765625,-20.1000003814697,-918.900024414062,-1.09373507812356,-0.333175353966868,-0.0089522896766702,NLR
14.3333333333333,-3.80717992782593,0.87388688325882,7.62034130096436,10.868971824646,1.2347639799118,-8.75005626678467,-1056.30004882812,-24.3000011444092,-921.300048828125,-1.08296059575396,-0.458772291944802,-0.120670036202118,NLR
14.3666666666667,-5.72243404388428,1.01265609264374,7.90027236938477,10.3811635971069,1.6768399477005,-7.34760761260986,-1044.30004882812,-28.5000019073486,-906.900024414062,-1.04190576954777,-0.619311418536259,-0.136411044162881,NLR
14.4,-6.4575514793396,1.82014906406403,8.45833969116211,9.20737552642822,1.20427596569061,-5.22106981277466,-1049.10009765625,-28.5000019073486,-909.300048828125,-1.05124470285805,-0.643578380877644,-0.216484650370816,NLR
14.4333333333333,-5.57409429550171,2.17783856391907,7.73099803924561,6.75309181213379,-0.670735955238342,-1.75305998325348,-1044.30004882812,-25.5000019073486,-902.100036621094,-1.0665240231893,-0.608657731316281,-0.28003919009228,NLR
14.4666666666667,-5.055504322052,2.13955736160278,7.68553924560547,3.01068997383118,-1.94360995292664,1.39482593536377,-1039.5,-34.5,-897.300048828125,-1.06135246647496,-0.563796961521646,-0.277788531182322,NLR
14.5,-4.66431903839111,2.4757137298584,8.33213138580322,0.823175966739655,-1.61586391925812,1.75305998325348,-1044.30004882812,-39.9000015258789,-897.300048828125,-1.07048562131374,-0.493466144846424,-0.290612123501587,NLR
14.5333333333333,-4.06797027587891,2.52535963058472,8.22685813903809,1.15854394435883,-1.34909391403198,1.92074394226074,-1039.5,-36.3000030517578,-890.100036621094,-1.07805063903829,-0.441677033980583,-0.300432973640349,NLR
14.5666666666667,-3.97944521903992,2.35429072380066,8.4176664352417,0.92988395690918,0.0838419944047928,0.0533539988100529,-1044.30004882812,-34.5,-880.500061035156,-1.06643813929412,-0.428228258672526,-0.275961496124512,NLR
14.6,-4.16427135467529,2.67369914054871,8.9595832824707,2.39330792427063,-0.160062000155449,-0.922261953353882,-1063.5,-35.7000007629395,-882.900024414062,-1.06527026043369,-0.419594047500428,-0.292687967707896,NLR
14.6333333333333,-4.0177264213562,2.60670709609985,8.64316558837891,4.12350177764893,-0.87652999162674,-2.17227005958557,-1046.70007324219,-32.7000007629395,-890.100036621094,-1.05160258360713,-0.418442620837341,-0.297996118180278,NLR
14.6666666666667,-4.21092653274536,2.66412878036499,8.9715461730957,3.94819593429565,-0.78506600856781,-2.99544596672058,-1041.90002441406,-34.5,-890.100036621094,-1.03183162974729,-0.422740253616046,-0.293421415880193,NLR
14.7,-4.4621467590332,2.4595639705658,7.45046901702881,1.74543797969818,-0.78506600856781,-4.41313791275024,-1049.10009765625,-40.5,-878.100036621094,-1.02193289312346,-0.513490589459577,-0.316381596797885,NLR
14.7333333333333,-4.5931396484375,2.70061540603638,8.93984508514404,-0.525918006896973,-1.96647596359253,-2.75916385650635,-1039.5,-33.3000030517578,-882.900024414062,-0.999252352482281,-0.4583767023796,-0.291064317499603,NLR
14.7666666666667,-3.65704607963562,2.61508107185364,8.11560344696045,-1.20427596569061,-3.28508186340332,-1.6692179441452,-1037.10009765625,-36.3000030517578,-892.500061035156,-0.998348548729226,-0.40408445470031,-0.306680747958045,NLR
14.8,-3.90049028396606,1.54320883750916,8.65871810913086,-2.75154185295105,-2.81251788139343,-1.06708002090454,-1044.30004882812,-39.9000015258789,-882.900024414062,-0.945650987468844,-0.412597178883164,-0.178654418000195,NLR
14.8333333333333,-4.37481784820557,1.84945809841156,8.83875846862793,-3.30032587051392,-2.85062789916992,-1.73019397258759,-1041.90002441406,-35.1000022888184,-894.900024414062,-0.950829596104408,-0.444793596628917,-0.197379106150505,NLR
14.8666666666667,-4.47590398788452,1.90568351745605,8.75501823425293,-4.35978412628174,-3.65855979919434,-0.335367977619171,-1039.5,-33.9000015258789,-890.100036621094,-0.95807831716718,-0.456416649966949,-0.205249367859984,NLR
14.9,-3.52306199073792,1.05931115150452,8.17063331604004,-6.7226037979126,-5.5030837059021,4.00917196273804,-1046.70007324219,-32.7000007629395,-899.700012207031,-0.948761875333285,-0.396425864259041,-0.123318619498196,NLR
14.9333333333333,-4.60211181640625,0.415111213922501,8.05519104003906,-9.14639949798584,-5.70125579833984,7.82017183303833,-1056.30004882812,-25.5000019073486,-902.100036621094,-0.958873282955987,-0.500983069652448,-0.0475722688132897,NLR
14.9666666666667,-4.59014892578125,-0.0945065915584564,8.87105846405029,-10.5259819030762,-7.36285161972046,14.1464319229126,-1080.30004882812,-27.3000011444092,-916.500061035156,-1.00467399811499,-0.466564955893567,0.0132690518467236,NLR
15.0,-2.02351760864258,-1.25550210475922,9.10074520111084,-11.1433639526367,-8.38420009613037,19.6876258850098,-1101.90002441406,-20.7000007629395,-918.900024414062,-1.05387300367091,-0.222485926363312,0.139452984856716,NLR
15.0333333333333,-0.389989227056503,-1.9188426733017,8.64795112609863,-10.3811635971069,-6.82931184768677,17.9650535583496,-1135.5,-22.5,-935.700012207031,-1.12705629675195,-0.0482480105607579,0.229500925161283,NLR
15.0666666666667,-0.270360618829727,-2.13776302337646,9.56669902801514,-10.4878721237183,-2.86587190628052,14.6799716949463,-1145.10009765625,-15.9000005722046,-940.500061035156,-1.1884156319244,-0.0298952798655014,0.23682071948883,NLR
15.1,-1.36077523231506,-1.38350474834442,10.9155111312866,-8.31560134887695,-1.38720393180847,10.609824180603,-1161.90002441406,-11.7000007629395,-938.100036621094,-1.24095735819106,-0.117912112054997,0.144691390449537,NLR
15.1333333333333,-1.12450873851776,-1.52526462078094,10.5877285003662,-6.15095376968384,-0.769822001457214,10.2973213195801,-1164.30004882812,-8.70000076293945,-938.100036621094,-1.28679293775163,-0.106692657153799,0.15150107453655,NLR
15.1666666666667,-1.25251138210297,-1.51629245281219,11.1206741333008,-4.70277404785156,0.0152439996600151,9.07017993927002,-1164.30004882812,-5.10000038146973,-935.700012207031,-1.32808390396739,-0.113101056096578,0.142422235157608,NLR
15.2,-1.18073427677155,-1.54081630706787,10.1259622573853,-3.02593398094177,0.0990860015153885,6.79120206832886,-1169.10009765625,-5.10000038146973,-945.300048828125,-1.35748626439963,-0.116586972325322,0.154370100010909,NLR
15.2333333333333,0.128600731492043,-1.35778450965881,10.1343364715576,-2.33233189582825,-0.0381099991500378,4.74088382720947,-1166.70007324219,2.10000014305115,-940.500061035156,-1.37770829594237,0.0036971040748323,0.138192880930524,NLR
15.2666666666667,-1.33445692062378,-1.21961355209351,8.44817161560059,-1.44817996025085,0.350611984729767,3.57471799850464,-1166.70007324219,7.50000047683716,-945.300048828125,-1.39265261750158,-0.148660927538303,0.144786786105913,NLR
15.3,-2.1772403717041,-1.3218959569931,10.0972518920898,-1.99696397781372,2.47714996337891,3.44514393806458,-1171.5,3.30000019073486,-959.700012207031,-1.40967811703407,-0.212763709556324,0.133095258421556,NLR
15.3333333333333,-2.90278792381287,-1.33864402770996,8.80705738067627,-1.19665396213531,1.63872992992401,3.20123982429504,-1149.90002441406,-2.70000004768372,-945.300048828125,-1.41791771485907,-0.312202636952808,0.150241322341945,NLR
15.3666666666667,-2.78375744819641,-1.00308573246002,10.2144870758057,-0.922261953353882,1.71494996547699,3.50611996650696,-1159.5,4.5,-933.300048828125,-1.44580945991364,-0.271163169400638,0.100991802348561,NLR
15.4,-2.58756637573242,-0.875083148479462,9.65103721618652,-0.236281991004944,0.350611984729767,4.29118585586548,-1161.90002441406,2.10000014305115,-942.900024414062,-1.46607981733852,-0.262709558544749,0.0894998664486,NLR
15.4333333333333,-2.49246168136597,-0.613096535205841,9.10792255401611,0.205793991684914,0.266770005226135,3.66618180274963,-1171.5,-0.900000035762787,-950.100036621094,-1.48599322620185,-0.267170437043075,0.0666010967514208,NLR
15.4666666666667,-2.33814096450806,-0.186620607972145,9.02657604217529,0.335367977619171,0.907018005847931,2.99544596672058,-1159.5,1.5,-942.900024414062,-1.50879661691948,-0.255880509395332,0.0216173571617748,NLR
15.5,-2.17245531082153,-0.0143554313108325,9.23532772064209,0.320124000310898,1.75305998325348,2.56099200248718,-1152.30004882812,12.3000001907349,-950.100036621094,-1.52340396309142,-0.235434122606935,0.0012221652471573,NLR
15.5333333333333,-3.04873466491699,0.189611315727234,9.30172157287598,0.426831990480423,2.11891603469849,2.01220798492432,-1152.30004882812,2.70000004768372,-947.700012207031,-1.53679709025916,-0.315144260257981,-0.0207877021928674,NLR
15.5666666666667,-3.36395597457886,0.15312460064888,9.40878868103027,0.167683988809586,2.52288198471069,1.63872992992401,-1149.90002441406,2.10000014305115,-947.700012207031,-1.54202856583034,-0.345704477794631,-0.0178034481756316,NLR
15.6,-3.08402514457703,0.028710862621665,9.90943431854248,-0.106707997620106,1.94360995292664,0.495429992675781,-1133.10009765625,6.90000009536743,-950.100036621094,-1.53965916489752,-0.307567628836949,-0.0038775966835284,NLR
15.6333333333333,-3.308926820755,0.263182908296585,9.22396278381348,-0.762199997901917,0.945127964019775,0.0076219998300075,-1149.90002441406,-0.900000035762787,-945.300048828125,-1.54806560708525,-0.344443009528874,-0.0262784267084102,NLR
15.6666666666667,-3.13187670707703,-0.286510497331619,9.89208889007568,-1.14329993724823,0.541162014007568,-0.0457319989800453,-1133.10009765625,6.30000019073486,-945.300048828125,-1.53190260364009,-0.309275921888719,0.0282137605361813,NLR
15.7,-2.61508107185364,-0.483897656202316,10.5434665679932,-0.609759986400604,-0.0762199983000755,-0.777444005012512,-1125.90002441406,-1.5,-945.300048828125,-1.52462814143092,-0.246719457655047,0.0461476292062437,NLR
15.7333333333333,-2.63182902336121,-0.588572680950165,9.56909084320068,0.114329993724823,-0.762199997901917,-1.70732796192169,-1133.10009765625,2.70000004768372,-952.500061035156,-1.51425721745322,-0.265221004249394,0.0610429805253901,NLR
15.7666666666667,-2.40274024009705,-0.565843224525452,8.73288726806641,0.815553963184357,0.46494197845459,-2.27135586738586,-1140.30004882812,-0.900000035762787,-954.900024414062,-1.50363019771327,-0.268316279782524,0.0641782429287549,NLR
15.8,-3.39326500892639,-0.637022256851196,8.59232425689697,0.762199997901917,2.53812599182129,-1.15092194080353,-1125.90002441406,-0.900000035762787,-945.300048828125,-1.49481926865358,-0.372699060681248,0.0729640836138976,NLR
15.8333333333333,-2.89800262451172,-0.810483753681183,7.56890106201172,0.564027965068817,1.93598794937134,-1.53202199935913,-1140.30004882812,2.10000014305115,-940.500061035156,-1.47606504905908,-0.367224280410501,0.104807005885511,ST
15.8666666666667,-3.88613486289978,-1.21482837200165,7.53241443634033,-1.2347639799118,1.46342396736145,-0.579271972179413,-1121.10009765625,3.90000009536743,-942.900024414062,-1.45295129971597,-0.468243917998822,0.159795460017652,ST
15.9,-3.66063499450684,-1.79323267936707,8.84174919128418,-2.33995389938354,0.434453994035721,0.381099998950958,-1118.70007324219,-2.10000014305115,-938.100036621094,-1.44053459345582,-0.391306719413998,0.201379573569249,ST
15.9333333333333,-3.53203415870667,-2.24961566925049,8.37101078033447,-2.72105383872986,-1.53964400291443,-1.18140995502472,-1125.90002441406,3.90000009536743,-945.300048828125,-1.41785784952265,-0.3841634588679,0.264894933414273,ST
15.9666666666667,-4.54050350189209,-2.57500553131104,9.35076904296875,-3.30032587051392,-0.510673999786377,-0.0990860015153885,-1121.10009765625,6.30000019073486,-940.500061035156,-1.41995489010954,-0.434052429171776,0.273942775011297,ST
16.0,-1.8847484588623,-3.26167368888855,9.37469482421875,-3.17075204849243,-1.21951997280121,0.0685980021953583,-1116.30004882812,8.70000076293945,-945.300048828125,-1.40551240015287,-0.200791403382271,0.336474119953544,ST
16.0333333333333,-3.06966972351074,-2.65276408195496,8.82260894775391,-2.43141794204712,-0.87652999162674,-0.602137982845306,-1121.10009765625,15.3000001907349,-947.700012207031,-1.416455210283,-0.312621683871005,0.299068157082093,ST
16.0666666666667,-2.43145108222961,-3.15340971946716,8.61684799194336,-1.78354799747467,-0.442075997591019,1.04421401023865,-1123.5,8.10000038146973,-940.500061035156,-1.40833831337385,-0.262194224228942,0.350140405214469,ST
16.1,-3.20544815063477,-2.73052263259888,9.09954929351807,-2.14178204536438,1.2500079870224,1.30336201190948,-1123.5,9.90000057220459,-954.900024414062,-1.42974131108318,-0.324959565273932,0.297551478326212,ST
16.1333333333333,-3.46982741355896,-2.76641130447388,8.02528381347656,-2.15702605247498,-0.754577994346619,3.26983785629272,-1140.30004882812,15.9000005722046,-945.300048828125,-1.43452240719409,-0.385484855611251,0.331615009163495,ST
16.1666666666667,-3.66063499450684,-3.08103442192078,8.92907810211182,-2.66770005226135,0.0685980021953583,5.39637565612793,-1118.70007324219,9.90000057220459,-952.500061035156,-1.45687681450369,-0.373679440057428,0.333313385703888,ST
16.2,-4.24681520462036,-3.22937393188477,8.31299114227295,-3.15550804138184,-1.03659200668335,4.94667768478394,-1125.90002441406,14.1000003814697,-954.900024414062,-1.46604534971075,-0.441412818691186,0.36961807997949,ST
16.2333333333333,-4.04225015640259,-3.55057668685913,9.73358058929443,-3.3689239025116,-0.182927995920181,4.46649169921875,-1133.10009765625,15.3000001907349,-938.100036621094,-1.49549604830345,-0.377345889201139,0.353366010820718,ST
16.2666666666667,-1.64848208427429,-3.13546538352966,9.12287616729736,-3.03355598449707,-2.87349390983582,2.55336999893188,-1125.90002441406,14.1000003814697,-940.500061035156,-1.5164409760764,-0.178819886665473,0.336218737382269,ST
16.3,-3.04514575004578,-2.94405961036682,7.58146238327026,-1.89787793159485,-0.937505960464478,2.59148001670837,-1128.30004882812,19.5,-952.500061035156,-1.52079244141191,-0.348416429064199,0.370093662576749,ST
16.3333333333333,-2.82323479652405,-3.16357827186584,8.35486125946045,-1.79879200458527,0.129574000835419,3.3689239025116,-1125.90002441406,15.9000005722046,-947.700012207031,-1.53700696620692,-0.310822939713913,0.363737385787791,ST
16.3666666666667,-3.48717355728149,-2.54928541183472,8.41646957397461,-1.08994603157043,-0.350611984729767,3.89484190940857,-1133.10009765625,14.1000003814697,-945.300048828125,-1.57504438562088,-0.374895089750417,0.297845868396278,ST
16.4,-3.52964162826538,-2.17604422569275,8.79389762878418,-0.487807989120483,-1.11281192302704,5.09911775588989,-1118.70007324219,20.1000003814697,-950.100036621094,-1.61737080690212,-0.371995158637399,0.242424295658806,ST
16.4333333333333,-3.96209907531738,-2.22748446464539,9.30471229553223,1.6615959405899,-0.693601965904236,4.71801805496216,-1128.30004882812,9.90000057220459,-940.500061035156,-1.63790351436115,-0.392161145245944,0.229418936758657,ST
16.4666666666667,-2.36326289176941,-2.36744999885559,9.70905685424805,2.52288198471069,-2.39330792427063,2.32470989227295,-1125.90002441406,18.3000011444092,-940.500061035156,-1.64459537723187,-0.238973752685588,0.233313547204125,ST
16.5,-3.66242933273315,-1.08802211284637,8.83816051483154,3.32319188117981,-2.5152599811554,-0.259148001670837,-1123.5,22.5,-950.100036621094,-1.67409634147588,-0.376924491677511,0.124127060368501,ST
16.5333333333333,-3.97226738929749,-0.803904175758362,8.52892017364502,3.69666981697083,-0.46494197845459,0.899396002292633,-1130.70007324219,11.1000003814697,-945.300048828125,-1.68541219931459,-0.4310273029376,0.0884507836092387,ST
16.5666666666667,-2.75325202941895,-0.986337780952454,8.69041919708252,3.3613018989563,-0.304879993200302,0.0381099991500378,-1133.10009765625,16.5,-947.700012207031,-1.67409916440404,-0.310023100760521,0.106386804800044,ST
16.6,-2.55885553359985,-0.989328503608704,9.23054218292236,3.05642199516296,-0.160062000155449,-0.556405961513519,-1142.70007324219,7.50000047683716,-952.500061035156,-1.66949831258727,-0.270612155465071,0.101941602441337,ST
16.6333333333333,-3.75693607330322,-0.732127010822296,8.75083160400391,2.78965187072754,0.350611984729767,-0.693601965904236,-1142.70007324219,6.30000019073486,-935.700012207031,-1.66979294346118,-0.397420777595416,0.0804010172685451,ST
16.6666666666667,-2.60012745857239,-1.30454981327057,9.94352912902832,1.73781597614288,-0.342989981174469,-1.45580196380615,-1137.90002441406,9.90000057220459,-945.300048828125,-1.64762567379905,-0.261576249985422,0.125418172314117,ST
16.7,-2.49904131889343,-0.981552600860596,9.65163516998291,1.27287399768829,-1.00610399246216,-1.98171997070312,-1133.10009765625,12.9000005722046,-938.100036621094,-1.64423136660748,-0.250466146600082,0.100966196309689,ST
16.7333333333333,-3.17793369293213,-0.970187902450562,9.19405555725098,1.2576299905777,0.289635986089706,-1.73019397258759,-1147.5,10.5,-938.100036621094,-1.63520541840687,-0.326374890657169,0.103752589752197,ST
16.7666666666667,-3.81375956535339,-1.21542656421661,9.21977615356445,1.02134799957275,1.95123195648193,-1.62348592281342,-1137.90002441406,8.10000038146973,-945.300048828125,-1.61798508016399,-0.388222033835138,0.128921585652701,ST
16.8,-1.82553231716156,-1.58208811283112,9.63010215759277,1.31098401546478,0.777444005012512,-2.30184388160706,-1137.90002441406,10.5,-954.900024414062,-1.59832057629795,-0.197937483663676,0.15971407668223,ST
16.8333333333333,-3.2048499584198,-1.26028728485107,7.78303623199463,1.37195992469788,0.396344006061554,-3.40703392028809,-1130.70007324219,11.7000007629395,-947.700012207031,-1.58333046436972,-0.374333784067396,0.16031938012427,ST
16.8666666666667,-2.05103230476379,-1.99600315093994,8.86148834228516,0.92988395690918,1.15092194080353,-2.66770005226135,-1123.5,6.90000009536743,-942.900024414062,-1.554032725259,-0.23226476917159,0.217727648776199,ST
16.9,-3.10675454139709,-2.42008638381958,7.56650876998901,0.6250039935112,-0.228659987449646,-3.91770792007446,-1128.30004882812,9.30000019073486,-959.700012207031,-1.51347113663537,-0.362063167108266,0.304870227623914,ST
16.9333333333333,-2.5295467376709,-2.85134744644165,8.65572738647461,-0.289635986089706,1.38720393180847,-4.48173570632935,-1140.30004882812,6.90000009536743,-945.300048828125,-1.4909404138937,-0.276129571887154,0.320206587059881,ST
16.9666666666667,-3.02540707588196,-2.95602250099182,8.65692329406738,-0.457319974899292,-0.868907988071442,-4.78661584854126,-1133.10009765625,3.30000019073486,-964.500061035156,-1.47182440328757,-0.312892626274914,0.331476683528716,ST
17.0,-3.44470548629761,-3.09419369697571,8.64615631103516,0.25152599811554,-1.02897000312805,-3.32319188117981,-1130.70007324219,6.30000019073486,-942.900024414062,-1.45672994973103,-0.352662414067164,0.34416030048996,ST
17.0333333333333,-3.39027428627014,-3.42077970504761,10.2952365875244,0.297257989645004,-1.12043392658234,-2.42379593849182,-1121.10009765625,9.90000057220459,-954.900024414062,-1.45587548126972,-0.302888622440109,0.322722276124543,ST
17.0666666666667,-2.8082811832428,-3.38847994804382,10.7031707763672,0.289635986089706,-3.42227792739868,-1.21189796924591,-1123.5,7.50000047683716,-954.900024414062,-1.45937730463992,-0.241591942141908,0.306875729059513,ST
17.1,-2.60610890388489,-2.80708503723145,7.40201950073242,1.60824191570282,-2.78965187072754,-0.914639949798584,-1133.10009765625,5.10000038146973,-962.100036621094,-1.4443730242476,-0.308591105283494,0.356323223449364,ST
17.1333333333333,-2.73052263259888,-2.94645237922668,10.2174777984619,1.64635193347931,2.17989206314087,2.04269599914551,-1133.10009765625,9.90000057220459,-945.300048828125,-1.4690434160391,-0.258339463796631,0.280681428261226,ST
17.1666666666667,-2.54210758209229,-2.68625998497009,9.07562351226807,1.97409796714783,0.914639949798584,2.71343183517456,-1152.30004882812,8.70000076293945,-950.100036621094,-1.47572587936338,-0.264872244382403,0.283079598492085,ST
17.2,-2.40453481674194,-2.19039964675903,8.80167388916016,2.00458598136902,0.609759986400604,2.53812599182129,-1147.5,6.30000019073486,-952.500061035156,-1.49327141193669,-0.261488365442613,0.241976746137015,ST
17.2333333333333,-3.72583246231079,-2.41290879249573,10.2007303237915,1.65397393703461,1.98171997070312,3.3460578918457,-1130.70007324219,-0.300000011920929,-964.500061035156,-1.50592163421433,-0.341062559731781,0.228596868411022,ST
17.2666666666667,-1.19628596305847,-1.79562520980835,9.01281833648682,1.40244793891907,-1.32622802257538,1.06708002090454,-1128.30004882812,5.10000038146973,-942.900024414062,-1.51822455549569,-0.136942642586209,0.195378541273344,ST
17.3,-2.8663010597229,-1.20465993881226,8.0474157333374,1.39482593536377,-0.762199997901917,1.55488801002502,-1142.70007324219,3.30000019073486,-950.100036621094,-1.53406395880461,-0.325493966819063,0.148528280544481,ST
17.3333333333333,-3.15699863433838,-1.33266258239746,7.74176454544067,1.05945801734924,1.13567793369293,2.5000159740448,-1133.10009765625,-0.900000035762787,-945.300048828125,-1.53551753911254,-0.381881011211591,0.166122812608015,ST
17.3666666666667,-1.9529367685318,-1.26267981529236,8.74544811248779,0.868907988071442,0.381099998950958,1.81403601169586,-1130.70007324219,2.70000004768372,-940.500061035156,-1.54900484646571,-0.225817393511314,0.142216079010699,ST
17.4,-4.33773279190063,-1.12450873851776,7.48217058181763,1.07470202445984,1.12043392658234,2.96495795249939,-1123.5,3.90000009536743,-952.500061035156,-1.55685195374168,-0.504811276305034,0.144749151468361,ST
17.4333333333333,-4.94843673706055,-1.1735565662384,10.6146450042725,0.632625997066498,1.6844619512558,2.0579400062561,-1128.30004882812,3.30000019073486,-954.900024414062,-1.57911634958534,-0.440216808715114,0.109055307702525,ST
17.4666666666667,-3.26227188110352,-0.51440292596817,9.8077507019043,1.52439999580383,-4.77137184143066,1.71494996547699,-1128.30004882812,2.70000004768372,-950.100036621094,-1.60616481057642,-0.319544364453538,0.0517445705247422,ST
