seconds,sensor_accX_m_s_,sensor_accY_m_s_,sensor_accZ_m_s_,sensor_gyroX___s_,sensor_gyroY___s_,sensor_gyroZ___s_,sensor_magX__T_,sensor_magY__T_,sensor_magZ__T_,sensor_yaw___,sensor_pitch___,sensor_roll___,label1
0.0,1.34641981124878,-0.91276615858078,9.64206504821777,0.3125019967556,-0.0152439996600151,0.327746003866196,-1286.70007324219,-0.300000011920929,-899.700012207031,-0.0910479579708644,0.143113539272145,0.0962767639340359,ST
0.0333333333333333,1.38111209869385,-0.87986832857132,9.58823204040527,0.381099998950958,-0.144817993044853,0.518296003341675,-1272.30004882812,5.10000038146973,-914.100036621094,-0.0915605769354658,0.142766682927088,0.0924322636327785,ST
0.0666666666666667,1.42358028888702,-0.892429292201996,9.48415470123291,0.335367977619171,-0.190549999475479,0.525918006896973,-1279.5,-1.5,-890.100036621094,-0.0926644585912111,0.146837747686349,0.0930902577816556,ST
0.1,1.40563595294952,-0.880466461181641,9.48355674743652,0.282013982534409,-0.236281991004944,0.46494197845459,-1284.30004882812,6.30000019073486,-909.300048828125,-0.0934743198963037,0.146854253405877,0.0924740114656899,ST
0.133333333333333,1.42477655410767,-0.877475738525391,9.5206413269043,0.236281991004944,-0.297257989645004,0.487807989120483,-1277.10009765625,12.3000001907349,-902.100036621094,-0.0943509508820215,0.147933835502554,0.0918703163010581,ST
0.166666666666667,1.44391715526581,-0.958225011825562,9.5684928894043,0.236281991004944,-0.282013982534409,0.396344006061554,-1277.10009765625,-0.300000011920929,-906.900024414062,-0.095959560470069,0.149024204569837,0.0973123269133303,ST
0.2,1.44690787792206,-0.992917358875275,9.64326095581055,0.198172003030777,-0.3125019967556,0.304879993200302,-1291.5,6.90000009536743,-899.700012207031,-0.0971034739125163,0.148763275830184,0.10083148624967,ST
0.233333333333333,1.41520631313324,-0.993515491485596,9.58284854888916,0.289635986089706,-0.3125019967556,0.37347799539566,-1281.90002441406,4.5,-906.900024414062,-0.0981344077206346,0.146996213744146,0.102336893815986,ST
0.266666666666667,1.54619956016541,-1.09519982337952,9.533203125,0.297257989645004,-0.3125019967556,0.320124000310898,-1286.70007324219,3.30000019073486,-911.700012207031,-0.100038012328915,0.156258056674305,0.110456080461329,ST
0.3,1.44690787792206,-1.0575168132782,9.65342903137207,0.205793991684914,-0.327746003866196,0.144817993044853,-1296.30004882812,4.5,-914.100036621094,-0.100222883709313,0.150795980712966,0.109299321419232,ST
0.333333333333333,1.40862667560577,-1.06170380115509,9.7479362487793,0.426831990480423,-0.205793991684914,0.266770005226135,-1274.70007324219,-1.5,-916.500061035156,-0.100670572752679,0.145334750008596,0.108263056446097,ST
0.366666666666667,1.40443968772888,-1.04435765743256,9.60737228393555,0.518296003341675,-0.167683988809586,0.282013982534409,-1279.5,5.10000038146973,-904.500061035156,-0.101228162621431,0.144789567961436,0.107694605264153,ST
0.4,1.35479378700256,-0.971384167671204,9.57327842712402,0.457319974899292,-0.0838419944047928,0.358233988285065,-1289.10009765625,8.70000076293945,-904.500061035156,-0.101266728959417,0.14122381126983,0.102322445568859,ST
0.433333333333333,1.39068245887756,-0.95762687921524,9.60139083862305,0.426831990480423,-0.106707997620106,0.442075997591019,-1269.90002441406,4.5,-909.300048828125,-0.101830961239339,0.142692776993415,0.0997509600809235,ST
0.466666666666667,1.38470101356506,-0.925925314426422,9.51765060424805,0.419209986925125,-0.0990860015153885,0.442075997591019,-1286.70007324219,-2.10000014305115,-906.900024414062,-0.102365272805552,0.143537696587224,0.0973809455447198,ST
0.5,1.45109486579895,-0.942673325538635,9.521240234375,0.457319974899292,-0.114329993724823,0.457319974899292,-1296.30004882812,5.70000028610229,-911.700012207031,-0.103427398596942,0.148776655795544,0.0978433954271199,ST
0.533333333333333,1.38051402568817,-0.904990315437317,9.57806301116943,0.411587983369827,-0.129574000835419,0.190549999475479,-1281.90002441406,-0.900000035762787,-904.500061035156,-0.103448230381223,0.144379101041111,0.0947207179883651,ST
0.566666666666667,1.40025269985199,-0.930112302303314,9.57327842712402,0.457319974899292,-0.0304879993200302,0.342989981174469,-1274.70007324219,4.5,-911.700012207031,-0.104293813228137,0.144506856570394,0.0957147883022857,ST
0.6,1.36256968975067,-0.893625617027283,9.62352180480957,0.46494197845459,-0.0533539988100529,0.342989981174469,-1286.70007324219,5.10000038146973,-906.900024414062,-0.104617797527663,0.141421542343003,0.0930246747690414,ST
0.633333333333333,1.39128053188324,-0.824839174747467,9.60797023773193,0.510673999786377,-0.198172003030777,0.457319974899292,-1291.5,2.70000004768372,-902.100036621094,-0.104784270574601,0.142999394552369,0.0870054847708442,ST
0.666666666666667,1.40982294082642,-0.820053994655609,9.51047325134277,0.457319974899292,-0.114329993724823,0.419209986925125,-1277.10009765625,3.90000009536743,-904.500061035156,-0.105459721187366,0.145633630154364,0.0858299848261489,ST
0.7,1.33565330505371,-0.859531462192535,9.61574649810791,0.3125019967556,-0.114329993724823,0.426831990480423,-1274.70007324219,-1.5,-911.700012207031,-0.106658292156635,0.139715019628659,0.0879586922112307,ST
0.733333333333333,1.34522354602814,-0.824241042137146,9.54875469207764,0.274392008781433,-0.236281991004944,0.426831990480423,-1293.90002441406,7.50000047683716,-902.100036621094,-0.107312800756242,0.13977147681427,0.0863466044726111,ST
0.766666666666667,1.39427125453949,-0.882260859012604,9.5391845703125,0.297257989645004,-0.114329993724823,0.365855991840363,-1293.90002441406,-5.10000038146973,-909.300048828125,-0.108658221341026,0.143385145857343,0.0903698060757164,ST
0.8,1.34881234169006,-0.91874760389328,9.58225059509277,0.304879993200302,-0.167683988809586,0.121951997280121,-1289.10009765625,3.30000019073486,-909.300048828125,-0.109434159883875,0.140658023160831,0.0936709900816365,ST
0.833333333333333,1.3398402929306,-0.827829897403717,9.61754035949707,0.381099998950958,-0.381099998950958,0.167683988809586,-1293.90002441406,2.10000014305115,-906.900024414062,-0.109044034120705,0.139106318303187,0.0874548233321737,ST
0.866666666666667,1.43494498729706,-0.859531462192535,9.54935264587402,0.388722002506256,-0.327746003866196,0.335367977619171,-1286.70007324219,4.5,-899.700012207031,-0.109931123268462,0.146077684676516,0.0886608001795809,ST
0.9,1.41042113304138,-0.872092425823212,9.65641975402832,0.289635986089706,-0.25152599811554,0.289635986089706,-1277.10009765625,4.5,-914.100036621094,-0.110634755165973,0.14521749320904,0.0893468857951562,ST
0.933333333333333,1.35060679912567,-0.828428030014038,9.66240119934082,0.358233988285065,-0.297257989645004,0.419209986925125,-1279.5,-2.10000014305115,-911.700012207031,-0.111085589452931,0.140585413657474,0.0862027926861121,ST
0.966666666666667,1.48578715324402,-0.843381583690643,9.54815578460693,0.342989981174469,-0.243903994560242,0.480185985565186,-1277.10009765625,3.30000019073486,-902.100036621094,-0.112200793203921,0.150237949107011,0.0872195036069619,ST
1.0,1.43315052986145,-0.826035439968109,9.64385890960693,0.236281991004944,-0.175305992364883,0.327746003866196,-1291.5,3.30000019073486,-904.500061035156,-0.112627392179762,0.148150739258146,0.0857530050920171,ST
1.03333333333333,1.4020471572876,-0.882260859012604,9.60497951507568,0.320124000310898,-0.0914639979600906,0.335367977619171,-1291.5,2.70000004768372,-914.100036621094,-0.113843072217045,0.145567392391415,0.0895113059202184,ST
1.06666666666667,1.36795294284821,-0.894223749637604,9.51884746551514,0.327746003866196,-0.0457319989800453,0.335367977619171,-1289.10009765625,3.30000019073486,-899.700012207031,-0.114872048515829,0.143172241973038,0.0920778134039603,ST
1.1,1.30514800548553,-0.840988993644714,9.5984001159668,0.289635986089706,-0.0533539988100529,0.289635986089706,-1289.10009765625,2.70000004768372,-902.100036621094,-0.114977546287494,0.136806957574457,0.0882388128365192,ST
1.13333333333333,1.29976463317871,-0.890036761760712,9.57088565826416,0.297257989645004,-0.167683988809586,0.381099998950958,-1286.70007324219,6.30000019073486,-897.300048828125,-0.116167626248193,0.135233163912195,0.0911870148897611,ST
1.16666666666667,1.24772620201111,-0.876279473304749,9.5924186706543,0.266770005226135,-0.25152599811554,0.396344006061554,-1296.30004882812,-0.300000011920929,-909.300048828125,-0.116901674751251,0.131008781448458,0.0908673782322354,ST
1.2,1.3159145116806,-0.891831159591675,9.59421348571777,0.3125019967556,-0.236281991004944,0.426831990480423,-1286.70007324219,3.30000019073486,-904.500061035156,-0.117865622239283,0.134548603104436,0.0918324056126162,ST
1.23333333333333,1.32727921009064,-0.86790543794632,9.61813926696777,0.342989981174469,-0.297257989645004,0.3125019967556,-1281.90002441406,6.30000019073486,-906.900024414062,-0.118302098845516,0.136298135184734,0.0901837892303827,ST
1.26666666666667,1.35359752178192,-0.86790543794632,9.6342887878418,0.342989981174469,-0.335367977619171,0.327746003866196,-1277.10009765625,6.30000019073486,-911.700012207031,-0.118911668745086,0.138579063035561,0.0895869486273637,ST
1.3,1.36376595497131,-0.881064593791962,9.60677433013916,0.335367977619171,-0.282013982534409,0.381099998950958,-1291.5,6.30000019073486,-909.300048828125,-0.119819362169625,0.140177655233106,0.0905546199480069,ST
1.33333333333333,1.37572884559631,-0.840390861034393,9.5924186706543,0.335367977619171,-0.236281991004944,0.426831990480423,-1289.10009765625,5.10000038146973,-904.500061035156,-0.120306414943015,0.141630595715755,0.0880077604598502,ST
1.36666666666667,1.34941053390503,-0.86790543794632,9.62890529632568,0.342989981174469,-0.213415995240211,0.381099998950958,-1281.90002441406,7.50000047683716,-904.500061035156,-0.12120707725458,0.139785658678477,0.088976005616429,ST
1.4,1.35479378700256,-0.843381583690643,9.65163516998291,0.320124000310898,-0.221037998795509,0.37347799539566,-1286.70007324219,2.70000004768372,-911.700012207031,-0.121732330172133,0.139419978082658,0.087383146263066,ST
1.43333333333333,1.39187872409821,-0.852353751659393,9.56669902801514,0.320124000310898,-0.243903994560242,0.411587983369827,-1291.5,4.5,-904.500061035156,-0.12365526772016,0.144170145663696,0.0883889428620808,ST
1.46666666666667,1.38230836391449,-0.810483753681183,9.61813926696777,0.228659987449646,-0.236281991004944,0.365855991840363,-1277.10009765625,-0.900000035762787,-894.900024414062,-0.123920396114597,0.143051680659394,0.0850943685269061,ST
1.5,1.37273812294006,-0.840988993644714,9.59002590179443,0.221037998795509,-0.259148001670837,0.3125019967556,-1286.70007324219,2.70000004768372,-916.500061035156,-0.124796978888371,0.142320750135996,0.0865987661929466,ST
1.53333333333333,1.39427125453949,-0.839194595813751,9.61694240570068,0.198172003030777,-0.228659987449646,0.236281991004944,-1284.30004882812,8.10000038146973,-909.300048828125,-0.125298161581207,0.143356371147788,0.0867114026344072,ST
1.56666666666667,1.4361412525177,-0.839194595813751,9.5266227722168,0.182927995920181,-0.205793991684914,0.129574000835419,-1277.10009765625,-0.900000035762787,-918.900024414062,-0.125683238190152,0.147577387786143,0.087319279126454,ST
1.6,1.35898077487946,-0.83560574054718,9.61813926696777,0.152439996600151,-0.0533539988100529,-0.114329993724823,-1284.30004882812,-1.5,-904.500061035156,-0.125438398566278,0.142247021334628,0.086653127292642,ST
1.63333333333333,1.2238005399704,-0.826035439968109,9.65283107757568,0.259148001670837,-0.121951997280121,0.0152439996600151,-1310.70007324219,3.30000019073486,-904.500061035156,-0.125378789175764,0.130790715037231,0.0854408125722119,ST
1.66666666666667,1.3159145116806,-0.82663357257843,9.47039794921875,0.282013982534409,-0.160062000155449,0.0990860015153885,-1284.30004882812,-0.300000011920929,-902.100036621094,-0.125743490371258,0.135701058526348,0.086250699807799,ST
1.7,1.31770896911621,-0.889438569545746,9.5206413269043,0.0381099991500378,-0.175305992364883,0.0838419944047928,-1293.90002441406,-0.900000035762787,-906.900024414062,-0.126573097017999,0.136774006029853,0.0910459021884697,ST
1.73333333333333,1.26866126060486,-0.878672003746033,9.6462516784668,-0.259148001670837,-0.419209986925125,0.388722002506256,-1293.90002441406,3.90000009536743,-909.300048828125,-0.127273366405484,0.132667872772166,0.0912871959367777,ST
1.76666666666667,1.41221559047699,-0.990524768829346,9.5266227722168,-0.449698001146317,-0.350611984729767,0.617381989955902,-1291.5,2.10000014305115,-902.100036621094,-0.129602819798682,0.142803996219064,0.100728266698569,ST
1.8,1.41759884357452,-1.08323693275452,9.61694240570068,-0.556405961513519,-0.228659987449646,0.472563982009888,-1286.70007324219,-1.5,-904.500061035156,-0.131565546769263,0.144868865500656,0.109490833375729,ST
1.83333333333333,1.23695969581604,-1.09938681125641,9.90405178070068,-0.350611984729767,-0.342989981174469,0.480185985565186,-1286.70007324219,-0.300000011920929,-902.100036621094,-0.132535358843457,0.130277710485417,0.110745872209473,ST
1.86666666666667,1.27464270591736,-1.18193054199219,9.73118782043457,0.121951997280121,-0.388722002506256,0.556405961513519,-1277.10009765625,2.70000004768372,-909.300048828125,-0.134496611829988,0.129991465581319,0.117768789571476,ST
1.9,1.14006054401398,-1.12032175064087,9.80715179443359,0.67835795879364,0.0,0.731711983680725,-1291.5,3.90000009536743,-899.700012207031,-0.135449790904294,0.119396604343039,0.114233336490462,ST
1.93333333333333,1.7405960559845,-1.52287197113037,10.4052953720093,2.13416004180908,0.701223969459534,0.541162014007568,-1291.5,2.70000004768372,-906.900024414062,-0.139278376207265,0.149674846457086,0.133386701329755,ST
1.96666666666667,1.05572235584259,-0.907382905483246,9.72700119018555,3.91008591651917,1.16616594791412,-1.12043392658234,-1279.5,3.30000019073486,-914.100036621094,-0.133378758854902,0.117885072116019,0.0989039706409181,ST
2.0,0.581394970417023,-0.345726639032364,9.28437519073486,3.20886182785034,0.807931959629059,0.304879993200302,-1281.90002441406,0.300000011920929,-906.900024414062,-0.12966210596388,0.0766884306611669,0.0500682234652511,ST
2.03333333333333,0.890036761760712,-0.364867210388184,9.186279296875,1.41769194602966,0.518296003341675,1.13567793369293,-1279.5,0.900000035762787,-906.900024414062,-0.131038364913599,0.0898553881291321,0.0412068824628876,ST
2.06666666666667,0.715378999710083,-0.252416342496872,9.53380107879639,-0.0838419944047928,0.335367977619171,1.02897000312805,-1279.5,-0.900000035762787,-899.700012207031,-0.131923430267836,0.0789260713954838,0.0311030055640521,ST
2.1,0.595152258872986,-0.354698777198792,9.30710506439209,-0.891773998737335,0.198172003030777,1.02134799957275,-1272.30004882812,1.5,-911.700012207031,-0.134116491277754,0.0676670133411291,0.0373944864248955,ST
2.13333333333333,0.427672237157822,-0.441429525613785,9.33043193817139,-1.34909391403198,0.167683988809586,1.03659200668335,-1281.90002441406,-2.10000014305115,-909.300048828125,-0.136381354090645,0.0515026173085415,0.0463454669966399,ST
2.16666666666667,0.545506417751312,-0.590965270996094,9.50449180603027,-1.69970595836639,-0.152439996600151,0.777444005012512,-1274.70007324219,3.30000019073486,-906.900024414062,-0.138381379897941,0.0557895516003252,0.0599758486566804,ST
2.2,0.780576586723328,-0.753062009811401,9.66718673706055,-1.65397393703461,-0.609759986400604,0.564027965068817,-1279.5,0.900000035762787,-906.900024414062,-0.14017712925675,0.0736409985077312,0.0744592524037278,ST
2.23333333333333,0.876279473304749,-1.09878861904144,9.88311672210693,-1.43293595314026,-0.990859985351562,0.0,-1279.5,-3.90000009536743,-909.300048828125,-0.142437303254081,0.0856277835798914,0.10352775882014,ST
2.26666666666667,0.891233026981354,-1.13288283348083,10.0224838256836,-1.28049600124359,-0.823175966739655,-0.609759986400604,-1281.90002441406,9.30000019073486,-906.900024414062,-0.141993028557065,0.0885644576282332,0.11163997441724,ST
2.3,0.665134966373444,-0.731528878211975,10.0326519012451,-0.411587983369827,-0.190549999475479,-0.442075997591019,-1274.70007324219,6.90000009536743,-909.300048828125,-0.138873645561109,0.0722406589155124,0.0834428561448265,ST
2.33333333333333,0.690257012844086,-0.872092425823212,9.49252891540527,-0.0152439996600151,0.25152599811554,0.144817993044853,-1281.90002441406,5.10000038146973,-914.100036621094,-0.139496898309823,0.0719507803868617,0.0891857654077857,ST
2.36666666666667,0.439635097980499,-1.02461886405945,9.21977615356445,-0.388722002506256,0.967993974685669,-0.0304879993200302,-1277.10009765625,2.10000014305115,-902.100036621094,-0.140241994029182,0.0522536412654382,0.10580741974864,ST
2.4,-0.1214230209589,-1.11434030532837,9.63249397277832,-0.731711983680725,0.960371971130371,-0.282013982534409,-1277.10009765625,-1.5,-906.900024414062,-0.139691593013185,0.0032798799377525,0.113651464173226,ST
2.43333333333333,0.0598142966628075,-1.25490391254425,9.84842395782471,-0.769822001457214,0.0914639979600906,-0.335367977619171,-1279.5,2.70000004768372,-916.500061035156,-0.139100229553948,0.0052071025960997,0.124116582829231,ST
2.46666666666667,0.193200185894966,-0.945664048194885,9.6223258972168,-0.564027965068817,0.975615978240967,0.396344006061554,-1272.30004882812,3.30000019073486,-902.100036621094,-0.140745449899609,0.0186421449735934,0.0981302730855172,ST
2.5,0.280529052019119,-0.978561878204346,9.66658878326416,-0.602137982845306,1.15854394435883,0.259148001670837,-1269.90002441406,8.70000076293945,-909.300048828125,-0.141051725719411,0.0246670504953183,0.100944260405226,ST
2.53333333333333,0.129797026515007,-1.01205790042877,9.56550216674805,-0.67835795879364,1.2347639799118,0.0228659994900227,-1265.10009765625,-0.300000011920929,-909.300048828125,-0.140927220074294,0.0153523459438768,0.104892965588865,ST
2.56666666666667,0.0299071483314037,-1.04734838008881,9.4315185546875,-0.632625997066498,0.914639949798584,0.0381099991500378,-1269.90002441406,8.10000038146973,-918.900024414062,-0.140855876310691,0.0053461922584516,0.109828981994752,ST
2.6,0.0221312902867794,-1.18193054199219,9.23652362823486,-0.762199997901917,1.02134799957275,0.198172003030777,-1274.70007324219,6.90000009536743,-923.700012207031,-0.141044414038516,0.0018789725872847,0.123444992248795,ST
2.63333333333333,-0.15312460064888,-1.22200608253479,9.21917724609375,-0.823175966739655,1.2347639799118,0.533540010452271,-1257.90002441406,6.90000009536743,-921.300048828125,-0.141695954838542,-0.0130621055480412,0.130530191584792,ST
2.66666666666667,0.30624920129776,-1.37333631515503,8.78253364562988,-0.716467976570129,1.31860601902008,0.579271972179413,-1260.30004882812,2.70000004768372,-914.100036621094,-0.142474451981353,0.0196276346718727,0.149266435070643,ST
2.7,0.001794428913854,-1.83211195468903,9.13424110412598,-0.769822001457214,1.91312193870544,0.350611984729767,-1260.30004882812,8.10000038146973,-918.900024414062,-0.142922155662063,0.003674047103218,0.18423313365868,ST
2.73333333333333,-0.349913626909256,-2.1652774810791,9.84304046630859,-0.868907988071442,2.03507399559021,0.0457319989800453,-1267.5,9.90000057220459,-914.100036621094,-0.142074135268671,-0.0255970723609454,0.207871777900034,ST
2.76666666666667,-0.464158952236176,-2.08093929290771,9.93754768371582,-0.487807989120483,1.60824191570282,-0.144817993044853,-1250.70007324219,7.50000047683716,-921.300048828125,-0.141297231778057,-0.0415261416195307,0.207472655659519,ST
2.8,-0.347521066665649,-2.18860507011414,10.3706026077271,0.0838419944047928,1.50153398513794,0.0533539988100529,-1248.30004882812,14.7000007629395,-921.300048828125,-0.140836685455434,-0.0372144209356384,0.207742474463994,ST
2.83333333333333,-0.770408153533936,-1.70590376853943,10.3741912841797,0.403965979814529,1.56251001358032,0.0076219998300075,-1236.30004882812,11.1000003814697,-923.700012207031,-0.141906462763197,-0.0642283877773546,0.175984261362306,ST
2.86666666666667,-0.750071287155151,-1.7244461774826,9.92737865447998,0.586893975734711,2.02745199203491,0.647870004177094,-1233.90002441406,3.30000019073486,-918.900024414062,-0.142574104819226,-0.0738472594605686,0.172450573049619,ST
2.9,-0.652574002742767,-1.6024249792099,9.43630313873291,-0.0,2.77440786361694,-0.868907988071442,-1250.70007324219,5.70000028610229,-914.100036621094,-0.140427239711216,-0.0729508837965844,0.169549685643079,ST
2.93333333333333,-0.53533798456192,-1.67779099941254,8.91472244262695,0.274392008781433,2.86587190628052,-0.914639949798584,-1229.10009765625,6.90000009536743,-918.900024414062,-0.137197673766529,-0.0664071384225026,0.180858226479803,ST
2.96666666666667,-0.699229121208191,-1.90508532524109,9.20601844787598,0.541162014007568,2.68294382095337,-1.52439999580383,-1231.5,7.50000047683716,-926.100036621094,-0.132580205469135,-0.0747477946745568,0.19659256995143,ST
3.0,-1.48160016536713,-1.68616509437561,9.10373592376709,0.525918006896973,1.76068198680878,-2.27135586738586,-1224.30004882812,1.5,-933.300048828125,-0.129086871613406,-0.134986186957944,0.186942072006081,ST
3.03333333333333,-1.24054849147797,-1.54081630706787,10.0206890106201,0.67835795879364,1.33385002613068,-1.21951997280121,-1207.5,2.70000004768372,-928.500061035156,-0.129655725650083,-0.126805098953026,0.161366416220007,ST
3.06666666666667,-1.00667464733124,-1.76392364501953,9.234130859375,0.518296003341675,0.0914639979600906,-1.265251994133,-1212.30004882812,5.70000028610229,-923.700012207031,-0.12514849184012,-0.112582315538811,0.180073189241081,ST
3.1,-1.30215728282928,-1.40982294082642,9.05648231506348,-0.297257989645004,0.137196004390717,-2.27897787094116,-1202.70007324219,5.10000038146973,-923.700012207031,-0.123196882000956,-0.133336146144471,0.161928338229669,ST
3.13333333333333,-0.92472904920578,-2.21970868110657,8.95420074462891,-0.975615978240967,0.434453994035721,-1.07470202445984,-1221.90002441406,8.10000038146973,-923.700012207031,-0.11405816577197,-0.10943934424837,0.222153211758909,ST
3.16666666666667,-1.09340536594391,-2.88065648078918,9.08100700378418,-1.21189796924591,-0.144817993044853,-1.50915598869324,-1219.5,9.90000057220459,-935.700012207031,-0.105090414186807,-0.112241849741256,0.283195713461807,ST
3.2,-0.597544848918915,-3.44949054718018,9.18867206573486,-1.62348592281342,-0.304879993200302,-2.18751406669617,-1219.5,8.10000038146973,-933.300048828125,-0.0967685038810602,-0.0751683537419147,0.338486565420167,ST
3.23333333333333,-0.695042133331299,-4.24920749664307,9.60318565368652,-1.80641400814056,-1.08232402801514,-2.72867584228516,-1221.90002441406,9.90000057220459,-935.700012207031,-0.0892399183201741,-0.0664164610055426,0.395410734133958,ST
3.26666666666667,-1.08263874053955,-4.28808689117432,9.31069374084473,-1.12043392658234,-1.28049600124359,-1.6768399477005,-1229.10009765625,8.10000038146973,-928.500061035156,-0.0853117596089862,-0.0922170457667564,0.423139542790486,ST
3.3,-0.816465139389038,-4.51298856735229,9.79698371887207,-0.167683988809586,-0.960371971130371,0.106707997620106,-1224.30004882812,2.70000004768372,-935.700012207031,-0.0856617940293314,-0.0795513757944138,0.429264014623279,ST
3.33333333333333,-0.43724250793457,-3.9597065448761,9.49851036071777,0.632625997066498,-0.297257989645004,0.365855991840363,-1212.30004882812,9.30000019073486,-930.900024414062,-0.0880163384709864,-0.053457710629942,0.404451213047212,ST
3.36666666666667,-0.757847130298615,-3.49554753303528,9.75272083282471,1.28049600124359,-0.480185985565186,0.937505960464478,-1236.30004882812,6.30000019073486,-935.700012207031,-0.0923424578383879,-0.0670386858440399,0.360636050183434,ST
3.4,-1.20226740837097,-3.04215526580811,8.88481616973877,1.85976791381836,-0.541162014007568,2.13416004180908,-1219.5,8.10000038146973,-935.700012207031,-0.0979603104955326,-0.109458095076981,0.336646176828672,ST
3.43333333333333,-0.637620389461517,-2.74188733100891,8.36203861236572,0.853663980960846,0.0152439996600151,3.17075204849243,-1229.10009765625,10.5,-935.700012207031,-0.104441967944494,-0.0847509212538969,0.321404496899571,ST
3.46666666666667,-1.50193703174591,-2.09948182106018,9.49611759185791,0.754577994346619,1.40244793891907,3.19361782073975,-1236.30004882812,13.5000009536743,-940.500061035156,-0.117000633346617,-0.135451657464663,0.247680885693018,ST
3.5,-0.937290012836456,-1.13946235179901,8.64496040344238,2.24086785316467,1.37195992469788,3.14026403427124,-1214.70007324219,8.70000076293945,-926.100036621094,-0.132019603043528,-0.118135749249781,0.16286041275523,ST
3.53333333333333,-1.15022897720337,-0.780576586723328,10.3233499526978,2.89635992050171,2.34757590293884,3.93295192718506,-1205.10009765625,10.5,-918.900024414062,-0.145528494871598,-0.116354699109359,0.0964386299536079,ST
3.56666666666667,-1.64130425453186,-0.01914057508111,9.96984672546387,3.71191382408142,-0.266770005226135,3.73477983474731,-1221.90002441406,5.10000038146973,-926.100036621094,-0.160523089621735,-0.149077213683161,0.0253528102188467,ST
3.6,-0.17525589466095,-0.162096738815308,9.20841121673584,2.79727387428284,-1.15092194080353,3.7881338596344,-1212.30004882812,6.30000019073486,-933.300048828125,-0.167495095615043,-0.056868822846947,0.0161085659347053,ST
3.63333333333333,-0.580796837806702,0.0352904349565506,8.90096569061279,2.0655620098114,-0.548784017562866,2.69056582450867,-1205.10009765625,5.70000028610229,-921.300048828125,-0.173388343287785,-0.062293351781544,-0.0015700528169956,ST
3.66666666666667,-0.461168229579926,-0.608909547328949,10.3999118804932,1.58537602424622,1.05945801734924,2.01220798492432,-1205.10009765625,0.900000035762787,-930.900024414062,-0.174412011173748,-0.0510479261533883,0.0383561246323956,ST
3.7,-0.779978454113007,-0.421690791845322,9.01580905914307,1.53202199935913,1.34147191047668,0.556405961513519,-1205.10009765625,7.50000047683716,-928.500061035156,-0.174904958741988,-0.0787395843288458,0.0425171642158138,ST
3.73333333333333,-1.35000872612,-0.68965882062912,9.16833591461182,1.14329993724823,1.70732796192169,1.30336201190948,-1205.10009765625,-0.300000011920929,-933.300048828125,-0.174619515938208,-0.128707816941048,0.0640609661119974,ST
3.76666666666667,-1.18551933765411,-1.07725548744202,9.52423095703125,1.21951997280121,1.12043392658234,2.36281991004944,-1193.10009765625,-0.300000011920929,-928.500061035156,-0.174256113816492,-0.126275537119721,0.0979554062198649,ST
3.8,-0.891831159591675,-1.29438138008118,8.73169136047363,0.0990860015153885,1.31098401546478,2.30184388160706,-1200.30004882812,10.5,-933.300048828125,-0.173892849778741,-0.110346552062314,0.131966584783341,ST
3.83333333333333,-0.400157660245895,-1.42716908454895,8.35426330566406,-6.38723564147949,1.57013201713562,1.13567793369293,-1195.5,-2.10000014305115,-935.700012207031,-0.173441567371881,-0.0683067033437157,0.165727469018062,ST
3.86666666666667,-1.5503865480423,-1.65625786781311,9.0911750793457,-9.2988395690918,0.670735955238342,-0.381099998950958,-1205.10009765625,6.90000009536743,-933.300048828125,-0.171940514730083,-0.137418086792781,0.18725181837196,ST
3.9,-1.45288932323456,-2.78136491775513,9.24549579620361,-10.5945796966553,0.243903994560242,-0.0381099991500378,-1197.90002441406,14.7000007629395,-928.500061035156,-0.162181202753242,-0.146151360532191,0.273435176370437,ST
3.93333333333333,-0.556272983551025,-4.28868532180786,9.22994422912598,-8.13267421722412,-1.21951997280121,-0.327746003866196,-1195.5,12.9000005722046,-933.300048828125,-0.149954635733354,-0.0797868490203949,0.398479316440983,ST
3.96666666666667,-2.01992893218994,-4.28689050674438,10.3843603134155,-3.03355598449707,0.571649968624115,-1.2347639799118,-1188.30004882812,23.7000007629395,-926.100036621094,-0.148189098836472,-0.150947185424893,0.397525171104124,ST
4.0,-1.82313978672028,-4.42446374893188,9.96266937255859,3.86435389518738,-0.701223969459534,0.236281991004944,-1202.70007324219,15.9000005722046,-928.500061035156,-0.146531259926555,-0.160605583215445,0.406972069445525,ST
4.03333333333333,-1.96310520172119,-3.44709801673889,9.61155986785889,6.74547004699707,-0.92988395690918,0.175305992364883,-1202.70007324219,11.1000003814697,-926.100036621094,-0.154570694000282,-0.180919753030969,0.352920964163468,ST
4.06666666666667,-1.52107763290405,-2.9261155128479,9.73238468170166,8.47566413879395,-0.708845973014832,1.08232402801514,-1209.90002441406,16.5,-930.900024414062,-0.163192612883965,-0.157905706397552,0.299666724317104,ST
4.1,-1.19329524040222,-2.26875638961792,9.20362567901611,8.76529979705811,-0.121951997280121,1.6615959405899,-1207.5,8.70000076293945,-928.500061035156,-0.171439122423489,-0.135025627169424,0.247085937309722,ST
4.13333333333333,-0.872690618038177,-1.87278568744659,8.71853160858154,7.24090003967285,0.685979962348938,1.15092194080353,-1197.90002441406,2.10000014305115,-938.100036621094,-0.175668506867968,-0.109948003980292,0.213250097892235,ST
4.16666666666667,-0.986935913562775,-1.05452609062195,8.42603969573975,3.98630595207214,0.487807989120483,0.92988395690918,-1202.70007324219,7.50000047683716,-933.300048828125,-0.18384033235039,-0.114828718655721,0.146212602962501,ST
4.2,-1.71068894863129,-0.56763768196106,8.70537281036377,1.2347639799118,0.221037998795509,1.47866797447205,-1205.10009765625,2.10000014305115,-930.900024414062,-0.194798959817051,-0.172520217443014,0.0857852375005206,ST
4.23333333333333,-0.912168025970459,-1.01923561096191,9.03853797912598,-1.43293595314026,-1.37958192825317,2.44666194915771,-1205.10009765625,8.70000076293945,-928.500061035156,-0.196846667387026,-0.118459973932898,0.106430177670482,ST
4.26666666666667,-1.54500329494476,-1.29677391052246,9.55952072143555,-2.54574799537659,-1.34909391403198,2.5076379776001,-1205.10009765625,3.90000009536743,-933.300048828125,-0.198990827063043,-0.145401397536933,0.128908128292746,ST
4.3,-1.00368392467499,-1.61737859249115,9.83705902099609,-2.47714996337891,-1.57013201713562,2.78965187072754,-1224.30004882812,8.10000038146973,-930.900024414062,-0.201262640122818,-0.11251277086036,0.155319473477511,ST
4.33333333333333,-1.1717621088028,-1.6084064245224,10.3759860992432,-1.19665396213531,-0.754577994346619,1.92074394226074,-1207.5,9.90000057220459,-935.700012207031,-0.20505088893844,-0.110975698188639,0.15543622318259,ST
4.36666666666667,-1.10058307647705,-1.58627510070801,9.52303409576416,0.297257989645004,-0.0914639979600906,1.79879200458527,-1205.10009765625,17.1000003814697,-940.500061035156,-0.207384552123317,-0.112987240897208,0.161553012207424,ST
4.4,-1.02103006839752,-1.52287197113037,9.14321327209473,0.663114011287689,1.16616594791412,1.08232402801514,-1212.30004882812,7.50000047683716,-935.700012207031,-0.20863508780705,-0.112302143496751,0.16309168254153,ST
4.43333333333333,-1.48937594890594,-1.65326714515686,9.48714542388916,0.228659987449646,1.34909391403198,0.487807989120483,-1200.30004882812,8.70000076293945,-926.100036621094,-0.20821572826864,-0.144464907182438,0.169706078352351,ST
4.46666666666667,-1.50492775440216,-1.85783207416534,9.17670917510986,-0.198172003030777,0.350611984729767,0.144817993044853,-1205.10009765625,11.1000003814697,-930.900024414062,-0.205123541419314,-0.15575584072181,0.191715506265408,ST
4.5,-1.80639171600342,-2.01095676422119,9.32923603057861,-0.777444005012512,0.350611984729767,0.663114011287689,-1200.30004882812,11.7000007629395,-938.100036621094,-0.203807791607026,-0.178227247005672,0.206911716898863,ST
4.53333333333333,-1.93379616737366,-2.04983592033386,9.37290000915527,-0.434453994035721,0.548784017562866,1.38720393180847,-1209.90002441406,11.1000003814697,-942.900024414062,-0.205065772153226,-0.194535311511301,0.213352878496385,ST
4.56666666666667,-1.57012534141541,-1.87458002567291,9.473388671875,0.426831990480423,0.632625997066498,1.34147191047668,-1202.70007324219,10.5,-933.300048828125,-0.209678651105087,-0.171067508285857,0.199224941041387,ST
4.6,-1.93917953968048,-1.65685606002808,9.00564098358154,1.20427596569061,0.701223969459534,1.52439999580383,-1193.10009765625,9.90000057220459,-926.100036621094,-0.214156379900642,-0.198564664798354,0.185380265021019,ST
4.63333333333333,-2.16288495063782,-1.51150727272034,9.18867206573486,1.37958192825317,0.541162014007568,1.15854394435883,-1195.5,13.5000009536743,-942.900024414062,-0.219406605626045,-0.221391297896219,0.16685147414129,ST
4.66666666666667,-2.31421518325806,-1.35419571399689,8.94343376159668,1.00610399246216,0.259148001670837,1.09756803512573,-1183.5,12.3000001907349,-947.700012207031,-0.223871166122372,-0.242644519188075,0.153503582485799,ST
4.7,-2.06359314918518,-1.43733751773834,9.29633808135986,0.0990860015153885,-0.503051996231079,1.11281192302704,-1193.10009765625,7.50000047683716,-933.300048828125,-0.226053003004783,-0.222863968224573,0.152955647429779,ST
4.73333333333333,-1.97147917747498,-1.40144896507263,9.33402061462402,-0.419209986925125,-1.08994603157043,1.13567793369293,-1200.30004882812,9.90000057220459,-928.500061035156,-0.228935275355793,-0.209903438974177,0.150378378232974,ST
4.76666666666667,-1.95174050331116,-1.43554317951202,9.28138446807861,-0.327746003866196,-0.914639949798584,0.403965979814529,-1193.10009765625,10.5,-938.100036621094,-0.229529297007892,-0.205124795381562,0.152924471207955,ST
4.8,-1.49236667156219,-1.53244233131409,9.25566387176514,-0.0533539988100529,-0.769822001457214,0.0,-1195.5,15.3000001907349,-933.300048828125,-0.228278399359472,-0.171067961543524,0.160784582739288,ST
4.83333333333333,-1.88953363895416,-1.50074076652527,9.22575759887695,0.0076219998300075,-0.342989981174469,-0.457319974899292,-1200.30004882812,15.3000001907349,-935.700012207031,-0.227528001277195,-0.190417149014277,0.161194996581359,ST
4.86666666666667,-2.7622241973877,-1.50313329696655,9.24848651885986,0.304879993200302,0.594515979290009,-0.365855991840363,-1183.5,7.50000047683716,-928.500061035156,-0.226701973241474,-0.258279548966613,0.160909761282274,ST
4.9,-2.19279217720032,-1.79203629493713,9.98958587646484,0.617381989955902,0.6250039935112,-0.25152599811554,-1190.70007324219,14.7000007629395,-938.100036621094,-0.223208409288673,-0.227171624696468,0.171906133422436,ST
4.93333333333333,-2.74128913879395,-1.58448076248169,10.0368394851685,0.777444005012512,0.503051996231079,-0.67835795879364,-1195.5,2.70000004768372,-930.900024414062,-0.224340384889222,-0.25304697709863,0.160497935238263,ST
4.96666666666667,-2.32916879653931,-1.39128053188324,9.36811542510986,1.15092194080353,0.137196004390717,-0.556405961513519,-1193.10009765625,2.10000014305115,-940.500061035156,-0.225448248232927,-0.244787564632621,0.150125939244853,ST
5.0,-1.80519545078278,-1.39187872409821,8.6144552230835,1.06708002090454,0.426831990480423,-0.640248000621796,-1176.30004882812,8.10000038146973,-938.100036621094,-0.222271307636624,-0.21509958872924,0.156406165343219,ST
5.03333333333333,-1.9086742401123,-1.43853390216827,9.17730808258057,0.510673999786377,1.18903195858002,-0.525918006896973,-1188.30004882812,9.90000057220459,-938.100036621094,-0.221086148323593,-0.207586632197419,0.155300244384659,ST
5.06666666666667,-2.52835035324097,-1.48160016536713,9.48176193237305,0.403965979814529,0.632625997066498,-0.327746003866196,-1193.10009765625,3.90000009536743,-940.500061035156,-0.220277547444016,-0.245210903068878,0.154692722941258,ST
5.1,-2.09888362884521,-1.22559499740601,9.2760009765625,0.266770005226135,0.0762199983000755,-0.0533539988100529,-1183.5,5.10000038146973,-938.100036621094,-0.223966241237701,-0.228139543772387,0.138041981459666,ST
5.13333333333333,-1.93917953968048,-1.38709354400635,9.55832481384277,0.106707997620106,0.586893975734711,0.0914639979600906,-1190.70007324219,10.5,-940.500061035156,-0.223048572238534,-0.207885983619869,0.142164415696703,ST
5.16666666666667,-2.45896577835083,-1.30514800548553,9.47159385681152,-0.152439996600151,0.823175966739655,-0.228659987449646,-1181.10009765625,12.3000001907349,-938.100036621094,-0.22327309663652,-0.240666041311501,0.138678816302538,ST
5.2,-1.94037580490112,-1.30813872814178,9.21259784698486,-0.320124000310898,0.945127964019775,0.46494197845459,-1176.30004882812,3.90000009536743,-935.700012207031,-0.223519397222333,-0.216909956762616,0.140678893376109,ST
5.23333333333333,-2.06419134140015,-1.30813872814178,9.19943904876709,-0.533540010452271,1.08994603157043,0.6250039935112,-1183.5,11.7000007629395,-935.700012207031,-0.224303886253075,-0.219514395810278,0.141603629274931,ST
5.26666666666667,-2.04086375236511,-1.29019439220428,9.02179050445557,-0.632625997066498,1.265251994133,0.525918006896973,-1171.5,6.90000009536743,-945.300048828125,-0.224902617718411,-0.221684586870083,0.142591088511155,ST
5.3,-2.36445927619934,-1.44690787792206,9.23353290557861,-0.762199997901917,1.50915598869324,0.198172003030777,-1171.5,7.50000047683716,-933.300048828125,-0.222849358540662,-0.242170602973513,0.152683720195968,ST
5.33333333333333,-2.47212481498718,-1.54799401760101,9.21798133850098,-0.99848198890686,1.2347639799118,-0.213415995240211,-1173.90002441406,9.30000019073486,-940.500061035156,-0.219850575434162,-0.25532243891488,0.163801753819757,ST
5.36666666666667,-2.41290879249573,-1.59943425655365,9.26044940948486,-0.967993974685669,1.34147191047668,-0.0990860015153885,-1166.70007324219,14.1000003814697,-942.900024414062,-0.218041021907454,-0.254059090499887,0.170490734392435,ST
5.4,-2.37462759017944,-1.56414389610291,9.00982761383057,-0.87652999162674,1.89787793159485,0.0990860015153885,-1173.90002441406,8.70000076293945,-945.300048828125,-0.217509694829633,-0.256365288840624,0.172611862446215,ST
5.43333333333333,-2.19219398498535,-1.68317437171936,8.86746978759766,-0.731711983680725,2.87349390983582,0.92988395690918,-1161.90002441406,14.7000007629395,-940.500061035156,-0.215704380767906,-0.247368979181559,0.183864816399473,ST
5.46666666666667,-2.24243807792664,-1.81895279884338,8.91591930389404,-0.762199997901917,3.46800994873047,0.67835795879364,-1140.30004882812,12.9000005722046,-945.300048828125,-0.212841922022917,-0.247667471128449,0.196958055596285,ST
5.5,-2.72753190994263,-1.94934797286987,9.02777194976807,-0.769822001457214,3.17075204849243,0.0990860015153885,-1164.30004882812,9.90000057220459,-945.300048828125,-0.209060953711385,-0.279674614012001,0.209259232297686,ST
5.53333333333333,-2.72155046463013,-2.02949905395508,8.75980377197266,-0.762199997901917,2.74391984939575,-0.365855991840363,-1135.5,8.10000038146973,-940.500061035156,-0.203542291714613,-0.293522179176885,0.224173998573471,ST
5.56666666666667,-2.87467503547668,-2.17424964904785,8.70537281036377,-0.564027965068817,2.53050398826599,-0.342989981174469,-1135.5,12.9000005722046,-940.500061035156,-0.197760722318848,-0.307986847996721,0.239580723340689,ST
5.6,-3.29158067703247,-2.31780409812927,8.76698112487793,-0.46494197845459,2.81251788139343,-0.167683988809586,-1128.30004882812,11.7000007629395,-942.900024414062,-0.19215051871594,-0.339360716963238,0.253653766007176,ST
5.63333333333333,-3.9537250995636,-2.49246168136597,9.50030517578125,-0.487807989120483,2.59148001670837,0.304879993200302,-1121.10009765625,14.1000003814697,-952.500061035156,-0.190882926773871,-0.372792683264965,0.256451064145492,ST
5.66666666666667,-4.03088569641113,-2.07136917114258,9.52423095703125,0.152439996600151,1.57775402069092,1.10518991947174,-1111.5,6.90000009536743,-930.900024414062,-0.203788669865441,-0.389430447966643,0.224732005615093,ST
5.7,-3.5733060836792,-1.71966099739075,9.06485652923584,0.823175966739655,1.17378795146942,1.88263392448425,-1111.5,14.7000007629395,-935.700012207031,-0.217004310234196,-0.376730261815597,0.195287511883355,ST
5.73333333333333,-2.97037792205811,-1.66283750534058,8.55404281616211,1.18903195858002,1.28049600124359,1.61586391925812,-1113.90002441406,10.5,-933.300048828125,-0.220120627079469,-0.343722594978025,0.190765203068578,ST
5.76666666666667,-3.10735273361206,-1.29856836795807,8.38536643981934,1.02897000312805,1.39482593536377,0.670735955238342,-1123.5,11.1000003814697,-945.300048828125,-0.229504911736424,-0.350696537285441,0.16337868453785,ST
5.8,-3.34601187705994,-1.14245307445526,8.13294982910156,0.92988395690918,0.952749967575073,0.487807989120483,-1109.10009765625,5.10000038146973,-940.500061035156,-0.23583648849596,-0.377242945893933,0.145503488314371,ST
5.83333333333333,-4.0057635307312,-1.5121054649353,8.536696434021,0.3125019967556,0.236281991004944,-0.198172003030777,-1109.10009765625,11.7000007629395,-938.100036621094,-0.227195042347925,-0.417085339347605,0.166310431754787,ST
5.86666666666667,-4.32636833190918,-1.61378967761993,8.84892749786377,-0.205793991684914,-0.594515979290009,-1.34909391403198,-1123.5,9.90000057220459,-940.500061035156,-0.22067924667984,-0.438696754279319,0.177454905484642,ST
5.9,-4.4561653137207,-1.57730305194855,9.02478122711182,-0.106707997620106,-1.63872992992401,-1.64635193347931,-1116.30004882812,12.9000005722046,-933.300048828125,-0.219610649603016,-0.446171893453633,0.175272500190268,ST
5.93333333333333,-3.89510703086853,-1.8506543636322,9.05468845367432,0.0381099991500378,-1.77592599391937,-1.60824191570282,-1109.10009765625,11.7000007629395,-935.700012207031,-0.209632377681553,-0.410608007932435,0.194446827523401,ST
5.96666666666667,-3.16417622566223,-1.98942351341248,8.34708499908447,-0.106707997620106,-1.95885396003723,-2.04269599914551,-1125.90002441406,6.90000009536743,-945.300048828125,-0.19570609663139,-0.366078849518499,0.224232317596891,ST
6.0,-3.40283536911011,-1.96549785137177,8.36742210388184,-0.259148001670837,-1.36433792114258,-2.40855193138123,-1104.30004882812,9.90000057220459,-935.700012207031,-0.190485761409841,-0.371406196662125,0.230039724777697,ST
6.03333333333333,-3.1988685131073,-2.19099760055542,8.85311412811279,0.0838419944047928,-0.556405961513519,-1.86738991737366,-1113.90002441406,6.30000019073486,-947.700012207031,-0.184370816929509,-0.346387352452429,0.239521918039613,ST
6.06666666666667,-3.20126128196716,-2.2890932559967,8.5307149887085,0.800309956073761,-0.548784017562866,-1.48628997802734,-1128.30004882812,12.9000005722046,-942.900024414062,-0.176190343785118,-0.346227722407837,0.255518529201407,ST
6.1,-3.61278343200684,-2.24602675437927,8.90874099731445,0.967993974685669,-0.228659987449646,-1.57775402069092,-1123.5,11.7000007629395,-938.100036621094,-0.17533657284071,-0.366408987149216,0.248696633533011,ST
6.13333333333333,-3.66601824760437,-2.31301879882812,8.81124401092529,1.04421401023865,0.0152439996600151,-1.84452390670776,-1123.5,6.30000019073486,-933.300048828125,-0.169633258643839,-0.377586208982862,0.254068641844948,ST
6.16666666666667,-3.6773829460144,-2.2771303653717,8.83935642242432,0.884151995182037,-0.121951997280121,-2.00458598136902,-1128.30004882812,12.9000005722046,-933.300048828125,-0.1665583564994,-0.380600166551029,0.252565482221358,ST
6.2,-3.45008873939514,-2.38718867301941,8.60189437866211,1.265251994133,-0.121951997280121,-1.79879200458527,-1121.10009765625,11.7000007629395,-945.300048828125,-0.153085579315776,-0.368145303649323,0.26914273822295,ST
6.23333333333333,-3.19228911399841,-2.16348314285278,9.26463603973389,1.31098401546478,-0.609759986400604,-2.08842802047729,-1123.5,4.5,-938.100036621094,-0.159170176475373,-0.335763538231063,0.240440309466998,ST
6.26666666666667,-3.25987911224365,-1.88235592842102,7.65144491195679,1.52439999580383,-0.67835795879364,-1.05945801734924,-1123.5,8.70000076293945,-938.100036621094,-0.157172049645706,-0.374130312014678,0.23952004169479,ST
6.3,-3.25449585914612,-2.11383724212646,8.69580268859863,1.37195992469788,1.07470202445984,-0.754577994346619,-1123.5,13.5000009536743,-940.500061035156,-0.155181395087652,-0.356262518631937,0.237420158000719,ST
6.33333333333333,-2.99968695640564,-2.119220495224,9.11629676818848,1.13567793369293,-0.182927995920181,-0.579271972179413,-1128.30004882812,8.70000076293945,-942.900024414062,-0.156166894597362,-0.322406898142967,0.22964793301251,ST
6.36666666666667,-3.79521703720093,-2.13477230072021,8.24719524383545,0.701223969459534,-0.396344006061554,-0.564027965068817,-1128.30004882812,12.9000005722046,-940.500061035156,-0.14954253694864,-0.389274852368817,0.245314857925387,ST
6.4,-3.03736996650696,-2.44461035728455,8.99965953826904,0.182927995920181,-0.0609759986400604,-0.533540010452271,-1118.70007324219,11.1000003814697,-940.500061035156,-0.14361120293185,-0.336992673255154,0.259369774528816,ST
6.43333333333333,-3.43453693389893,-2.5098078250885,8.80825328826904,-0.0,-0.0838419944047928,-0.586893975734711,-1121.10009765625,12.3000001907349,-945.300048828125,-0.138244681992564,-0.352216645614415,0.272555812842069,ST
6.46666666666667,-3.43513512611389,-2.54988360404968,8.81902027130127,0.0076219998300075,0.0838419944047928,-0.25152599811554,-1116.30004882812,4.5,-942.900024414062,-0.135453241976548,-0.356543700210282,0.279237135401182,ST
6.5,-3.11213779449463,-2.64080119132996,8.63957691192627,-0.106707997620106,-0.274392008781433,0.190549999475479,-1123.5,8.10000038146973,-940.500061035156,-0.131771920399982,-0.338962451043122,0.291458636576498,ST
6.53333333333333,-2.62584757804871,-2.63242721557617,8.27231693267822,-0.228659987449646,-0.617381989955902,0.647870004177094,-1133.10009765625,10.5,-947.700012207031,-0.129509811319598,-0.306848090399037,0.303099802409853,ST
6.56666666666667,-3.51289367675781,-2.6396050453186,8.54626655578613,-0.510673999786377,0.221037998795509,1.01372599601746,-1121.10009765625,5.70000028610229,-947.700012207031,-0.131975212398329,-0.354538631224255,0.300889093371542,ST
6.6,-3.42735934257507,-2.69702672958374,8.94044303894043,-0.358233988285065,0.160062000155449,1.40244793891907,-1118.70007324219,8.10000038146973,-945.300048828125,-0.136466916516086,-0.353234215997408,0.295001448784352,ST
6.63333333333333,-3.07445478439331,-2.60850143432617,9.18388748168945,-0.190549999475479,-0.472563982009888,1.33385002613068,-1118.70007324219,6.90000009536743,-940.500061035156,-0.143261335842261,-0.323980497750776,0.281810301446246,ST
6.66666666666667,-3.32208609580994,-2.49485445022583,8.77116870880127,0.434453994035721,-1.15854394435883,1.56251001358032,-1118.70007324219,9.30000019073486,-940.500061035156,-0.147707897456696,-0.341517112819572,0.277060116602442,ST
6.7,-2.8561327457428,-2.60491275787354,8.84593677520752,0.701223969459534,-0.922261953353882,1.34147191047668,-1125.90002441406,9.90000057220459,-945.300048828125,-0.148211507483312,-0.312100543519668,0.282127051826389,ST
6.73333333333333,-3.12469887733459,-2.46793794631958,8.69281196594238,0.708845973014832,-1.45580196380615,1.2423859834671,-1128.30004882812,13.5000009536743,-940.500061035156,-0.152124401342145,-0.32536555764321,0.276776014964743,ST
6.76666666666667,-3.03378105163574,-2.43623638153076,9.1802978515625,0.853663980960846,-1.22714197635651,1.21951997280121,-1133.10009765625,8.70000076293945,-938.100036621094,-0.158462516802511,-0.312991752762655,0.262961521623896,ST
6.8,-2.84177732467651,-2.21492338180542,9.60378360748291,1.19665396213531,-1.6692179441452,1.43293595314026,-1135.5,2.10000014305115,-947.700012207031,-0.169002622269676,-0.288890237832317,0.235373061822324,ST
6.83333333333333,-1.9146556854248,-2.00198459625244,8.51456546783447,1.90549993515015,-2.080806016922,1.56251001358032,-1125.90002441406,6.90000009536743,-938.100036621094,-0.173244545929361,-0.233512932225652,0.229086354994408,ST
6.86666666666667,-2.26397109031677,-2.02949905395508,8.16345500946045,1.88263392448425,-0.259148001670837,1.34147191047668,-1130.70007324219,2.70000004768372,-942.900024414062,-0.172954697701181,-0.254137688694625,0.236533673085837,ST
6.9,-3.02301454544067,-2.0432562828064,8.75083160400391,1.42531394958496,0.602137982845306,0.518296003341675,-1133.10009765625,12.3000001907349,-947.700012207031,-0.174770137722548,-0.304160254372869,0.229694538496258,ST
6.93333333333333,-3.25748658180237,-1.89611327648163,9.14381122589111,1.28049600124359,-0.129574000835419,0.663114011287689,-1125.90002441406,9.90000057220459,-942.900024414062,-0.181475090859955,-0.327018392135321,0.209545665042131,ST
6.96666666666667,-3.33345079421997,-1.82134532928467,9.04691219329834,1.2423859834671,-1.18903195858002,1.31098401546478,-1121.10009765625,6.30000019073486,-938.100036621094,-0.186458331051161,-0.33963377174344,0.199789118040501,ST
7.0,-2.55227613449097,-1.69872605800629,9.02358531951904,1.2423859834671,-2.12653803825378,0.739333987236023,-1135.5,10.5,-945.300048828125,-0.191237302320628,-0.289318338737317,0.188195830481313,ST
7.03333333333333,-2.17245531082153,-1.5743123292923,8.52054691314697,1.2500079870224,-2.21800184249878,0.426831990480423,-1142.70007324219,12.9000005722046,-942.900024414062,-0.193549740057982,-0.256210218620395,0.18254684651758,ST
7.06666666666667,-2.75385022163391,-1.56354570388794,8.53550052642822,0.891773998737335,-0.701223969459534,0.144817993044853,-1137.90002441406,5.70000028610229,-938.100036621094,-0.194196523044,-0.293029657493669,0.180287487774418,ST
7.1,-2.85912346839905,-1.80938243865967,9.23532772064209,0.37347799539566,-0.381099998950958,0.0152439996600151,-1130.70007324219,9.90000057220459,-950.100036621094,-0.191625623675978,-0.293922866260056,0.189014326401558,ST
7.13333333333333,-2.72633576393127,-1.8267285823822,9.30949687957764,-0.0152439996600151,-1.18903195858002,0.304879993200302,-1135.5,4.5,-942.900024414062,-0.19160484238804,-0.28271704113892,0.192167166628206,ST
7.16666666666667,-2.7903368473053,-1.84108412265778,9.54995059967041,-0.350611984729767,-1.12043392658234,0.884151995182037,-1142.70007324219,5.10000038146973,-938.100036621094,-0.19388832603666,-0.279257670010282,0.191012889651148,ST
7.2,-2.27832651138306,-2.01454544067383,9.43211650848389,-0.419209986925125,-1.29574000835419,1.42531394958496,-1154.70007324219,9.90000057220459,-930.900024414062,-0.19339079061425,-0.243098518670152,0.205368502906228,ST
7.23333333333333,-2.40812349319458,-1.98404026031494,9.17431735992432,-0.487807989120483,0.205793991684914,1.75305998325348,-1142.70007324219,4.5,-935.700012207031,-0.195215257097483,-0.249646097889809,0.210968844997917,ST
7.26666666666667,-2.25081205368042,-2.23765277862549,9.34538555145264,-0.46494197845459,0.663114011287689,1.52439999580383,-1149.90002441406,8.70000076293945,-938.100036621094,-0.193566171805925,-0.237178515064427,0.227971599866341,ST
7.3,-2.4535825252533,-2.32617807388306,8.98889255523682,-0.403965979814529,0.106707997620106,1.31098401546478,-1133.10009765625,3.90000009536743,-940.500061035156,-0.191530890158389,-0.252494661332535,0.245704527544191,ST
7.33333333333333,-2.54091143608093,-2.29088759422302,8.98051834106445,-0.160062000155449,0.259148001670837,1.55488801002502,-1157.10009765625,11.1000003814697,-930.900024414062,-0.193359205258523,-0.263813333879453,0.248268612995537,ST
7.36666666666667,-3.05950140953064,-2.30464482307434,8.66410064697266,-0.0,0.487807989120483,2.0655620098114,-1137.90002441406,-0.300000011920929,-928.500061035156,-0.19446213858245,-0.312205836991176,0.255982450095371,ST
7.4,-3.14922285079956,-2.24961566925049,8.88421726226807,0.0228659994900227,1.03659200668335,2.43903994560242,-1147.5,12.3000001907349,-942.900024414062,-0.200353175343452,-0.328135728864206,0.249166219361048,ST
7.43333333333333,-3.29397344589233,-2.12041687965393,9.258056640625,0.541162014007568,0.365855991840363,2.02745199203491,-1152.30004882812,0.300000011920929,-938.100036621094,-0.209438140235771,-0.333336026976583,0.230245533470386,ST
7.46666666666667,-2.8441698551178,-2.11383724212646,8.76877593994141,0.701223969459534,-0.6250039935112,1.79879200458527,-1149.90002441406,6.30000019073486,-947.700012207031,-0.211461857060493,-0.312508168398806,0.233205357476977,ST
7.5,-2.99789261817932,-1.98045134544373,8.45415306091309,0.358233988285065,-0.503051996231079,1.20427596569061,-1140.30004882812,13.5000009536743,-942.900024414062,-0.214360164107707,-0.326184591569252,0.230083115531335,ST
7.53333333333333,-3.03976249694824,-1.89611327648163,8.71793365478516,0.350611984729767,0.274392008781433,1.21951997280121,-1149.90002441406,11.7000007629395,-942.900024414062,-0.219877782085408,-0.328379931521135,0.218054199399488,ST
7.56666666666667,-3.23535537719727,-1.92302966117859,8.65692329406738,0.304879993200302,0.792688012123108,1.62348592281342,-1130.70007324219,9.30000019073486,-940.500061035156,-0.222279129264184,-0.345056992422191,0.217432791658444,ST
7.6,-3.26645874977112,-2.00437712669373,8.97334098815918,-0.0533539988100529,0.327746003866196,1.15854394435883,-1133.10009765625,9.90000057220459,-938.100036621094,-0.223710014174229,-0.343095328228541,0.218710919086231,ST
7.63333333333333,-2.89800262451172,-1.92183339595795,9.06425857543945,-0.0304879993200302,-0.609759986400604,1.34909391403198,-1125.90002441406,7.50000047683716,-942.900024414062,-0.228834256461026,-0.313192424126759,0.210885695247588,ST
7.66666666666667,-2.68566203117371,-1.92960917949677,9.12467098236084,0.160062000155449,-1.05183601379395,1.05945801734924,-1135.5,10.5,-945.300048828125,-0.231535365630539,-0.289250754692344,0.208481253425568,ST
7.7,-2.95662069320679,-1.71786665916443,8.52293872833252,-0.0304879993200302,-1.12805593013763,1.74543797969818,-1140.30004882812,4.5,-947.700012207031,-0.236946154905681,-0.315274064991817,0.201093824574121,ST
7.73333333333333,-2.81127190589905,-1.77947533130646,9.27301025390625,-0.175305992364883,-1.02897000312805,1.2500079870224,-1145.10009765625,5.70000028610229,-938.100036621094,-0.241915945221804,-0.296227785181721,0.192703679313055,ST
7.76666666666667,-2.48348951339722,-1.55995690822601,9.46680927276611,-0.221037998795509,-1.32622802257538,1.43293595314026,-1166.70007324219,7.50000047683716,-945.300048828125,-0.250561080769448,-0.26492653760717,0.171778834512603,ST
7.8,-2.04265832901001,-1.59763991832733,8.95898532867432,-0.434453994035721,-1.39482593536377,1.57013201713562,-1154.70007324219,9.90000057220459,-933.300048828125,-0.253093771713096,-0.231514940080296,0.17518763519102,ST
7.83333333333333,-2.53911685943604,-1.23516523838043,8.54507064819336,-0.792688012123108,-0.46494197845459,1.21951997280121,-1140.30004882812,5.70000028610229,-933.300048828125,-0.261429716241667,-0.271395067027223,0.152539841506261,ST
7.86666666666667,-2.5098078250885,-1.38709354400635,8.57437992095947,-3.26221585273743,0.457319974899292,2.09605002403259,-1149.90002441406,15.3000001907349,-940.500061035156,-0.26420695215215,-0.279704404007744,0.161791972324065,ST
7.9,-2.77478528022766,-2.04863977432251,9.23532772064209,-4.88570165634155,0.480185985565186,1.71494996547699,-1137.90002441406,12.9000005722046,-930.900024414062,-0.256549865203105,-0.284853779709996,0.208333992814262,ST
7.93333333333333,-2.63003468513489,-2.29387831687927,9.87294769287109,-4.03203773498535,1.03659200668335,0.495429992675781,-1154.70007324219,16.5,-947.700012207031,-0.253780191357176,-0.264566654580154,0.227150129312055,ST
7.96666666666667,-2.33096313476562,-2.56902408599854,9.74315071105957,-1.94360995292664,1.48628997802734,-0.259148001670837,-1135.5,20.7000007629395,-935.700012207031,-0.247385384827419,-0.239325473162789,0.252097704950678,ST
8.0,-2.39556264877319,-2.87886214256287,9.28617000579834,1.6844619512558,2.59910202026367,-0.503051996231079,-1130.70007324219,15.3000001907349,-940.500061035156,-0.236571486230066,-0.244016797763132,0.285520726218635,ST
8.03333333333333,-2.80947756767273,-2.70659685134888,9.54396915435791,4.88570165634155,3.66618180274963,-1.32622802257538,-1135.5,14.1000003814697,-938.100036621094,-0.233448004463821,-0.270716897182726,0.273670215049768,ST
8.06666666666667,-3.49614572525024,-2.27055072784424,8.74903678894043,7.72870779037476,2.98020195960999,-0.0152439996600151,-1113.90002441406,5.10000038146973,-938.100036621094,-0.235067643450684,-0.342901911895399,0.250843550502963,ST
8.1,-3.34960055351257,-1.96190893650055,8.39792728424072,8.61285972595215,3.09453201293945,0.449698001146317,-1128.30004882812,8.10000038146973,-935.700012207031,-0.238217208712794,-0.365979617384301,0.225561778950314,ST
8.13333333333333,-3.57510042190552,-1.64668762683868,7.8536171913147,7.85828161239624,2.37806391716003,0.495429992675781,-1111.5,5.70000028610229,-940.500061035156,-0.241660706682183,-0.406084723385402,0.202830741160587,ST
8.16666666666667,-4.13376617431641,-1.23636150360107,7.24171686172485,2.9192259311676,1.28049600124359,-0.167683988809586,-1113.90002441406,0.300000011920929,-938.100036621094,-0.250249125366763,-0.481887553727986,0.176336616496478,ST
8.2,-4.67209482192993,-1.0335910320282,8.680251121521,-1.00610399246216,0.724089980125427,-0.594515979290009,-1106.70007324219,-1.5,-935.700012207031,-0.268710417926203,-0.489323594083941,0.13619201886511,ST
8.23333333333333,-4.08232593536377,-1.46963727474213,9.30411434173584,-3.27745985984802,-1.07470202445984,-1.52439999580383,-1109.10009765625,2.70000004768372,-957.300048828125,-0.260179260200457,-0.428315791236765,0.156486784677046,ST
8.26666666666667,-2.83938479423523,-1.89850580692291,8.60009956359863,-3.3689239025116,-2.25611186027527,-1.41006994247437,-1111.5,7.50000047683716,-933.300048828125,-0.242554633955895,-0.342328290344436,0.20498382105754,ST
8.3,-2.88245105743408,-2.31600952148438,9.01281833648682,-2.72105383872986,-0.853663980960846,-1.82165801525116,-1116.30004882812,3.90000009536743,-945.300048828125,-0.229704289257766,-0.311531774295449,0.24161312740032,ST
8.33333333333333,-3.08282876014709,-2.0432562828064,9.11091327667236,-1.42531394958496,-0.701223969459534,-1.51677799224854,-1111.5,5.70000028610229,-935.700012207031,-0.232135842889986,-0.315438437656374,0.229204095477283,ST
8.36666666666667,-3.24552369117737,-2.04445266723633,8.42544174194336,-0.457319974899292,0.0533539988100529,0.243903994560242,-1113.90002441406,9.90000057220459,-940.500061035156,-0.230608027094794,-0.345447063895603,0.235824102119698,ST
8.4,-3.54399704933167,-1.99779748916626,9.0612678527832,0.121951997280121,0.92988395690918,-0.0685980021953583,-1118.70007324219,11.7000007629395,-940.500061035156,-0.234769371792897,-0.360652887588105,0.222176650765509,ST
8.43333333333333,-4.06318521499634,-1.7746901512146,8.74185943603516,0.198172003030777,1.06708002090454,0.320124000310898,-1106.70007324219,10.5,-938.100036621094,-0.240563316758722,-0.408660782570881,0.206734508383244,ST
8.46666666666667,-4.09787750244141,-1.97985327243805,8.72331714630127,0.114329993724823,1.51677799224854,0.0990860015153885,-1101.90002441406,14.7000007629395,-938.100036621094,-0.235498107779965,-0.425123624688846,0.218183815483434,ST
8.5,-3.51409006118774,-2.21611976623535,8.61565113067627,0.0914639979600906,1.47866797447205,-0.449698001146317,-1097.10009765625,16.5,-942.900024414062,-0.224686124739051,-0.392575640594519,0.242117179529918,ST
8.53333333333333,-3.75573968887329,-2.2173159122467,8.53729438781738,0.25152599811554,1.32622802257538,-0.724089980125427,-1104.30004882812,14.7000007629395,-935.700012207031,-0.219564894609815,-0.400900833816034,0.250710666858091,ST
8.56666666666667,-3.61397981643677,-2.35548710823059,8.02169513702393,0.739333987236023,1.44817996025085,-0.350611984729767,-1111.5,8.70000076293945,-930.900024414062,-0.208553885682339,-0.407512523563847,0.274562581346788,ST
8.6,-3.98662281036377,-2.1652774810791,9.39263916015625,1.28811800479889,2.28659987449646,-0.221037998795509,-1089.90002441406,9.90000057220459,-945.300048828125,-0.220080026267203,-0.399496984706333,0.239749474229947,ST
8.63333333333333,-3.60799837112427,-2.11981868743896,7.95948839187622,1.76830399036407,0.762199997901917,0.25152599811554,-1099.5,14.1000003814697,-942.900024414062,-0.213705270679172,-0.4105755546312,0.252776674360743,ST
8.66666666666667,-4.97056818008423,-2.12759447097778,8.58694076538086,1.28811800479889,2.66007804870605,1.00610399246216,-1075.5,8.10000038146973,-933.300048828125,-0.217118867756929,-0.488815916273483,0.243717700230379,ST
8.7,-4.67568349838257,-2.11622977256775,9.2401123046875,0.861285984516144,2.04269599914551,1.19665396213531,-1085.10009765625,9.90000057220459,-933.300048828125,-0.224185764935213,-0.470196415765538,0.229177626433591,ST
8.73333333333333,-4.27253532409668,-1.89372062683105,8.72152233123779,0.640248000621796,0.663114011287689,1.29574000835419,-1077.90002441406,15.3000001907349,-942.900024414062,-0.230879131940905,-0.454754629958761,0.216937315608067,ST
8.76666666666667,-3.61816692352295,-1.8446729183197,8.14790344238281,0.640248000621796,0.190549999475479,1.60824191570282,-1089.90002441406,4.5,-942.900024414062,-0.231779764736828,-0.423196952759088,0.219321823565558,ST
8.8,-3.9297993183136,-1.56534016132355,7.68793153762817,1.09756803512573,0.0685980021953583,1.42531394958496,-1073.10009765625,7.50000047683716,-933.300048828125,-0.239966313933359,-0.454023481199896,0.203515816517349,ST
8.83333333333333,-4.72054433822632,-1.20525813102722,8.14371681213379,1.29574000835419,0.731711983680725,1.88263392448425,-1087.5,11.1000003814697,-930.900024414062,-0.261231492036573,-0.502853012380454,0.160901197440553,ST
8.86666666666667,-4.18042135238647,-1.36795294284821,8.37459945678711,1.21951997280121,0.0,2.26373386383057,-1075.5,-0.300000011920929,-930.900024414062,-0.26467139902821,-0.471734698634312,0.158718855793615,ST
8.9,-4.44719314575195,-1.21901535987854,8.44817161560059,1.37195992469788,-0.3125019967556,1.32622802257538,-1082.70007324219,9.90000057220459,-940.500061035156,-0.271751802585193,-0.477606221818655,0.145425989653401,ST
8.93333333333333,-4.42266893386841,-1.11134958267212,8.49662113189697,1.61586391925812,-0.137196004390717,0.807931959629059,-1082.70007324219,3.30000019073486,-930.900024414062,-0.277805582845241,-0.476782630609327,0.132191051349425,ST
8.96666666666667,-4.62783193588257,-1.251913189888,8.51695823669434,1.73781597614288,-0.0076219998300075,0.434453994035721,-1085.10009765625,11.1000003814697,-935.700012207031,-0.273740557462229,-0.488379053992911,0.139379037697035,ST
9.0,-4.72951650619507,-1.251913189888,8.08509826660156,1.16616594791412,-0.0381099991500378,0.365855991840363,-1085.10009765625,0.300000011920929,-935.700012207031,-0.269389516313846,-0.513398237867989,0.147596097221106,NLR
9.03333333333333,-4.65833759307861,-1.10297560691833,8.59830474853516,0.541162014007568,-0.121951997280121,-0.0457319989800453,-1085.10009765625,5.10000038146973,-933.300048828125,-0.276015649551071,-0.499056771007209,0.132910513297901,NLR
9.06666666666667,-4.658935546875,-1.33326065540314,8.88062858581543,0.564027965068817,-0.579271972179413,0.106707997620106,-1087.5,6.90000009536743,-935.700012207031,-0.270880395143572,-0.484063026684792,0.143405777994791,NLR
9.1,-4.32038688659668,-1.07426476478577,8.20472717285156,1.03659200668335,-1.31860601902008,-0.0304879993200302,-1075.5,8.70000076293945,-930.900024414062,-0.275346569044104,-0.480320196788636,0.132407552106027,NLR
9.13333333333333,-4.43463182449341,-0.847568571567535,8.00016212463379,1.12043392658234,-0.830797970294952,0.762199997901917,-1085.10009765625,7.50000047683716,-940.500061035156,-0.285815809013051,-0.49643262848041,0.111002659349053,NLR
9.16666666666667,-4.11821413040161,-1.06529259681702,8.65752124786377,1.31860601902008,-0.937505960464478,0.670735955238342,-1075.5,4.5,-940.500061035156,-0.283195531344137,-0.456673941622492,0.116995214566485,NLR
9.2,-4.2444224357605,-0.750669419765472,8.49841499328613,1.49391198158264,-1.27287399768829,0.769822001457214,-1073.10009765625,-0.900000035762787,-928.500061035156,-0.293990434073762,-0.458836812149525,0.0932022163718124,NLR
9.23333333333333,-4.02610015869141,-0.633433401584625,8.68144702911377,1.6615959405899,-1.33385002613068,0.655492007732391,-1092.30004882812,3.30000019073486,-935.700012207031,-0.301475859614994,-0.438644822222026,0.0758198230490912,NLR
9.26666666666667,-3.9878191947937,-0.453392386436462,8.22925090789795,1.77592599391937,-0.990859985351562,0.457319974899292,-1089.90002441406,1.5,-950.100036621094,-0.308489721589904,-0.446149552333367,0.0582112349409943,NLR
9.3,-4.2085337638855,-0.620872378349304,8.96137809753418,1.44055795669556,-0.449698001146317,0.0457319989800453,-1092.30004882812,3.90000009536743,-926.100036621094,-0.305016166905152,-0.440008937148493,0.0640857305215567,NLR
9.33333333333333,-4.07694244384766,-0.724949300289154,8.94941520690918,1.50915598869324,-0.503051996231079,-1.60824191570282,-1097.10009765625,0.300000011920929,-935.700012207031,-0.296345336546626,-0.429056938233737,0.0754519702252736,NLR
9.36666666666667,-4.10924243927002,-0.805100440979004,8.69580268859863,1.87501192092896,0.556405961513519,-3.20886182785034,-1085.10009765625,-0.300000011920929,-942.900024414062,-0.28429564288543,-0.437366391311844,0.0874079933034457,NLR
9.4,-4.52734422683716,-0.803305983543396,8.78672027587891,1.98934197425842,1.01372599601746,-3.45276594161987,-1094.70007324219,2.70000004768372,-930.900024414062,-0.276316121522584,-0.463880531809913,0.0897047415914165,NLR
9.43333333333333,-4.47171688079834,-0.99889874458313,8.27112102508545,1.98934197425842,0.586893975734711,-3.65855979919434,-1092.30004882812,5.10000038146973,-938.100036621094,-0.25782212182334,-0.485708715465438,0.112383056798942,NLR
9.46666666666667,-4.52375507354736,-0.638218522071838,7.9134316444397,1.6615959405899,0.746955990791321,-2.88873791694641,-1089.90002441406,-0.900000035762787,-935.700012207031,-0.262579835333118,-0.508830504264462,0.0901479894552645,NLR
9.5,-4.97236251831055,-1.01684308052063,8.24360656738281,1.36433792114258,1.08994603157043,-0.99848198890686,-1082.70007324219,4.5,-923.700012207031,-0.248649102360341,-0.531876398492083,0.112332652509072,NLR
9.53333333333333,-4.74267578125,-0.914560616016388,8.76997184753418,1.43293595314026,0.922261953353882,-1.19665396213531,-1087.5,-2.10000014305115,-930.900024414062,-0.248740866737366,-0.504546316207705,0.105172151371246,NLR
9.56666666666667,-3.86400365829468,-1.20465993881226,8.62522125244141,1.54726600646973,0.106707997620106,-0.548784017562866,-1082.70007324219,-6.90000009536743,-938.100036621094,-0.236447769695536,-0.443787046260375,0.127463966459799,NLR
9.6,-3.8957052230835,-0.994113624095917,9.14022254943848,2.36281991004944,0.884151995182037,-2.18751406669617,-1082.70007324219,-6.90000009536743,-930.900024414062,-0.237437010203059,-0.414468003781122,0.112381285195504,NLR
9.63333333333333,-4.12240123748779,-0.873288750648499,8.94881725311279,3.06404399871826,0.846041977405548,-2.24086785316467,-1073.10009765625,-2.70000004768372,-938.100036621094,-0.236699144764068,-0.426637202985004,0.0986520766172649,NLR
9.66666666666667,-3.35318946838379,-1.29079258441925,8.55224800109863,3.24697184562683,0.167683988809586,-2.42379593849182,-1065.90002441406,-6.30000019073486,-933.300048828125,-0.216175122787308,-0.384651032564212,0.133790943807579,NLR
9.7,-4.40771532058716,-0.976767480373383,8.17481994628906,3.18599581718445,0.960371971130371,-4.74088382720947,-1063.5,-2.10000014305115,-938.100036621094,-0.210367515342492,-0.463828976963924,0.121812346272631,NLR
9.73333333333333,-4.48846483230591,-1.09998488426208,8.21549415588379,2.85062789916992,0.685979962348938,-4.22258806228638,-1070.70007324219,-6.30000019073486,-921.300048828125,-0.197322853189259,-0.487969135007238,0.129298152320817,NLR
9.76666666666667,-4.96697902679443,-1.21123957633972,8.42424583435059,2.09605002403259,0.449698001146317,-3.57471799850464,-1056.30004882812,-2.70000004768372,-940.500061035156,-0.185677064478341,-0.516093573826665,0.138554915807398,NLR
9.8,-5.4580545425415,-1.01983380317688,8.89737701416016,1.60824191570282,0.548784017562866,-2.36281991004944,-1058.70007324219,-8.10000038146973,-933.300048828125,-0.189350587123436,-0.538678718325133,0.121014428118673,NLR
9.83333333333333,-4.77437734603882,-0.865512907505035,9.06366062164307,2.00458598136902,-0.3125019967556,-0.37347799539566,-1058.70007324219,-5.70000028610229,-921.300048828125,-0.197586298048218,-0.497093697857467,0.0994813119869619,NLR
9.86666666666667,-4.28928327560425,-0.596946656703949,8.65153980255127,2.12653803825378,-0.602137982845306,0.282013982534409,-1053.90002441406,-5.10000038146973,-926.100036621094,-0.208187581490739,-0.468491057446793,0.0738376634372463,NLR
9.9,-3.90647172927856,-0.640012979507446,8.22984886169434,1.95123195648193,-0.442075997591019,1.12043392658234,-1061.10009765625,-9.90000057220459,-921.300048828125,-0.208664058187803,-0.449174099548092,0.0734190073691072,NLR
9.93333333333333,-4.26117038726807,0.0418700091540813,8.92489147186279,1.38720393180847,-0.884151995182037,1.34909391403198,-1049.10009765625,-8.10000038146973,-926.100036621094,-0.234518231012122,-0.445775159963727,0.0162923604107305,NLR
9.96666666666667,-3.7192530632019,0.394176214933395,8.56181812286377,2.00458598136902,-1.42531394958496,1.6844619512558,-1051.5,-9.30000019073486,-921.300048828125,-0.255451020545924,-0.418709372657279,-0.0308413749227404,NLR
10.0,-3.90946245193481,0.32838049530983,8.35605716705322,1.21189796924591,-0.434453994035721,0.472563982009888,-1061.10009765625,-6.90000009536743,-926.100036621094,-0.258450072309713,-0.431163288293993,-0.0384584271148284,NLR
10.0333333333333,-3.68575692176819,0.180041030049324,8.95659255981445,0.922261953353882,-0.670735955238342,-0.0228659994900227,-1065.90002441406,-12.9000005722046,-921.300048828125,-0.252840681799302,-0.401228403292947,-0.0264223676953674,NLR
10.0666666666667,-4.3784065246582,-0.0777585878968239,8.67008209228516,1.15854394435883,-0.685979962348938,-0.975615978240967,-1077.90002441406,-12.3000001907349,-914.100036621094,-0.239962787257841,-0.449339735015307,-0.0014631096602836,NLR
10.1,-4.89400577545166,0.324791640043259,9.55533409118652,1.57775402069092,-0.0228659994900227,-1.45580196380615,-1061.10009765625,-15.9000005722046,-911.700012207031,-0.247246684637322,-0.466911932188447,-0.0264683775293523,NLR
10.1333333333333,-4.43164110183716,0.136376604437828,8.80167388916016,1.6844619512558,-0.0228659994900227,-2.29422187805176,-1063.5,-11.7000007629395,-930.900024414062,-0.238415175599482,-0.466563611074905,-0.0189283226793465,NLR
10.1666666666667,-4.32277917861938,0.0454588644206524,8.91352653503418,1.81403601169586,-0.205793991684914,-2.36281991004944,-1065.90002441406,-10.5,-921.300048828125,-0.228716770057489,-0.45526007298402,-0.009532902401834,NLR
10.2,-4.07574605941772,0.104076877236366,8.15867042541504,1.73781597614288,-0.121951997280121,-2.22562384605408,-1063.5,-16.5,-923.700012207031,-0.225278332379232,-0.460738486314414,-0.0125620879422787,NLR
10.2333333333333,-3.87357378005981,-0.205163031816483,7.67477226257324,0.853663980960846,0.106707997620106,-1.89787793159485,-1056.30004882812,-10.5,-918.900024414062,-0.209372733486659,-0.465485595665623,0.0149984492581575,NLR
10.2666666666667,-4.64876699447632,-0.479710668325424,8.90754508972168,-0.114329993724823,0.106707997620106,-1.53964400291443,-1058.70007324219,-5.10000038146973,-930.900024414062,-0.194312813035402,-0.476046893991015,0.0431657946033046,NLR
10.3,-4.73489999771118,-0.397765070199966,8.98590183258057,0.175305992364883,-0.137196004390717,-1.2500079870224,-1058.70007324219,-11.7000007629395,-930.900024414062,-0.191510507294957,-0.48197201069281,0.0445395044170561,NLR
10.3333333333333,-4.4382209777832,-0.567039549350739,8.89318943023682,0.0533539988100529,-0.236281991004944,-1.15854394435883,-1063.5,-8.10000038146973,-926.100036621094,-0.182761422923202,-0.466920673438947,0.0593814467731321,NLR
10.3666666666667,-4.27911472320557,-0.653770267963409,8.32136535644531,-0.548784017562866,-0.381099998950958,-1.13567793369293,-1051.5,-2.10000014305115,-928.500061035156,-0.174863890425643,-0.471126505397288,0.0740226464654092,NLR
10.4,-4.37003231048584,-0.881662726402283,8.40032005310059,-1.40244793891907,-0.236281991004944,-0.594515979290009,-1061.10009765625,-3.30000019073486,-928.500061035156,-0.164420859248635,-0.475232632953301,0.0974287673369632,NLR
10.4333333333333,-4.21092653274536,-0.904990315437317,8.79030895233154,-0.960371971130371,-0.274392008781433,-0.0609759986400604,-1056.30004882812,-9.90000057220459,-923.700012207031,-0.162956259305054,-0.453526857570051,0.102246496673417,NLR
10.4666666666667,-4.27732038497925,-0.963010191917419,8.28308391571045,-0.175305992364883,0.0914639979600906,0.160062000155449,-1049.10009765625,-10.5,-918.900024414062,-0.15881672209089,-0.468980655682039,0.112470665072148,NLR
10.5,-4.22528171539307,-1.05512416362762,8.45355415344238,0.0762199983000755,0.503051996231079,0.647870004177094,-1063.5,-11.7000007629395,-930.900024414062,-0.156100837438732,-0.46350715053029,0.120503055352245,NLR
10.5333333333333,-4.8916130065918,-0.630442678928375,9.11689472198486,0.724089980125427,0.815553963184357,0.762199997901917,-1049.10009765625,-15.9000005722046,-921.300048828125,-0.174188328930049,-0.484994166996099,0.0819695400147065,NLR
10.5666666666667,-4.42386531829834,-0.443822085857391,8.61026763916016,1.86738991737366,-0.0152439996600151,1.35671591758728,-1046.70007324219,-12.3000001907349,-923.700012207031,-0.186101238739559,-0.477481745543319,0.0574880604980325,NLR
10.6,-4.00217485427856,-0.721958577632904,8.20054054260254,0.663114011287689,-0.0457319989800453,0.945127964019775,-1046.70007324219,-4.5,-933.300048828125,-0.178043718330723,-0.460086137388546,0.077392068888566,NLR
10.6333333333333,-4.31500339508057,-0.656760990619659,8.19396018981934,0.205793991684914,0.0762199983000755,0.388722002506256,-1051.5,-2.70000004768372,-921.300048828125,-0.177882039707844,-0.477116279572037,0.0787555271039289,NLR
10.6666666666667,-4.28988122940063,-0.866111040115356,8.12816524505615,-0.259148001670837,0.655492007732391,0.564027965068817,-1049.10009765625,-9.90000057220459,-916.500061035156,-0.170031349001873,-0.482328747189311,0.0978924028481834,NLR
10.7,-4.3724250793457,-1.14245307445526,8.53191089630127,-0.0914639979600906,-0.3125019967556,0.0381099991500378,-1049.10009765625,-14.1000003814697,-933.300048828125,-0.158043823267248,-0.472716561637925,0.124417656352848,NLR
10.7333333333333,-4.34191989898682,-0.967795312404633,8.38536643981934,-0.754577994346619,-0.952749967575073,0.83841997385025,-1056.30004882812,-5.10000038146973,-928.500061035156,-0.162973897959406,-0.473346840154042,0.118100356499468,NLR
10.7666666666667,-4.59792518615723,-0.955832481384277,8.14371681213379,-1.21951997280121,-1.77592599391937,1.56251001358032,-1044.30004882812,-12.3000001907349,-921.300048828125,-0.167240148465128,-0.499118953905561,0.117534299023778,NLR
10.8,-4.14094400405884,-1.41879510879517,8.24958801269531,-1.57013201713562,-1.52439999580383,3.73477983474731,-1061.10009765625,-3.90000009536743,-923.700012207031,-0.157251347210768,-0.469177730012137,0.155461702184506,NLR
10.8333333333333,-3.97107124328613,-1.41640257835388,9.46501445770264,-1.41006994247437,-1.58537602424622,3.7728898525238,-1051.5,-12.3000001907349,-928.500061035156,-0.167068342539403,-0.413834361328861,0.14997315665395,NLR
10.8666666666667,-3.87596654891968,-1.03777801990509,8.560622215271,-0.426831990480423,-1.63110792636871,3.82624387741089,-1073.10009765625,-6.90000009536743,-923.700012207031,-0.183401325277206,-0.418690493886269,0.127011553891434,NLR
10.9,-4.43283748626709,-1.03299295902252,9.12766170501709,-0.746955990791321,-0.716467976570129,3.40703392028809,-1063.5,-12.9000005722046,-933.300048828125,-0.194773645811271,-0.441100544734764,0.11538106674029,NLR
10.9333333333333,-3.82691884040833,-0.756650865077972,9.08100700378418,-0.724089980125427,-0.952749967575073,3.45276594161987,-1068.30004882812,-9.90000057220459,-921.300048828125,-0.210654966779144,-0.409962054945915,0.0916563410090047,NLR
10.9666666666667,-3.67199969291687,-0.802707850933075,8.66649341583252,-0.396344006061554,-1.15854394435883,3.70429182052612,-1068.30004882812,-6.30000019073486,-930.900024414062,-0.217345445502468,-0.401465198239073,0.0906520846483348,NLR
11.0,-3.70429944992065,-0.699229121208191,8.14491271972656,-0.0533539988100529,-0.121951997280121,3.65093803405762,-1065.90002441406,-9.90000057220459,-916.500061035156,-0.225740721809752,-0.419107189459562,0.0850650328990628,NLR
11.0333333333333,-4.94006299972534,-0.28710862994194,8.74365425109863,0.190549999475479,0.426831990480423,4.74088382720947,-1077.90002441406,-6.30000019073486,-935.700012207031,-0.24996832361323,-0.486314371465204,0.0460252943319658,NLR
11.0666666666667,-4.75344228744507,-0.282921612262726,9.4315185546875,0.602137982845306,-0.0152439996600151,7.06559371948242,-1063.5,-11.7000007629395,-935.700012207031,-0.267890196858759,-0.47285571248695,0.0295956979599675,NLR
11.1,-3.39386320114136,-0.451597929000854,9.0911750793457,1.6768399477005,-1.03659200668335,7.14943599700928,-1077.90002441406,-11.7000007629395,-930.900024414062,-0.27516538675419,-0.386229204764184,0.038453834961862,NLR
11.1333333333333,-3.71147704124451,0.238659039139748,8.53191089630127,1.88263392448425,-0.6250039935112,5.5183277130127,-1068.30004882812,-9.30000019073486,-930.900024414062,-0.302476972260411,-0.402370049921225,-0.0129403308738356,NLR
11.1666666666667,-3.2927770614624,0.565843224525452,8.50918197631836,1.73781597614288,-0.579271972179413,3.49087595939636,-1082.70007324219,-9.30000019073486,-933.300048828125,-0.322610373591337,-0.377878438780212,-0.0542991639888937,NLR
11.2,-3.58766150474548,0.668723821640015,7.82610273361206,1.2423859834671,-0.6250039935112,1.41769194602966,-1089.90002441406,-18.3000011444092,-928.500061035156,-0.333103731822184,-0.412363243948694,-0.0779980355021222,NLR
11.2333333333333,-3.99619317054749,0.453392386436462,8.57617378234863,0.289635986089706,0.0381099991500378,-0.0304879993200302,-1068.30004882812,-9.90000057220459,-930.900024414062,-0.325832908809701,-0.428622502245385,-0.0607894756255306,NLR
11.2666666666667,-4.96817541122437,0.373839348554611,9.34598350524902,0.114329993724823,0.144817993044853,-0.67835795879364,-1070.70007324219,-14.7000007629395,-923.700012207031,-0.31770300771974,-0.473552609730765,-0.0450215547234383,NLR
11.3,-4.53930711746216,0.402550220489502,9.22575759887695,0.114329993724823,0.0304879993200302,-0.6250039935112,-1077.90002441406,-10.5,-923.700012207031,-0.316095958315184,-0.461955999124359,-0.0437859541299903,NLR
11.3333333333333,-4.06737232208252,0.2613884806633,9.29514217376709,0.137196004390717,-0.0533539988100529,-0.937505960464478,-1077.90002441406,-9.90000057220459,-926.100036621094,-0.309482268867887,-0.426560544939405,-0.0321589015862478,NLR
11.3666666666667,-3.76112294197083,0.334960073232651,7.63350057601929,0.342989981174469,-0.167683988809586,-0.891773998737335,-1070.70007324219,-12.3000001907349,-914.100036621094,-0.311230359539723,-0.447969444339568,-0.0401939869599432,NLR
11.4,-4.31141471862793,0.0753660127520561,6.88881254196167,-0.609759986400604,1.46342396736145,-0.693601965904236,-1073.10009765625,-11.1000003814697,-923.700012207031,-0.300566468183851,-0.528882296362408,-0.0185280555066357,NLR
11.4333333333333,-4.93647384643555,-0.39836323261261,8.77296257019043,-1.35671591758728,1.55488801002502,-1.52439999580383,-1070.70007324219,-9.30000019073486,-933.300048828125,-0.275158813757788,-0.518990794344955,0.0299460772518415,NLR
11.4666666666667,-4.78693819046021,-0.470140367746353,8.87823581695557,-1.18140995502472,0.0990860015153885,-1.53202199935913,-1065.90002441406,-6.90000009536743,-918.900024414062,-0.264754631109727,-0.50150730728035,0.0485509423725763,NLR
11.5,-4.77019023895264,-0.643601834774017,9.30471229553223,-0.99848198890686,-1.2423859834671,-1.02134799957275,-1073.10009765625,-8.10000038146973,-926.100036621094,-0.256467425097702,-0.47982309752575,0.0647862512527199,NLR
11.5333333333333,-3.92082715034485,-0.707004964351654,9.04392147064209,-0.746955990791321,-2.72105383872986,-0.449698001146317,-1075.5,-9.90000057220459,-930.900024414062,-0.251922737970466,-0.424173977991949,0.0755762079020462,ST
11.5666666666667,-3.43094801902771,-0.760239720344543,8.86148834228516,-0.922261953353882,-3.26221585273743,0.0990860015153885,-1077.90002441406,-12.9000005722046,-921.300048828125,-0.249965212434658,-0.380208609594774,0.0837150683745968,ST
11.6,-3.56373572349548,-0.650181412696838,7.66280937194824,-1.17378795146942,-2.43141794204712,0.503051996231079,-1087.5,-7.50000047683716,-930.900024414062,-0.251341097710628,-0.416759448681478,0.0855269739930483,ST
11.6333333333333,-4.14273834228516,-0.727940022945404,8.65213775634766,-2.47714996337891,-0.0381099991500378,1.55488801002502,-1075.5,-6.90000009536743,-926.100036621094,-0.255351163706096,-0.43748670879569,0.0866172568516116,ST
11.6666666666667,-4.4501838684082,-1.07845175266266,9.60737228393555,-2.60672402381897,-0.320124000310898,1.85976791381836,-1080.30004882812,-6.30000019073486,-926.100036621094,-0.251881666362672,-0.433087908819038,0.106342813181023,ST
11.7,-4.21930074691772,-0.877475738525391,9.83646106719971,-1.92836594581604,-0.891773998737335,1.59299790859222,-1085.10009765625,-6.90000009536743,-933.300048828125,-0.260304378200676,-0.411704823817502,0.0955883758113259,ST
11.7333333333333,-3.11692309379578,-0.827829897403717,8.92668533325195,-1.21951997280121,-1.63872992992401,1.80641400814056,-1092.30004882812,-6.90000009536743,-933.300048828125,-0.265101966407594,-0.35388417823957,0.0938943737280945,ST
11.7666666666667,-3.36993741989136,-0.782370984554291,8.98530387878418,-0.777444005012512,-1.21189796924591,0.83841997385025,-1089.90002441406,-3.90000009536743,-930.900024414062,-0.268806322153635,-0.355131170243392,0.0893313593007861,ST
11.8,-3.47461247444153,-0.395970642566681,8.96018123626709,-0.0838419944047928,0.205793991684914,0.46494197845459,-1080.30004882812,-1.5,-930.900024414062,-0.280733888277684,-0.365607876283659,0.0577028386548164,ST
11.8333333333333,-3.23714971542358,-0.584983825683594,8.70357799530029,0.37347799539566,0.236281991004944,0.807931959629059,-1087.5,-8.10000038146973,-935.700012207031,-0.279741256024617,-0.358782273828751,0.0634700442079409,ST
11.8666666666667,-3.52007126808167,-0.862522184848785,8.72630786895752,0.167683988809586,0.396344006061554,0.0152439996600151,-1092.30004882812,-6.30000019073486,-928.500061035156,-0.270918406396598,-0.375353928316725,0.0877078986399634,ST
11.9,-3.61756873130798,-1.03119850158691,8.20472717285156,0.449698001146317,-0.0304879993200302,-0.807931959629059,-1089.90002441406,-3.30000019073486,-938.100036621094,-0.259575923660854,-0.40114069263569,0.113520258294933,ST
11.9333333333333,-4.14154195785522,-1.03239476680756,8.68324184417725,0.365855991840363,0.129574000835419,-1.80641400814056,-1082.70007324219,-2.70000004768372,-940.500061035156,-0.254889570915772,-0.429819597118772,0.117414433025218,ST
11.9666666666667,-3.81734848022461,-1.23277270793915,8.1132116317749,0.228659987449646,-0.525918006896973,-1.31860601902008,-1085.10009765625,-2.10000014305115,-930.900024414062,-0.242854681572124,-0.432912823300038,0.141145972056419,ST
12.0,-4.46633338928223,-1.16817319393158,9.11270809173584,-0.221037998795509,-0.670735955238342,-0.868907988071442,-1092.30004882812,-4.5,-942.900024414062,-0.245554856457404,-0.445660669129574,0.13234863834977,ST
12.0333333333333,-4.29406833648682,-1.32608294487,9.61813926696777,0.297257989645004,-0.937505960464478,-0.0152439996600151,-1087.5,0.300000011920929,-938.100036621094,-0.244307182108514,-0.42406182855003,0.135199360764363,ST
12.0666666666667,-3.64568138122559,-1.32249414920807,9.05229568481445,0.548784017562866,-1.54726600646973,-0.0609759986400604,-1094.70007324219,2.70000004768372,-933.300048828125,-0.241710408197504,-0.390809965739796,0.141397557511072,ST
12.1,-3.6594386100769,-1.13288283348083,8.92608737945557,0.282013982534409,-1.41006994247437,0.0304879993200302,-1082.70007324219,-5.70000028610229,-935.700012207031,-0.246068027893855,-0.385946412244244,0.130343285714729,ST
12.1333333333333,-3.70489764213562,-1.02461886405945,8.67486763000488,-0.0152439996600151,-0.533540010452271,0.701223969459534,-1099.5,6.30000019073486,-928.500061035156,-0.250832703002856,-0.396032856872857,0.121063633465114,ST
12.1666666666667,-4.13256978988647,-0.876279473304749,9.27779579162598,0.190549999475479,-0.320124000310898,0.853663980960846,-1085.10009765625,-0.300000011920929,-933.300048828125,-0.260108621405851,-0.411262001374496,0.100889017668877,ST
12.2,-3.77607655525208,-1.04495573043823,8.89019870758057,0.167683988809586,-0.0914639979600906,1.56251001358032,-1101.90002441406,-6.30000019073486,-935.700012207031,-0.258403276191793,-0.402615855686987,0.111535614177521,ST
12.2333333333333,-3.82153534889221,-0.66034984588623,8.65572738647461,0.236281991004944,0.0457319989800453,1.02897000312805,-1101.90002441406,-6.30000019073486,-923.700012207031,-0.269964235332206,-0.411280300330271,0.086003723154323,ST
12.2666666666667,-3.47760319709778,-0.77579140663147,8.2980375289917,-0.0457319989800453,-1.08232402801514,1.16616594791412,-1094.70007324219,-2.70000004768372,-935.700012207031,-0.270354192070257,-0.398022938976708,0.0907858989497748,ST
12.3,-4.03327798843384,-0.756650865077972,8.54327583312988,0.0533539988100529,-0.663114011287689,1.33385002613068,-1106.70007324219,2.10000014305115,-928.500061035156,-0.27369282474612,-0.42745501268358,0.0881710062415929,ST
12.3333333333333,-4.12419557571411,-0.684873700141907,8.88601207733154,1.53202199935913,-0.0685980021953583,1.04421401023865,-1104.30004882812,-0.300000011920929,-930.900024414062,-0.278725158149786,-0.431794338587587,0.0774684547380845,ST
12.3666666666667,-4.17443990707397,-0.571226537227631,8.85789966583252,1.53964400291443,-0.381099998950958,1.02134799957275,-1089.90002441406,-9.90000057220459,-933.300048828125,-0.284128351353455,-0.436878355421462,0.0658672289439199,ST
12.4,-3.76889896392822,-0.235668331384659,9.45185565948486,1.98934197425842,-0.457319974899292,0.266770005226135,-1092.30004882812,-3.30000019073486,-930.900024414062,-0.295906695086256,-0.396113987127103,0.03445273127642,ST
12.4333333333333,-3.43393874168396,-0.472532957792282,8.08450031280518,0.899396002292633,-0.693601965904236,-0.274392008781433,-1104.30004882812,-4.5,-928.500061035156,-0.288391926857938,-0.398869689681403,0.0510693916815294,ST
12.4666666666667,-3.36814308166504,-0.720164120197296,9.81851673126221,0.46494197845459,-0.0990860015153885,-0.769822001457214,-1097.10009765625,-4.5,-933.300048828125,-0.281221306158436,-0.350269171458729,0.0664838385413974,ST
12.5,-2.95362997055054,-0.730930685997009,8.73228931427002,0.830797970294952,-0.868907988071442,-1.47866797447205,-1097.10009765625,-3.90000009536743,-928.500061035156,-0.274274717450422,-0.330782208719137,0.0784409068201322,ST
12.5333333333333,-3.07565116882324,-0.86790543794632,8.62163257598877,0.518296003341675,-0.571649968624115,-1.79879200458527,-1097.10009765625,-5.10000038146973,-938.100036621094,-0.265709422662607,-0.337335282502563,0.0944098767459333,ST
12.5666666666667,-3.32208609580994,-0.994711756706238,8.14790344238281,-0.3125019967556,-0.205793991684914,-1.19665396213531,-1089.90002441406,-4.5,-930.900024414062,-0.256793902741477,-0.371167162927475,0.114891930272126,ST
12.6,-3.68276619911194,-1.0515353679657,8.57737064361572,-1.265251994133,0.846041977405548,-0.297257989645004,-1099.5,-0.900000035762787,-930.900024414062,-0.254477163140727,-0.394297547809377,0.121577183471063,ST
12.6333333333333,-3.84067606925964,-1.45707631111145,9.20960712432861,-1.46342396736145,0.106707997620106,0.586893975734711,-1097.10009765625,0.900000035762787,-935.700012207031,-0.246308623811642,-0.392072050078174,0.147791762227465,ST
12.6666666666667,-3.89450883865356,-1.46186137199402,8.96257400512695,-1.39482593536377,-0.37347799539566,1.16616594791412,-1097.10009765625,0.900000035762787,-930.900024414062,-0.245009831542921,-0.401149799736515,0.158773655004817,ST
12.7,-4.05660581588745,-1.54679775238037,9.3597412109375,-1.15092194080353,-0.419209986925125,1.90549993515015,-1092.30004882812,-8.70000076293945,-940.500061035156,-0.247361819960237,-0.403067517876545,0.162665373785126,ST
12.7333333333333,-3.51050114631653,-1.1998747587204,9.12766170501709,-0.525918006896973,-0.701223969459534,2.4923939704895,-1092.30004882812,-5.10000038146973,-933.300048828125,-0.26058390151429,-0.37557910680867,0.139582127826105,ST
12.7666666666667,-3.30593609809875,-0.988132178783417,8.692214012146,0.221037998795509,-0.884151995182037,2.55336999893188,-1092.30004882812,-3.30000019073486,-940.500061035156,-0.272961584906111,-0.364161066097705,0.118143418487962,ST
12.8,-3.34541368484497,-0.87687760591507,8.81543064117432,0.701223969459534,0.0685980021953583,2.64483404159546,-1106.70007324219,-1.5,-938.100036621094,-0.282868862637856,-0.362344758114228,0.101935197722305,ST
12.8333333333333,-3.50511789321899,-0.44322395324707,8.19994163513184,1.55488801002502,0.87652999162674,2.56099200248718,-1094.70007324219,-8.10000038146973,-930.900024414062,-0.300000191568825,-0.393542535364986,0.0640975603676964,ST
12.8666666666667,-3.77129149436951,-0.552085936069489,8.76877593994141,1.41006994247437,1.2347639799118,2.47714996337891,-1097.10009765625,1.5,-938.100036621094,-0.304579621692025,-0.403930258546434,0.0601417267548297,ST
12.9,-4.24262809753418,-0.386998504400253,9.80954456329346,1.41006994247437,-0.213415995240211,1.85976791381836,-1092.30004882812,-2.70000004768372,-935.700012207031,-0.313356734255424,-0.406584245049271,0.0429683593505609,ST
12.9333333333333,-3.47879958152771,0.292491912841797,8.71733570098877,1.89025592803955,-1.265251994133,2.09605002403259,-1097.10009765625,2.10000014305115,-935.700012207031,-0.337498945971335,-0.386314252715946,-0.0140572152024276,ST
12.9666666666667,-4.06378316879272,0.148339450359344,8.9835090637207,1.44817996025085,1.63872992992401,1.89025592803955,-1092.30004882812,-7.50000047683716,-928.500061035156,-0.34170956422085,-0.417230585255367,-0.0188746752863845,ST
13.0,-3.74138426780701,-0.0352904349565506,10.6750574111938,2.20275783538818,0.670735955238342,0.190549999475479,-1099.5,-3.90000009536743,-933.300048828125,-0.33542684287126,-0.35993333457774,-0.0054931943386776,ST
13.0333333333333,-3.77906727790833,0.421690791845322,8.16824054718018,2.59148001670837,0.236281991004944,-0.167683988809586,-1097.10009765625,-0.300000011920929,-935.700012207031,-0.346649980250324,-0.411191827335375,-0.0404597160454118,ST
13.0666666666667,-3.83947968482971,0.163293033838272,8.82799243927002,2.0731840133667,1.02134799957275,-1.31098401546478,-1092.30004882812,-8.10000038146973,-928.500061035156,-0.337791357925272,-0.411803719590755,-0.0269438677971165,ST
13.1,-4.3401255607605,0.279930919408798,8.25138187408447,1.81403601169586,1.13567793369293,-2.69818782806396,-1097.10009765625,-8.70000076293945,-933.300048828125,-0.33450654349336,-0.464679480258335,-0.0325125412759222,ST
13.1333333333333,-5.091392993927,0.281725347042084,8.03186416625977,1.14329993724823,2.03507399559021,-2.9268479347229,-1092.30004882812,-3.90000009536743,-930.900024414062,-0.329497940758981,-0.539763172956649,-0.0336912998495004,ST
13.1666666666667,-4.38737869262695,-0.183629885315895,9.48774337768555,0.830797970294952,1.18140995502472,-3.44514393806458,-1089.90002441406,-6.30000019073486,-930.900024414062,-0.304769862761329,-0.466661463286805,0.0053071983570877,ST
13.2,-3.68456077575684,0.0161498598754406,7.9373574256897,1.13567793369293,-0.846041977405548,-3.89484190940857,-1077.90002441406,-7.50000047683716,-923.700012207031,-0.299730032397357,-0.443189799442459,0.0010607528057249,ST
13.2333333333333,-4.86529493331909,-0.698032855987549,8.57318305969238,-0.0381099991500378,-0.609759986400604,-3.68904781341553,-1080.30004882812,-6.30000019073486,-938.100036621094,-0.26668581238772,-0.494305701227373,0.0609979063729941,ST
13.2666666666667,-4.47530555725098,-0.589768946170807,9.18508338928223,-0.274392008781433,-0.693601965904236,-3.10215401649475,-1080.30004882812,-2.70000004768372,-926.100036621094,-0.259663591750342,-0.462344459116458,0.0656712085574544,ST
13.3,-3.14862465858459,-0.583189368247986,8.31179428100586,0.0304879993200302,-2.85824990272522,-2.21037983894348,-1075.5,-1.5,-938.100036621094,-0.254756844233076,-0.387940976151012,0.0698195249843212,ST
13.3333333333333,-3.85263895988464,-1.13467717170715,7.63469696044922,-0.884151995182037,-1.87501192092896,-1.31098401546478,-1082.70007324219,-5.10000038146973,-921.300048828125,-0.231357250235353,-0.438084173674023,0.125185792570788,ST
13.3666666666667,-3.72343993186951,-0.939084470272064,9.305908203125,-1.52439999580383,-1.06708002090454,-1.6768399477005,-1085.10009765625,-3.30000019073486,-926.100036621094,-0.235946661515919,-0.395138540803367,0.110505723630106,ST
13.4,-3.43872404098511,-0.960019469261169,8.38058090209961,-1.06708002090454,-1.2347639799118,-0.442075997591019,-1089.90002441406,-6.30000019073486,-933.300048828125,-0.234646447114321,-0.387813733721437,0.114517121602541,ST
13.4333333333333,-3.63371849060059,-1.1376678943634,9.29514217376709,-0.846041977405548,-0.579271972179413,-0.342989981174469,-1092.30004882812,-6.30000019073486,-935.700012207031,-0.232424599695778,-0.374706770038269,0.120776257227949,ST
13.4666666666667,-3.41958332061768,-0.883457183837891,8.71195220947266,-0.160062000155449,-0.670735955238342,-0.137196004390717,-1092.30004882812,-4.5,-938.100036621094,-0.237379161141302,-0.372206812196654,0.107212658629276,ST
13.5,-4.16845846176147,-1.01803934574127,9.28437519073486,-0.0685980021953583,0.0152439996600151,0.304879993200302,-1094.70007324219,-3.30000019073486,-938.100036621094,-0.2374030571865,-0.405498519907483,0.108536196059591,ST
13.5333333333333,-3.80359125137329,-1.10596632957458,8.79449653625488,-0.0838419944047928,0.114329993724823,0.602137982845306,-1087.5,-2.10000014305115,-930.900024414062,-0.233792602526366,-0.4056351824248,0.12033921980295,ST
13.5666666666667,-2.64379191398621,-0.714182734489441,9.2281494140625,0.853663980960846,-1.83690190315247,-0.579271972179413,-1085.10009765625,-5.10000038146973,-938.100036621094,-0.24413742946635,-0.309154454663066,0.0872648872035234,ST
13.6,-2.35488891601562,-0.674107134342194,8.14610958099365,1.05183601379395,-1.80641400814056,-0.967993974685669,-1082.70007324219,1.5,-928.500061035156,-0.243517786510459,-0.286814928769268,0.0829879071975477,ST
13.6333333333333,-2.76880383491516,-0.759043455123901,8.51635932922363,0.92988395690918,-0.289635986089706,-1.73019397258759,-1087.5,3.90000009536743,-926.100036621094,-0.239187074432433,-0.304710699364526,0.0866090384730723,ST
13.6666666666667,-3.60381150245667,-0.960019469261169,9.4847526550293,0.617381989955902,0.129574000835419,-1.72257196903229,-1085.10009765625,-3.90000009536743,-938.100036621094,-0.232871014252291,-0.344298900666774,0.0964901719932176,ST
13.7,-4.10146617889404,-1.1436493396759,8.7221212387085,0.685979962348938,-0.632625997066498,-1.60061991214752,-1080.30004882812,-3.90000009536743,-923.700012207031,-0.221437042708508,-0.407555091164201,0.119790876513002,ST
13.7333333333333,-4.754638671875,-1.23636150360107,10.0410261154175,-0.0762199983000755,-0.586893975734711,-0.762199997901917,-1082.70007324219,-1.5,-935.700012207031,-0.219445800578796,-0.428944034022165,0.12215711221412,ST
13.7666666666667,-3.09957695007324,-1.02342259883881,8.89019870758057,0.236281991004944,-1.89787793159485,-0.236281991004944,-1104.30004882812,-6.30000019073486,-933.300048828125,-0.221424760675617,-0.359758776966133,0.11655183292354,ST
13.8,-3.67499041557312,-1.0856294631958,8.704176902771,0.0076219998300075,-0.434453994035721,-0.274392008781433,-1094.70007324219,-4.5,-935.700012207031,-0.219023941494511,-0.385987350281923,0.122092857916541,ST
13.8333333333333,-3.03318309783936,-1.1538177728653,7.44927263259888,-0.289635986089706,1.79879200458527,0.846041977405548,-1092.30004882812,0.900000035762787,-930.900024414062,-0.211839073631852,-0.385940326013221,0.144244157066799,ST
13.8666666666667,-4.15828990936279,-1.28660547733307,8.91891002655029,-0.937505960464478,2.52288198471069,1.05183601379395,-1101.90002441406,-8.10000038146973,-930.900024414062,-0.213501594389901,-0.421585062231416,0.144356455490152,ST
13.9,-3.88733124732971,-1.09280717372894,8.63479232788086,-0.708845973014832,1.61586391925812,1.13567793369293,-1089.90002441406,-1.5,-926.100036621094,-0.220565545754664,-0.422666588714793,0.131804866178526,ST
13.9333333333333,-4.68944072723389,-1.4020471572876,8.64854907989502,-1.19665396213531,1.265251994133,1.55488801002502,-1080.30004882812,-3.30000019073486,-940.500061035156,-0.214465418858874,-0.474371187276035,0.153233014496264,ST
13.9666666666667,-4.88503360748291,-1.34701800346375,9.88730335235596,-1.34147191047668,1.16616594791412,1.96647596359253,-1075.5,-3.30000019073486,-935.700012207031,-0.22428912759845,-0.462124631753797,0.140613120108717,ST
14.0,-4.41608953475952,-1.06469452381134,10.2132911682129,-0.609759986400604,-0.495429992675781,2.01220798492432,-1068.30004882812,3.30000019073486,-935.700012207031,-0.239238882340976,-0.422703742615638,0.114290118845654,ST
14.0333333333333,-2.68865275382996,-1.02461886405945,8.82500171661377,0.0228659994900227,-2.21037983894348,1.78354799747467,-1094.70007324219,2.70000004768372,-945.300048828125,-0.242468901376847,-0.330103263748784,0.114283754774209,ST
14.0666666666667,-2.76162600517273,-1.03119850158691,7.82430839538574,0.0381099991500378,-0.434453994035721,0.358233988285065,-1075.5,6.30000019073486,-923.700012207031,-0.239217889437744,-0.334414268400318,0.126405782422857,ST
14.1,-3.48478102684021,-1.02282452583313,7.4809741973877,-0.495429992675781,1.05183601379395,0.571649968624115,-1068.30004882812,0.900000035762787,-933.300048828125,-0.237682289071208,-0.405482271909573,0.133484361573762,ST
14.1333333333333,-4.16187858581543,-1.22918379306793,8.99188327789307,-0.472563982009888,1.47104597091675,0.731711983680725,-1085.10009765625,2.10000014305115,-928.500061035156,-0.238060476860853,-0.42449453448123,0.135430021181293,ST
14.1666666666667,-2.61866998672485,-1.27284824848175,8.72511196136475,-0.0304879993200302,-1.10518991947174,1.21951997280121,-1087.5,0.900000035762787,-928.500061035156,-0.237987161400442,-0.32833215154163,0.141570153370813,ST
14.2,-3.82452607154846,-1.55277919769287,8.54387378692627,0.121951997280121,-0.990859985351562,1.14329993724823,-1085.10009765625,-2.70000004768372,-942.900024414062,-0.230998816834363,-0.387804249521003,0.167209286130315,ST
14.2333333333333,-3.65405535697937,-1.65924859046936,8.9894905090332,-0.144817993044853,-0.381099998950958,0.823175966739655,-1087.5,0.300000011920929,-933.300048828125,-0.228566400262162,-0.382262695313112,0.177670709407679,ST
14.2666666666667,-3.62355017662048,-1.47621691226959,8.69939136505127,-0.167683988809586,-0.701223969459534,0.853663980960846,-1080.30004882812,-0.300000011920929,-935.700012207031,-0.232828508438627,-0.386775010293138,0.170707767768601,ST
14.3,-4.53811073303223,-1.76990509033203,8.75023365020752,-0.754577994346619,0.724089980125427,2.04269599914551,-1085.10009765625,6.90000009536743,-935.700012207031,-0.228303845041182,-0.446415169536209,0.190513339442521,ST
14.3333333333333,-4.79949903488159,-1.95951640605927,9.77963733673096,-0.792688012123108,0.990859985351562,2.35519790649414,-1099.5,-5.10000038146973,-933.300048828125,-0.230369898430605,-0.449788148116028,0.195557212202325,ST
14.3666666666667,-4.53153133392334,-1.42896354198456,9.35076904296875,-0.0762199983000755,-0.228659987449646,2.37044191360474,-1077.90002441406,-2.10000014305115,-933.300048828125,-0.248021378204827,-0.447963986519828,0.163533365451285,ST
14.4,-3.6552517414093,-1.17415463924408,8.24540042877197,0.472563982009888,-0.327746003866196,3.52898597717285,-1073.10009765625,-0.300000011920929,-930.900024414062,-0.260853783146326,-0.424169818177131,0.145454727669776,ST
14.4333333333333,-3.06428647041321,-1.05213344097137,7.74056816101074,1.02134799957275,-0.541162014007568,2.74391984939575,-1087.5,3.30000019073486,-933.300048828125,-0.268524331115499,-0.388753671620057,0.135488986255007,ST
14.4666666666667,-3.9459490776062,-0.92173832654953,7.76030683517456,0.899396002292633,0.121951997280121,2.66770005226135,-1077.90002441406,0.900000035762787,-938.100036621094,-0.278584081788868,-0.447422412874479,0.120172260192289,ST
14.5,-4.79531240463257,-0.772202551364899,8.680251121521,0.907018005847931,-0.0609759986400604,2.46952795982361,-1068.30004882812,0.900000035762787,-935.700012207031,-0.292672095017915,-0.486549479792597,0.0957443523575044,ST
14.5333333333333,-4.38678073883057,-0.607115089893341,9.09775447845459,1.18140995502472,-1.12805593013763,2.71343183517456,-1070.70007324219,-0.300000011920929,-938.100036621094,-0.306809636548541,-0.458793643580444,0.0721150005400817,ST
14.5666666666667,-4.09967184066772,-0.480906963348389,9.10014724731445,1.40244793891907,-2.30946588516235,2.32470989227295,-1073.10009765625,2.10000014305115,-940.500061035156,-0.317015994524413,-0.430416648189875,0.0551124519993064,ST
14.6,-3.50451970100403,-0.435448080301285,8.53849124908447,1.09756803512573,-2.5076379776001,1.15854394435883,-1092.30004882812,-5.10000038146973,-928.500061035156,-0.320275294895969,-0.39846626195183,0.050178679800844,ST
14.6333333333333,-3.31311392784119,-0.330773055553436,9.07203483581543,0.289635986089706,-1.92074394226074,0.205793991684914,-1089.90002441406,0.900000035762787,-935.700012207031,-0.324404580810326,-0.361498142962822,0.0398431830865144,ST
14.6666666666667,-3.8478536605835,-0.141161739826202,8.13833332061768,-0.0533539988100529,-1.2347639799118,0.365855991840363,-1094.70007324219,-5.70000028610229,-930.900024414062,-0.331171880244995,-0.416986013965098,0.0238656720796579,ST
14.7,-2.99609804153442,-0.748875021934509,9.11988544464111,-1.63110792636871,-0.914639949798584,1.2347639799118,-1089.90002441406,-8.70000076293945,-942.900024414062,-0.317945194810923,-0.341750422794515,0.0686338117986503,ST
14.7333333333333,-3.6953272819519,-0.65735912322998,9.13723182678223,-1.84452390670776,-0.815553963184357,0.320124000310898,-1087.5,-0.300000011920929,-926.100036621094,-0.31820724454911,-0.370955659264187,0.0730965116594981,ST
14.7666666666667,-3.69054222106934,-0.705808699131012,7.91522598266602,-1.92836594581604,-0.304879993200302,1.00610399246216,-1099.5,-0.900000035762787,-926.100036621094,-0.316183917085464,-0.417711459447117,0.0866211537986231,ST
14.8,-4.4681282043457,-0.951047301292419,8.30222415924072,-2.85062789916992,1.35671591758728,2.53812599182129,-1077.90002441406,-3.30000019073486,-938.100036621094,-0.312977122674716,-0.47284593324988,0.10845022689712,ST
14.8333333333333,-3.83469462394714,-1.47681498527527,7.99418067932129,-3.99392795562744,0.457319974899292,2.40092992782593,-1092.30004882812,2.10000014305115,-938.100036621094,-0.29433691446339,-0.450785145346508,0.166136587298228,ST
14.8666666666667,-4.13735485076904,-1.59524726867676,7.63469696044922,-4.89332389831543,0.289635986089706,1.50915598869324,-1087.5,13.5000009536743,-938.100036621094,-0.285645476422601,-0.477319773853605,0.198924120848242,ST
14.9,-3.83529281616211,-2.36027216911316,8.43381595611572,-5.57168197631836,-0.586893975734711,0.510673999786377,-1099.5,3.30000019073486,-940.500061035156,-0.265132016022009,-0.431814551030648,0.257503936584922,ST
14.9333333333333,-4.13197183609009,-2.68027853965759,8.61804389953613,-5.27442407608032,-1.76830399036407,-0.282013982534409,-1094.70007324219,7.50000047683716,-926.100036621094,-0.253480603727191,-0.42782299991525,0.295967586074571,ST
14.9666666666667,-3.49255681037903,-2.94166707992554,8.54327583312988,-4.76375007629395,-3.20123982429504,0.114329993724823,-1087.5,9.90000057220459,-928.500061035156,-0.246496431647401,-0.382935116320144,0.326298329216022,ST
15.0,-4.40711736679077,-2.84656238555908,8.72989654541016,-3.75764584541321,-2.26373386383057,0.243903994560242,-1109.10009765625,15.3000001907349,-959.700012207031,-0.252547298742112,-0.428595256619554,0.322452558511938,ST
15.0333333333333,-3.43274259567261,-3.29636597633362,9.22097206115723,-2.89635992050171,-2.31708788871765,2.72867584228516,-1116.30004882812,15.3000001907349,-930.900024414062,-0.253695865050458,-0.359436100952947,0.340016805516969,ST
15.0666666666667,-2.41709566116333,-3.04394960403442,8.67845630645752,-1.62348592281342,-2.0655620098114,1.98171997070312,-1104.30004882812,15.9000005722046,-926.100036621094,-0.259364089059048,-0.28345026251148,0.339096964504736,ST
15.1,-2.58278131484985,-2.68685817718506,8.87345123291016,-0.304879993200302,-1.57775402069092,1.94360995292664,-1106.70007324219,14.7000007629395,-933.300048828125,-0.272787736468162,-0.273831107930854,0.305905757272808,ST
15.1333333333333,-2.56244444847107,-2.61747360229492,8.65871810913086,0.663114011287689,-1.04421401023865,2.04269599914551,-1101.90002441406,18.3000011444092,-945.300048828125,-0.279006454017148,-0.274899295194146,0.29568799858549,ST
15.1666666666667,-2.2472231388092,-2.25081205368042,8.81004810333252,1.12805593013763,-0.480185985565186,0.899396002292633,-1099.5,8.10000038146973,-945.300048828125,-0.288924057069328,-0.251856228351176,0.262040327417666,ST
15.2,-2.59294986724854,-2.0970892906189,8.1126127243042,1.08994603157043,-0.205793991684914,1.02897000312805,-1111.5,14.1000003814697,-938.100036621094,-0.292297992397639,-0.285649407276303,0.254028877780456,ST
15.2333333333333,-2.94585418701172,-2.70540070533752,8.47568607330322,0.396344006061554,0.716467976570129,0.160062000155449,-1121.10009765625,18.9000015258789,-940.500061035156,-0.280942068438519,-0.310447226731052,0.291822447264102,ST
15.2666666666667,-3.89929413795471,-2.900395154953,8.572585105896,-0.434453994035721,1.15092194080353,-0.884151995182037,-1113.90002441406,17.1000003814697,-942.900024414062,-0.270851262795731,-0.378735807159462,0.316671931636086,ST
15.3,-3.5691192150116,-3.15221357345581,9.08220291137695,-0.548784017562866,0.0381099991500378,-1.78354799747467,-1113.90002441406,15.9000005722046,-942.900024414062,-0.263179862278653,-0.361195947836544,0.330842371223164,ST
15.3333333333333,-3.96688413619995,-2.92731165885925,8.23283958435059,-0.381099998950958,0.152439996600151,-0.472563982009888,-1118.70007324219,8.70000076293945,-938.100036621094,-0.259316846739715,-0.409061805707251,0.339499895067647,ST
15.3666666666667,-3.08402514457703,-3.29038453102112,7.92300176620483,-0.320124000310898,0.0304879993200302,-0.129574000835419,-1109.10009765625,17.1000003814697,-935.700012207031,-0.244746393550964,-0.364416677122848,0.378085010896471,ST
15.4,-3.81675028800964,-3.01404237747192,8.16764259338379,0.0076219998300075,0.449698001146317,-0.411587983369827,-1109.10009765625,21.3000011444092,-928.500061035156,-0.25011410583132,-0.398840523828426,0.361288827519976,ST
15.4333333333333,-3.56672644615173,-3.17195224761963,8.90096569061279,0.6250039935112,0.190549999475479,0.640248000621796,-1092.30004882812,21.9000015258789,-940.500061035156,-0.256178317326625,-0.371835566134593,0.346414284468868,ST
15.4666666666667,-3.85921835899353,-2.89501190185547,8.53729438781738,0.899396002292633,-0.46494197845459,1.27287399768829,-1104.30004882812,11.1000003814697,-938.100036621094,-0.263822771103297,-0.395501241280674,0.330496991707132,ST
15.5,-3.95073437690735,-2.95721888542175,8.5067892074585,0.975615978240967,0.297257989645004,1.32622802257538,-1111.5,18.9000015258789,-938.100036621094,-0.264653607102142,-0.409378095663688,0.33157393967506,ST
15.5333333333333,-3.78624510765076,-2.8202440738678,8.9117317199707,0.731711983680725,0.160062000155449,1.04421401023865,-1109.10009765625,16.5,-933.300048828125,-0.27339372388374,-0.392209457448646,0.311896001727411,ST
15.5666666666667,-3.34900259971619,-2.58696842193604,8.43979740142822,0.556405961513519,-0.647870004177094,0.342989981174469,-1113.90002441406,15.9000005722046,-947.700012207031,-0.277999432905823,-0.370879796167207,0.300812093139223,ST
15.6,-3.44530344009399,-2.66233444213867,8.00255489349365,0.556405961513519,-0.198172003030777,0.846041977405548,-1106.70007324219,9.90000057220459,-935.700012207031,-0.274219171503286,-0.382821576602188,0.313909590647061,ST
15.6333333333333,-3.89690136909485,-2.74607443809509,8.87524509429932,0.594515979290009,0.952749967575073,0.975615978240967,-1101.90002441406,13.5000009536743,-933.300048828125,-0.279288520876897,-0.395156339659823,0.302415666667587,ST
15.6666666666667,-3.50272512435913,-2.43503999710083,8.58335208892822,0.891773998737335,-0.0228659994900227,0.46494197845459,-1094.70007324219,14.1000003814697,-940.500061035156,-0.287228248733349,-0.37977502226855,0.281809749782529,ST
15.7,-3.49554753303528,-2.66771769523621,8.4415922164917,0.907018005847931,0.457319974899292,0.830797970294952,-1106.70007324219,13.5000009536743,-945.300048828125,-0.281779889358084,-0.377953721598672,0.297945965542787,ST
15.7333333333333,-3.6731960773468,-2.42008638381958,7.87096357345581,0.807931959629059,0.259148001670837,0.609759986400604,-1109.10009765625,16.5,-935.700012207031,-0.282438581573064,-0.407558856105925,0.296942354472875,ST
15.7666666666667,-3.6014187335968,-2.2532045841217,9.09954929351807,1.37958192825317,-0.320124000310898,0.548784017562866,-1109.10009765625,16.5,-933.300048828125,-0.29787987978273,-0.378924976975532,0.256842801465393,ST
15.8,-4.24860954284668,-2.0731635093689,8.17182922363281,1.69970595836639,-0.457319974899292,1.01372599601746,-1094.70007324219,7.50000047683716,-933.300048828125,-0.301817705073919,-0.440033145873799,0.248381135752785,ST
15.8333333333333,-3.61218547821045,-2.26636362075806,9.81492805480957,1.63110792636871,-0.594515979290009,-0.0685980021953583,-1101.90002441406,20.1000003814697,-938.100036621094,-0.307676970027469,-0.371022954338015,0.2308839837512,ST
15.8666666666667,-3.15221357345581,-1.86022460460663,7.76030683517456,1.51677799224854,-1.2500079870224,1.02897000312805,-1113.90002441406,19.5,-940.500061035156,-0.308579827764291,-0.373443747480211,0.231481976067212,ST
15.9,-3.5571563243866,-1.87218749523163,7.71305370330811,0.807931959629059,0.564027965068817,1.15854394435883,-1104.30004882812,15.9000005722046,-935.700012207031,-0.30845543589318,-0.407898176503327,0.234598619809735,ST
15.9333333333333,-3.6074001789093,-2.1132390499115,8.28069114685059,-0.0152439996600151,1.12043392658234,1.19665396213531,-1104.30004882812,17.1000003814697,-930.900024414062,-0.305847771227359,-0.403657348826368,0.244840281404312,ST
15.9666666666667,-4.04284811019897,-1.97267556190491,8.05519104003906,-0.114329993724823,0.861285984516144,1.22714197635651,-1094.70007324219,17.7000007629395,-926.100036621094,-0.30896606205696,-0.43991738619011,0.241193749156379,ST
16.0,-4.33115339279175,-2.37702012062073,9.17371845245361,0.289635986089706,0.594515979290009,0.868907988071442,-1104.30004882812,13.5000009536743,-935.700012207031,-0.306509919287993,-0.433033822305062,0.24909099481557,ST
16.0333333333333,-3.82931137084961,-2.23825097084045,9.08459568023682,0.823175966739655,-0.853663980960846,0.426831990480423,-1097.10009765625,13.5000009536743,-945.300048828125,-0.30959200867596,-0.400974326819079,0.242471478922357,ST
16.0666666666667,-3.96209907531738,-1.96789038181305,8.3871603012085,1.15092194080353,-0.830797970294952,1.71494996547699,-1104.30004882812,10.5,-933.300048828125,-0.316634717131936,-0.422998332495632,0.230911304184807,ST
16.1,-3.42436861991882,-1.79921400547028,8.43381595611572,1.33385002613068,-1.09756803512573,0.388722002506256,-1092.30004882812,10.5,-938.100036621094,-0.323478382378681,-0.389092287853324,0.213782373746624,ST
16.1333333333333,-4.10804605484009,-1.76930689811707,8.58694076538086,1.31098401546478,0.114329993724823,0.663114011287689,-1101.90002441406,9.30000019073486,-930.900024414062,-0.327394357929011,-0.424990179519435,0.20414914510059,ST
16.1666666666667,-3.62654089927673,-1.92302966117859,8.81363677978516,1.15854394435883,0.579271972179413,0.693601965904236,-1092.30004882812,9.90000057220459,-928.500061035156,-0.32504263107426,-0.394352087951447,0.210276494972349,ST
16.2,-3.41420006752014,-1.69394087791443,8.49901390075684,1.32622802257538,-0.777444005012512,-0.891773998737335,-1094.70007324219,11.7000007629395,-938.100036621094,-0.327130103204278,-0.379077898104115,0.198928120847752,ST
16.2333333333333,-3.73839354515076,-1.73760533332825,7.92659044265747,0.952749967575073,0.129574000835419,-0.266770005226135,-1094.70007324219,11.1000003814697,-940.500061035156,-0.321899467602366,-0.41593960936363,0.209620772029163,ST
16.2666666666667,-3.82990956306458,-1.78126978874207,8.70836353302002,0.594515979290009,0.282013982534409,-1.08232402801514,-1089.90002441406,12.9000005722046,-935.700012207031,-0.32190327890939,-0.409294455941299,0.203678446520765,ST
16.3,-4.06916666030884,-1.90149652957916,8.72989654541016,0.815553963184357,-0.137196004390717,-0.739333987236023,-1104.30004882812,5.10000038146973,-935.700012207031,-0.317243711967214,-0.422041896214849,0.210840335063624,ST
16.3333333333333,-4.3963508605957,-1.8566358089447,8.19336223602295,0.449698001146317,0.266770005226135,0.221037998795509,-1089.90002441406,11.7000007629395,-942.900024414062,-0.313800969650431,-0.465181647620942,0.218656980362274,ST
16.3666666666667,-3.7132716178894,-2.32677626609802,8.50260257720947,0.190549999475479,0.525918006896973,-0.472563982009888,-1094.70007324219,6.90000009536743,-930.900024414062,-0.298043485100513,-0.419238746509738,0.25297281414393,ST
16.4,-4.27971315383911,-2.00437712669373,8.23702716827393,-0.304879993200302,0.289635986089706,-0.693601965904236,-1089.90002441406,7.50000047683716,-935.700012207031,-0.301074215548715,-0.454980942006476,0.243369827117219,ST
16.4333333333333,-4.00695991516113,-2.36206650733948,9.15637302398682,-0.754577994346619,-0.0685980021953583,-0.0228659994900227,-1092.30004882812,11.7000007629395,-940.500061035156,-0.298400529886157,-0.414890568377897,0.25110491931359,ST
16.4666666666667,-3.45666813850403,-2.26576566696167,8.50499534606934,-0.548784017562866,-1.58537602424622,-0.175305992364883,-1097.10009765625,8.70000076293945,-928.500061035156,-0.296283622692317,-0.382313834388794,0.258668834481214,ST
16.5,-3.75573968887329,-2.36565542221069,8.29743957519531,-0.792688012123108,-1.27287399768829,0.297257989645004,-1092.30004882812,10.5,-935.700012207031,-0.292479235604258,-0.400660160897465,0.272597708755036,ST
16.5333333333333,-3.30414175987244,-2.45418071746826,8.64077377319336,-0.609759986400604,-0.647870004177094,0.442075997591019,-1094.70007324219,7.50000047683716,-926.100036621094,-0.292650359449871,-0.363848524791906,0.276208145578945,ST
16.5666666666667,-3.83469462394714,-2.18023109436035,8.50858402252197,-0.0533539988100529,-0.304879993200302,0.83841997385025,-1089.90002441406,15.3000001907349,-933.300048828125,-0.300788556062792,-0.397174378920513,0.258215042913732,ST
16.6,-3.43992018699646,-2.27234506607056,8.85131931304932,0.152439996600151,0.396344006061554,1.50915598869324,-1094.70007324219,13.5000009536743,-935.700012207031,-0.305007142346168,-0.372116336352679,0.252508854425516,ST
16.6333333333333,-3.5392119884491,-2.05043411254883,8.40989017486572,0.556405961513519,-0.274392008781433,0.975615978240967,-1101.90002441406,11.7000007629395,-923.700012207031,-0.310151227005264,-0.383276838526087,0.24201164341538,ST
16.6666666666667,-4.12778472900391,-2.10426688194275,8.03186416625977,0.708845973014832,0.769822001457214,1.28811800479889,-1109.10009765625,15.3000001907349,-928.500061035156,-0.307991688342649,-0.439088592722312,0.250392857838079,ST
16.7,-4.19716930389404,-2.42247915267944,9.42134952545166,0.746955990791321,0.731711983680725,0.167683988809586,-1097.10009765625,9.30000019073486,-935.700012207031,-0.307419979210837,-0.417788897120097,0.250396990070707,ST
16.7333333333333,-3.32627296447754,-1.99600315093994,8.69161510467529,0.990859985351562,-1.38720393180847,-0.952749967575073,-1089.90002441406,14.1000003814697,-942.900024414062,-0.312855374025122,-0.37334562430187,0.232115996090807,ST
16.7666666666667,-3.07325863838196,-2.07136917114258,7.81713056564331,0.861285984516144,-1.82165801525116,-1.05183601379395,-1101.90002441406,11.1000003814697,-942.900024414062,-0.304697452607655,-0.363608729013083,0.250511406669986,ST
16.8,-3.08940839767456,-2.19996976852417,7.60419178009033,0.282013982534409,-0.403965979814529,-0.724089980125427,-1106.70007324219,13.5000009536743,-928.500061035156,-0.295807940588198,-0.368865022905304,0.27216800116182,ST
16.8333333333333,-3.62055945396423,-2.20475506782532,7.5348072052002,-0.0762199983000755,0.182927995920181,-0.868907988071442,-1109.10009765625,9.30000019073486,-940.500061035156,-0.290812558041772,-0.413794842328756,0.281561050085675,ST
16.8666666666667,-4.95621252059937,-2.98114466667175,8.60009956359863,-0.365855991840363,1.32622802257538,0.266770005226135,-1094.70007324219,17.7000007629395,-933.300048828125,-0.275198972430365,-0.47470822054949,0.318019893406197,ST
16.9,-2.58457589149475,-3.30653429031372,11.5842351913452,-0.0533539988100529,-1.02134799957275,-2.09605002403259,-1089.90002441406,15.9000005722046,-933.300048828125,-0.282747481803233,-0.288594603106025,0.290279518855888,ST
16.9333333333333,-4.11582183837891,-2.41948843002319,7.43491697311401,-0.586893975734711,-1.6844619512558,-0.701223969459534,-1111.5,15.9000005722046,-938.100036621094,-0.276261311470209,-0.430151625396708,0.308669540136412,ST
16.9666666666667,-2.40274024009705,-3.11752104759216,9.01222038269043,-0.282013982534409,-0.282013982534409,-0.495429992675781,-1097.10009765625,12.9000005722046,-933.300048828125,-0.26907888521391,-0.296581643644283,0.327230145021731,ST
17.0,-3.77248764038086,-2.91594696044922,8.59591293334961,0.37347799539566,0.419209986925125,0.358233988285065,-1094.70007324219,12.3000001907349,-947.700012207031,-0.269422874322012,-0.368913368311736,0.326529384574259,ST
17.0333333333333,-4.33892917633057,-2.72214865684509,8.73348522186279,0.746955990791321,0.518296003341675,0.777444005012512,-1101.90002441406,16.5,-930.900024414062,-0.276795232110886,-0.421489098038637,0.308453430725182,ST
17.0666666666667,-3.76052474975586,-2.64139938354492,8.34110355377197,0.975615978240967,0.365855991840363,1.48628997802734,-1085.10009765625,15.3000001907349,-930.900024414062,-0.279508102977032,-0.411395378132434,0.305263021218527,ST
17.1,-3.35857272148132,-2.35429072380066,8.11440753936768,1.11281192302704,-0.0914639979600906,0.922261953353882,-1104.30004882812,17.7000007629395,-933.300048828125,-0.287603715087032,-0.387245496214791,0.286397513041697,ST
17.1333333333333,-2.88903045654297,-2.27174711227417,8.28906536102295,1.08994603157043,-0.182927995920181,0.442075997591019,-1104.30004882812,6.30000019073486,-950.100036621094,-0.29318195862788,-0.34146691833782,0.271002227507214,ST
17.1666666666667,-5.37371635437012,-2.2232973575592,8.25377464294434,1.2423859834671,-0.510673999786377,0.6250039935112,-1104.30004882812,17.1000003814697,-940.500061035156,-0.296405626448902,-0.496691093382821,0.263677191712716,ST
17.2,-3.41180753707886,-2.60909962654114,10.7552089691162,1.20427596569061,-0.0533539988100529,0.92988395690918,-1099.5,6.90000009536743,-928.500061035156,-0.305730613287618,-0.350907277690344,0.242391587240254,ST
17.2333333333333,-2.22568988800049,-2.1371648311615,8.29444885253906,1.34909391403198,-4.11588001251221,0.640248000621796,-1109.10009765625,14.7000007629395,-945.300048828125,-0.306188443386439,-0.278574358632226,0.247059627818993,ST
17.2666666666667,-3.00507020950317,-2.18621253967285,8.07672500610352,1.09756803512573,-0.602137982845306,-0.0609759986400604,-1106.70007324219,14.1000003814697,-945.300048828125,-0.30232125120054,-0.327408506716825,0.258462812901147,ST
17.3,-3.19767236709595,-1.96310520172119,8.66290473937988,0.724089980125427,0.289635986089706,-0.442075997591019,-1111.5,5.10000038146973,-930.900024414062,-0.309462876299669,-0.340347828968352,0.232935383389626,ST
17.3333333333333,-3.47939777374268,-2.04684519767761,8.47628402709961,0.160062000155449,0.266770005226135,0.899396002292633,-1111.5,12.3000001907349,-928.500061035156,-0.309912081033542,-0.368388983349945,0.235156955878348,ST
17.3666666666667,-2.84177732467651,-2.01095676422119,8.69640064239502,0.0838419944047928,-0.152439996600151,1.16616594791412,-1106.70007324219,9.30000019073486,-940.500061035156,-0.314044639588954,-0.324873313348151,0.228763683394832,ST
17.4,-3.87835907936096,-2.27533578872681,8.67068004608154,-0.282013982534409,0.746955990791321,1.96647596359253,-1116.30004882812,15.9000005722046,-942.900024414062,-0.310352134554057,-0.387906078528174,0.24863171831799,ST
17.4333333333333,-3.78744125366211,-2.19039964675903,9.51166915893555,-0.327746003866196,0.0076219998300075,1.29574000835419,-1104.30004882812,8.70000076293945,-933.300048828125,-0.319003757963934,-0.375215524590177,0.231925276498666,ST
