seconds,sensor_accX_m_s_,sensor_accY_m_s_,sensor_accZ_m_s_,sensor_gyroX___s_,sensor_gyroY___s_,sensor_gyroZ___s_,sensor_magX__T_,sensor_magY__T_,sensor_magZ__T_,sensor_yaw___,sensor_pitch___,sensor_roll___,label2
0.0,-1.49535739421844,-1.52765715122223,9.40819072723389,0.297257989645004,-0.396344006061554,0.472563982009888,-1181.10009765625,2.70000004768372,-935.700012207031,2.97925556625498,-0.155311461869433,0.160153971857148,ST
0.0333333333333333,-1.44391715526581,-1.56593835353851,9.45185565948486,0.297257989645004,-0.365855991840363,0.449698001146317,-1178.70007324219,-0.900000035762787,-940.500061035156,2.97880205957296,-0.15079270328458,0.162603785486529,ST
0.0666666666666667,-1.4600670337677,-1.54919028282166,9.4727897644043,0.274392008781433,-0.426831990480423,0.350611984729767,-1188.30004882812,2.70000004768372,-930.900024414062,2.97798606159361,-0.150442751511584,0.161802064508425,ST
0.1,-1.50253510475159,-1.59285473823547,9.41656494140625,0.335367977619171,-0.342989981174469,0.37347799539566,-1197.90002441406,10.5,-938.100036621094,2.97786792525177,-0.154158637923304,0.165476381989164,ST
0.133333333333333,-1.43733751773834,-1.56414389610291,9.41536808013916,0.274392008781433,-0.327746003866196,0.358233988285065,-1185.90002441406,3.30000019073486,-940.500061035156,2.9770266274174,-0.150359584060486,0.164413227280915,ST
0.166666666666667,-1.47681498527527,-1.55995690822601,9.43450927734375,0.25152599811554,-0.403965979814529,0.396344006061554,-1193.10009765625,4.5,-933.300048828125,2.97617051542317,-0.151986737574917,0.163622022694184,ST
0.2,-1.43673944473267,-1.5802937746048,9.35794639587402,0.236281991004944,-0.320124000310898,0.472563982009888,-1185.90002441406,8.70000076293945,-930.900024414062,2.97567503564579,-0.150479909964961,0.165804686995046,ST
0.233333333333333,-1.44391715526581,-1.59106028079987,9.45723819732666,0.236281991004944,-0.274392008781433,0.487807989120483,-1195.5,6.90000009536743,-942.900024414062,2.97479582274913,-0.149467997865503,0.166041288483121,ST
0.266666666666667,-1.46066510677338,-1.57670485973358,9.46321964263916,0.3125019967556,-0.327746003866196,0.480185985565186,-1188.30004882812,0.900000035762787,-938.100036621094,2.97380491208124,-0.150306003774531,0.164902697605981,ST
0.3,-1.40025269985199,-1.6203693151474,9.43869590759277,0.426831990480423,-0.266770005226135,0.503051996231079,-1193.10009765625,-0.300000011920929,-935.700012207031,2.9733949319265,-0.146364327840723,0.167970158601729,ST
0.333333333333333,-1.4241783618927,-1.54021811485291,9.52901554107666,0.457319974899292,-0.221037998795509,0.46494197845459,-1178.70007324219,3.30000019073486,-935.700012207031,2.97178253347708,-0.146276858588005,0.161923864101739,ST
0.366666666666667,-1.41101932525635,-1.51988124847412,9.41417217254639,0.449698001146317,-0.221037998795509,0.480185985565186,-1197.90002441406,-3.30000019073486,-935.700012207031,2.97074200919537,-0.146540654465355,0.159983555391935,ST
0.4,-1.45827257633209,-1.49117040634155,9.4847526550293,0.396344006061554,-0.243903994560242,0.457319974899292,-1185.90002441406,5.10000038146973,-938.100036621094,2.96950429578395,-0.149265360567262,0.156584684839292,ST
0.433333333333333,-1.40743041038513,-1.48160016536713,9.46262168884277,0.426831990480423,-0.342989981174469,0.487807989120483,-1190.70007324219,2.70000004768372,-926.100036621094,2.96847644027593,-0.146591899194561,0.155077266041823,ST
0.466666666666667,-1.41281366348267,-1.48518896102905,9.4315185546875,0.419209986925125,-0.335367977619171,0.480185985565186,-1190.70007324219,-2.70000004768372,-935.700012207031,2.96770755337162,-0.146498882323009,0.155247663217448,ST
0.5,-1.35419571399689,-1.47681498527527,9.46381855010986,0.350611984729767,-0.327746003866196,0.495429992675781,-1197.90002441406,5.70000028610229,-940.500061035156,2.9667236394913,-0.141881263996993,0.154395530703854,ST
0.533333333333333,-1.29617583751678,-1.49894630908966,9.4674072265625,0.3125019967556,-0.342989981174469,0.46494197845459,-1176.30004882812,3.90000009536743,-935.700012207031,2.96611208476848,-0.136331120390328,0.155765324166768,ST
0.566666666666667,-1.32727921009064,-1.50552582740784,9.49551963806152,0.320124000310898,-0.342989981174469,0.350611984729767,-1178.70007324219,5.10000038146973,-940.500061035156,2.96556443933149,-0.136588051323578,0.156351244182922,ST
0.6,-1.35240125656128,-1.51928317546844,9.45664024353027,0.365855991840363,-0.243903994560242,0.3125019967556,-1193.10009765625,7.50000047683716,-928.500061035156,2.96525966300697,-0.138974897984962,0.157934602043068,ST
0.633333333333333,-1.38111209869385,-1.50253510475159,9.45065879821777,0.342989981174469,-0.160062000155449,0.335367977619171,-1183.5,-0.300000011920929,-942.900024414062,2.96460404490552,-0.142005420336024,0.157242936920165,ST
0.666666666666667,-1.3900842666626,-1.51090919971466,9.48056602478027,0.365855991840363,-0.205793991684914,0.396344006061554,-1183.5,0.900000035762787,-940.500061035156,2.96393604801708,-0.143126942883947,0.157280848429832,ST
0.7,-1.37991583347321,-1.51389980316162,9.45065879821777,0.388722002506256,-0.297257989645004,0.419209986925125,-1188.30004882812,-2.70000004768372,-935.700012207031,2.96326150834755,-0.142878643576536,0.157845526142058,ST
0.733333333333333,-1.38470101356506,-1.48040390014648,9.46142578125,0.365855991840363,-0.266770005226135,0.37347799539566,-1188.30004882812,2.70000004768372,-935.700012207031,2.96226310673161,-0.143140465002523,0.155394993526628,ST
0.766666666666667,-1.39486944675446,-1.48100197315216,9.45604228973389,0.403965979814529,-0.152439996600151,0.365855991840363,-1185.90002441406,-0.900000035762787,-940.500061035156,2.96158349697853,-0.144163869556653,0.154785844560025,ST
0.8,-1.43434679508209,-1.47621691226959,9.46262168884277,0.411587983369827,-0.160062000155449,0.335367977619171,-1193.10009765625,2.70000004768372,-945.300048828125,2.96099284135449,-0.147180348939811,0.154199997879386,ST
0.833333333333333,-1.44511342048645,-1.43315052986145,9.43391132354736,0.396344006061554,-0.221037998795509,0.335367977619171,-1193.10009765625,3.90000009536743,-940.500061035156,2.96003376364209,-0.149159744336139,0.151246180319787,ST
0.866666666666667,-1.42716908454895,-1.44571161270142,9.47996807098389,0.365855991840363,-0.289635986089706,0.342989981174469,-1185.90002441406,2.70000004768372,-940.500061035156,2.95936985609175,-0.147833217502055,0.150775552991482,ST
0.9,-1.39965450763702,-1.44989860057831,9.4434814453125,0.358233988285065,-0.350611984729767,0.327746003866196,-1181.10009765625,7.50000047683716,-935.700012207031,2.95887281248728,-0.145737264959574,0.151389934646481,ST
0.933333333333333,-1.41640257835388,-1.42537474632263,9.47039794921875,0.350611984729767,-0.243903994560242,0.320124000310898,-1185.90002441406,7.50000047683716,-940.500061035156,2.95808211543672,-0.14626628302667,0.149498324421125,ST
0.966666666666667,-1.44032824039459,-1.39427125453949,9.46621036529541,0.350611984729767,-0.198172003030777,0.342989981174469,-1183.5,-1.5,-945.300048828125,2.95713395651545,-0.148286427371574,0.146724163386525,ST
1.0,-1.40085089206696,-1.41939330101013,9.40998554229736,0.37347799539566,-0.106707997620106,0.403965979814529,-1183.5,2.10000014305115,-930.900024414062,2.95674806753052,-0.146739066628405,0.148281482819521,ST
1.03333333333333,-1.43075799942017,-1.44989860057831,9.49193096160889,0.205793991684914,-0.0762199983000755,0.3125019967556,-1195.5,-0.900000035762787,-940.500061035156,2.9565452872632,-0.147528052374214,0.150277960322245,ST
1.06666666666667,-1.42178583145142,-1.42238402366638,9.5086784362793,0.274392008781433,-0.167683988809586,0.396344006061554,-1176.30004882812,3.90000009536743,-938.100036621094,2.95558652535271,-0.146864821404374,0.148523490016698,ST
1.1,-1.44152450561523,-1.43315052986145,9.46202373504639,0.3125019967556,-0.182927995920181,0.37347799539566,-1181.10009765625,0.300000011920929,-940.500061035156,2.95505869394553,-0.148652468240433,0.149371003220541,ST
1.13333333333333,-1.47382426261902,-1.41939330101013,9.45723819732666,0.297257989645004,-0.175305992364883,0.426831990480423,-1183.5,-5.10000038146973,-930.900024414062,2.95417015240112,-0.151702731077628,0.148594938819857,ST
1.16666666666667,-1.42716908454895,-1.41580438613892,9.44288349151611,0.289635986089706,-0.236281991004944,0.525918006896973,-1185.90002441406,-5.70000028610229,-935.700012207031,2.95319819283056,-0.149086381935456,0.148288767235871,ST
1.2,-1.3458217382431,-1.44272089004517,9.4375,0.198172003030777,-0.259148001670837,0.457319974899292,-1183.5,5.10000038146973,-940.500061035156,2.95270776260502,-0.142533762628267,0.150343437944779,ST
1.23333333333333,-1.43315052986145,-1.46903908252716,9.43869590759277,0.182927995920181,-0.0685980021953583,0.3125019967556,-1181.10009765625,-0.900000035762787,-942.900024414062,2.95257603072177,-0.146974923294795,0.152899894024458,ST
1.26666666666667,-1.42597281932831,-1.53543305397034,9.4674072265625,0.213415995240211,0.0990860015153885,0.3125019967556,-1183.5,-0.300000011920929,-940.500061035156,2.95289124384667,-0.147588600518013,0.15809697709841,ST
1.3,-1.49356305599213,-1.48877787590027,9.52901554107666,0.266770005226135,0.0533539988100529,0.289635986089706,-1181.10009765625,-3.90000009536743,-942.900024414062,2.95210433482953,-0.151939283562649,0.155543741308481,ST
1.33333333333333,-1.49834811687469,-1.46485209465027,9.45843505859375,0.335367977619171,-0.213415995240211,0.388722002506256,-1181.10009765625,-0.900000035762787,-938.100036621094,2.9512045022194,-0.154096107182793,0.15373326359006,ST
1.36666666666667,-1.48698341846466,-1.47083353996277,9.48056602478027,0.25152599811554,-0.381099998950958,0.449698001146317,-1183.5,7.50000047683716,-938.100036621094,2.95037059312976,-0.153490861093189,0.153458226469245,ST
1.4,-1.49356305599213,-1.48399269580841,9.43211650848389,0.152439996600151,-0.548784017562866,0.571649968624115,-1197.90002441406,1.5,-938.100036621094,2.94947721637594,-0.154131565533659,0.155020993887676,ST
1.43333333333333,-1.45767438411713,-1.51868498325348,9.45783710479736,0.190549999475479,-0.449698001146317,0.670735955238342,-1176.30004882812,3.30000019073486,-933.300048828125,2.94866672444837,-0.151538498282516,0.157583982807779,ST
1.46666666666667,-1.43315052986145,-1.53603112697601,9.43869590759277,0.243903994560242,-0.259148001670837,0.640248000621796,-1188.30004882812,-4.5,-935.700012207031,2.94790879693654,-0.14940662970535,0.159776998949775,ST
1.5,-1.54021811485291,-1.46485209465027,9.48116397857666,0.289635986089706,-0.121951997280121,0.602137982845306,-1181.10009765625,0.900000035762787,-930.900024414062,2.94600039941415,-0.156707916197061,0.15441033904928,ST
1.53333333333333,-1.65745413303375,-1.38230836391449,9.41596698760986,0.335367977619171,-0.0990860015153885,0.815553963184357,-1185.90002441406,3.90000009536743,-933.300048828125,2.94362447899856,-0.167733294647407,0.14779628913564,ST
1.56666666666667,-1.81656014919281,-1.34761607646942,9.44049072265625,0.358233988285065,-0.0304879993200302,1.31098401546478,-1185.90002441406,1.5,-933.300048828125,2.94034024935895,-0.183318817578384,0.142525038508677,ST
1.6,-1.8949168920517,-1.28241848945618,9.40220928192139,0.304879993200302,-0.167683988809586,1.62348592281342,-1190.70007324219,1.5,-933.300048828125,2.93631548300049,-0.193563741332185,0.136594640535715,ST
1.63333333333333,-1.99121797084808,-1.20107114315033,9.37888145446777,0.129574000835419,-0.175305992364883,2.12653803825378,-1178.70007324219,-5.10000038146973,-938.100036621094,2.93093838678954,-0.204028510063326,0.129070861833797,ST
1.66666666666667,-1.86201906204224,-1.26866126060486,9.39503192901611,-0.0228659994900227,-0.274392008781433,2.41617393493652,-1188.30004882812,3.90000009536743,-952.500061035156,2.9274179443953,-0.197027349363616,0.132102188859354,ST
1.7,-1.85543954372406,-1.37752330303192,9.35794639587402,-0.190549999475479,-0.503051996231079,2.18751406669617,-1193.10009765625,2.10000014305115,-938.100036621094,2.92541622496465,-0.194463172859215,0.141621623817866,ST
1.73333333333333,-2.03966760635376,-1.44272089004517,9.21319580078125,-0.236281991004944,-0.243903994560242,1.82165801525116,-1176.30004882812,0.900000035762787,-952.500061035156,2.92410612652166,-0.20908768135358,0.151023698675145,ST
1.76666666666667,-2.17843675613403,-1.48040390014648,9.13483905792236,-0.205793991684914,0.213415995240211,1.60824191570282,-1185.90002441406,-4.5,-933.300048828125,2.9227611089537,-0.225411418402057,0.157711182876582,ST
1.8,-2.23944735527039,-1.56055498123169,9.10792255401611,-0.579271972179413,0.144817993044853,1.44817996025085,-1193.10009765625,10.5,-940.500061035156,2.92214452433632,-0.234511809756585,0.16638691568239,ST
1.83333333333333,-2.2191104888916,-1.67121148109436,9.16175556182861,-0.960371971130371,-0.449698001146317,1.52439999580383,-1176.30004882812,-0.300000011920929,-938.100036621094,2.92150383286218,-0.233869377621835,0.177117418474584,ST
1.86666666666667,-2.28071904182434,-1.7364090681076,9.17790603637695,-1.11281192302704,-1.07470202445984,1.73019397258759,-1185.90002441406,2.70000004768372,-938.100036621094,2.9195137292718,-0.237000893893625,0.18510433047026,ST
1.9,-2.29567265510559,-1.77409207820892,9.29035663604736,-1.02897000312805,-1.21951997280121,1.82165801525116,-1181.10009765625,3.30000019073486,-938.100036621094,2.91614814388323,-0.236713838338536,0.188447107573363,ST
1.93333333333333,-2.32557988166809,-1.69334280490875,9.4195556640625,-0.564027965068817,-1.38720393180847,2.08842802047729,-1190.70007324219,5.10000038146973,-942.900024414062,2.91031037222109,-0.236680821771611,0.18106084965863,ST
1.96666666666667,-2.48707842826843,-1.54859220981598,9.32744121551514,-0.175305992364883,-1.31098401546478,2.37044191360474,-1190.70007324219,4.5,-930.900024414062,2.90283008754099,-0.250226117559277,0.168724689449882,ST
2.0,-2.4757137298584,-1.48279643058777,9.00803279876709,0.137196004390717,-0.975615978240967,2.66007804870605,-1183.5,3.30000019073486,-926.100036621094,2.89698156500768,-0.259791354531625,0.16377324205326,ST
2.03333333333333,-2.59055709838867,-1.40384149551392,8.90156364440918,-0.121951997280121,-0.144817993044853,2.17227005958557,-1195.5,7.50000047683716,-938.100036621094,2.89180498135243,-0.274119727755548,0.158064772889934,ST
2.06666666666667,-2.93508744239807,-1.08204066753387,8.74126148223877,-0.0152439996600151,0.144817993044853,2.03507399559021,-1188.30004882812,8.70000076293945,-933.300048828125,2.88059102895185,-0.309798873427021,0.131668949096475,ST
2.1,-2.63302540779114,-1.21363210678101,8.81842136383057,0.3125019967556,-0.304879993200302,2.15702605247498,-1195.5,7.50000047683716,-938.100036621094,2.87786478584558,-0.294253810980011,0.134035940322537,ST
2.13333333333333,-2.37582397460938,-1.28959619998932,8.65811920166016,0.190549999475479,-1.35671591758728,1.63872992992401,-1193.10009765625,-0.900000035762787,-930.900024414062,2.87742342829708,-0.272462477244875,0.14285704068256,ST
2.16666666666667,-1.97267556190491,-1.52945160865784,9.14141941070557,-0.221037998795509,-2.83538389205933,1.01372599601746,-1193.10009765625,0.300000011920929,-938.100036621094,2.87886063022027,-0.224487561874686,0.159098027043332,ST
2.2,-1.04435765743256,-1.7926344871521,9.0014533996582,-0.762199997901917,-5.69363403320312,-0.350611984729767,-1195.5,9.30000019073486,-952.500061035156,2.88255756746903,-0.1352625507652,0.18775700272076,ST
2.23333333333333,-0.645396292209625,-2.28849506378174,9.05109977722168,-1.55488801002502,-6.2881498336792,-1.64635193347931,-1221.90002441406,4.5,-942.900024414062,2.88782036694503,-0.0771782256233808,0.234825528276209,ST
2.26666666666667,-0.491075366735458,-2.22269916534424,9.29574012756348,-1.50915598869324,-5.70125579833984,-1.57775402069092,-1229.10009765625,4.5,-935.700012207031,2.88811190933927,-0.0518944952484534,0.236603927409442,ST
2.3,-0.103478737175465,-2.30883193016052,9.45963096618652,-1.01372599601746,-4.84759187698364,-0.152439996600151,-1238.70007324219,15.9000005722046,-928.500061035156,2.88643848813274,-0.0172508832411235,0.239764114782893,ST
2.33333333333333,0.137572884559631,-2.15989422798157,9.98360443115234,-0.503051996231079,-3.94057393074036,0.259148001670837,-1224.30004882812,6.30000019073486,-926.100036621094,2.88418629778246,0.010283853861944,0.2207147256727,ST
2.36666666666667,0.428868502378464,-2.56722974777222,9.60139083862305,0.25152599811554,-3.10215401649475,0.800309956073761,-1243.5,12.3000001907349,-930.900024414062,2.88083765237693,0.037192804477917,0.249340855180554,ST
2.4,-0.253612607717514,-2.59534239768982,9.26104736328125,0.0838419944047928,-1.37195992469788,-0.175305992364883,-1255.5,6.90000009536743,-928.500061035156,2.88025295355912,-0.0063668427746854,0.26628481720301,ST
2.43333333333333,-0.584983825683594,-2.78076672554016,9.07203483581543,-0.114329993724823,-0.25152599811554,0.25152599811554,-1245.90002441406,7.50000047683716,-938.100036621094,2.8802733122487,-0.046865173515159,0.289402777518242,ST
2.46666666666667,-1.10536825656891,-2.90577864646912,8.80945014953613,-0.297257989645004,1.56251001358032,0.137196004390717,-1236.30004882812,5.10000038146973,-930.900024414062,2.88231230271807,-0.0988767204207759,0.310211171874997,ST
2.5,-1.4600670337677,-3.07624936103821,8.71195220947266,-0.167683988809586,3.04879999160767,0.533540010452271,-1238.70007324219,4.5,-942.900024414062,2.88554106361894,-0.14306274845972,0.330899830758745,ST
2.53333333333333,-1.78007352352142,-2.79512214660645,9.01461315155029,-0.114329993724823,3.46038794517517,0.510673999786377,-1236.30004882812,9.30000019073486,-933.300048828125,2.883188177564,-0.178267524649616,0.309689009926853,ST
2.56666666666667,-1.67360401153564,-2.59055709838867,9.20302772521973,0.78506600856781,2.0579400062561,1.2423859834671,-1217.10009765625,11.1000003814697,-945.300048828125,2.87755430380101,-0.17762481278856,0.282483411026722,ST
2.6,-0.92771977186203,-3.14862465858459,9.02777194976807,1.35671591758728,0.701223969459534,1.42531394958496,-1238.70007324219,16.5,-935.700012207031,2.88129857654922,-0.120450525403347,0.319226777043489,ST
2.63333333333333,-1.17535090446472,-3.27363657951355,8.98649978637695,1.22714197635651,0.503051996231079,0.480185985565186,-1217.10009765625,8.70000076293945,-935.700012207031,2.88341837859122,-0.122514324380256,0.338741569340273,ST
2.66666666666667,-1.35957896709442,-2.99968695640564,9.70785999298096,1.04421401023865,1.44817996025085,0.533540010452271,-1202.70007324219,4.5,-933.300048828125,2.87995505352367,-0.131769943891436,0.310165374547749,ST
2.7,-1.45647811889648,-2.85493636131287,10.0206890106201,1.80641400814056,1.10518991947174,1.50153398513794,-1238.70007324219,9.30000019073486,-940.500061035156,2.87508317648221,-0.138590254307818,0.284975420670864,ST
2.73333333333333,-1.4241783618927,-2.4416196346283,10.4669036865234,2.32470989227295,0.655492007732391,1.28811800479889,-1209.90002441406,5.70000028610229,-933.300048828125,2.86792374035557,-0.134960883025773,0.242131028306653,ST
2.76666666666667,-1.30933499336243,-2.2472231388092,10.1080179214478,2.98782396316528,0.114329993724823,1.6920839548111,-1214.70007324219,9.30000019073486,-926.100036621094,2.86316599045043,-0.129155974477197,0.221876399748076,ST
2.8,-0.823044717311859,-2.63481974601746,10.2408056259155,2.14940404891968,0.0228659994900227,0.83841997385025,-1212.30004882812,6.90000009536743,-940.500061035156,2.86422465096523,-0.0934542403865236,0.240135140350345,ST
2.83333333333333,-0.513804793357849,-2.06897664070129,10.8006677627563,1.34909391403198,-1.56251001358032,-1.19665396213531,-1214.70007324219,7.50000047683716,-935.700012207031,2.8629929680141,-0.0585943811232599,0.202984133301274,ST
2.86666666666667,-1.1675751209259,-0.994711756706238,9.66898155212402,1.85214591026306,-2.30946588516235,-1.30336201190948,-1212.30004882812,3.90000009536743,-930.900024414062,2.85910336801385,-0.0982840202944051,0.13076807939735,ST
2.9,-1.64190244674683,-1.13647162914276,9.07143592834473,1.53964400291443,-0.182927995920181,0.846041977405548,-1226.70007324219,3.90000009536743,-933.300048828125,2.85715430633932,-0.153708161500984,0.124491847976599,ST
2.93333333333333,-2.03009724617004,-0.937290012836456,9.59780216217041,1.18903195858002,0.541162014007568,1.00610399246216,-1226.70007324219,6.30000019073486,-928.500061035156,2.85225212214375,-0.192848707233773,0.103533670230403,ST
2.96666666666667,-1.61079907417297,-0.47552365064621,9.09416580200195,1.19665396213531,0.121951997280121,0.777444005012512,-1214.70007324219,6.30000019073486,-938.100036621094,2.84437186025294,-0.180704628472112,0.0659966132228464,ST
3.0,-1.96729218959808,-0.195592746138573,9.47637939453125,0.762199997901917,1.79879200458527,1.34147191047668,-1219.5,8.10000038146973,-926.100036621094,2.83628146401771,-0.199768099000203,0.033099339088838,ST
3.03333333333333,-2.26815819740295,-0.110058307647705,9.64744758605957,1.08994603157043,1.51677799224854,0.731711983680725,-1217.10009765625,-0.900000035762787,-930.900024414062,2.83181973795813,-0.224299213867836,0.0158222317757899,ST
3.06666666666667,-1.83809340000153,-0.0855344459414482,9.51705265045166,0.78506600856781,0.952749967575073,1.17378795146942,-1209.90002441406,1.5,-933.300048828125,2.82864954157538,-0.200813971858588,0.0094380948980842,ST
3.1,-1.88833737373352,-0.147741317749023,9.26463603973389,0.274392008781433,0.800309956073761,0.800309956073761,-1200.30004882812,2.10000014305115,-928.500061035156,2.82813995022095,-0.202026902661165,0.0136786101609395,ST
3.13333333333333,-2.42726421356201,-0.488682806491852,8.98590183258057,0.266770005226135,2.08842802047729,0.716467976570129,-1197.90002441406,6.30000019073486,-940.500061035156,2.83341811891192,-0.248448069643265,0.0419788954881457,ST
3.16666666666667,-3.08342695236206,-1.42597281932831,9.72221565246582,-0.830797970294952,3.10215401649475,0.815553963184357,-1202.70007324219,5.10000038146973,-938.100036621094,2.85292388729671,-0.2945912340763,0.120228115215375,ST
3.2,-3.31909537315369,-1.34103655815125,9.71743106842041,-1.12043392658234,2.36281991004944,-0.46494197845459,-1188.30004882812,2.70000004768372,-938.100036621094,2.8576603188953,-0.31953038963905,0.13368420718797,ST
3.23333333333333,-3.50631403923035,-1.79801774024963,9.24190711975098,-1.08994603157043,3.17075204849243,0.3125019967556,-1197.90002441406,5.10000038146973,-945.300048828125,2.87194527252563,-0.351013023846015,0.178167712361711,ST
3.26666666666667,-3.24432754516602,-2.16587567329407,9.10612869262695,-1.48628997802734,1.79117000102997,-0.289635986089706,-1190.70007324219,3.90000009536743,-940.500061035156,2.88596430427845,-0.341069007140321,0.219037357532137,ST
3.3,-2.68925070762634,-2.34950566291809,8.97214412689209,-1.65397393703461,1.37195992469788,-0.342989981174469,-1183.5,0.300000011920929,-938.100036621094,2.89523365107394,-0.300769439744432,0.247939633402967,ST
3.33333333333333,-2.42846035957336,-2.40154409408569,9.58225059509277,-1.2576299905777,1.07470202445984,-0.342989981174469,-1181.10009765625,2.10000014305115,-938.100036621094,2.89565833875897,-0.258675501695959,0.248026960967831,ST
3.36666666666667,-2.26217675209045,-2.0612006187439,8.8878059387207,-0.442075997591019,0.92988395690918,-0.670735955238342,-1183.5,7.50000047683716,-938.100036621094,2.89359308876829,-0.24866512137248,0.23473863308982,ST
3.4,-2.16408133506775,-1.6143878698349,9.33162879943848,-0.0914639979600906,2.24848985671997,0.0381099991500378,-1178.70007324219,9.90000057220459,-942.900024414062,2.88372500889148,-0.234690551495586,0.190538414212213,ST
3.43333333333333,-2.0552191734314,-1.35180306434631,9.1031379699707,0.503051996231079,1.56251001358032,0.731711983680725,-1185.90002441406,10.5,-942.900024414062,2.87611214857561,-0.22630385492375,0.15960862229455,ST
3.46666666666667,-2.08213567733765,-1.46963727474213,8.39493656158447,0.381099998950958,1.82165801525116,1.57775402069092,-1178.70007324219,6.30000019073486,-940.500061035156,2.87606718350899,-0.238981866526593,0.168984642027664,ST
3.5,-3.01942563056946,-1.87158930301666,8.56241703033447,-0.87652999162674,2.53050398826599,1.33385002613068,-1169.10009765625,6.30000019073486,-942.900024414062,2.88310156616393,-0.307217417985255,0.201812193439138,ST
3.53333333333333,-3.25509405136108,-2.11622977256775,9.05827713012695,-1.2423859834671,2.46190595626831,1.12805593013763,-1161.90002441406,9.30000019073486,-930.900024414062,2.88792763589264,-0.331019187537663,0.222409717371422,ST
3.56666666666667,-3.44410729408264,-2.16647386550903,9.30172157287598,-1.2423859834671,2.12653803825378,1.08232402801514,-1152.30004882812,7.50000047683716,-940.500061035156,2.88817691202522,-0.344388687116889,0.228164978668498,ST
3.6,-3.18092441558838,-1.75734400749207,9.82150745391846,-0.129574000835419,0.442075997591019,1.30336201190948,-1157.10009765625,14.7000007629395,-930.900024414062,2.87436500320403,-0.320336274564343,0.191948368692169,ST
3.63333333333333,-2.31780409812927,-1.51270353794098,8.99068737030029,0.685979962348938,-0.724089980125427,1.06708002090454,-1154.70007324219,3.30000019073486,-938.100036621094,2.8670869242655,-0.268858873183759,0.172570508299499,ST
3.66666666666667,-2.5576593875885,-1.64848208427429,8.64555835723877,0.175305992364883,-0.236281991004944,0.861285984516144,-1152.30004882812,11.1000003814697,-947.700012207031,2.86853814009835,-0.278525117396513,0.183113520441598,ST
3.7,-3.09359550476074,-1.3559901714325,9.05050086975098,-0.388722002506256,1.08232402801514,0.0762199983000755,-1164.30004882812,12.9000005722046,-945.300048828125,2.86170052483715,-0.313073574871911,0.15970881425069,ST
3.73333333333333,-2.8842453956604,-1.35060679912567,9.50808048248291,0.129574000835419,1.59299790859222,0.243903994560242,-1152.30004882812,2.70000004768372,-938.100036621094,2.85779135986843,-0.300150191692241,0.146511429137758,ST
3.76666666666667,-2.48109698295593,-1.21841728687286,9.07143592834473,0.632625997066498,1.37195992469788,0.282013982534409,-1147.5,5.10000038146973,-935.700012207031,2.8551413645474,-0.277082245950381,0.136593141564481,ST
3.8,-2.77897214889526,-1.76452171802521,8.6742696762085,0.289635986089706,1.53964400291443,-0.342989981174469,-1145.10009765625,6.90000009536743,-950.100036621094,2.86887960172123,-0.297965994729688,0.181136847859889,ST
3.83333333333333,-2.59534239768982,-1.76212918758392,9.38247108459473,-0.381099998950958,1.81403601169586,-0.434453994035721,-1133.10009765625,2.70000004768372,-942.900024414062,2.87105127328282,-0.277311551238057,0.185040864210535,ST
3.86666666666667,-2.86929178237915,-1.82493424415588,8.85909557342529,-0.0838419944047928,1.18903195858002,-0.175305992364883,-1135.5,10.5,-942.900024414062,2.87533325896137,-0.29958768461387,0.197920258073962,ST
3.9,-3.09598803520203,-2.09170603752136,8.84294605255127,-0.0381099991500378,1.92836594581604,-0.25152599811554,-1140.30004882812,5.10000038146973,-940.500061035156,2.88379455327838,-0.321988718291887,0.222173344391615,ST
3.93333333333333,-3.70848631858826,-2.12759447097778,8.67606353759766,-0.586893975734711,2.46190595626831,-0.419209986925125,-1130.70007324219,9.90000057220459,-940.500061035156,2.88975564418995,-0.374784627431759,0.236043426897752,ST
3.96666666666667,-3.52306199073792,-2.09589290618896,8.63957691192627,-0.853663980960846,2.15702605247498,-0.213415995240211,-1123.5,15.9000005722046,-947.700012207031,2.89137397708788,-0.3790418650317,0.238795464442765,ST
4.0,-3.63371849060059,-2.23226952552795,8.92070388793945,-0.160062000155449,2.00458598136902,-0.152439996600151,-1128.30004882812,10.5,-942.900024414062,2.89412121357516,-0.379470881189221,0.243776891362104,ST
4.03333333333333,-3.9417622089386,-2.15750169754028,8.65153980255127,0.411587983369827,1.39482593536377,0.129574000835419,-1116.30004882812,3.90000009536743,-938.100036621094,2.89474223312994,-0.406872977776652,0.24381639712247,ST
4.06666666666667,-4.09787750244141,-1.64369690418243,8.79868316650391,0.37347799539566,1.2500079870224,0.190549999475479,-1121.10009765625,6.90000009536743,-942.900024414062,2.87834324678835,-0.424290634177709,0.202191086236222,ST
4.1,-4.50521278381348,-1.33146619796753,8.68503570556641,1.41769194602966,0.472563982009888,1.06708002090454,-1125.90002441406,8.10000038146973,-947.700012207031,2.86105866724257,-0.461772177320472,0.163080086417688,ST
4.13333333333333,-3.59483933448792,-1.43793570995331,8.30581283569336,0.868907988071442,-0.800309956073761,1.36433792114258,-1121.10009765625,7.50000047683716,-940.500061035156,2.86106233977496,-0.41852163523182,0.167229959987118,ST
4.16666666666667,-4.67508554458618,-0.727341830730438,8.53131294250488,0.411587983369827,1.16616594791412,0.457319974899292,-1116.30004882812,15.9000005722046,-950.100036621094,2.8360450219556,-0.477150454319612,0.109890007376086,ST
4.2,-3.51169729232788,-1.49356305599213,8.79329967498779,-0.3125019967556,-0.297257989645004,0.853663980960846,-1113.90002441406,10.5,-940.500061035156,2.85206035148094,-0.405799135929942,0.151170074674573,ST
4.23333333333333,-3.85921835899353,-1.14006054401398,8.77236461639404,-0.0381099991500378,-0.434453994035721,-1.34147191047668,-1123.5,9.30000019073486,-947.700012207031,2.84815555474516,-0.409077057415812,0.136014814255573,ST
4.26666666666667,-3.74018788337708,-1.61737859249115,8.29624271392822,0.0914639979600906,-0.121951997280121,-1.40244793891907,-1123.5,8.10000038146973,-945.300048828125,2.86642549630398,-0.41406689742785,0.1760960582898,ST
4.3,-4.39276218414307,-2.11383724212646,7.79619550704956,-0.3125019967556,-0.320124000310898,-1.6768399477005,-1111.5,15.3000001907349,-945.300048828125,2.89547978746824,-0.47231772403158,0.238502233036272,ST
4.33333333333333,-4.95561456680298,-2.38958120346069,8.40331077575684,-0.769822001457214,-0.830797970294952,-1.85976791381836,-1121.10009765625,8.70000076293945,-935.700012207031,2.91074574529761,-0.501352187150632,0.267218134935529,ST
4.36666666666667,-4.94604444503784,-2.515789270401,9.2520751953125,-0.335367977619171,-1.32622802257538,-2.44666194915771,-1109.10009765625,9.90000057220459,-950.100036621094,2.91376556262888,-0.48145365679852,0.267727217297866,ST
4.4,-4.29167604446411,-2.37103867530823,8.52592945098877,0.320124000310898,-1.86738991737366,-2.5076379776001,-1118.70007324219,12.3000001907349,-947.700012207031,2.91881420172753,-0.456211956741674,0.27116991781387,ST
4.43333333333333,-3.92800498008728,-2.13477230072021,7.67357635498047,0.297257989645004,-0.907018005847931,-2.14940404891968,-1125.90002441406,5.10000038146973,-945.300048828125,2.92234807063558,-0.455795830293848,0.272033637139778,ST
4.46666666666667,-4.18939352035522,-1.98045134544373,7.91702032089233,0.297257989645004,-0.739333987236023,-1.49391198158264,-1128.30004882812,8.70000076293945,-933.300048828125,2.91633390893105,-0.467407743872698,0.253679622376508,ST
4.5,-3.95492124557495,-1.91345942020416,8.668288230896,0.907018005847931,-1.29574000835419,-1.05183601379395,-1125.90002441406,10.5,-945.300048828125,2.90668297901061,-0.431870003643811,0.227362320573056,ST
4.53333333333333,-3.9178364276886,-1.78964376449585,8.79629039764404,1.54726600646973,-1.34147191047668,-1.34909391403198,-1140.30004882812,13.5000009536743,-945.300048828125,2.90117577018197,-0.415726011343134,0.207363622238757,ST
4.56666666666667,-3.98243594169617,-1.75136256217957,8.92668533325195,1.73781597614288,-1.50153398513794,-1.84452390670776,-1128.30004882812,6.30000019073486,-940.500061035156,2.90040467027669,-0.411333347920625,0.196518905144737,ST
4.6,-3.83768534660339,-1.91046869754791,9.0672492980957,1.2423859834671,-0.975615978240967,-2.00458598136902,-1123.5,6.90000009536743,-942.900024414062,2.90753922341411,-0.395553247570926,0.204254604196359,ST
4.63333333333333,-3.3268711566925,-2.21671795845032,9.09596061706543,0.846041977405548,-0.685979962348938,-1.93598794937134,-1145.10009765625,12.9000005722046,-942.900024414062,2.91979571917837,-0.356459935891552,0.228554704494716,ST
4.66666666666667,-3.10017490386963,-2.22269916534424,9.46321964263916,0.708845973014832,0.0609759986400604,-1.42531394958496,-1133.10009765625,12.3000001907349,-938.100036621094,2.9230766232817,-0.321507711799874,0.229853828615428,ST
4.7,-2.48887300491333,-2.6216607093811,8.69460582733154,0.937505960464478,-0.503051996231079,-1.54726600646973,-1130.70007324219,8.10000038146973,-942.900024414062,2.93882521171697,-0.282860767238623,0.273515192592015,ST
4.73333333333333,-3.56612849235535,-2.40333843231201,9.84961986541748,0.442075997591019,0.891773998737335,-1.50153398513794,-1137.90002441406,3.30000019073486,-940.500061035156,2.93463326239801,-0.324370116732647,0.248561394566728,ST
4.76666666666667,-2.6216607093811,-2.78794431686401,9.0672492980957,0.67835795879364,-0.480185985565186,-0.175305992364883,-1133.10009765625,5.10000038146973,-935.700012207031,2.94605351716364,-0.282774265049901,0.285174891672938,ST
4.8,-2.36027216911316,-2.88005828857422,9.36153602600098,0.724089980125427,0.0076219998300075,-0.167683988809586,-1130.70007324219,3.30000019073486,-942.900024414062,2.9488963677252,-0.250363722416753,0.293687444598999,ST
4.83333333333333,-2.83280515670776,-2.54031324386597,9.1802978515625,0.762199997901917,0.525918006896973,-0.175305992364883,-1130.70007324219,6.30000019073486,-935.700012207031,2.94504746433103,-0.279531120506454,0.275373041285563,ST
4.86666666666667,-2.61328673362732,-2.60850143432617,9.02179050445557,0.716467976570129,1.2576299905777,0.411587983369827,-1128.30004882812,4.5,-945.300048828125,2.94622258434388,-0.275461189836276,0.278740337292672,ST
4.9,-2.74547624588013,-2.45418071746826,8.74544811248779,0.983237981796265,1.44817996025085,0.99848198890686,-1123.5,8.70000076293945,-940.500061035156,2.94436135262225,-0.290126640060983,0.273742206821758,ST
4.93333333333333,-2.81545901298523,-2.60311818122864,8.62522125244141,1.10518991947174,1.74543797969818,1.43293595314026,-1123.5,3.30000019073486,-947.700012207031,2.94688666776432,-0.301592291538698,0.285589095494176,ST
4.96666666666667,-3.08821225166321,-2.49605059623718,8.91292858123779,1.14329993724823,1.38720393180847,1.48628997802734,-1123.5,3.30000019073486,-930.900024414062,2.94255058469316,-0.318022299447097,0.275036372037841,ST
5.0,-3.5972318649292,-2.08452820777893,9.05409049987793,1.34909391403198,1.15854394435883,2.27135586738586,-1109.10009765625,12.3000001907349,-940.500061035156,2.92787230206932,-0.356836539022724,0.237994515854067,ST
5.03333333333333,-2.79392576217651,-2.12819266319275,8.59710884094238,1.41769194602966,0.632625997066498,3.04117798805237,-1101.90002441406,10.5,-940.500061035156,2.92425393868578,-0.322631136926369,0.238373588819276,ST
5.06666666666667,-3.18750381469727,-1.91525375843048,8.3100004196167,1.29574000835419,0.297257989645004,2.21800184249878,-1113.90002441406,2.10000014305115,-947.700012207031,2.91803958493277,-0.348133782361598,0.227643928565402,ST
5.1,-3.61397981643677,-1.85843026638031,8.15627765655518,0.830797970294952,0.0609759986400604,1.93598794937134,-1099.5,3.90000009536743,-942.900024414062,2.91360753146047,-0.392789597599378,0.222985652356392,ST
5.13333333333333,-4.13376617431641,-1.47322618961334,8.38476848602295,0.182927995920181,0.503051996231079,1.97409796714783,-1111.5,0.300000011920929,-940.500061035156,2.89665433871845,-0.435424301491302,0.187786176030702,ST
5.16666666666667,-5.08002805709839,-1.41161739826202,8.48525619506836,0.236281991004944,0.823175966739655,3.25459384918213,-1116.30004882812,7.50000047683716,-945.300048828125,2.88393840118467,-0.505666884678005,0.169833413436902,ST
5.2,-4.55844736099243,-1.66223931312561,8.81004810333252,0.297257989645004,0.350611984729767,3.81099987030029,-1116.30004882812,12.3000001907349,-945.300048828125,2.88281513485619,-0.482244467605474,0.178784409222853,ST
5.23333333333333,-3.96030449867249,-1.51988124847412,8.99248123168945,1.31860601902008,-0.297257989645004,3.13264203071594,-1113.90002441406,5.10000038146973,-938.100036621094,2.87392232651731,-0.43181307367015,0.167324448347693,ST
5.26666666666667,-3.82632064819336,-1.0856294631958,8.02049922943115,2.30946588516235,0.221037998795509,1.6615959405899,-1109.10009765625,4.5,-945.300048828125,2.86114462715352,-0.439690423938068,0.139216934315347,ST
5.3,-4.32995700836182,-0.981552600860596,7.75432538986206,1.92074394226074,1.29574000835419,1.02897000312805,-1113.90002441406,0.300000011920929,-947.700012207031,2.85549577791152,-0.491191593877958,0.126234735828463,ST
5.33333333333333,-4.61527109146118,-0.644199967384338,8.54686450958252,1.28049600124359,0.221037998795509,1.28049600124359,-1099.5,0.900000035762787,-959.700012207031,2.83665687417416,-0.493677555992791,0.0882002705665374,ST
5.36666666666667,-3.68097186088562,-0.884653449058533,9.16654109954834,1.71494996547699,-1.29574000835419,1.50153398513794,-1104.30004882812,1.5,-940.500061035156,2.83665989235599,-0.413026092759239,0.0909000039544921,ST
5.4,-3.50751042366028,-0.793137550354004,8.55822944641113,1.93598794937134,-1.10518991947174,0.449698001146317,-1116.30004882812,5.10000038146973,-942.900024414062,2.83649378417643,-0.392800000089547,0.089235050567582,ST
5.43333333333333,-3.77727293968201,-1.01145970821381,8.78552436828613,0.975615978240967,0.426831990480423,-0.708845973014832,-1106.70007324219,2.70000004768372,-938.100036621094,2.84540830029934,-0.401303158413263,0.107088685247147,ST
5.46666666666667,-4.09608316421509,-1.44331896305084,8.69998931884766,0.396344006061554,1.04421401023865,-0.815553963184357,-1104.30004882812,1.5,-945.300048828125,2.86321624837508,-0.426021130327666,0.146981406715554,ST
5.5,-4.53571796417236,-1.39247679710388,8.68084907531738,-0.221037998795509,0.967993974685669,-1.08232402801514,-1104.30004882812,4.5,-950.100036621094,2.86897852383145,-0.462135495548715,0.156344447419865,ST
5.53333333333333,-3.80957269668579,-1.96071267127991,8.71135425567627,-0.571649968624115,0.777444005012512,-0.0914639979600906,-1101.90002441406,-2.10000014305115,-947.700012207031,2.88888212328375,-0.422114926599682,0.203049909092581,ST
5.56666666666667,-4.06497955322266,-1.72982943058014,8.18199729919434,-0.685979962348938,0.846041977405548,-0.830797970294952,-1104.30004882812,5.10000038146973,-942.900024414062,2.89228928684905,-0.445341027819334,0.208428972255292,ST
5.6,-4.25339460372925,-2.02471399307251,8.31657981872559,-0.792688012123108,0.914639949798584,0.0381099991500378,-1094.70007324219,3.90000009536743,-945.300048828125,2.90183368029917,-0.45778722297262,0.23111175054745,ST
5.63333333333333,-4.22767448425293,-1.98523652553558,8.35605716705322,-0.37347799539566,0.533540010452271,0.533540010452271,-1094.70007324219,2.10000014305115,-940.500061035156,2.90165291638218,-0.458343336280022,0.232923443738994,ST
5.66666666666667,-4.73131084442139,-1.86201906204224,9.02597713470459,0.632625997066498,0.0609759986400604,0.891773998737335,-1099.5,-2.70000004768372,-935.700012207031,2.89081715684166,-0.470066721142065,0.210646592333073,ST
5.7,-3.65285921096802,-1.54320883750916,8.93446159362793,0.945127964019775,-0.358233988285065,1.01372599601746,-1094.70007324219,1.5,-947.700012207031,2.87647474123379,-0.405696458613351,0.179294551770589,ST
5.73333333333333,-4.33593845367432,-1.65386533737183,8.78552436828613,0.586893975734711,-0.297257989645004,1.32622802257538,-1099.5,-0.300000011920929,-933.300048828125,2.87606666941704,-0.437718719799469,0.182535020596138,ST
5.76666666666667,-3.99619317054749,-1.53064787387848,8.55344486236572,0.0076219998300075,-0.0685980021953583,0.647870004177094,-1099.5,-2.70000004768372,-950.100036621094,2.87322012932671,-0.43303140089383,0.178257346237026,ST
5.8,-3.9076681137085,-1.57909739017487,8.43202114105225,-0.411587983369827,0.846041977405548,1.11281192302704,-1099.5,-0.300000011920929,-923.700012207031,2.87342796116033,-0.430325948197678,0.183131216397992,ST
5.83333333333333,-3.97226738929749,-1.52646088600159,8.55165004730225,-0.777444005012512,1.03659200668335,0.388722002506256,-1104.30004882812,0.900000035762787,-938.100036621094,2.87090509220999,-0.4306646596997,0.179289615330683,ST
5.86666666666667,-3.93936967849731,-1.39486944675446,8.78492546081543,-1.10518991947174,0.236281991004944,0.670735955238342,-1099.5,7.50000047683716,-942.900024414062,2.86323504502833,-0.421497570446361,0.16499994881699,ST
5.9,-3.61457800865173,-1.24712812900543,8.40809535980225,-0.99848198890686,-1.20427596569061,1.14329993724823,-1101.90002441406,5.10000038146973,-945.300048828125,2.8556525453809,-0.406699387048069,0.15306821196656,ST
5.93333333333333,-3.64388704299927,-1.14065861701965,8.72152233123779,-0.525918006896973,-0.937505960464478,0.800309956073761,-1099.5,3.30000019073486,-947.700012207031,2.8475862106008,-0.395979237106546,0.137104841772812,ST
5.96666666666667,-3.94295835494995,-1.13348090648651,8.24839115142822,-0.236281991004944,-0.579271972179413,0.990859985351562,-1106.70007324219,9.90000057220459,-942.900024414062,2.84547747690984,-0.427820892556899,0.136452483885639,ST
6.0,-4.44659471511841,-1.79981219768524,8.58694076538086,-0.78506600856781,-0.205793991684914,-0.221037998795509,-1092.30004882812,6.90000009536743,-945.300048828125,2.86651164624298,-0.456606532300648,0.1862288243213,ST
6.03333333333333,-4.45676326751709,-1.68855762481689,8.2621488571167,-1.39482593536377,-0.724089980125427,0.0304879993200302,-1101.90002441406,1.5,-938.100036621094,2.87077034029649,-0.476810241655295,0.198761001702042,ST
6.06666666666667,-4.12778472900391,-1.9989937543869,9.05169773101807,-0.967993974685669,-1.09756803512573,0.0076219998300075,-1099.5,6.30000019073486,-940.500061035156,2.87605246313642,-0.433500391894933,0.213441698645993,ST
6.1,-3.78923583030701,-1.7926344871521,8.30880355834961,-0.160062000155449,-1.6768399477005,-0.0990860015153885,-1094.70007324219,-0.900000035762787,-940.500061035156,2.8752788522698,-0.421580418603518,0.212831142696254,ST
6.13333333333333,-3.10496020317078,-1.67300593852997,8.82021617889404,0.259148001670837,-1.85976791381836,-0.0990860015153885,-1099.5,1.5,-942.900024414062,2.86754228895853,-0.352772697191466,0.193180740937913,ST
6.16666666666667,-3.36575055122375,-1.29198884963989,8.35007572174072,0.503051996231079,-1.89787793159485,0.0838419944047928,-1113.90002441406,10.5,-950.100036621094,2.8571162216557,-0.368970639562316,0.164739086496389,ST
6.2,-4.07754039764404,-1.24473547935486,9.09835243225098,0.365855991840363,-1.11281192302704,0.739333987236023,-1111.5,0.300000011920929,-947.700012207031,2.8474810658116,-0.40381784362899,0.142698097650246,ST
6.23333333333333,-4.07395172119141,-1.42716908454895,9.21738338470459,-0.0228659994900227,-1.08994603157043,0.647870004177094,-1106.70007324219,11.7000007629395,-935.700012207031,2.84905216474056,-0.408209436901105,0.149928454012751,ST
6.26666666666667,-3.77547836303711,-1.44451522827148,8.89438629150391,-0.388722002506256,-1.12043392658234,-0.152439996600151,-1118.70007324219,1.5,-938.100036621094,2.85198109720779,-0.398835648279184,0.158144738854221,ST
6.3,-3.77069330215454,-1.75196075439453,8.95599460601807,-0.434453994035721,-0.960371971130371,-1.37958192825317,-1106.70007324219,6.30000019073486,-957.300048828125,2.86348856252412,-0.392547344556131,0.183794267452385,ST
6.33333333333333,-4.27373170852661,-1.80579364299774,8.65512847900391,-0.236281991004944,-0.571649968624115,-1.42531394958496,-1101.90002441406,2.10000014305115,-942.900024414062,2.87185500532464,-0.431889002292421,0.199959579508031,ST
6.36666666666667,-3.81974101066589,-1.83809340000153,8.29743957519531,-0.365855991840363,-0.0228659994900227,-0.480185985565186,-1099.5,6.30000019073486,-940.500061035156,2.87798408661677,-0.424993607516595,0.213551784471462,ST
6.4,-4.06737232208252,-2.05820989608765,8.39194583892822,-0.327746003866196,1.08232402801514,-0.327746003866196,-1111.5,5.10000038146973,-935.700012207031,2.88678245022581,-0.436684851539844,0.233079427857633,ST
6.43333333333333,-4.07215738296509,-2.11563158035278,9.21499061584473,0.327746003866196,1.03659200668335,-0.0228659994900227,-1099.5,3.30000019073486,-945.300048828125,2.88516667942229,-0.416939260207475,0.227625993961454,ST
6.46666666666667,-3.67259788513184,-1.94516098499298,8.68204498291016,0.899396002292633,0.25152599811554,-0.121951997280121,-1109.10009765625,6.90000009536743,-945.300048828125,2.88365366351847,-0.399400387615975,0.221558599663302,ST
6.5,-4.10684967041016,-1.78186786174774,8.08509826660156,0.762199997901917,1.31860601902008,-0.304879993200302,-1111.5,6.30000019073486,-950.100036621094,2.88354877814463,-0.443594852702724,0.217750250735981,ST
6.53333333333333,-4.26715183258057,-2.09589290618896,9.50449180603027,0.586893975734711,1.02897000312805,0.25152599811554,-1104.30004882812,5.70000028610229,-938.100036621094,2.8834247140495,-0.423628188174457,0.216529630469004,ST
6.56666666666667,-3.21382212638855,-2.02591013908386,8.96078014373779,0.868907988071442,-0.83841997385025,-0.0990860015153885,-1116.30004882812,5.10000038146973,-947.700012207031,2.88502742912804,-0.361730380318567,0.219583769978682,ST
6.6,-3.24193501472473,-1.95054423809052,8.30043029785156,0.724089980125427,-0.182927995920181,-0.868907988071442,-1106.70007324219,7.50000047683716,-940.500061035156,2.88957543889234,-0.362431351312951,0.227191182784714,ST
6.63333333333333,-3.49794006347656,-2.22568988800049,8.37459945678711,0.282013982534409,0.144817993044853,-0.914639949798584,-1089.90002441406,5.70000028610229,-933.300048828125,2.89990262045009,-0.377777929921257,0.250851984790853,ST
6.66666666666667,-3.60859656333923,-2.37522578239441,8.31418704986572,-0.25152599811554,0.259148001670837,-0.731711983680725,-1111.5,2.10000014305115,-940.500061035156,2.9084066739439,-0.390174268607312,0.270668464247633,ST
6.7,-3.35438585281372,-2.64738082885742,8.97453689575195,-0.0152439996600151,0.525918006896973,-0.571649968624115,-1099.5,5.10000038146973,-942.900024414062,2.91401677581836,-0.357306206223256,0.282842863518685,ST
6.73333333333333,-3.27303838729858,-2.18800687789917,8.88062858581543,0.571649968624115,-0.365855991840363,-0.525918006896973,-1109.10009765625,3.90000009536743,-947.700012207031,2.90487423399799,-0.347230116387971,0.253426344841747,ST
6.76666666666667,-3.26705694198608,-2.26098036766052,8.27889728546143,1.30336201190948,0.342989981174469,1.43293595314026,-1094.70007324219,15.9000005722046,-938.100036621094,2.90597247448882,-0.359635781128982,0.260442103053014,ST
6.8,-3.75274896621704,-2.1951847076416,8.21669006347656,0.967993974685669,1.21951997280121,1.47866797447205,-1104.30004882812,10.5,-942.900024414062,2.90430908147615,-0.400632506086728,0.259154281228992,ST
6.83333333333333,-3.96688413619995,-2.16647386550903,8.81722545623779,0.282013982534409,0.815553963184357,2.03507399559021,-1094.70007324219,3.30000019073486,-940.500061035156,2.89580741770026,-0.410469440725882,0.244633888817015,ST
6.86666666666667,-4.50461483001709,-2.19279217720032,9.20601844787598,0.274392008781433,0.602137982845306,2.46952795982361,-1101.90002441406,7.50000047683716,-930.900024414062,2.88870578429435,-0.435533471778197,0.235540970197437,ST
6.9,-4.65654325485229,-1.81476581096649,9.4554443359375,0.899396002292633,0.320124000310898,2.32470989227295,-1089.90002441406,3.90000009536743,-940.500061035156,2.87123213621407,-0.447074233377134,0.201128598342471,ST
6.93333333333333,-4.54469013214111,-1.57072341442108,9.42972373962402,1.34147191047668,0.304879993200302,2.44666194915771,-1097.10009765625,2.70000004768372,-950.100036621094,2.85638236791876,-0.445740945897426,0.17287769251868,ST
6.96666666666667,-3.72044920921326,-0.931308627128601,8.26753234863281,1.65397393703461,-0.0152439996600151,2.62196803092957,-1101.90002441406,6.30000019073486,-938.100036621094,2.83314260906888,-0.428050899302934,0.125069354556942,ST
7.0,-3.66362571716309,-0.443822085857391,7.75970888137817,1.47104597091675,0.274392008781433,2.30946588516235,-1092.30004882812,-0.300000011920929,-938.100036621094,2.80897445051706,-0.437726195919726,0.0736054161989333,ST
7.03333333333333,-4.44001531600952,-0.513804793357849,8.54327583312988,1.02134799957275,1.35671591758728,2.62196803092957,-1101.90002441406,-0.300000011920929,-940.500061035156,2.80008427524187,-0.469279994050434,0.0609689284293194,ST
7.06666666666667,-4.03925943374634,-0.779380261898041,8.716139793396,0.777444005012512,0.0609759986400604,1.6615959405899,-1097.10009765625,4.5,-950.100036621094,2.80617648540286,-0.442834160120295,0.0795451523239472,ST
7.1,-3.8478536605835,-0.632237136363983,7.80935478210449,0.693601965904236,-0.236281991004944,-0.37347799539566,-1094.70007324219,0.900000035762787,-942.900024414062,2.80747917875434,-0.45274739653504,0.0797848610668545,ST
7.13333333333333,-4.9394645690918,-0.617881715297699,7.57966756820679,0.46494197845459,1.54726600646973,0.807931959629059,-1089.90002441406,1.5,-945.300048828125,2.80680305918924,-0.542512252134999,0.0797998556561984,ST
7.16666666666667,-5.464035987854,-1.01504862308502,8.48047065734863,0.121951997280121,1.75305998325348,0.708845973014832,-1085.10009765625,4.5,-945.300048828125,2.82069362444182,-0.564198479733782,0.107612093055337,ST
7.2,-5.55914068222046,-1.51031100749969,9.44527530670166,0.182927995920181,0.541162014007568,-0.724089980125427,-1089.90002441406,8.10000038146973,-947.700012207031,2.84175626269286,-0.537539617709697,0.145194877890687,ST
7.23333333333333,-5.19846057891846,-1.24832439422607,9.22456073760986,-0.205793991684914,-0.739333987236023,-0.388722002506256,-1080.30004882812,1.5,-942.900024414062,2.83827521232475,-0.515705205330954,0.137748797015979,ST
7.26666666666667,-3.92082715034485,-1.44092643260956,8.11620235443115,-0.3125019967556,-1.21189796924591,-0.937505960464478,-1094.70007324219,6.90000009536743,-947.700012207031,2.85217784998846,-0.464017209603554,0.165458020927621,ST
7.3,-3.56612849235535,-1.53124594688416,7.5252366065979,-0.541162014007568,-1.2423859834671,-0.815553963184357,-1077.90002441406,4.5,-933.300048828125,2.86479959831913,-0.440332183396719,0.193083114799225,ST
7.33333333333333,-3.60381150245667,-2.00736784934998,8.61864185333252,-0.304879993200302,-0.243903994560242,-0.990859985351562,-1082.70007324219,2.70000004768372,-938.100036621094,2.87734520278725,-0.400287670593418,0.220553798496631,ST
7.36666666666667,-3.82153534889221,-1.70889449119568,8.16225910186768,0.106707997620106,-0.434453994035721,-1.50153398513794,-1092.30004882812,0.900000035762787,-942.900024414062,2.8759037482024,-0.419955790825155,0.211297127339318,ST
7.4,-3.64388704299927,-2.00258255004883,8.3937406539917,0.0457319989800453,-0.236281991004944,0.121951997280121,-1087.5,4.5,-947.700012207031,2.882371369501,-0.4046671777088,0.228087105065672,ST
7.43333333333333,-4.00875425338745,-1.75435328483582,8.08091163635254,-0.0457319989800453,-0.510673999786377,-0.243903994560242,-1073.10009765625,3.30000019073486,-930.900024414062,2.8785300284453,-0.436681707430499,0.218292413040741,ST
7.46666666666667,-4.77138662338257,-1.94396460056305,8.83158111572266,-0.0685980021953583,0.304879993200302,0.282013982534409,-1082.70007324219,6.90000009536743,-952.500061035156,2.87755137761916,-0.473766871402192,0.217042167456272,ST
7.5,-4.86050987243652,-1.82792496681213,8.86567497253418,0.160062000155449,0.304879993200302,0.487807989120483,-1082.70007324219,3.90000009536743,-940.500061035156,2.87241417434044,-0.48755050246485,0.207027173214467,ST
7.53333333333333,-4.53811073303223,-1.77887713909149,9.13065242767334,0.823175966739655,0.121951997280121,0.3125019967556,-1077.90002441406,-3.30000019073486,-950.100036621094,2.86739206776731,-0.464236776214525,0.195579667621827,ST
7.56666666666667,-4.10445690155029,-1.31711077690125,8.16405296325684,1.16616594791412,-0.3125019967556,0.335367977619171,-1080.30004882812,6.90000009536743,-938.100036621094,2.85582512090956,-0.461526330455332,0.16899612874153,ST
7.6,-4.14034557342529,-1.40384149551392,8.1006498336792,0.342989981174469,0.670735955238342,1.28811800479889,-1073.10009765625,6.30000019073486,-945.300048828125,2.85448982379044,-0.46634904739663,0.169725030867531,ST
7.63333333333333,-4.46453905105591,-1.00428199768066,8.31657981872559,0.0076219998300075,0.777444005012512,1.18903195858002,-1077.90002441406,3.30000019073486,-940.500061035156,2.83570284287505,-0.484888131554515,0.132567811805024,ST
7.66666666666667,-4.10086822509766,-0.748276829719543,8.52772426605225,0.602137982845306,-0.205793991684914,1.35671591758728,-1085.10009765625,3.90000009536743,-940.500061035156,2.81896045243592,-0.458252573024017,0.0992947304711778,ST
7.7,-3.841872215271,-1.10776078701019,8.0886869430542,0.533540010452271,-0.952749967575073,-0.342989981174469,-1082.70007324219,0.300000011920929,-933.300048828125,2.83120668713316,-0.443714204037653,0.125526270955207,ST
7.73333333333333,-3.80538558959961,-1.19449150562286,7.69211864471436,-0.0762199983000755,-0.739333987236023,-1.92074394226074,-1080.30004882812,6.30000019073486,-954.900024414062,2.84332303901074,-0.450332629425265,0.146983352179194,ST
7.76666666666667,-5.02141046524048,-1.7364090681076,8.33452415466309,-0.67835795879364,0.137196004390717,-2.11129403114319,-1092.30004882812,2.70000004768372,-938.100036621094,2.86610069874759,-0.508999667323459,0.19023448721509,ST
7.8,-5.22178792953491,-2.29148578643799,9.58823204040527,-1.01372599601746,-0.846041977405548,-1.74543797969818,-1080.30004882812,3.30000019073486,-938.100036621094,2.88360292751949,-0.492348513029295,0.223606893731596,ST
7.83333333333333,-4.97116613388062,-2.40034770965576,9.37828350067139,-0.853663980960846,-1.71494996547699,-1.62348592281342,-1077.90002441406,2.70000004768372,-952.500061035156,2.89436728361194,-0.47734248239762,0.244302207850387,ST
7.86666666666667,-4.00157642364502,-2.20475506782532,8.49363040924072,-0.0914639979600906,-0.945127964019775,-2.00458598136902,-1085.10009765625,5.70000028610229,-938.100036621094,2.90046076681667,-0.441026206170581,0.252259739014653,ST
7.9,-3.87417197227478,-2.19697904586792,8.46013450622559,0.579271972179413,-0.0685980021953583,-1.29574000835419,-1080.30004882812,11.7000007629395,-938.100036621094,2.90334879713843,-0.423898650748898,0.253524844937933,ST
7.93333333333333,-4.12838268280029,-2.11742615699768,7.56172323226929,1.18903195858002,0.579271972179413,-0.87652999162674,-1085.10009765625,3.30000019073486,-938.100036621094,2.91122797116889,-0.466353586197485,0.266167105483669,ST
7.96666666666667,-4.58297157287598,-2.4697322845459,8.85012340545654,0.99848198890686,1.73781597614288,0.190549999475479,-1080.30004882812,4.5,-938.100036621094,2.91383606969714,-0.465890823995048,0.269298578197778,ST
8.0,-4.14034557342529,-2.35488891601562,8.57378101348877,1.2576299905777,0.342989981174469,-0.0228659994900227,-1075.5,3.90000009536743,-952.500061035156,2.91394177806547,-0.445249498059622,0.266966217074594,ST
8.03333333333333,-4.04344654083252,-1.9308055639267,7.8356728553772,2.04269599914551,0.525918006896973,0.0685980021953583,-1082.70007324219,3.90000009536743,-930.900024414062,2.90678243746589,-0.459369195895434,0.246824442433935,ST
8.06666666666667,-4.68405771255493,-2.20056796073914,8.41467571258545,1.75305998325348,1.34909391403198,0.693601965904236,-1080.30004882812,5.70000028610229,-940.500061035156,2.90939254345446,-0.485395659641291,0.250698937580742,ST
8.1,-4.62962675094604,-2.37462759017944,9.12586688995361,1.32622802257538,0.685979962348938,0.0914639979600906,-1065.90002441406,-3.30000019073486,-930.900024414062,2.91109903485263,-0.465955309788639,0.251858296616518,ST
8.13333333333333,-4.03327798843384,-2.16826820373535,8.60428619384766,0.952749967575073,-0.6250039935112,-0.205793991684914,-1077.90002441406,0.900000035762787,-935.700012207031,2.90986248564567,-0.437655784779826,0.247220176195042,ST
8.16666666666667,-3.64149451255798,-2.44520854949951,8.01870441436768,0.807931959629059,-0.83841997385025,-0.106707997620106,-1073.10009765625,5.70000028610229,-945.300048828125,2.9250290264156,-0.415784564671446,0.282783305570304,ST
8.2,-3.84964823722839,-2.53672432899475,8.50977993011475,0.87652999162674,0.259148001670837,-0.975615978240967,-1085.10009765625,1.5,-950.100036621094,2.92896862033507,-0.411061899263624,0.287101015439381,ST
8.23333333333333,-3.93458437919617,-2.40393662452698,8.22984886169434,1.21951997280121,0.365855991840363,-0.83841997385025,-1082.70007324219,3.90000009536743,-938.100036621094,2.93016826187974,-0.425360173659329,0.283910757954821,ST
8.26666666666667,-3.81256318092346,-2.46315264701843,8.44876956939697,1.6920839548111,0.0838419944047928,-0.0990860015153885,-1075.5,0.300000011920929,-938.100036621094,2.93066842529459,-0.413854832022783,0.281752477296897,ST
8.3,-3.52784729003906,-2.38300156593323,8.61385726928711,2.0579400062561,-0.617381989955902,-0.342989981174469,-1056.30004882812,-1.5,-940.500061035156,2.92812941308011,-0.386518118439263,0.271013447872238,ST
8.33333333333333,-3.94535112380981,-2.29387831687927,8.57796859741211,2.19513607025146,-0.121951997280121,-0.282013982534409,-1089.90002441406,1.5,-928.500061035156,2.92636444027357,-0.408389506644381,0.261693423074745,ST
8.36666666666667,-4.65714120864868,-2.37761831283569,8.81244087219238,2.56099200248718,0.861285984516144,-0.37347799539566,-1073.10009765625,4.5,-928.500061035156,2.92869197480841,-0.456115952540416,0.260084461403362,ST
8.4,-4.62543964385986,-1.96968483924866,8.6503438949585,2.67532205581665,0.685979962348938,-1.33385002613068,-1058.70007324219,-5.70000028610229,-940.500061035156,2.92064863693789,-0.473712002466421,0.232500553574752,ST
8.43333333333333,-4.22588014602661,-1.33924210071564,7.57488250732422,3.14026403427124,0.304879993200302,-0.990859985351562,-1087.5,-0.900000035762787,-940.500061035156,2.90388298871537,-0.495117535077332,0.186907328440391,ST
8.46666666666667,-4.64458036422729,-1.08742392063141,8.51935005187988,4.13874578475952,0.480185985565186,0.205793991684914,-1061.10009765625,0.900000035762787,-933.300048828125,2.88471469908082,-0.496337561888547,0.139852083771508,ST
8.5,-5.23076009750366,-0.537132382392883,8.67247486114502,5.434485912323,-0.320124000310898,0.358233988285065,-1061.10009765625,-2.70000004768372,-947.700012207031,2.858785180632,-0.528117680707673,0.0788538554695816,ST
8.53333333333333,-4.70917940139771,-0.330773055553436,8.72511196136475,5.67076778411865,-0.434453994035721,-0.175305992364883,-1077.90002441406,-4.5,-923.700012207031,2.84629284556241,-0.504218705201171,0.0432584763489512,ST
8.56666666666667,-4.48906278610229,0.715378999710083,7.87096357345581,6.05948972702026,0.175305992364883,-2.26373386383057,-1073.10009765625,-9.90000057220459,-935.700012207031,2.8064018341262,-0.513965009452303,-0.0559754190827384,ST
8.6,-5.00346612930298,0.800913453102112,7.89249658584595,5.31253385543823,0.609759986400604,-1.32622802257538,-1077.90002441406,-9.30000019073486,-933.300048828125,2.79424098165857,-0.548972617446954,-0.0928668161498783,ST
8.63333333333333,-4.57579374313354,0.19798532128334,8.04382705688477,3.91008591651917,0.579271972179413,-1.00610399246216,-1073.10009765625,-16.5,-938.100036621094,2.82166336999921,-0.527751096665078,-0.0489049926050792,ST
8.66666666666667,-4.85692071914673,0.150133892893791,9.1922607421875,3.13264203071594,0.358233988285065,-2.65245604515076,-1065.90002441406,-9.90000057220459,-923.700012207031,2.83857040347523,-0.499205349706014,-0.0279611367250559,ST
8.7,-4.22109508514404,-0.0837400183081627,8.39732933044434,2.84300589561462,-0.617381989955902,-3.12502002716064,-1063.5,-16.5,-930.900024414062,2.85745663163844,-0.475206055390417,-0.0027369831581316,ST
8.73333333333333,-4.60031747817993,-0.225499898195267,7.98042345046997,2.60672402381897,0.213415995240211,-4.58844375610352,-1058.70007324219,-9.30000019073486,-930.900024414062,2.87665023373937,-0.508702154379443,0.0185582818335332,ST
8.76666666666667,-4.54110145568848,-0.352306216955185,8.57198715209961,2.57623600959778,0.388722002506256,-3.62045001983643,-1070.70007324219,-21.3000011444092,-933.300048828125,2.89225690188763,-0.49322687916174,0.0342029391821295,ST
8.8,-4.54827928543091,-0.304454773664474,8.98649978637695,2.17227005958557,0.0685980021953583,-3.14026403427124,-1051.5,-12.9000005722046,-926.100036621094,2.89839814812189,-0.475754714313057,0.03333220241847,ST
8.83333333333333,-4.64637470245361,-0.0789548754692078,8.22446632385254,1.98934197425842,-1.19665396213531,-2.28659987449646,-1049.10009765625,-14.1000003814697,-926.100036621094,2.89526577949958,-0.501150683783169,0.0158928918918807,ST
8.86666666666667,-4.14991617202759,-0.199181616306305,7.5013108253479,-0.518296003341675,-1.6768399477005,0.205793991684914,-1051.5,-8.70000076293945,-933.300048828125,2.89827911388751,-0.501923622161963,0.0238059047182986,ST
8.9,-4.74626445770264,-0.0592161528766155,7.15199565887451,-3.29270386695862,-1.92074394226074,1.78354799747467,-1053.90002441406,-11.7000007629395,-926.100036621094,2.88867980833315,-0.558322932644326,0.0158897124419183,ST
8.93333333333333,-5.452073097229,-0.742295444011688,8.33691692352295,-6.80644607543945,-2.37806391716003,6.33388185501099,-1058.70007324219,-11.1000003814697,-914.100036621094,2.90211567126411,-0.569946938059095,0.0729744329825908,ST
8.96666666666667,-4.14812135696411,-1.55098474025726,9.82210540771484,-7.94974565505981,-4.49697971343994,7.89639186859131,-1068.30004882812,-8.70000076293945,-928.500061035156,2.91401729670276,-0.443943812609351,0.137056532014088,ST
9.0,-3.17135405540466,-1.72145545482635,10.063157081604,-6.82169008255005,-5.38875389099121,6.57778596878052,-1092.30004882812,-8.70000076293945,-933.300048828125,2.90837937582236,-0.338996249648893,0.164716758293771,ST
9.03333333333333,-2.74786877632141,-1.45229113101959,9.62770938873291,-4.77899408340454,-4.25307607650757,5.60979175567627,-1075.5,-8.70000076293945,-938.100036621094,2.89337172460865,-0.290278161340596,0.157532912493804,ST
9.06666666666667,-2.69463419914246,-1.32668113708496,9.18508338928223,-3.44514393806458,-3.73477983474731,4.94667768478394,-1092.30004882812,-0.900000035762787,-940.500061035156,2.88049231291062,-0.281324513989731,0.149925718764213,ST
9.1,-2.89919900894165,-1.06469452381134,8.90874099731445,-2.35519790649414,-2.38568592071533,4.50460195541382,-1101.90002441406,-5.10000038146973,-947.700012207031,2.86550517656202,-0.301071830774487,0.12946131975885,ST
9.13333333333333,-3.5852689743042,-1.22439861297607,8.54028511047363,-1.53202199935913,-1.21951997280121,2.42379593849182,-1087.5,-8.10000038146973,-942.900024414062,2.86345159034402,-0.36722527366761,0.13956908313405,ST
9.16666666666667,-4.32098484039307,-1.50313329696655,8.53550052642822,-1.48628997802734,-0.388722002506256,1.92836594581604,-1101.90002441406,-5.10000038146973,-928.500061035156,2.8689818645227,-0.433742191829914,0.164329011991063,ST
9.2,-4.08890533447266,-1.77947533130646,9.27001953125,-1.57775402069092,-1.00610399246216,1.65397393703461,-1106.70007324219,-5.70000028610229,-933.300048828125,2.87272366245606,-0.415459734040663,0.183029589312663,ST
9.23333333333333,-4.07514810562134,-1.68676316738129,9.12467098236084,-1.36433792114258,-1.02134799957275,0.746955990791321,-1106.70007324219,-7.50000047683716,-935.700012207031,2.87072300107906,-0.413246120061128,0.184035493339312,ST
9.26666666666667,-3.05112719535828,-1.34223282337189,9.00324821472168,-0.602137982845306,-1.64635193347931,0.556405961513519,-1113.90002441406,2.10000014305115,-935.700012207031,2.85905132715778,-0.34507242405836,0.157571428480138,ST
9.3,-3.89211630821228,-1.3440272808075,7.96905899047852,-0.0838419944047928,0.663114011287689,1.2500079870224,-1101.90002441406,-2.10000014305115,-938.100036621094,2.8594459261782,-0.420017152306105,0.163810601079957,ST
9.33333333333333,-3.59184861183167,-1.74777376651764,9.1210823059082,-0.3125019967556,1.02134799957275,1.58537602424622,-1109.10009765625,1.5,-947.700012207031,2.86394414186046,-0.385976285875854,0.181449051880159,ST
9.36666666666667,-2.15809988975525,-2.06478953361511,8.91472244262695,-0.205793991684914,-1.39482593536377,1.06708002090454,-1094.70007324219,2.70000004768372,-942.900024414062,2.87224840639091,-0.276918662291058,0.213980965319599,ST
9.4,-2.89919900894165,-1.79442894458771,8.56361293792725,0.0228659994900227,-0.396344006061554,-0.800309956073761,-1106.70007324219,6.30000019073486,-945.300048828125,2.8720044838148,-0.306900692814498,0.208955105508879,ST
9.43333333333333,-3.10017490386963,-1.99600315093994,8.60129547119141,-0.0838419944047928,0.121951997280121,-0.266770005226135,-1104.30004882812,-2.10000014305115,-945.300048828125,2.87665062737188,-0.328491050609183,0.222462732988242,ST
9.46666666666667,-3.86819052696228,-2.65156769752502,9.08040809631348,-0.594515979290009,1.14329993724823,1.2423859834671,-1109.10009765625,-0.300000011920929,-950.100036621094,2.89006897875404,-0.373688034892123,0.267203311923038,ST
9.5,-3.99140810966492,-2.63481974601746,9.81253528594971,-0.320124000310898,0.0685980021953583,0.457319974899292,-1113.90002441406,-3.30000019073486,-950.100036621094,2.88800929689633,-0.374363685084651,0.263982212876508,ST
9.53333333333333,-2.5235652923584,-2.12460374832153,8.94941520690918,0.358233988285065,-1.61586391925812,0.693601965904236,-1111.5,-0.900000035762787,-930.900024414062,2.8784767432025,-0.293987656043052,0.240110971434318,ST
9.56666666666667,-3.03856635093689,-2.19099760055542,8.26095294952393,0.365855991840363,-1.2347639799118,0.342989981174469,-1113.90002441406,-2.70000004768372,-933.300048828125,2.88157543584289,-0.327116693644891,0.253209982891186,ST
9.6,-3.66601824760437,-2.11742615699768,9.65761661529541,-0.335367977619171,0.0304879993200302,1.03659200668335,-1101.90002441406,-2.70000004768372,-947.700012207031,2.87113126665838,-0.347065332422037,0.227146599147476,ST
9.63333333333333,-2.71616721153259,-1.79562520980835,9.45245361328125,-0.274392008781433,-1.57013201713562,0.960371971130371,-1111.5,-2.10000014305115,-942.900024414062,2.86008437085436,-0.29521239274954,0.199232674404317,ST
9.66666666666667,-3.09778237342834,-1.87398195266724,7.15378999710083,-0.457319974899292,-0.853663980960846,1.89025592803955,-1113.90002441406,4.5,-942.900024414062,2.8691790297548,-0.365713840193776,0.238276004990189,ST
9.7,-3.7132716178894,-1.64070618152618,8.26334476470947,-1.57013201713562,2.14178204536438,2.42379593849182,-1116.30004882812,2.70000004768372,-942.900024414062,2.85414922157098,-0.404290173103286,0.209354391389557,ST
9.73333333333333,-4.13914918899536,-1.30933499336243,8.99068737030029,-1.11281192302704,1.78354799747467,2.89635992050171,-1116.30004882812,5.10000038146973,-935.700012207031,2.83125104604405,-0.423502976878845,0.164225577326865,ST
9.76666666666667,-4.66372060775757,-0.842185318470001,9.6582145690918,0.663114011287689,0.320124000310898,3.19361782073975,-1094.70007324219,3.30000019073486,-942.900024414062,2.80316930599937,-0.442079792249423,0.107831277416015,ST
9.8,-3.69173836708069,-1.14125680923462,8.41347885131836,1.36433792114258,-1.02897000312805,4.17685604095459,-1109.10009765625,10.5,-935.700012207031,2.8036954521603,-0.419141229486714,0.122757711293195,ST
9.83333333333333,-4.21870231628418,-0.992917358875275,9.50508975982666,0.861285984516144,-1.08994603157043,2.11129403114319,-1121.10009765625,8.10000038146973,-933.300048828125,2.79457881235678,-0.415725581617377,0.107442228370968,ST
9.86666666666667,-4.67867422103882,-0.420494496822357,9.62412071228027,1.31098401546478,-1.14329993724823,0.945127964019775,-1104.30004882812,-3.90000009536743,-935.700012207031,2.7737677295989,-0.440959456335707,0.0591641368346989,ST
9.9,-2.1730535030365,-0.400157660245895,8.26872825622559,2.21800184249878,-0.92988395690918,0.99848198890686,-1109.10009765625,1.5,-947.700012207031,2.76954988378991,-0.311316877867205,0.0482937468052207,ST
9.93333333333333,-2.98473334312439,0.0418700091540813,7.18608951568604,2.11891603469849,0.129574000835419,-1.38720393180847,-1118.70007324219,2.10000014305115,-935.700012207031,2.75952337088948,-0.371242164651926,0.0073515439395871,ST
9.96666666666667,-4.05241870880127,-0.413316786289215,8.5905294418335,1.72257196903229,2.11129403114319,-0.746955990791321,-1109.10009765625,2.70000004768372,-945.300048828125,2.77216153855148,-0.42217012617062,0.0338221434796073,ST
10.0,-4.54827928543091,-0.646592557430267,9.28975868225098,1.38720393180847,1.60061991214752,-1.49391198158264,-1097.10009765625,0.900000035762787,-945.300048828125,2.78691844133727,-0.448349489121102,0.0595987428336268,ST
10.0333333333333,-3.913649559021,-0.777585864067078,9.53978252410889,0.792688012123108,-0.602137982845306,-1.84452390670776,-1087.5,2.10000014305115,-945.300048828125,2.79687796016349,-0.404587095738416,0.075231026388675,ST
10.0666666666667,-4.27971315383911,-0.910373628139496,9.77545070648193,1.03659200668335,-0.480185985565186,-2.53050398826599,-1097.10009765625,2.10000014305115,-942.900024414062,2.80641142523461,-0.40830406191971,0.0875827398422499,ST
10.1,-3.5613431930542,-0.892429292201996,8.9177131652832,1.18903195858002,-0.304879993200302,-2.5152599811554,-1106.70007324219,4.5,-947.700012207031,2.81438106500331,-0.386638436423148,0.0959342438084678,ST
10.1333333333333,-2.90099334716797,-1.07725548744202,8.10782814025879,0.518296003341675,-0.152439996600151,-3.26983785629272,-1101.90002441406,-2.70000004768372,-940.500061035156,2.82942541808297,-0.354059240027591,0.122245318753275,ST
10.1666666666667,-3.83529281616211,-1.18133234977722,8.74425220489502,-0.403965979814529,0.701223969459534,-2.5000159740448,-1089.90002441406,2.10000014305115,-945.300048828125,2.83700291408122,-0.393644419536216,0.132342617076186,ST
10.2,-3.2509069442749,-1.12331247329712,9.20841121673584,-0.106707997620106,-0.137196004390717,-1.27287399768829,-1104.30004882812,0.900000035762787,-930.900024414062,2.83640868328554,-0.352238972819775,0.12509556929439,ST
10.2333333333333,-3.08282876014709,-1.0856294631958,8.75023365020752,0.510673999786377,-0.525918006896973,-0.861285984516144,-1109.10009765625,-8.70000076293945,-938.100036621094,2.83762032221795,-0.339704679343395,0.123579652360609,ST
10.2666666666667,-3.74018788337708,-1.10776078701019,8.85969352722168,0.731711983680725,0.518296003341675,0.487807989120483,-1099.5,-2.10000014305115,-945.300048828125,2.83719336779077,-0.380244779091912,0.123052987227791,ST
10.3,-3.44889235496521,-1.04974091053009,7.50848865509033,0.571649968624115,0.198172003030777,0.487807989120483,-1082.70007324219,0.300000011920929,-935.700012207031,2.84073519109787,-0.413210647613157,0.133128541776086,ST
10.3333333333333,-4.71097421646118,-1.20824885368347,8.23283958435059,-0.617381989955902,1.36433792114258,0.594515979290009,-1089.90002441406,-1.5,-952.500061035156,2.84364235617842,-0.486208486639806,0.142321617629089,ST
10.3666666666667,-3.47879958152771,-1.64549136161804,9.22575759887695,-0.891773998737335,-2.09605002403259,-1.31098401546478,-1068.30004882812,3.30000019073486,-940.500061035156,2.85611286962758,-0.386964478257755,0.16966262971653,ST
10.4,-4.67568349838257,-1.58806955814362,8.1006498336792,-1.07470202445984,-0.754577994346619,-0.495429992675781,-1101.90002441406,1.5,-928.500061035156,2.86340919895383,-0.4756549000868,0.187604996598414,ST
10.4333333333333,-3.90407919883728,-2.57799625396729,10.4968109130859,-1.03659200668335,-0.358233988285065,0.87652999162674,-1089.90002441406,-2.70000004768372,-952.500061035156,2.87730597825611,-0.385492768732534,0.226258058603138,ST
10.4666666666667,-4.38678073883057,-2.07854676246643,8.23104572296143,-1.03659200668335,-0.167683988809586,-0.358233988285065,-1101.90002441406,2.70000004768372,-938.100036621094,2.88356878341945,-0.449118108687328,0.242280270210536,ST
10.5,-4.50880193710327,-2.26636362075806,9.19764423370361,-0.670735955238342,0.716467976570129,0.647870004177094,-1109.10009765625,-0.300000011920929,-945.300048828125,2.88231293929959,-0.446660107266631,0.24235297372854,ST
10.5333333333333,-2.40752553939819,-1.61139714717865,8.97393894195557,0.411587983369827,-1.19665396213531,1.2500079870224,-1097.10009765625,8.10000038146973,-945.300048828125,2.86232827636191,-0.311663517126013,0.194319847259678,ST
10.5666666666667,-4.11103677749634,-1.59345293045044,7.47379636764526,0.975615978240967,-1.04421401023865,0.769822001457214,-1097.10009765625,8.10000038146973,-947.700012207031,2.86468088147541,-0.437549758300599,0.203439110318678,ST
10.6,-3.92501425743103,-1.71966099739075,8.44817161560059,0.342989981174469,2.09605002403259,2.21800184249878,-1082.70007324219,-2.70000004768372,-947.700012207031,2.86081442787556,-0.433376432804825,0.200185740487956,ST
10.6333333333333,-5.00645685195923,-1.63771545886993,8.96137809753418,-0.167683988809586,0.457319974899292,1.60824191570282,-1099.5,-2.70000004768372,-938.100036621094,2.8513246850281,-0.486227389611123,0.18501603895963,ST
10.6666666666667,-3.49554753303528,-1.65266907215118,9.6043815612793,-0.205793991684914,-0.419209986925125,1.79879200458527,-1106.70007324219,-1.5,-947.700012207031,2.84341096463894,-0.385176801778889,0.173686107903589,ST
10.7,-2.32019662857056,-1.5623494386673,8.94881725311279,0.480185985565186,-2.75916385650635,-0.548784017562866,-1092.30004882812,-0.900000035762787,-940.500061035156,2.84341934642858,-0.287381756651367,0.172598619492078,ST
10.7333333333333,-2.85374021530151,-1.31770896911621,7.06945180892944,0.586893975734711,-1.47866797447205,-0.640248000621796,-1094.70007324219,-3.30000019073486,-942.900024414062,2.84669446941182,-0.34864785108559,0.180127173598491,ST
10.7666666666667,-4.26416110992432,-1.98045134544373,8.32973861694336,-0.0152439996600151,1.56251001358032,0.861285984516144,-1101.90002441406,1.5,-940.500061035156,2.85965464287355,-0.430081396045681,0.21654649606485,ST
10.8,-4.3185920715332,-1.88235592842102,8.9595832824707,-0.266770005226135,0.83841997385025,1.6615959405899,-1094.70007324219,2.70000004768372,-938.100036621094,2.85420145055459,-0.438981742473338,0.209442687650318,ST
10.8333333333333,-2.97935009002686,-2.12580013275146,9.77066516876221,0.213415995240211,-1.05183601379395,1.29574000835419,-1109.10009765625,4.5,-952.500061035156,2.85289792491668,-0.333748341636846,0.211960112196415,ST
10.8666666666667,-2.65455842018127,-1.59704172611237,8.83756256103516,0.87652999162674,-1.98171997070312,-0.0609759986400604,-1104.30004882812,2.70000004768372,-938.100036621094,2.8452007827915,-0.298993106450088,0.187468302160049,ST
10.9,-3.21980357170105,-1.47322618961334,8.28427982330322,1.44817996025085,-0.144817993044853,0.792688012123108,-1104.30004882812,3.90000009536743,-950.100036621094,2.84123200631571,-0.348042590109337,0.176847264805,ST
10.9333333333333,-4.9454460144043,-1.38230836391449,8.35964584350586,0.884151995182037,1.82165801525116,1.95885396003723,-1104.30004882812,2.70000004768372,-933.300048828125,2.83458769825844,-0.481299651725021,0.165717325345744,ST
10.9666666666667,-4.10146617889404,-1.38171029090881,10.0499982833862,0.792688012123108,-0.129574000835419,3.46800994873047,-1094.70007324219,6.30000019073486,-942.900024414062,2.81965050055951,-0.41396028222919,0.142164865754457,ST
11.0,-3.39805030822754,-0.662742435932159,6.9139347076416,0.899396002292633,-1.15854394435883,1.6920839548111,-1092.30004882812,8.10000038146973,-940.500061035156,2.80309679993352,-0.441607081232813,0.107672821533927,ST
11.0333333333333,-4.98791408538818,-0.629844546318054,7.40800046920776,0.175305992364883,1.87501192092896,2.47714996337891,-1087.5,2.10000014305115,-938.100036621094,2.7906607818358,-0.554398186202544,0.0893672107722785,ST
11.0666666666667,-5.20922708511353,-0.759043455123901,8.74843883514404,0.419209986925125,2.27135586738586,2.01220798492432,-1089.90002441406,-0.900000035762787,-935.700012207031,2.78627267847145,-0.543905790178918,0.0854604973631219,ST
11.1,-5.64228248596191,-1.00488018989563,9.61455059051514,1.31860601902008,1.12043392658234,2.11129403114319,-1089.90002441406,3.30000019073486,-942.900024414062,2.78967610724627,-0.534457214988967,0.0956944784873271,ST
11.1333333333333,-3.69413089752197,-1.00966536998749,10.3682098388672,1.71494996547699,-1.44055795669556,0.144817993044853,-1087.5,3.90000009536743,-928.500061035156,2.7900564113613,-0.397612195094057,0.0944855339909557,ST
11.1666666666667,-3.96808052062988,-0.504832684993744,9.29274940490723,1.33385002613068,-3.74240183830261,-1.2423859834671,-1101.90002441406,-0.900000035762787,-942.900024414062,2.78112770010282,-0.39680440443018,0.0652662036120143,ST
11.2,-3.19228911399841,-0.497654944658279,8.29743957519531,0.731711983680725,-1.55488801002502,0.205793991684914,-1101.90002441406,-3.30000019073486,-942.900024414062,2.77928171473816,-0.373424095516926,0.0603742536575643,ST
11.2333333333333,-1.30275535583496,-0.547898948192596,8.8997688293457,0.586893975734711,-2.43141794204712,-1.43293595314026,-1104.30004882812,-2.70000004768372,-938.100036621094,2.78185020839253,-0.211202674848478,0.0609173763542835,ST
11.2666666666667,-1.95054423809052,-0.469542235136032,7.34220504760742,-0.0152439996600151,-1.84452390670776,-0.87652999162674,-1087.5,-3.30000019073486,-947.700012207031,2.78364106364914,-0.24241623787829,0.0632044787045985,ST
11.3,-3.38728356361389,-1.21722090244293,7.9038610458374,-1.50153398513794,0.762199997901917,-0.37347799539566,-1101.90002441406,2.10000014305115,-945.300048828125,2.80232739043982,-0.354003585490179,0.126645774766197,ST
11.3333333333333,-4.59433603286743,-1.60003244876862,8.58873462677002,-2.33995389938354,0.701223969459534,0.0533539988100529,-1101.90002441406,-0.300000011920929,-952.500061035156,2.817693868223,-0.447609921850015,0.169838951262377,ST
11.3666666666667,-5.03217697143555,-2.34830927848816,10.696590423584,-2.55336999893188,0.792688012123108,0.960371971130371,-1101.90002441406,-2.10000014305115,-945.300048828125,2.82957803660893,-0.437075168794282,0.204931202637604,ST
11.4,-4.13436412811279,-2.08333206176758,9.94233226776123,-1.36433792114258,-0.92988395690918,0.525918006896973,-1109.10009765625,-0.900000035762787,-935.700012207031,2.82848723906186,-0.400753955838573,0.207357922696637,ST
11.4333333333333,-3.95611763000488,-2.27772831916809,9.55772686004639,-0.556405961513519,-0.937505960464478,0.594515979290009,-1111.5,4.5,-947.700012207031,2.83413358116207,-0.387261946092492,0.226275906336058,ST
11.4666666666667,-3.16537261009216,-1.66223931312561,8.09227657318115,-0.320124000310898,-0.403965979814529,0.907018005847931,-1097.10009765625,5.10000038146973,-933.300048828125,2.82585275805972,-0.371539433615002,0.208969601028986,ST
11.5,-3.62474632263184,-1.24832439422607,8.36742210388184,-0.175305992364883,1.19665396213531,1.75305998325348,-1097.10009765625,-0.300000011920929,-947.700012207031,2.8072527313226,-0.396795538978555,0.166061298660987,ST
11.5333333333333,-3.41778898239136,-1.18970632553101,8.31299114227295,0.579271972179413,1.14329993724823,1.37195992469788,-1101.90002441406,3.30000019073486,-938.100036621094,2.79883475569416,-0.391271467102895,0.148009184937911,ST
11.5666666666667,-3.5433988571167,-1.45767438411713,8.55703353881836,0.884151995182037,0.0381099991500378,0.327746003866196,-1094.70007324219,-0.900000035762787,-938.100036621094,2.80394818491269,-0.388809821077069,0.161265617249126,ST
11.6,-3.99439883232117,-1.42716908454895,10.2611427307129,0.632625997066498,-0.571649968624115,-0.175305992364883,-1106.70007324219,-2.70000004768372,-945.300048828125,2.79820737235004,-0.373557497220507,0.144366495105412,ST
11.6333333333333,-2.67788600921631,-1.76691436767578,7.45405769348145,0.579271972179413,-3.09453201293945,-1.52439999580383,-1106.70007324219,0.300000011920929,-938.100036621094,2.82181440046895,-0.343814034719264,0.20610109763289,ST
11.6666666666667,-4.3963508605957,-1.4080286026001,7.5970139503479,0.0762199983000755,1.10518991947174,-1.6692179441452,-1099.5,9.30000019073486,-940.500061035156,2.81907106638175,-0.465885350146304,0.19161794997908,ST
11.7,-3.73181390762329,-1.70291304588318,8.93446159362793,0.0457319989800453,0.205793991684914,-1.49391198158264,-1099.5,4.5,-938.100036621094,2.82098772318344,-0.409336329998138,0.190028022794225,ST
11.7333333333333,-4.06856870651245,-1.8045973777771,8.82320690155029,0.495429992675781,0.503051996231079,0.556405961513519,-1094.70007324219,0.900000035762787,-947.700012207031,2.82357604959132,-0.420556340967735,0.197357274919246,ST
11.7666666666667,-3.6594386100769,-1.94815170764923,8.67666149139404,0.647870004177094,0.457319974899292,0.304879993200302,-1085.10009765625,5.10000038146973,-930.900024414062,2.82992488423126,-0.400118932217029,0.212972178069601,ST
11.8,-4.44121170043945,-2.095294713974,9.13483905792236,0.167683988809586,0.754577994346619,0.594515979290009,-1094.70007324219,0.300000011920929,-945.300048828125,2.83271209755728,-0.430835161535665,0.221233544717841,ST
11.8333333333333,-3.90647172927856,-2.06179881095886,10.2503757476807,0.0762199983000755,0.548784017562866,0.510673999786377,-1097.10009765625,2.10000014305115,-942.900024414062,2.82571382320661,-0.380421890939729,0.204905661796581,ST
11.8666666666667,-2.69642853736877,-2.09768748283386,7.27700757980347,-0.0533539988100529,-0.83841997385025,0.0609759986400604,-1089.90002441406,6.30000019073486,-950.100036621094,2.84433360099134,-0.352886691928795,0.258044063343012,ST
11.9,-2.92133021354675,-2.44281578063965,8.52832221984863,-0.358233988285065,1.31860601902008,0.182927995920181,-1089.90002441406,0.300000011920929,-945.300048828125,2.84948943147356,-0.330211239575746,0.27324887658108,ST
11.9333333333333,-3.72822523117065,-2.48049879074097,8.01930236816406,-0.731711983680725,1.05183601379395,0.160062000155449,-1099.5,9.90000057220459,-935.700012207031,2.8564288695618,-0.395196246751564,0.293479904340964,ST
11.9666666666667,-4.15948629379272,-2.38599228858948,8.42185306549072,-0.746955990791321,1.2500079870224,1.42531394958496,-1101.90002441406,2.70000004768372,-942.900024414062,2.84960441757108,-0.431019363900285,0.281780351764305,ST
12.0,-4.36584568023682,-1.96968483924866,8.32914066314697,-0.342989981174469,1.16616594791412,2.11891603469849,-1092.30004882812,5.70000028610229,-935.700012207031,2.82998154482617,-0.463835304484425,0.24415270076656,ST
12.0333333333333,-4.95322179794312,-1.6903520822525,8.96915340423584,0.800309956073761,0.777444005012512,3.47563195228577,-1087.5,6.30000019073486,-942.900024414062,2.80580993463708,-0.489201353230981,0.200879131425042,ST
12.0666666666667,-3.86639618873596,-1.63771545886993,8.55404281616211,1.07470202445984,-0.304879993200302,4.22258806228638,-1094.70007324219,3.30000019073486,-930.900024414062,2.79475759277059,-0.439913057791728,0.188777583232108,ST
12.1,-4.11761617660522,-1.18671560287476,7.82430839538574,1.265251994133,-0.716467976570129,3.30794787406921,-1092.30004882812,3.90000009536743,-947.700012207031,2.77722003411894,-0.46767569359048,0.158625051250815,ST
12.1333333333333,-4.78813457489014,-0.768613696098328,8.4296293258667,1.2500079870224,0.266770005226135,3.68142580986023,-1082.70007324219,8.10000038146973,-935.700012207031,2.7489783480157,-0.501752416890822,0.107796386343241,ST
12.1666666666667,-5.02679347991943,-0.533543527126312,9.20063495635986,1.50915598869324,0.495429992675781,3.07166600227356,-1073.10009765625,6.30000019073486,-940.500061035156,2.7265778331764,-0.501080686619427,0.0683014099559983,ST
12.2,-4.85931348800659,-0.343932211399078,8.42783451080322,1.72257196903229,-0.571649968624115,1.6920839548111,-1082.70007324219,2.70000004768372,-940.500061035156,2.71376985210785,-0.516417083718751,0.0446025062525324,ST
12.2333333333333,-4.66431903839111,-0.163891181349754,7.93616104125977,1.06708002090454,0.182927995920181,1.13567793369293,-1087.5,7.50000047683716,-952.500061035156,2.70362100881038,-0.527089480711719,0.0257975189313655,ST
12.2666666666667,-4.25877809524536,-0.525169551372528,8.82559967041016,1.03659200668335,0.144817993044853,0.564027965068817,-1082.70007324219,-0.300000011920929,-942.900024414062,2.71428110852381,-0.472705719873583,0.0480000639636782,ST
12.3,-4.3305549621582,-0.371446788311005,8.44338607788086,0.243903994560242,-0.846041977405548,-0.0152439996600151,-1068.30004882812,-0.900000035762787,-940.500061035156,2.7130095127651,-0.472241026503497,0.0448664222327228,ST
12.3333333333333,-3.76650619506836,-0.55866551399231,9.01401424407959,-0.182927995920181,-1.49391198158264,-1.02134799957275,-1085.10009765625,-4.5,-945.300048828125,2.72023654975495,-0.413377682812545,0.0583435221456527,ST
12.3666666666667,-3.9579119682312,-0.497654944658279,7.98102188110352,-0.160062000155449,-2.16464805603027,-0.358233988285065,-1094.70007324219,-0.300000011920929,-950.100036621094,2.72175007015638,-0.443032195691535,0.0613933406493074,ST
12.4,-3.73779535293579,-1.28899812698364,9.40998554229736,-0.282013982534409,-0.426831990480423,-0.175305992364883,-1089.90002441406,4.5,-942.900024414062,2.74338582299274,-0.395166621691726,0.114534576492039,ST
12.4333333333333,-3.58825969696045,-1.13826608657837,8.73767280578613,-0.647870004177094,-1.2576299905777,-0.853663980960846,-1082.70007324219,1.5,-945.300048828125,2.74851269000788,-0.387619927730661,0.126176386668689,ST
12.4666666666667,-4.3425178527832,-1.21363210678101,8.76159858703613,-1.01372599601746,-0.807931959629059,0.289635986089706,-1092.30004882812,3.30000019073486,-938.100036621094,2.75078283246075,-0.434755833001517,0.135148057722904,ST
12.5,-3.72284173965454,-1.16039741039276,7.92060899734497,-0.754577994346619,-0.243903994560242,-0.243903994560242,-1101.90002441406,4.5,-942.900024414062,2.75409526049762,-0.434807336818059,0.143558518418735,ST
12.5333333333333,-4.02610015869141,-1.70111858844757,8.36084270477295,-0.693601965904236,0.945127964019775,-0.365855991840363,-1094.70007324219,0.900000035762787,-954.900024414062,2.772474289628,-0.440473195072867,0.18616890839934,ST
12.5666666666667,-3.36156344413757,-2.08572459220886,8.42663860321045,-0.990859985351562,0.137196004390717,-1.18903195858002,-1094.70007324219,10.5,-938.100036621094,2.79048598122629,-0.390864161260239,0.227873685470948,ST
12.6,-4.64876699447632,-2.01275110244751,7.75133466720581,-0.449698001146317,0.37347799539566,-2.15702605247498,-1089.90002441406,8.70000076293945,-940.500061035156,2.80199149531711,-0.485050286915292,0.247661281344116,ST
12.6333333333333,-4.94424962997437,-2.21253085136414,8.92070388793945,0.487807989120483,1.13567793369293,-0.99848198890686,-1089.90002441406,8.10000038146973,-942.900024414062,2.80289799023818,-0.492035936795927,0.244700787924693,ST
12.6666666666667,-4.07873678207397,-2.07735061645508,8.59112739562988,1.2347639799118,-1.30336201190948,-0.716467976570129,-1094.70007324219,9.90000057220459,-940.500061035156,2.80150080894408,-0.447731162503604,0.238077086312466,ST
12.7,-4.02669858932495,-1.93798327445984,9.10074520111084,1.02897000312805,-0.510673999786377,0.0304879993200302,-1094.70007324219,-3.30000019073486,-923.700012207031,2.7926922116902,-0.418124803620185,0.215720003059681,ST
12.7333333333333,-4.38020086288452,-1.86680424213409,8.52951908111572,0.663114011287689,-1.52439999580383,0.0685980021953583,-1085.10009765625,3.90000009536743,-947.700012207031,2.79204434473839,-0.449081406634,0.214512825963779,ST
12.7666666666667,-4.46872615814209,-1.98703098297119,9.76288986206055,0.221037998795509,-0.952749967575073,0.823175966739655,-1089.90002441406,5.70000028610229,-942.900024414062,2.78618787035639,-0.428964836145203,0.204038082445152,ST
12.8,-3.10675454139709,-1.95532941818237,8.00434970855713,0.403965979814529,-1.76068198680878,0.342989981174469,-1097.10009765625,1.5,-933.300048828125,2.79513285889621,-0.377356184026075,0.229162891981736,ST
12.8333333333333,-3.44889235496521,-1.83928966522217,8.94104099273682,0.228659987449646,-0.0609759986400604,0.846041977405548,-1101.90002441406,0.300000011920929,-947.700012207031,2.78666550284595,-0.36585229499763,0.209361438257872,ST
12.8666666666667,-3.24014043807983,-1.70829629898071,8.99008846282959,0.640248000621796,-0.579271972179413,0.800309956073761,-1089.90002441406,5.70000028610229,-933.300048828125,2.77976229285217,-0.347155125282175,0.192733726638897,ST
12.9,-3.34421730041504,-1.87637448310852,8.31538391113281,0.693601965904236,-0.304879993200302,1.15092194080353,-1104.30004882812,4.5,-954.900024414062,2.78486957034777,-0.365781523797275,0.211690303856543,ST
12.9333333333333,-3.79820775985718,-1.98762905597687,8.9117317199707,0.0838419944047928,0.579271972179413,0.846041977405548,-1097.10009765625,2.10000014305115,-938.100036621094,2.78561189012642,-0.38657052600448,0.216651213189799,ST
12.9666666666667,-4.27791833877563,-1.99600315093994,9.16534519195557,-0.78506600856781,0.670735955238342,0.945127964019775,-1097.10009765625,5.10000038146973,-933.300048828125,2.7834556833663,-0.416503663138623,0.215669397767659,ST
13.0,-3.42077970504761,-2.09649109840393,9.16594314575195,-0.434453994035721,-0.640248000621796,1.29574000835419,-1097.10009765625,4.5,-938.100036621094,2.78334489714852,-0.368852319024571,0.221992700569373,ST
13.0333333333333,-3.87118124961853,-1.63352847099304,7.76748466491699,0.25152599811554,-0.365855991840363,0.914639949798584,-1109.10009765625,7.50000047683716,-938.100036621094,2.77756465141795,-0.429152728855382,0.210835257152825,ST
13.0666666666667,-4.60271024703979,-1.40922486782074,8.36861801147461,0.495429992675781,1.73781597614288,1.88263392448425,-1106.70007324219,5.10000038146973,-950.100036621094,2.76020740095132,-0.482796708705834,0.176507052276875,ST
13.1,-4.38737869262695,-1.20705246925354,8.596510887146,1.30336201190948,0.495429992675781,2.46952795982361,-1077.90002441406,3.30000019073486,-938.100036621094,2.74427981733549,-0.473563650479368,0.147480881981374,ST
13.1333333333333,-4.3365364074707,-0.263781040906906,8.03844356536865,1.88263392448425,0.0381099991500378,3.30794787406921,-1094.70007324219,3.30000019073486,-940.500061035156,2.70167666589406,-0.489302568073186,0.0631731179328891,ST
13.1666666666667,-4.62962675094604,-0.61847984790802,8.2442045211792,0.884151995182037,0.228659987449646,3.75764584541321,-1097.10009765625,0.300000011920929,-940.500061035156,2.69858642107125,-0.505552917488225,0.0680136303889201,ST
13.2,-4.81624698638916,-0.401353925466537,9.6761589050293,0.434453994035721,0.541162014007568,2.10367202758789,-1077.90002441406,0.300000011920929,-940.500061035156,2.68610418521263,-0.475585085832721,0.0474309938284191,ST
13.2333333333333,-3.93817329406738,0.160900458693504,8.06476211547852,0.129574000835419,-0.647870004177094,1.12805593013763,-1089.90002441406,4.5,-938.100036621094,2.66227916979708,-0.459779690329845,-0.0016126417887305,ST
13.2666666666667,-4.18101930618286,-0.303856641054153,8.0593786239624,-0.777444005012512,0.632625997066498,0.815553963184357,-1080.30004882812,-1.5,-942.900024414062,2.67295687651981,-0.473567654153429,0.0262306947061169,ST
13.3,-4.34909772872925,-0.65436840057373,9.06545448303223,0.442075997591019,0.861285984516144,0.78506600856781,-1089.90002441406,3.30000019073486,-938.100036621094,2.68611624149164,-0.455706449814864,0.057423757617544,ST
13.3333333333333,-3.76590824127197,-0.846970438957214,8.88541412353516,0.693601965904236,0.137196004390717,0.274392008781433,-1094.70007324219,8.10000038146973,-940.500061035156,2.69698875413202,-0.416510883543733,0.082946051483356,ST
13.3666666666667,-4.49504423141479,-0.640611112117767,9.08818435668945,0.967993974685669,0.342989981174469,-0.510673999786377,-1080.30004882812,3.30000019073486,-938.100036621094,2.69450438772057,-0.446129201239292,0.0733264384241894,ST
13.4,-4.25937604904175,-0.587974548339844,8.72630786895752,0.548784017562866,-0.670735955238342,-0.457319974899292,-1075.5,1.5,-933.300048828125,2.69352753554088,-0.450293744629791,0.0685838864835896,ST
13.4333333333333,-2.59713673591614,-0.705808699131012,8.608473777771,0.121951997280121,-1.71494996547699,-1.21189796924591,-1080.30004882812,8.70000076293945,-938.100036621094,2.69908812264277,-0.337654255616082,0.0783714013886019,ST
13.4666666666667,-3.51468801498413,-0.601731836795807,7.08859252929688,-0.243903994560242,-1.08994603157043,-1.54726600646973,-1082.70007324219,-2.70000004768372,-928.500061035156,2.7032692674351,-0.420853663023071,0.0837283240036849,ST
13.5,-4.58715867996216,-1.09998488426208,8.2322416305542,-0.320124000310898,1.2347639799118,-1.32622802257538,-1087.5,-0.300000011920929,-938.100036621094,2.72059999659174,-0.480830117556682,0.118826425351966,ST
13.5333333333333,-4.50042772293091,-1.672407746315,8.79329967498779,-0.213415995240211,0.663114011287689,-0.777444005012512,-1089.90002441406,0.900000035762787,-935.700012207031,2.74432058879847,-0.471285625791187,0.1680671775212,ST
13.5666666666667,-5.38926839828491,-1.74478304386139,9.33102989196777,-0.259148001670837,0.815553963184357,-0.792688012123108,-1085.10009765625,1.5,-947.700012207031,2.75141120279218,-0.503613634735113,0.180633583304939,ST
13.6,-3.98303413391113,-2.06179881095886,8.80167388916016,-0.274392008781433,-1.28811800479889,-1.99696397781372,-1073.10009765625,2.70000004768372,-935.700012207031,2.77171385850192,-0.435160008653397,0.219619648619955,ST
13.6333333333333,-4.26775026321411,-2.16049242019653,7.59402322769165,-0.434453994035721,-0.205793991684914,-2.4847719669342,-1080.30004882812,5.10000038146973,-935.700012207031,2.79348350912383,-0.4765415421718,0.261401706936573,ST
13.6666666666667,-3.98722100257874,-2.24423241615295,9.22695350646973,0.304879993200302,0.213415995240211,-2.30946588516235,-1082.70007324219,3.30000019073486,-938.100036621094,2.79068173195518,-0.419833112901545,0.245968072063331,ST
13.7,-4.19537496566772,-2.13776302337646,8.16943645477295,0.510673999786377,-1.22714197635651,-2.14178204536438,-1089.90002441406,3.90000009536743,-938.100036621094,2.79690567391675,-0.446587948891478,0.253278617896278,ST
13.7333333333333,-3.95492124557495,-2.30643939971924,7.8859167098999,0.739333987236023,-0.480185985565186,-1.34147191047668,-1087.5,2.10000014305115,-959.700012207031,2.80862855788672,-0.447062593560529,0.274903129595339,ST
13.7666666666667,-5.30433177947998,-2.08632278442383,9.18269062042236,1.27287399768829,0.594515979290009,0.137196004390717,-1077.90002441406,3.90000009536743,-940.500061035156,2.79279265563554,-0.494044331960404,0.237777663115028,ST
13.8,-3.6193630695343,-2.32079482078552,9.27659893035889,1.02897000312805,-1.00610399246216,0.137196004390717,-1087.5,5.10000038146973,-942.900024414062,2.79464153954641,-0.400563660229095,0.241649328031858,ST
13.8333333333333,-4.53212928771973,-2.10008001327515,8.67666149139404,0.777444005012512,-1.15854394435883,-0.114329993724823,-1082.70007324219,3.30000019073486,-938.100036621094,2.79326306293202,-0.44929706977377,0.237581765018529,ST
13.8666666666667,-3.80418920516968,-2.27055072784424,9.42493915557861,0.815553963184357,-0.800309956073761,0.419209986925125,-1092.30004882812,9.90000057220459,-942.900024414062,2.79203497471731,-0.395796492766818,0.235465961556612,ST
13.9,-3.73600101470947,-1.7926344871521,9.16355037689209,0.510673999786377,-0.914639949798584,0.472563982009888,-1077.90002441406,4.5,-945.300048828125,2.77945384602626,-0.384065428344446,0.204316656082972,ST
13.9333333333333,-2.67848420143127,-1.97566628456116,9.08220291137695,0.365855991840363,-2.12653803825378,0.899396002292633,-1089.90002441406,0.900000035762787,-933.300048828125,2.77956946420849,-0.309448652362946,0.210325686649723,ST
13.9666666666667,-3.46264958381653,-1.95712375640869,7.37749528884888,0.0990860015153885,-0.914639949798584,0.899396002292633,-1087.5,1.5,-938.100036621094,2.78922366992141,-0.390045530824485,0.24345304633688,ST
14.0,-3.18451309204102,-1.93858134746552,8.22087669372559,0.0990860015153885,0.160062000155449,1.02134799957275,-1092.30004882812,5.10000038146973,-945.300048828125,2.78414247189578,-0.368795281026898,0.23405239936455,ST
14.0333333333333,-4.66790771484375,-1.39128053188324,8.30521488189697,-0.167683988809586,1.08232402801514,1.50915598869324,-1085.10009765625,2.70000004768372,-952.500061035156,2.76292403699675,-0.466681341665433,0.187119090052483,ST
14.0666666666667,-4.33892917633057,-1.50851655006409,8.68144702911377,0.0762199983000755,0.861285984516144,2.63721203804016,-1097.10009765625,6.90000009536743,-942.900024414062,2.75314530779545,-0.461658026922004,0.174308619384697,ST
14.1,-5.65484380722046,-1.18013608455658,8.13354778289795,0.449698001146317,1.36433792114258,2.27135586738586,-1097.10009765625,5.70000028610229,-940.500061035156,2.73938998326506,-0.562293333618462,0.151829364316729,ST
14.1333333333333,-5.14462757110596,-0.964804589748383,9.33402061462402,0.945127964019775,1.79117000102997,3.15550804138184,-1075.5,-2.10000014305115,-945.300048828125,2.71647724274701,-0.522569258845476,0.114022287568854,ST
14.1666666666667,-4.19417858123779,-1.1675751209259,8.88601207733154,1.28049600124359,-1.32622802257538,2.09605002403259,-1085.10009765625,3.90000009536743,-947.700012207031,2.71829678569582,-0.461969330495277,0.122826349183938,ST
14.2,-3.05591249465942,-0.483897656202316,7.8177285194397,1.2423859834671,-2.5076379776001,0.945127964019775,-1085.10009765625,2.70000004768372,-947.700012207031,2.6984724149683,-0.396306129866275,0.0774967237624635,ST
14.2333333333333,-4.82641553878784,-0.48150509595871,7.34878444671631,0.99848198890686,-0.411587983369827,1.51677799224854,-1094.70007324219,6.90000009536743,-945.300048828125,2.69218613105346,-0.524217807513807,0.0671089266176053,ST
14.2666666666667,-4.10864400863647,-0.602928102016449,9.76049709320068,0.846041977405548,-0.129574000835419,1.50153398513794,-1087.5,-0.900000035762787,-942.900024414062,2.68789282679625,-0.435825190743924,0.0612798055007255,ST
14.3,-3.36993741989136,-0.314025074243546,7.51267576217651,1.61586391925812,-2.21037983894348,1.265251994133,-1080.30004882812,12.9000005722046,-930.900024414062,2.68005811653289,-0.423093398518684,0.0448790892675101,ST
14.3333333333333,-4.03088569641113,-0.528758406639099,8.4116849899292,1.05945801734924,-0.221037998795509,1.15092194080353,-1087.5,-1.5,-940.500061035156,2.68339342886778,-0.439001845774756,0.0553958726390499,ST
14.3666666666667,-4.89101505279541,-0.750669419765472,10.1074199676514,0.0990860015153885,-0.472563982009888,0.228659987449646,-1097.10009765625,2.70000004768372,-940.500061035156,2.68873634743727,-0.446134835132396,0.0686828206844802,ST
14.4,-4.40711736679077,-0.728538155555725,9.96386528015137,-0.518296003341675,-1.90549993515015,-0.320124000310898,-1087.5,2.70000004768372,-942.900024414062,2.690228644506,-0.422337067769361,0.0724387947883668,ST
14.4333333333333,-3.2628698348999,-0.747678697109222,8.58395004272461,-0.518296003341675,-2.71343183517456,-0.0990860015153885,-1097.10009765625,-4.5,-945.300048828125,2.69388136944099,-0.376849987884985,0.0831823151844676,ST
14.4666666666667,-2.82443118095398,-0.909177303314209,9.36153602600098,-0.365855991840363,-0.815553963184357,0.175305992364883,-1104.30004882812,-2.10000014305115,-952.500061035156,2.69664639650343,-0.316391277712711,0.0931386744574357,ST
14.5,-2.57321095466614,-0.653770267963409,7.88173007965088,0.457319974899292,-1.70732796192169,-0.602137982845306,-1101.90002441406,4.5,-962.100036621094,2.69526046458731,-0.312972450080399,0.0855006224707554,ST
14.5333333333333,-3.53143620491028,-0.655564725399017,6.93247699737549,0.0990860015153885,0.365855991840363,0.0,-1101.90002441406,3.30000019073486,-938.100036621094,2.6974969232671,-0.422595779013141,0.091394534305294,ST
14.5666666666667,-3.63670921325684,-0.848764896392822,8.00674152374268,-0.228659987449646,1.82927989959717,-0.0685980021953583,-1087.5,0.300000011920929,-935.700012207031,2.70198114622211,-0.42597261001824,0.101751233103963,ST
14.6,-3.68575692176819,-1.54261076450348,8.74724292755127,0.0228659994900227,0.121951997280121,-1.18140995502472,-1094.70007324219,2.10000014305115,-947.700012207031,2.72470941558123,-0.40337296492175,0.153477915496368,ST
14.6333333333333,-3.92202353477478,-1.58388257026672,8.16106224060059,0.221037998795509,-0.137196004390717,-2.68294382095337,-1092.30004882812,1.5,-942.900024414062,2.74057894903524,-0.429373839873404,0.181725635782205,ST
14.6666666666667,-4.72293710708618,-2.03966760635376,9.21558856964111,0.472563982009888,0.571649968624115,-1.28811800479889,-1085.10009765625,1.5,-942.900024414062,2.75390309962908,-0.453989038118732,0.207038450402188,ST
14.7,-4.22408580780029,-1.85424315929413,8.42843246459961,0.297257989645004,0.190549999475479,-1.45580196380615,-1075.5,10.5,-935.700012207031,2.75954207288057,-0.45468456114037,0.214196024168104,ST
14.7333333333333,-4.23604869842529,-1.75913846492767,8.76937389373779,0.282013982534409,0.259148001670837,-0.663114011287689,-1082.70007324219,3.90000009536743,-942.900024414062,2.75592922919648,-0.446192416718736,0.202899564406803,ST
14.7666666666667,-4.09309244155884,-1.63651919364929,8.94881725311279,0.335367977619171,-0.121951997280121,0.25152599811554,-1085.10009765625,3.90000009536743,-954.900024414062,2.74896238455618,-0.429765803113136,0.186884441460976,ST
14.8,-3.34541368484497,-1.84766364097595,8.55404281616211,0.25152599811554,-0.693601965904236,0.411587983369827,-1082.70007324219,0.900000035762787,-935.700012207031,2.75526278212176,-0.383895281520896,0.204538506575148,ST
14.8333333333333,-3.00985550880432,-2.16408133506775,9.6462516784668,0.449698001146317,-1.02134799957275,-0.670735955238342,-1099.5,3.90000009536743,-935.700012207031,2.7600648670747,-0.320778854897258,0.215620326615901,ST
14.8666666666667,-3.63790559768677,-2.02172327041626,8.66350269317627,0.403965979814529,-1.15092194080353,-1.05183601379395,-1085.10009765625,6.30000019073486,-938.100036621094,2.76469804446538,-0.36624581640199,0.224932335003532,ST
14.9,-3.90108847618103,-2.06658387184143,8.40211391448975,-0.144817993044853,-0.0304879993200302,-0.937505960464478,-1085.10009765625,-2.10000014305115,-945.300048828125,2.77054199852803,-0.406029154878703,0.236838143029889,ST
14.9333333333333,-4.08711099624634,-2.09828543663025,8.45714378356934,-0.236281991004944,0.518296003341675,0.327746003866196,-1092.30004882812,2.70000004768372,-940.500061035156,2.77198127640849,-0.430379751206983,0.241624737805041,ST
14.9666666666667,-3.73540282249451,-2.095294713974,8.71793365478516,-0.114329993724823,0.0609759986400604,0.846041977405548,-1092.30004882812,-1.5,-938.100036621094,2.76886648293738,-0.405780410685063,0.23728856496853,ST
15.0,-4.41967821121216,-2.06239700317383,7.74834394454956,0.0304879993200302,0.320124000310898,0.815553963184357,-1092.30004882812,-3.30000019073486,-938.100036621094,2.77448739297731,-0.477489147673799,0.253175713687169,ST
15.0333333333333,-5.31150960922241,-1.338045835495,9.18328857421875,-0.0076219998300075,2.5076379776001,2.53050398826599,-1089.90002441406,0.900000035762787,-933.300048828125,2.7320061760665,-0.51372664541318,0.170891642389895,ST
15.0666666666667,-4.16845846176147,-1.07605922222137,9.04751014709473,0.480185985565186,0.495429992675781,2.81251788139343,-1089.90002441406,-2.70000004768372,-942.900024414062,2.70987555533043,-0.455788866190809,0.131371164184043,ST
15.1,-3.55835247039795,-0.73751026391983,7.2183895111084,0.92988395690918,-0.25152599811554,2.83538389205933,-1082.70007324219,2.70000004768372,-938.100036621094,2.69581839433078,-0.4560357271035,0.107864593466074,ST
15.1333333333333,-4.80787324905396,-0.751865744590759,8.19396018981934,0.495429992675781,1.47866797447205,2.18751406669617,-1085.10009765625,-6.30000019073486,-942.900024414062,2.68614079487414,-0.512815928170985,0.0936428581794442,ST
15.1666666666667,-4.29586267471313,-0.321202784776688,8.79449653625488,0.586893975734711,-0.6250039935112,0.983237981796265,-1080.30004882812,1.5,-938.100036621094,2.66535992077355,-0.471265993430848,0.0519174222225651,ST
15.2,-4.15828990936279,-0.614890992641449,8.3040189743042,0.87652999162674,-1.89025592803955,1.12043392658234,-1094.70007324219,-1.5,-935.700012207031,2.67026209842038,-0.463404536485296,0.065484928016202,ST
15.2333333333333,-4.38199520111084,-0.622666835784912,8.22446632385254,0.46494197845459,-1.37958192825317,0.762199997901917,-1087.5,6.90000009536743,-928.500061035156,2.67199448766823,-0.47924196321433,0.0713952021272703,ST
15.2666666666667,-4.71815156936646,-0.611900269985199,9.31129169464111,0.617381989955902,-0.274392008781433,1.47866797447205,-1080.30004882812,2.10000014305115,-942.900024414062,2.66756583772226,-0.471265054729045,0.0656618686602832,ST
15.3,-4.40053796768188,-0.544908225536346,9.13723182678223,1.27287399768829,-1.78354799747467,-0.0381099991500378,-1077.90002441406,7.50000047683716,-945.300048828125,2.66581724145633,-0.452914363639316,0.0597910021022292,ST
15.3333333333333,-3.91245317459106,-0.647190690040588,9.39204120635986,0.868907988071442,-1.35671591758728,0.525918006896973,-1104.30004882812,0.300000011920929,-938.100036621094,2.6675692857196,-0.410028920849696,0.0647470383588699,ST
15.3666666666667,-3.5852689743042,-0.440831363201141,9.4075927734375,0.350611984729767,-2.41617393493652,-0.0762199983000755,-1099.5,-6.30000019073486,-942.900024414062,2.66270343930843,-0.374733692522225,0.0516839688242415,ST
15.4,-3.15101718902588,-0.361876487731934,7.79320478439331,-0.0685980021953583,-1.60824191570282,-0.106707997620106,-1094.70007324219,-3.30000019073486,-938.100036621094,2.66137949051213,-0.37914855126151,0.0480926133525377,ST
15.4333333333333,-3.40762042999268,-0.712388277053833,9.19166278839111,-0.167683988809586,0.190549999475479,0.0457319989800453,-1106.70007324219,-0.300000011920929,-942.900024414062,2.66871469404593,-0.361870350157823,0.0688003043247193,ST
15.4666666666667,-3.66183137893677,-0.818857729434967,8.85191822052002,0.0609759986400604,-0.396344006061554,-1.17378795146942,-1094.70007324219,0.900000035762787,-945.300048828125,2.67669250935867,-0.381481536089361,0.0855950222358171,ST
15.5,-4.00995063781738,-1.16039741039276,7.64127635955811,0.282013982534409,0.823175966739655,-1.43293595314026,-1104.30004882812,-0.300000011920929,-940.500061035156,2.69808658292221,-0.451625725570563,0.131770475917214,ST
15.5333333333333,-4.14094400405884,-1.66044485569,9.09596061706543,0.221037998795509,1.95123195648193,-1.16616594791412,-1101.90002441406,-0.900000035762787,-947.700012207031,2.71539502374969,-0.432520778303463,0.166610052911457,ST
15.5666666666667,-3.93338823318481,-1.78904557228088,8.46192836761475,0.335367977619171,0.487807989120483,-3.62045001983643,-1085.10009765625,1.5,-945.300048828125,2.73465613548307,-0.428311876012814,0.198029738059287,ST
15.6,-4.23186159133911,-1.84885990619659,8.50379848480225,0.259148001670837,1.37195992469788,-3.07928800582886,-1106.70007324219,-2.10000014305115,-935.700012207031,2.74540857840007,-0.446184657178701,0.210784485173339,ST
15.6333333333333,-4.24083375930786,-2.27653217315674,8.77475738525391,0.106707997620106,1.76830399036407,-1.35671591758728,-1080.30004882812,0.900000035762787,-942.900024414062,2.76247592036324,-0.441732220411623,0.243512281639503,ST
15.6666666666667,-3.55476379394531,-2.44879722595215,8.21369934082031,-0.205793991684914,0.0457319989800453,-1.93598794937134,-1080.30004882812,1.5,-947.700012207031,2.77921500950235,-0.407328890469775,0.277341488524557,ST
15.7,-4.10984039306641,-2.2711489200592,8.65094184875488,0.114329993724823,0.0,-0.87652999162674,-1085.10009765625,4.5,-945.300048828125,2.77496483018249,-0.42342896120175,0.263305872067163,ST
15.7333333333333,-4.28808689117432,-2.24483060836792,8.89498424530029,0.221037998795509,-0.663114011287689,0.480185985565186,-1097.10009765625,1.5,-942.900024414062,2.76874258392416,-0.43312483377635,0.250587567845838,ST
15.7666666666667,-3.50751042366028,-2.13596844673157,8.69460582733154,0.640248000621796,-1.41769194602966,0.975615978240967,-1094.70007324219,5.10000038146973,-942.900024414062,2.76383427602603,-0.389975204482237,0.24231621863648,ST
15.8,-5.08301877975464,-1.94815170764923,8.77894401550293,0.182927995920181,1.04421401023865,2.22562384605408,-1080.30004882812,0.900000035762787,-945.300048828125,2.75345085417554,-0.478876063256887,0.224645713960242,ST
15.8333333333333,-3.88134980201721,-2.04385447502136,9.50927734375,-0.0,-0.205793991684914,1.34147191047668,-1070.70007324219,1.5,-940.500061035156,2.74707942255384,-0.40967735844222,0.214732022408875,ST
15.8666666666667,-3.54399704933167,-1.51150727272034,8.21011066436768,-0.0457319989800453,-1.265251994133,1.43293595314026,-1080.30004882812,0.900000035762787,-947.700012207031,2.7348022703688,-0.402690226476494,0.190604108773443,ST
15.9,-4.04284811019897,-1.7304276227951,9.1922607421875,-0.0914639979600906,0.556405961513519,1.57013201713562,-1092.30004882812,6.30000019073486,-942.900024414062,2.73095457857666,-0.407408272455359,0.186794297638276,ST
15.9333333333333,-3.50392150878906,-1.65147268772125,9.25267314910889,0.106707997620106,-1.28049600124359,1.265251994133,-1092.30004882812,11.7000007629395,-938.100036621094,2.72562862135604,-0.37080002579482,0.178783779476872,ST
15.9666666666667,-3.2287757396698,-1.00966536998749,7.76269960403442,0.556405961513519,-1.19665396213531,1.40244793891907,-1075.5,-0.300000011920929,-930.900024414062,2.71020421538205,-0.384001640352572,0.142865301787625,ST
16.0,-5.40840864181519,-1.1777435541153,8.03605079650879,0.3125019967556,2.0731840133667,2.81251788139343,-1085.10009765625,0.300000011920929,-942.900024414062,2.70623007140312,-0.53437698554018,0.142729950825099,ST
16.0333333333333,-4.81863975524902,-0.807493031024933,9.1569709777832,0.327746003866196,2.0655620098114,3.30032587051392,-1085.10009765625,4.5,-938.100036621094,2.68162092476827,-0.501453538349784,0.101559145542603,ST
16.0666666666667,-4.93767023086548,-0.577207982540131,8.83397388458252,0.99848198890686,1.34909391403198,2.85824990272522,-1073.10009765625,3.30000019073486,-938.100036621094,2.66456623215138,-0.508573355336124,0.0731198171053443,ST
16.1,-5.03038215637207,-0.153722748160362,8.36502933502197,1.31098401546478,1.37195992469788,1.96647596359253,-1075.5,0.900000035762787,-940.500061035156,2.64243097913611,-0.533427792481494,0.0321142084634198,ST
16.1333333333333,-3.76830077171326,-0.605918824672699,9.6223258972168,1.36433792114258,-0.0685980021953583,0.967993974685669,-1082.70007324219,5.70000028610229,-933.300048828125,2.65163201142307,-0.41298813285529,0.0532232548929009,ST
16.1666666666667,-3.44231271743774,0.127404451370239,7.16515445709229,1.63872992992401,-2.43903994560242,-0.304879993200302,-1073.10009765625,3.90000009536743,-945.300048828125,2.63135424825294,-0.435361117536419,6.35727095666339e-05,ST
16.2,-3.12828779220581,-0.0149535741657019,7.03176879882812,1.31098401546478,-0.541162014007568,0.411587983369827,-1085.10009765625,12.9000005722046,-938.100036621094,2.63149450481137,-0.42297192632184,-0.0003168440266852,ST
16.2333333333333,-4.56024217605591,-0.479710668325424,8.54686450958252,0.487807989120483,-0.37347799539566,-0.182927995920181,-1082.70007324219,-5.70000028610229,-938.100036621094,2.64874377926884,-0.469155210599544,0.0381381338186664,ST
16.2666666666667,-4.49564266204834,-0.648985147476196,9.66957950592041,-0.0914639979600906,-0.480185985565186,0.160062000155449,-1089.90002441406,2.10000014305115,-938.100036621094,2.65734074272085,-0.444279287246757,0.0584367687144501,ST
16.3,-5.7361912727356,-0.797324597835541,9.6701774597168,-0.0914639979600906,0.221037998795509,0.198172003030777,-1077.90002441406,-3.90000009536743,-945.300048828125,2.6645000613315,-0.507228533803806,0.074805768965245,ST
16.3333333333333,-4.51956844329834,-1.02103006839752,9.91541576385498,0.777444005012512,-0.167683988809586,-0.640248000621796,-1068.30004882812,-0.900000035762787,-935.700012207031,2.67508548073412,-0.448926293265801,0.0942956821377561,ST
16.3666666666667,-3.57031536102295,-0.66034984588623,8.75262641906738,1.12043392658234,-1.51677799224854,-1.60061991214752,-1080.30004882812,-2.10000014305115,-928.500061035156,2.67241962001054,-0.403162453844152,0.0803435419851413,ST
16.4,-3.42855548858643,-0.406139075756073,7.45286130905151,1.20427596569061,-0.46494197845459,-0.777444005012512,-1070.70007324219,1.5,-928.500061035156,2.66676300687557,-0.421745230989133,0.0612313132113429,ST
16.4333333333333,-4.09668111801147,-0.88285905122757,7.37271022796631,0.243903994560242,1.81403601169586,-0.190549999475479,-1080.30004882812,-0.300000011920929,-933.300048828125,2.68488341152498,-0.481687929092901,0.101071052162674,ST
16.4666666666667,-3.39565753936768,-1.76811063289642,8.61804389953613,-0.304879993200302,0.525918006896973,-1.02897000312805,-1080.30004882812,-3.90000009536743,-933.300048828125,2.71812329730405,-0.402022571206483,0.175305950736348,ST
16.5,-4.45437049865723,-1.88833737373352,8.50559329986572,-0.426831990480423,-0.67835795879364,-1.41006994247437,-1087.5,0.300000011920929,-933.300048828125,2.73266155473241,-0.450292723609033,0.206368942017432,ST
16.5333333333333,-4.37182712554932,-2.53074288368225,8.48764896392822,-0.106707997620106,0.480185985565186,-1.18140995502472,-1068.30004882812,-2.70000004768372,-940.500061035156,2.76153583202681,-0.456823051795124,0.267675842505225,ST
16.5666666666667,-5.52026128768921,-2.48707842826843,9.26463603973389,0.182927995920181,1.32622802257538,-1.73019397258759,-1070.70007324219,1.5,-930.900024414062,2.76377859085259,-0.506106262465464,0.264890633256736,ST
16.6,-4.05720376968384,-2.2131290435791,8.51097679138184,1.59299790859222,-0.899396002292633,-0.419209986925125,-1075.5,-2.10000014305115,-940.500061035156,2.76106157043882,-0.453300097061609,0.255677463934209,ST
16.6333333333333,-3.84845185279846,-1.91944074630737,7.22317457199097,2.84300589561462,0.236281991004944,0.731711983680725,-1065.90002441406,-2.70000004768372,-928.500061035156,2.76177121947797,-0.469339859190869,0.254627895513268,ST
16.6666666666667,-4.97834396362305,-1.40144896507263,9.91661262512207,2.45428395271301,0.914639949798584,1.21951997280121,-1073.10009765625,-6.30000019073486,-935.700012207031,2.72309287305863,-0.465572851651736,0.167899864586748,ST
16.7,-3.06488466262817,-1.61558413505554,7.96487188339233,2.9268479347229,-1.89787793159485,0.967993974685669,-1068.30004882812,3.30000019073486,-933.300048828125,2.73092609993654,-0.390253461341387,0.186541920837482,ST
16.7333333333333,-4.91912794113159,-1.10417187213898,9.74135684967041,2.84300589561462,-0.632625997066498,0.289635986089706,-1063.5,-6.30000019073486,-938.100036621094,2.71017270121208,-0.442083310159683,0.13194056976597,ST
16.7666666666667,-4.4322395324707,-1.21482837200165,8.16405296325684,1.92836594581604,-0.67835795879364,-0.259148001670837,-1073.10009765625,-9.30000019073486,-940.500061035156,2.71574410922715,-0.476687768081241,0.140604574885402,ST
16.8,-4.53332567214966,-1.04914271831512,10.1253643035889,1.50915598869324,-0.830797970294952,-0.190549999475479,-1063.5,-2.70000004768372,-938.100036621094,2.70464610314345,-0.435361791755483,0.11247753524046,ST
16.8333333333333,-4.29885339736938,-0.866111040115356,7.47319841384888,0.762199997901917,-0.579271972179413,-0.533540010452271,-1085.10009765625,3.90000009536743,-942.900024414062,2.70676763855695,-0.497328608739649,0.113931070180334,ST
16.8666666666667,-3.96688413619995,-0.397166937589645,8.88361930847168,-0.411587983369827,1.15092194080353,0.655492007732391,-1075.5,-3.30000019073486,-945.300048828125,2.68343613671552,-0.444709962038615,0.0650505882415416,ST
16.9,-3.79521703720093,-0.45937380194664,7.38407516479492,0.708845973014832,-0.182927995920181,1.15854394435883,-1075.5,-0.300000011920929,-930.900024414062,2.68057427450335,-0.465041729602798,0.0614482501955039,ST
16.9333333333333,-3.63072776794434,-0.10527316480875,9.64206504821777,0.983237981796265,1.37195992469788,1.87501192092896,-1080.30004882812,-2.70000004768372,-942.900024414062,2.66262797361297,-0.393590242241023,0.0233930139766574,ST
16.9666666666667,-4.17204713821411,-0.211742609739304,6.45097208023071,1.11281192302704,-0.571649968624115,0.205793991684914,-1075.5,-6.90000009536743,-950.100036621094,2.66530990801504,-0.52104507493438,0.0282417028365844,ST
17.0,-4.2922739982605,-0.262584775686264,8.37041282653809,-0.0533539988100529,1.6844619512558,0.0838419944047928,-1080.30004882812,-6.30000019073486,-940.500061035156,2.66629742491093,-0.489951694907552,0.0304783395839434,ST
17.0333333333333,-5.64766597747803,-0.391185492277145,9.3477783203125,1.05945801734924,1.01372599601746,-0.92988395690918,-1082.70007324219,-2.10000014305115,-930.900024414062,2.67258555738251,-0.530423095199918,0.0380959347006628,ST
17.0666666666667,-5.07763576507568,-0.386400371789932,8.82500171661377,1.52439999580383,1.01372599601746,0.403965979814529,-1061.10009765625,-5.70000028610229,-938.100036621094,2.67438345693831,-0.525399965653991,0.0400146475079762,ST
17.1,-5.5657205581665,-0.375633776187897,9.1749153137207,2.0579400062561,-1.50915598869324,-0.533540010452271,-1070.70007324219,-2.70000004768372,-938.100036621094,2.67610396331736,-0.537171403092187,0.03846456529974,ST
17.1333333333333,-3.73241209983826,0.0903195887804031,7.80935478210449,2.00458598136902,-1.39482593536377,-0.518296003341675,-1065.90002441406,-11.1000003814697,-933.300048828125,2.66035670334347,-0.471736998285124,0.0008378140612792,ST
17.1666666666667,-4.91434288024902,0.172863319516182,7.64606142044067,1.2500079870224,-0.800309956073761,0.0228659994900227,-1063.5,-11.7000007629395,-930.900024414062,2.6528075861275,-0.540232481919258,-0.016819387104795,ST
17.2,-4.05481100082397,-0.212340757250786,8.08091163635254,0.754577994346619,-2.81251788139343,0.106707997620106,-1075.5,0.900000035762787,-938.100036621094,2.66776445077503,-0.484265979852364,0.0126777924016034,ST
17.2333333333333,-4.34311628341675,-0.120226740837097,8.63718414306641,-0.846041977405548,-1.21951997280121,0.0228659994900227,-1063.5,-5.10000038146973,-921.300048828125,2.66789252639313,-0.469920140285417,0.0145517757487899,ST
17.2666666666667,-5.44549369812012,-0.587974548339844,10.0332498550415,-1.57775402069092,-2.11129403114319,0.937505960464478,-1070.70007324219,-9.30000019073486,-938.100036621094,2.67978226833672,-0.486086170022968,0.0464329323979237,ST
17.3,-3.2168128490448,-0.875083148479462,8.96915340423584,-2.33233189582825,-2.87349390983582,1.41769194602966,-1085.10009765625,-9.90000057220459,-930.900024414062,2.69161041901617,-0.382798829706963,0.0845194384002158,ST
17.3333333333333,-2.71437287330627,-1.1035737991333,7.31110143661499,-2.29422187805176,-2.5152599811554,0.426831990480423,-1094.70007324219,-1.5,-950.100036621094,2.70722524730981,-0.356965816471774,0.135419838224177,ST
17.3666666666667,-2.94944310188293,-1.7986159324646,7.4391040802002,-1.77592599391937,0.426831990480423,0.0533539988100529,-1080.30004882812,-1.5,-938.100036621094,2.73206960230369,-0.365511424730424,0.208636557939542,ST
17.4,-3.68515872955322,-1.71487593650818,8.93625640869141,-1.82165801525116,0.853663980960846,-0.670735955238342,-1073.10009765625,0.300000011920929,-942.900024414062,2.72838181839229,-0.379878384706917,0.197981284621105,ST
17.4333333333333,-5.54239273071289,-2.17424964904785,7.90505743026733,-0.922261953353882,1.79117000102997,-0.403965979814529,-1070.70007324219,-2.10000014305115,-930.900024414062,2.75055369480903,-0.531688741655927,0.246968618612848,ST
17.4666666666667,-5.10694456100464,-2.31421518325806,12.4952068328857,-0.830797970294952,0.655492007732391,0.0990860015153885,-1087.5,-2.70000004768372,-938.100036621094,2.72868941374351,-0.424365160156481,0.200824910660995,ST
17.5,-4.45795965194702,-1.74119424819946,9.15517616271973,0.754577994346619,-4.00917196273804,0.152439996600151,-1092.30004882812,2.70000004768372,-940.500061035156,2.72310287548693,-0.435444361219048,0.189832890388588,ST
17.5333333333333,-3.64448523521423,-1.51689052581787,7.84883213043213,0.815553963184357,-0.411587983369827,0.99848198890686,-1092.30004882812,0.300000011920929,-942.900024414062,2.72156789012434,-0.429487501746716,0.188951250417706,ST
17.5666666666667,-3.06129574775696,-1.10118126869202,9.19644832611084,0.800309956073761,-0.46494197845459,1.30336201190948,-1080.30004882812,-0.900000035762787,-940.500061035156,2.70010966184288,-0.350850554644018,0.136948535105571,ST
17.6,-2.81067371368408,-0.631040811538696,7.54617166519165,0.739333987236023,-0.647870004177094,2.13416004180908,-1092.30004882812,-1.5,-940.500061035156,2.68342896943366,-0.353664843411844,0.0976577135311232,ST
17.6333333333333,-5.43113803863525,-0.894223749637604,9.29215145111084,0.510673999786377,1.6844619512558,2.46952795982361,-1077.90002441406,2.70000004768372,-926.100036621094,2.67848004732385,-0.483772537821471,0.0943747328420222,ST
