seconds,sensor_accX_m_s_,sensor_accY_m_s_,sensor_accZ_m_s_,sensor_gyroX___s_,sensor_gyroY___s_,sensor_gyroZ___s_,sensor_magX__T_,sensor_magY__T_,sensor_magZ__T_,sensor_yaw___,sensor_pitch___,sensor_roll___,label5
0.0,0.54610455,-1.003085732,9.706066132,0.228659987,0.541162014,0.327746004,-1265.100098,2.700000048,-921.3000488,2.187522694,0.054909724,0.102607526,ST
0.033333333,0.459971935,-1.240548491,9.707262039,0.42683199,0.121951997,0.53354001,-1265.100098,1.5,-930.9000244,1.762796016,0.631805392,1.162326633,ST
0.066666667,0.404344648,-1.203463674,9.721617699,0.556405962,0.167683989,0.670735955,-1269.900024,6.300000191,-918.9000244,2.147698362,0.080654628,0.17566374,ST
0.1,0.239257187,-1.094003439,9.779637337,0.61738199,0.045731999,0.785066009,-1253.100098,-0.300000012,-926.1000366,2.14470884,0.024107128,0.110392103,ST
0.133333333,0.337352633,-0.999496877,9.673766136,0.388722003,-0.487807989,0.480185986,-1257.900024,8.100000381,-926.1000366,2.140390043,0.035432585,0.102311405,ST
0.166666667,0.411522359,-1.038376212,9.677354813,0.388722003,-0.609759986,0.304879993,-1257.900024,-1.5,-921.3000488,2.136253412,0.043258194,0.106239976,ST
0.2,0.449803501,-1.009067178,9.670775414,0.42683199,-0.594515979,0.312501997,-1267.5,-0.300000012,-916.500061,2.13346784,0.047197988,0.103255503,ST
0.233333333,0.665733099,-1.118527412,9.681542397,0.388722003,-0.548784018,0.221037999,-1265.100098,5.700000286,-926.1000366,2.131604967,0.067916,0.113768239,ST
0.266666667,0.56943208,-1.032992959,9.820311546,0.472563982,-0.396344006,-0.053353999,-1269.900024,5.100000381,-930.9000244,2.132110862,0.058883634,0.104571181,ST
0.3,0.583189368,-0.987534046,9.706664085,0.678357959,-0.236281991,0.053353999,-1257.900024,3.300000191,-921.3000488,2.131880788,0.060028776,0.100477109,ST
0.333333333,0.64719069,-0.995908022,9.713243484,0.564027965,-0.121951997,0.198172003,-1267.5,3.900000095,-918.9000244,2.130849554,0.065978487,0.101168617,ST
0.366666667,0.640611112,-0.964206457,9.809544563,0.564027965,-0.274392009,0.251525998,-1269.900024,-0.300000012,-916.500061,2.129840148,0.065373154,0.097276337,ST
0.4,0.674705267,-0.952243626,9.831676483,0.609759986,-0.449698001,0.129574001,-1267.5,1.5,-923.7000122,2.129092911,0.068742365,0.095616838,ST
0.433333333,0.540721238,-0.877475739,9.639074326,0.602137983,-0.42683199,-0.152439997,-1253.100098,1.5,-921.3000488,2.129757026,0.057237603,0.090042051,ST
0.466666667,0.538328648,-0.912766159,9.593615532,0.525918007,-0.068598002,-0.129574001,-1260.300049,0.900000036,-933.3000488,2.129924647,0.056021737,0.093692144,ST
0.5,0.468944103,-0.884653449,9.695299149,0.42683199,0.243903995,-0.114329994,-1265.100098,5.100000381,-916.500061,2.13055415,0.048227912,0.090446348,ST
0.533333333,0.410924226,-0.876877606,9.657616615,0.434453994,0.358233988,0.160062,-1274.700073,3.300000191,-923.7000122,2.129991595,0.042097287,0.089838752,ST
0.566666667,0.379222631,-0.876877606,9.722215652,0.381099999,0.29725799,0.304879993,-1262.700073,3.900000095,-918.9000244,2.128834392,0.038496585,0.089336014,ST
0.6,0.40015766,-0.845774174,9.690514565,0.464941978,0.251525998,0.40396598,-1269.900024,-2.100000143,-926.1000366,2.127340839,0.040487227,0.086458769,ST
0.633333333,0.443223953,-0.896018147,9.770665169,0.236281991,0.007622,0.114329994,-1260.300049,3.300000191,-921.3000488,2.126643615,0.044859057,0.090795228,ST
0.666666667,0.385204077,-0.803904176,9.638475418,0.365855992,-0.205793992,0.099086002,-1269.900024,0.300000012,-916.500061,2.126441704,0.040434704,0.083080561,ST
0.7,0.456383079,-0.802707851,9.649840355,0.381099999,-0.121951997,0.030487999,-1255.5,2.100000143,-916.500061,2.126227357,0.046967701,0.082367341,ST
0.733333333,0.39776507,-0.788950562,9.697093964,0.335367978,0.022865999,0.022865999,-1257.900024,-1.5,-928.500061,2.126157773,0.041190832,0.080704213,ST
0.766666667,0.401952088,-0.799118996,9.712645531,0.335367978,0.053353999,0.198172003,-1260.300049,2.700000048,-918.9000244,2.12524147,0.04110518,0.081479802,ST
0.8,0.379820794,-0.826633573,9.777244568,0.282013983,0.015244,0.373477995,-1265.100098,8.100000381,-928.500061,2.123612031,0.038760484,0.083733857,ST
0.833333333,0.436644375,-0.874485016,9.729393959,0.29725799,-0.015244,0.503051996,-1245.900024,0.900000036,-928.500061,2.121325758,0.044263386,0.08883026,ST
0.866666667,0.345726639,-0.846372306,9.752122879,0.312501997,-0.137196004,0.525918007,-1260.300049,3.300000191,-923.7000122,2.119221962,0.035996304,0.086228919,ST
0.9,0.399559498,-0.912766159,9.695897102,0.320124,-0.266770005,0.693601966,-1262.700073,1.5,-933.3000488,2.116033471,0.041032597,0.092922488,ST
0.933333333,0.400755793,-0.925327182,9.715636253,0.350611985,-0.396344006,0.670735955,-1255.5,0.300000012,-926.1000366,2.112725346,0.041595243,0.094335875,ST
0.966666667,0.396568775,-0.925925314,9.697691917,0.487807989,-0.762199998,0.449698001,-1269.900024,6.900000095,-926.1000366,2.110548716,0.0419153,0.094374514,ST
1.0,0.377428204,-0.983347058,9.743150711,0.625003994,-1.028970003,0.251525998,-1272.300049,0.300000012,-916.500061,2.108646324,0.040331826,0.099317944,ST
1.033333333,0.351708055,-0.873288751,9.528417587,0.640248001,-0.975615978,-0.022865999,-1267.5,-2.700000048,-930.9000244,2.108602816,0.038554765,0.090830249,ST
1.066666667,0.489280939,-0.805100441,9.743150711,0.556405962,-0.716467977,0.144817993,-1262.700073,0.900000036,-921.3000488,2.108062886,0.050462552,0.082057557,ST
1.1,0.564048827,-0.79792273,9.691112518,0.518296003,-0.792688012,0.228659987,-1253.100098,2.700000048,-916.500061,2.106809181,0.058753109,0.0813224,ST
1.133333333,0.616087258,-0.778782129,9.664196014,0.396344006,-0.556405962,0.282013983,-1267.5,-5.700000286,-918.9000244,2.105489395,0.064045382,0.079849736,ST
1.166666667,0.614890993,-0.763828576,9.866368294,0.373477995,-0.381099999,0.289635986,-1253.100098,2.100000143,-923.7000122,2.104303598,0.062763038,0.076840568,ST
1.2,0.766221166,-0.837998331,9.620531082,0.510674,-0.40396598,0.350611985,-1269.900024,-0.900000036,-921.3000488,2.102003499,0.078795165,0.085487216,ST
1.233333333,0.611302137,-0.738706589,9.709056854,0.213415995,-0.350611985,0.182927996,-1265.100098,3.900000095,-928.500061,2.101739161,0.064129787,0.076129245,ST
1.266666667,0.726145566,-0.837998331,9.721617699,0.365855992,-0.320124,0.419209987,-1279.5,3.300000191,-918.9000244,2.099186359,0.074196186,0.084898601,ST
1.3,0.780576587,-0.849363029,9.753917694,0.464941978,-0.602137983,0.221037999,-1272.300049,5.100000381,-926.1000366,2.097862133,0.080184707,0.086014264,ST
1.333333333,0.701621711,-0.791343153,9.731785774,0.602137983,-0.518296003,0.449698001,-1269.900024,3.300000191,-928.500061,2.093810952,0.072576357,0.08014969,ST
1.366666667,0.775193274,-0.850559294,9.683935165,0.503051996,-0.525918007,0.495429993,-1272.300049,-9.900000572,-923.7000122,2.087171249,0.080413528,0.08680504,ST
1.4,0.726145566,-0.967795312,9.626512527,0.571649969,-0.442075998,0.243903995,-1274.700073,1.5,-926.1000366,2.084937141,0.075929855,0.098485352,ST
1.433333333,0.53653425,-0.967795312,9.677354813,0.556405962,-0.449698001,0.030487999,-1272.300049,-2.100000143,-918.9000244,2.084479176,0.057101644,0.098698381,ST
1.466666667,0.476719946,-0.966000915,9.680345535,0.586893976,-0.541162014,-0.114329994,-1265.100098,3.300000191,-914.1000366,2.08461141,0.050358252,0.098447242,ST
1.5,0.399559498,-0.811680019,9.758104324,0.625003994,-0.792688012,-0.182927996,-1274.700073,0.300000012,-921.3000488,2.085671466,0.042683848,0.082892611,ST
1.533333333,0.146545023,-0.416905642,9.503893852,0.571649969,-1.036592007,-0.251525998,-1274.700073,2.700000048,-916.500061,2.087585206,0.018480826,0.044796774,ST
1.566666667,-0.312828779,0.303856641,9.342394829,0.121951997,-0.967993975,-0.114329994,-1284.300049,-1.5,-926.1000366,2.08770508,-0.029789488,-0.029659288,ST
1.6,-0.057421725,0.815867007,9.481761932,-0.312501997,-1.440557957,0.579271972,-1262.700073,-6.300000191,-921.3000488,2.084577198,-0.004488577,-0.083104002,ST
1.633333333,-0.187816888,1.385897279,9.95967865,0.007622,-2.972579956,0.632625997,-1284.300049,-10.5,-914.1000366,2.082979963,-0.012849828,-0.134934181,ST
1.666666667,-0.008972145,1.748371959,10.00154877,0.152439997,-3.879597902,1.067080021,-1274.700073,-2.100000143,-923.7000122,2.08095149,0.005173064,-0.17144372,ST
1.7,0.425279647,1.731623888,9.497912407,-0.144817993,-4.230209827,1.326228023,-1293.900024,-8.100000381,-909.3000488,2.078919943,0.048879199,-0.179522754,ST
1.733333333,0.839792728,1.41221559,9.678551674,-1.150921941,-3.506119967,1.318606019,-1303.5,0.300000012,-918.9000244,2.073447591,0.090345749,-0.144213911,ST
1.766666667,1.247128129,1.236959696,9.465014458,-2.23324585,-2.560992002,1.455801964,-1298.700073,-1.5,-902.1000366,2.06816019,0.131991423,-0.12692637,ST
1.8,1.378121376,1.014450431,9.627111435,-2.698187828,-1.814036012,1.394825935,-1301.100098,0.300000012,-909.3000488,2.061457454,0.144041552,-0.101612322,ST
1.833333333,1.007870913,1.18851006,9.960276604,-2.49239397,-1.189031959,1.318606019,-1303.5,0.300000012,-906.9000244,2.059290591,0.104730816,-0.113508278,ST
1.866666667,0.849363029,1.156210423,9.756908417,-2.179892063,-1.692083955,2.721053839,-1301.100098,9.300000191,-921.3000488,2.049226808,0.090366903,-0.113733287,ST
1.9,0.338548928,0.702817976,10.47408199,-2.378063917,-3.071666002,3.727157831,-1301.100098,2.700000048,-909.3000488,2.031849195,0.040618284,-0.065057219,ST
1.933333333,0.354698777,0.31761393,10.85151005,-1.63872993,-4.001549721,4.413137913,-1315.5,-1.5,-902.1000366,2.012492477,0.03993362,-0.028005821,ST
1.966666667,0.701023579,0.113647163,8.644960403,-0.746955991,-3.757645845,5.137228012,-1320.300049,6.300000191,-906.9000244,1.991307714,0.084713667,-0.012173016,ST
2.0,1.613191605,-2.149127722,8.021695137,-1.112811923,-2.17227006,6.272905827,-1334.700073,7.500000477,-899.7000122,1.930277131,0.186993405,0.248447289,ST
2.033333333,2.324981689,-3.570913553,8.656923294,-2.652456045,-1.692083955,3.971061945,-1334.700073,8.700000763,-906.9000244,1.884022869,0.24114776,0.391012639,ST
2.066666667,3.216812849,-5.044139862,9.231140137,-3.971061945,-3.246971846,1.692083955,-1334.700073,15.90000057,-899.7000122,1.84716622,0.297192059,0.502104201,ST
2.1,3.605605841,-5.635703087,8.661708832,-3.780511856,-3.711913824,1.059458017,-1339.5,14.10000038,-899.7000122,1.816105554,0.338062998,0.581072616,ST
2.133333333,3.053519964,-5.683554649,9.252673149,-3.010689974,-2.964957952,1.265251994,-1341.900024,20.70000076,-894.9000244,1.815909095,0.280307388,0.558581155,ST
2.166666667,2.956620693,-4.980138302,8.438601494,-1.577754021,-1.890255928,2.035073996,-1332.300049,14.70000076,-892.500061,1.812622782,0.293310603,0.538494589,ST
2.2,2.957817078,-4.437622547,8.504995346,-0.838419974,-0.838419974,2.782029867,-1341.900024,21.30000114,-890.1000366,1.81760532,0.297804994,0.487209014,ST
2.233333333,3.056510687,-4.016530037,8.198147774,-0.350611985,-0.754577994,2.995445967,-1341.900024,13.50000095,-899.7000122,1.814850605,0.320466404,0.459695868,ST
2.266666667,2.819047928,-3.71386981,8.27710247,-0.525918007,-0.503051996,1.974097967,-1346.700073,20.10000038,-892.500061,1.817515636,0.301431075,0.425184058,ST
2.3,2.601323843,-3.916640282,8.374599457,-0.663114011,-0.632625997,2.19513607,-1334.700073,17.10000038,-897.3000488,1.804835479,0.27487655,0.439106618,ST
2.333333333,2.173053503,-4.002174854,8.624025345,-1.257629991,-0.525918007,2.08842802,-1341.900024,21.90000153,-899.7000122,1.797714163,0.226479435,0.437640766,ST
2.366666667,2.134174109,-3.932191849,8.448171616,-1.310984015,-0.29725799,2.698187828,-1344.300049,29.10000038,-878.1000366,1.788247268,0.223770224,0.438866634,ST
2.4,2.336346388,-4.356275082,8.223867416,-1.455801964,0.038109999,3.239349842,-1356.300049,27.90000153,-882.9000244,1.76670945,0.24223067,0.488039937,ST
2.433333333,2.353692532,-4.529736519,8.308205605,-1.478667974,0.785066009,2.218001842,-1339.5,20.10000038,-894.9000244,1.758732711,0.240818375,0.501544186,ST
2.466666667,2.637810469,-4.754638672,8.134744644,-0.967993975,1.95885396,1.288118005,-1346.700073,26.70000076,-894.9000244,1.752281269,0.267177071,0.528905304,ST
2.5,2.38180542,-4.550073624,8.82559967,-0.632625997,3.285081863,-0.708845973,-1332.300049,24.90000153,-890.1000366,1.773744613,0.233144293,0.479381657,ST
2.533333333,2.100678205,-4.381995201,8.674269676,0.945127964,3.864353895,-1.250007987,-1332.300049,27.90000153,-899.7000122,1.787494729,0.209226022,0.465831409,ST
2.566666667,1.868000507,-4.522559166,8.519948959,1.295740008,3.285081863,-1.189031959,-1329.900024,29.70000076,-899.7000122,1.793085393,0.188510377,0.483713438,ST
2.6,1.743586779,-4.471118927,9.262842178,1.173787951,2.248489857,-0.891773999,-1329.900024,25.50000191,-902.1000366,1.805486627,0.166501235,0.449337811,ST
2.633333333,1.778279066,-3.938771486,9.328638077,1.013725996,1.143299937,-0.861285985,-1317.900024,26.70000076,-902.1000366,1.817996869,0.172244688,0.400526999,ST
2.666666667,1.790241957,-3.652859211,9.780235291,1.166165948,0.259148002,0.350611985,-1325.100098,25.50000191,-894.9000244,1.823457747,0.169339259,0.357691788,ST
2.7,1.335055113,-3.317898989,10.21867466,1.600619912,0.221037999,0.40396598,-1332.300049,22.5,-894.9000244,1.827733337,0.125843814,0.314035361,ST
2.733333333,1.277035236,-3.068473339,9.338806152,2.149404049,0.975615978,0.960371971,-1310.700073,17.10000038,-904.500061,1.823998843,0.126993047,0.313852664,ST
2.766666667,1.010861635,-2.768205643,8.891395569,2.393307924,2.218001842,0.693601966,-1315.5,18.30000114,-909.3000488,1.824639276,0.105193725,0.29844157,ST
2.8,1.205258131,-2.95123744,8.439797401,2.500015974,2.568614006,0.510674,-1320.300049,23.10000038,-916.500061,1.821011082,0.128276744,0.330296361,ST
2.833333333,0.375035644,-3.465042114,9.183288574,2.004585981,1.440557957,-0.91463995,-1305.900024,21.90000153,-899.7000122,1.82412443,0.04043009,0.356019922,ST
2.866666667,-0.105273165,-3.347806215,8.459535599,2.019829988,0.586893976,-0.762199998,-1317.900024,22.5,-911.7000122,1.82750574,-0.008863269,0.372264015,ST
2.9,-0.058019869,-3.314908266,8.875245094,1.913121939,0.282013983,0.030487999,-1303.5,17.70000076,-914.1000366,1.827718359,-0.006740925,0.355216787,ST
2.933333333,-0.130993307,-2.941068888,9.533203125,2.111294031,0.609759986,1.013725996,-1308.300049,17.10000038,-911.7000122,1.824028533,-0.014251111,0.298793696,ST
2.966666667,0.123815596,-3.615774155,10.45075417,3.079288006,-0.030487999,1.646351933,-1320.300049,20.70000076,-906.9000244,1.816965251,0.009363843,0.326594782,ST
3.0,0.217125893,-3.72284174,9.198242188,3.00306797,0.259148002,-0.053353999,-1291.5,26.70000076,-904.500061,1.816590782,0.020751552,0.376132671,ST
3.033333333,-0.085534446,-3.453079462,9.116894722,2.439039946,1.227141976,-0.907018006,-1315.5,18.30000114,-916.500061,1.821857211,-0.008341432,0.358923423,ST
3.066666667,-0.079553016,-3.671999693,8.963171959,2.218001842,1.585376024,-0.228659987,-1313.100098,14.10000038,-918.9000244,1.825370827,-0.010497095,0.3833835,ST
3.1,-0.130993307,-3.59125042,9.265832901,2.271355867,1.699705958,-0.571649969,-1310.700073,14.10000038,-914.1000366,1.829924607,-0.01527908,0.366883427,ST
3.133333333,-0.06459944,-3.502725124,9.314282417,2.507637978,1.097568035,0.137196004,-1289.100098,6.900000095,-916.500061,1.830948122,-0.008788637,0.356027487,ST
3.166666667,-0.266173631,-2.919535875,10.03803539,2.675322056,1.356715918,1.661595941,-1284.300049,1.5,-926.1000366,1.825143914,-0.027377542,0.283024825,ST
3.2,-0.155517176,-2.581585169,10.17979527,3.269837856,1.34147191,2.743919849,-1284.300049,7.500000477,-914.1000366,1.815249179,-0.018817498,0.245021733,ST
3.233333333,-0.306249201,-2.141351938,10.15886021,3.292703867,1.516777992,3.117398024,-1284.300049,12.90000057,-923.7000122,1.803639189,-0.032347766,0.204466676,ST
3.266666667,-0.057421725,-1.549190283,11.11828136,2.347575903,1.951231956,3.818621874,-1296.300049,9.300000191,-933.3000488,1.788472577,-0.010859504,0.13850803,ST
3.3,0.323595345,-1.028207779,10.47886658,2.240867853,1.486289978,3.704291821,-1281.900024,3.900000095,-923.7000122,1.773622545,0.025607832,0.096202949,ST
3.333333333,-0.672312677,0.275145769,9.932762146,1.8292799,3.262215853,2.522881985,-1274.700073,12.90000057,-923.7000122,1.761467011,-0.067248345,-0.023371311,ST
3.366666667,-0.984543324,0.968991637,9.331029892,2.332331896,4.72563982,2.59910202,-1257.900024,11.70000076,-928.500061,1.743509649,-0.109646856,-0.102950833,ST
3.4,-1.063498259,1.554573536,8.444582939,2.698187828,3.91770792,0.342989981,-1255.5,9.900000572,-935.7000122,1.731700057,-0.128655394,-0.181886493,ST
3.433333333,-0.995908022,1.269259334,9.338806152,2.248489857,2.637212038,-0.548784018,-1255.5,6.900000095,-926.1000366,1.738113084,-0.111115475,-0.141567209,ST
3.466666667,-2.171258926,1.394869447,8.935059547,2.964957952,2.652456045,-2.23324585,-1253.100098,5.700000286,-930.9000244,1.744636394,-0.232909101,-0.158289511,ST
3.5,-1.295577645,0.838596463,8.89318943,3.292703867,1.897877932,-1.669217944,-1241.100098,6.900000095,-923.7000122,1.763332097,-0.152851045,-0.102855465,ST
3.533333333,-1.482796431,0.940280735,8.04681778,2.240867853,1.524399996,-1.996963978,-1253.100098,5.100000381,-930.9000244,1.769438874,-0.182173925,-0.118647447,ST
3.566666667,-1.172958374,0.547898948,9.375292778,0.647870004,0.91463995,-1.333850026,-1248.300049,5.100000381,-928.500061,1.784316692,-0.128231716,-0.061529798,ST
3.6,-1.423580289,0.375035644,10.05059624,0.769822001,0.137196004,-1.189031959,-1245.900024,6.900000095,-926.1000366,1.792366002,-0.140170006,-0.03976247,ST
3.633333333,-0.918747604,-0.782969177,10.05418491,-0.998481989,0.160062,-0.72408998,-1233.900024,5.100000381,-933.3000488,1.807958763,-0.094093493,0.072370565,ST
3.666666667,-1.089816451,-1.530647874,10.86646366,-1.882633924,-0.274392009,-1.440557957,-1233.900024,3.300000191,-935.7000122,1.819248087,-0.097953976,0.139143325,ST
3.7,-1.823139787,-1.874580026,11.67455482,-1.349093914,-0.099086002,-1.608241916,-1238.700073,2.700000048,-930.9000244,1.827477201,-0.14907194,0.160564698,ST
3.733333333,-0.643003702,-1.817158341,10.6738615,0.205793992,0.106707998,-1.303362012,-1241.100098,3.900000095,-940.500061,1.833572452,-0.064587598,0.167973901,ST
3.766666667,-1.018039346,-1.610200882,9.304712296,0.289635986,0.861285985,-1.989341974,-1241.100098,4.5,-933.3000488,1.842393766,-0.105634836,0.171018676,ST
3.8,-1.384701014,-1.19329524,8.699391365,-0.274392009,1.737815976,-0.800309956,-1253.100098,5.100000381,-938.1000366,1.842285653,-0.155967219,0.139142957,ST
3.833333333,-1.08024621,-0.53892684,8.143118858,0.106707998,2.446661949,0.29725799,-1241.100098,0.300000012,-930.9000244,1.832040767,-0.137143442,0.0702938,ST
3.866666667,-1.013852358,-0.413316786,8.105435371,0.213415995,2.126538038,1.592997909,-1248.300049,2.100000143,-935.7000122,1.823795183,-0.128681175,0.051450836,ST
3.9,-0.89422375,-0.301464051,8.413478851,0.625003994,0.884151995,1.166165948,-1243.5,0.900000036,-930.9000244,1.817680971,-0.108726576,0.035527137,ST
3.933333333,-1.18133235,-0.500645638,9.612157822,-0.129574001,1.714949965,1.028970003,-1229.100098,0.900000036,-945.3000488,1.815619703,-0.124202529,0.051059294,ST
3.966666667,-1.539620042,-1.163388133,9.164746284,-1.067080021,0.373477995,0.289635986,-1238.700073,0.900000036,-933.3000488,1.824342569,-0.163341319,0.123358464,ST
4.0,-2.060004473,-1.378719568,11.37907219,-1.707327962,0.762199998,0.442075998,-1214.700073,9.300000191,-938.1000366,1.821568288,-0.178538779,0.123444148,ST
4.033333333,-1.553377271,-0.836802006,10.71573162,-0.625003994,-1.34147191,1.356715918,-1243.5,-0.300000012,-942.9000244,1.808298027,-0.14343719,0.081068352,ST
4.066666667,-1.251315117,-0.194994614,9.509875298,0.221037999,-1.417691946,1.615863919,-1233.900024,9.900000572,-945.3000488,1.793873783,-0.129345794,0.023442041,ST
4.1,-0.93190676,-0.639414847,8.801075935,0.160062,0.076219998,1.394825935,-1224.300049,6.300000191,-938.1000366,1.793761106,-0.106955338,0.069043257,ST
4.133333333,-0.678294122,-1.399056435,9.603783607,-2.126538038,0.274392009,0.190549999,-1231.5,8.700000763,-933.3000488,1.799079976,-0.072536395,0.143550611,ST
4.166666667,-0.998300612,-0.85654074,10.82040596,-2.073184013,-1.966475964,-0.167683989,-1219.5,8.700000763,-945.3000488,1.793646624,-0.087333157,0.086315095,ST
4.2,-0.288304925,-0.794333875,10.30719948,0.373477995,-1.242385983,0.381099999,-1221.900024,8.100000381,-942.9000244,1.791238741,-0.029503982,0.076840198,ST
4.233333333,-1.016244888,-0.657957256,9.134839058,1.120433927,1.516777992,-1.036592007,-1219.5,7.500000477,-930.9000244,1.795762386,-0.107952418,0.070546543,ST
4.266666667,-2.656352997,-0.618479848,9.529613495,0.381099999,4.100636005,-0.80793196,-1219.5,3.900000095,-947.7000122,1.799835436,-0.271602679,0.064861573,ST
4.3,-2.723345041,-0.818857729,8.598304749,0.221037999,2.850627899,0.274392009,-1217.100098,6.900000095,-942.9000244,1.80797705,-0.308323194,0.092917457,ST
4.333333333,-2.981144667,-0.327782363,10.08409214,0.022865999,3.163130045,0.198172003,-1226.700073,5.100000381,-930.9000244,1.791065587,-0.293801362,0.036050174,ST
4.366666667,-2.393170118,-0.412120521,8.816029549,0.579271972,2.347575903,-0.175305992,-1209.900024,10.5,-940.500061,1.795330368,-0.270385666,0.045252698,ST
4.4,-2.643193722,-0.06998273,8.594716072,0.274392009,2.888737917,-0.655492008,-1197.900024,13.50000095,-935.7000122,1.788631286,-0.301763585,0.00986989,ST
4.433333333,-2.417095661,-0.325987905,8.906349182,-0.289635986,2.637212038,-0.853663981,-1202.700073,4.5,-940.500061,1.799234541,-0.271359249,0.035893939,ST
4.466666667,-2.650969744,-0.632237136,8.954200745,-0.899396002,2.17227006,-1.577754021,-1178.700073,5.700000286,-947.7000122,1.814437454,-0.289595237,0.070689593,ST
4.5,-2.556463003,-1.162789941,9.034351349,-1.371959925,1.493911982,-2.103672028,-1185.900024,3.900000095,-947.7000122,1.837583109,-0.276633359,0.127851905,ST
4.533333333,-2.26397109,-2.018732548,8.789113045,-1.516777992,0.83079797,-2.515259981,-1190.700073,10.5,-945.3000488,1.871068338,-0.248384495,0.223458422,ST
4.566666667,-2.941068888,-2.722746849,8.117398262,-2.240867853,0.907018006,-3.429899931,-1185.900024,7.500000477,-938.1000366,1.910331855,-0.325648236,0.322935438,ST
4.6,-3.727627039,-3.05232358,9.396227837,-2.850627899,0.792688012,-2.926847935,-1178.700073,12.30000019,-950.1000366,1.91731399,-0.35838492,0.32115246,ST
4.633333333,-3.734206676,-3.161783695,9.255663872,-1.676839948,-0.266770005,-1.006103992,-1185.900024,9.300000191,-952.500061,1.92201325,-0.36337819,0.331977844,ST
4.666666667,-3.917836428,-2.730522633,9.620531082,-0.655492008,0.29725799,-0.266770005,-1176.300049,10.5,-947.7000122,1.904064666,-0.373162243,0.281210613,ST
4.7,-3.524258375,-2.410516262,9.558922768,0.510674,0.0,0.556405962,-1176.300049,8.700000763,-945.3000488,1.890825937,-0.345037819,0.247507011,ST
4.733333333,-3.164774418,-1.499544382,7.988199234,1.272873998,0.411587983,-0.190549999,-1183.5,7.500000477,-947.7000122,1.872561343,-0.370525483,0.187036685,ST
4.766666667,-2.095294714,-1.702913046,8.623427391,1.844523907,0.121951997,-0.144817993,-1185.900024,6.900000095,-954.9000244,1.876936291,-0.240186111,0.19163604,ST
4.8,-3.348404408,-1.248324394,8.830384254,1.402447939,-0.548784018,-3.399411917,-1176.300049,4.5,-935.7000122,1.877429336,-0.350945564,0.142920899,ST
4.833333333,-2.999088764,-1.51808691,8.808851242,0.945127964,-1.989341974,-2.416173935,-1171.5,14.70000076,-942.9000244,1.895020198,-0.321509529,0.168578867,ST
4.866666667,-3.198270559,-1.524666429,8.438002586,0.129574001,-1.028970003,-1.608241916,-1181.100098,6.900000095,-940.500061,1.903900147,-0.352730356,0.178756324,ST
4.9,-3.896303415,-1.542610765,8.955994606,-0.579271972,0.320124,-0.457319975,-1178.700073,3.300000191,-942.9000244,1.902564947,-0.402248364,0.172374477,ST
4.933333333,-3.666018248,-2.092902184,10.01470757,-0.449698001,1.12805593,1.112811923,-1183.5,10.5,-950.1000366,1.910316145,-0.349784698,0.204230559,ST
4.966666667,-4.041652203,-1.763923645,10.4818573,0.137196004,2.141782045,1.280496001,-1164.300049,8.100000381,-930.9000244,1.894067805,-0.366657892,0.167573324,ST
5.0,-2.410516262,-1.869794965,9.529015541,0.548784018,1.227141976,0.030487999,-1171.5,9.900000572,-940.500061,1.902885788,-0.25139518,0.191703809,ST
5.033333333,-2.211932659,-1.604817629,10.22884274,1.676839948,1.265251994,-1.349093914,-1178.700073,6.300000191,-940.500061,1.902493903,-0.214197745,0.155160925,ST
5.066666667,-2.220306635,-0.954038024,9.646849632,1.8292799,0.785066009,-1.676839948,-1169.100098,3.900000095,-945.3000488,1.898926206,-0.225495373,0.099667763,ST
5.1,-1.357186437,-1.152621508,9.779039383,2.149404049,0.373477995,-0.777444005,-1159.5,9.300000191,-954.9000244,1.906084278,-0.142814452,0.112961486,ST
5.133333333,-1.025815248,-1.281222224,9.208411217,0.525918007,0.967993975,-1.059458017,-1181.100098,1.5,-942.9000244,1.913994714,-0.113236954,0.136088463,ST
5.166666667,-1.394271255,-1.447505951,10.4160614,0.099086002,2.568614006,-0.144817993,-1152.300049,11.10000038,-947.7000122,1.916439179,-0.135209737,0.137941308,ST
5.2,-1.092807174,-1.829719305,10.61883259,0.190549999,2.835383892,0.129574001,-1173.900024,8.700000763,-940.500061,1.921486827,-0.107769213,0.168410265,ST
5.233333333,-2.613884687,-2.63601613,10.57397175,0.121951997,3.902463913,-0.510674,-1149.900024,2.700000048,-942.9000244,1.939570221,-0.235264249,0.24080279,ST
5.266666667,-3.468032837,-2.927311659,10.17800045,-0.228659987,5.175337791,0.853663981,-1140.300049,5.700000286,-940.500061,1.951644788,-0.320089352,0.278299407,ST
5.3,-3.369339466,-3.075651169,8.927882195,-0.464941978,6.341504097,3.018311977,-1133.100098,6.300000191,-954.9000244,1.964125011,-0.35281597,0.328774647,ST
5.333333333,-3.062491894,-2.602519989,8.691017151,-0.198172003,5.914671898,3.589962006,-1118.700073,9.300000191,-950.1000366,1.945348947,-0.338218219,0.292541116,ST
5.366666667,-3.975258112,-2.217315912,7.746549606,0.891773999,5.983269691,3.589962006,-1113.900024,8.700000763,-964.500061,1.934064982,-0.462085689,0.276776539,ST
5.4,-4.892809391,-0.979758203,7.391252518,2.667700052,6.676871777,2.324709892,-1111.5,1.5,-945.3000488,1.865000236,-0.585219907,0.135351164,ST
5.433333333,-4.497437,-0.470140368,6.456953526,3.300325871,4.885701656,1.135677934,-1097.100098,8.100000381,-942.9000244,1.833561088,-0.613995614,0.070237109,ST
5.466666667,-5.007054806,-0.062206868,5.995785236,2.972579956,4.192100048,-0.556405962,-1087.5,0.900000036,-952.500061,1.806511538,-0.697670241,0.010141529,ST
5.5,-6.992889404,-0.431261092,7.229156017,1.44817996,3.887219906,-0.685979962,-1075.5,3.300000191,-947.7000122,1.844125255,-0.770864867,0.05599086,NLR
5.533333333,-6.072945595,-0.151928321,7.55873251,1.592997909,2.378063917,-0.038109999,-1075.5,2.100000143,-945.3000488,1.824506578,-0.686346821,0.019614647,NLR
5.566666667,-6.679462433,-0.664536834,6.939056396,0.792688012,1.76830399,0.160062,-1082.700073,6.900000095,-930.9000244,1.872694183,-0.76234282,0.089192199,NLR
5.6,-6.788922787,-0.537132382,8.55045414,0.190549999,1.463423967,0.083841994,-1070.700073,-1.5,-933.3000488,1.856617838,-0.678102316,0.063900262,NLR
5.633333333,-5.462839603,-0.615489125,7.265044689,0.472563982,-1.463423967,0.228659987,-1061.100098,3.300000191,-928.500061,1.867864391,-0.642792748,0.082094389,NLR
5.666666667,-5.687143326,-0.68008858,7.556938171,0.342989981,-0.708845973,-0.129574001,-1068.300049,5.700000286,-940.500061,1.872933818,-0.642008348,0.088807465,NLR
5.7,-4.23365593,-0.58139497,7.720829487,-0.022865999,-3.323191881,-1.394825935,-1068.300049,4.5,-935.7000122,1.870381558,-0.503358411,0.076984603,NLR
5.733333333,-4.955614567,-0.640611112,6.270332813,-0.358233988,-2.461905956,-1.486289978,-1082.700073,8.700000763,-942.9000244,1.88764415,-0.652092181,0.102163648,NLR
5.766666667,-4.518372059,-0.824839175,8.317177773,-0.076219998,-0.800309956,-2.149404049,-1070.700073,3.300000191,-938.1000366,1.893984221,-0.503442868,0.101053385,NLR
5.8,-4.021315098,-1.846467376,7.614958286,1.714949965,-1.661595941,-5.053385735,-1092.300049,4.5,-940.500061,1.97737144,-0.471127184,0.232955725,NLR
5.833333333,-4.813256264,-2.247821331,8.521144867,3.010689974,-0.091463998,-7.408583641,-1077.900024,-5.700000286,-938.1000366,2.02105523,-0.49510747,0.257873774,NLR
5.866666667,-4.440015316,-1.880561471,8.203531265,6.211929798,-0.952749968,-9.786647797,-1082.700073,6.900000095,-947.7000122,2.050470716,-0.48084839,0.225146959,NLR
5.9,-6.464729309,-1.708894491,8.84414196,7.804927826,0.632625997,-9.512255669,-1082.700073,9.300000191,-938.1000366,2.087185944,-0.614813664,0.19006127,NLR
5.933333333,-6.076534271,-1.32488668,9.970445633,9.771403313,-0.152439997,-7.271388054,-1073.100098,-1.5,-928.500061,2.099232278,-0.545514562,0.126425633,NLR
5.966666667,-5.512485504,-0.477318078,8.431423187,10.75464153,-1.897877932,-6.356747627,-1068.300049,-9.300000191,-928.500061,2.10385336,-0.572779599,0.049259703,NLR
6.0,-4.334144115,0.28710863,10.05657768,9.725671768,-0.388722003,-4.458869934,-1073.100098,-9.900000572,-928.500061,2.098488273,-0.414548437,-0.037624347,NLR
6.033333333,-3.710280895,0.599339247,9.137829781,11.14336395,0.434453994,-5.693634033,-1073.100098,-14.70000076,-918.9000244,2.121019502,-0.38813918,-0.078225707,NLR
6.066666667,-3.693532944,0.512010396,10.11998081,11.10525417,1.707327962,-8.109807968,-1061.100098,-24.30000114,-918.9000244,2.177296364,-0.354865313,-0.065178127,NLR
6.1,-3.713271618,0.867905438,7.437309742,13.86441803,0.998481989,-10.4268961,-1056.300049,-17.70000076,-916.500061,2.213092264,-0.457548778,-0.127827492,NLR
6.133333333,-4.120606899,1.128695846,8.259158134,11.12811947,3.048799992,-9.84000206,-1041.900024,-16.5,-906.9000244,2.263370898,-0.466407634,-0.146202024,NLR
6.166666667,-4.335340023,1.283016682,8.10782814,10.7622633,1.935987949,-10.03055191,-1039.5,-26.70000076,-894.9000244,2.308789917,-0.490500605,-0.16559963,NLR
6.2,-5.538205624,0.74827683,8.068948746,8.849142075,1.951231956,-9.504633904,-1025.100098,-29.70000076,-882.9000244,2.399311367,-0.600235789,-0.100145735,NLR
6.233333333,-5.865988255,1.417598844,8.590529442,8.673835754,0.80793196,-7.416205883,-1003.500061,-26.10000038,-892.500061,2.406019418,-0.596543485,-0.16590297,NLR
6.266666667,-5.923409939,1.135873556,8.05878067,7.964989662,-0.038109999,-5.929915905,-1010.700012,-33.30000305,-887.7000122,2.454287731,-0.628595496,-0.147784542,NLR
6.3,-4.923314571,1.728633165,8.064163208,7.073215961,-0.907018006,-4.039659977,-1003.500061,-27.90000153,-870.9000244,2.446674153,-0.54360066,-0.214862456,NLR
6.333333333,-4.649365425,1.216622829,6.763800621,5.594547749,-0.72408998,-5.228692055,-1008.300049,-29.10000038,-882.9000244,2.494536807,-0.592467937,-0.183544256,NLR
6.366666667,-4.59134531,2.220904827,7.949320316,4.679907799,-1.692083955,-3.285081863,-986.7000122,-30.30000114,-868.500061,2.470483286,-0.511590983,-0.271546166,NLR
6.4,-3.145633936,0.629246414,6.533515453,3.902463913,-2.690565825,-4.283564091,-998.7000122,-32.10000229,-868.500061,2.569466794,-0.447844969,-0.109060093,NLR
6.433333333,-5.001671314,0.865512908,8.936854362,2.759163857,-1.989341974,-4.740883827,-1001.100037,-31.50000191,-861.3000488,2.597484664,-0.502106104,-0.09753327,NLR
6.466666667,-3.979445219,0.35290435,8.676063538,2.865871906,-3.361301899,-4.161612034,-993.9000244,-29.10000038,-854.1000366,2.644744932,-0.427340344,-0.044246741,NLR
6.5,-4.441809654,0.557469249,9.144410133,2.461905956,-2.888737917,-3.40703392,-981.9000244,-33.30000305,-868.500061,2.654821064,-0.445582274,-0.061127635,NLR
6.533333333,-4.380799294,0.558665514,10.00154877,2.660078049,-2.454283953,-2.042695999,-993.9000244,-27.90000153,-858.9000244,2.668938802,-0.41003784,-0.058873351,NLR
6.566666667,-4.186402798,0.989328504,9.491333008,3.125020027,-2.004585981,-1.623485923,-984.3000488,-35.70000076,-849.3000488,2.662216178,-0.410216883,-0.104955962,NLR
6.6,-2.889030457,0.946262181,8.887207985,2.637212038,-1.387203932,-0.952749968,-977.1000366,-32.70000076,-863.7000122,2.668560684,-0.315875523,-0.109741699,NLR
6.633333333,-4.731310844,1.336251378,9.683935165,1.913121939,-0.922261953,-0.442075998,-979.500061,-41.10000229,-863.7000122,2.663117856,-0.441149013,-0.138131529,NLR
6.666666667,-2.526556015,1.420589566,7.884122372,1.097568035,-0.952749968,-0.129574001,-991.500061,-36.30000305,-856.500061,2.651268271,-0.309343672,-0.178459509,NLR
6.7,-5.008849144,1.693940878,9.310095787,-0.022865999,-0.495429993,2.911603928,-991.500061,-39.90000153,-851.7000122,2.639002812,-0.476387613,-0.182172606,NLR
6.733333333,-2.970377922,1.083835006,8.064163208,-2.06556201,-0.861285985,3.483253956,-991.500061,-31.50000191,-858.9000244,2.641393899,-0.353363015,-0.134369521,NLR
6.766666667,-6.730304718,1.639509916,9.512268066,-5.686011791,-0.647870004,5.373509884,-1001.100037,-29.70000076,-851.7000122,2.595190122,-0.595042262,-0.164779752,NLR
6.8,-6.056197643,2.543303967,8.574977875,-8.056453705,-1.356715918,8.521395683,-1008.300049,-38.10000229,-858.9000244,2.487950556,-0.589734137,-0.276247946,NLR
6.833333333,-5.886324883,1.606013894,8.280691147,-12.74398327,-1.966475964,13.77295399,-1017.900024,-32.70000076,-890.1000366,2.463762761,-0.600403186,-0.190499702,NLR
6.866666667,-2.039069414,0.679490387,8.513368607,-13.84155178,-3.971061945,19.53518486,-1034.700073,-25.50000191,-892.500061,2.413733719,-0.241159028,-0.070708322,NLR
6.9,-2.392571926,0.156115308,7.984012604,-14.15405369,-2.477149963,15.13729191,-1049.100098,-27.90000153,-894.9000244,2.356648111,-0.283606091,-0.006441099,NLR
6.933333333,-3.503921509,-1.085629463,9.052893639,-14.23789597,-1.882633924,15.8004055,-1061.100098,-21.90000153,-906.9000244,2.319030394,-0.361557983,0.125444997,NLR
6.966666667,-3.293375254,-0.765024841,10.34607887,-13.55191612,-1.905499935,13.66624546,-1077.900024,-28.50000191,-909.3000488,2.237495512,-0.309768661,0.091603895,NLR
7.0,-2.022919416,-0.46116823,10.09246635,-9.298839569,-2.789651871,13.14795017,-1089.900024,-19.5,-926.1000366,2.168012975,-0.201211758,0.058720711,NLR
7.033333333,-2.2520082,-0.973178625,10.12177563,-8.04883194,-2.126538038,11.34153557,-1094.700073,-15.30000019,-928.500061,2.124993494,-0.215245083,0.10273663,NLR
7.066666667,-0.620274246,-0.049645867,10.49920368,-4.946677685,-3.048799992,8.64334774,-1101.900024,-13.50000095,-935.7000122,2.075478272,-0.063965306,0.017381514,NLR
7.1,-2.673100948,-1.119723678,8.712550163,-4.458869934,-0.167683989,5.510705948,-1109.100098,-8.700000763,-942.9000244,2.068863597,-0.282023974,0.125799193,NLR
7.133333333,-2.083332062,-0.189611316,10.31856441,-3.201239824,-0.42683199,3.193617821,-1111.5,-6.900000095,-921.3000488,2.029901417,-0.203842428,0.028828577,NLR
7.166666667,-3.360965252,-1.391878724,9.204223633,-2.408551931,-0.42683199,4.794238091,-1118.700073,-11.10000038,-942.9000244,2.037679021,-0.341272481,0.146387509,NLR
7.2,-2.484087706,-0.809287429,9.805357933,-1.928365946,-0.815553963,1.661595941,-1135.5,-6.300000191,-933.3000488,2.011825951,-0.251983234,0.088496118,NLR
7.233333333,-2.568425894,-0.888840437,8.237027168,-2.324709892,-1.387203932,2.705809832,-1116.300049,-14.10000038,-940.500061,2.00373962,-0.295880491,0.108757747,NLR
7.266666667,-3.914247513,-1.754353285,8.623427391,-3.414655924,1.097568035,2.500015974,-1116.300049,-6.300000191,-933.3000488,2.021580491,-0.41365964,0.198915303,NLR
7.3,-4.240235329,-1.140060544,9.679149628,-2.987823963,0.663114011,1.63872993,-1121.100098,2.700000048,-945.3000488,1.981330255,-0.412093398,0.125496755,NLR
7.333333333,-3.048136473,-1.04495573,9.363329887,-1.036592007,-2.17227006,3.285081863,-1130.700073,-1.5,-950.1000366,1.960274137,-0.314276614,0.111486695,NLR
7.366666667,-3.157596827,-0.866709173,8.636586189,-0.556405962,-1.753059983,3.125020027,-1128.300049,5.100000381,-947.7000122,1.943190074,-0.344462527,0.099727785,NLR
7.4,-3.572707891,0.018542431,9.398022652,-0.160062,-1.615863919,2.271355867,-1130.700073,-4.5,-938.1000366,1.899807048,-0.359825743,0.001890497,NLR
7.433333333,-3.128287792,-0.311632484,8.979920387,0.114329994,-0.381099999,3.10977602,-1130.700073,5.100000381,-938.1000366,1.897071022,-0.335636394,0.031237755,NLR
7.466666667,-4.011146545,-0.537730515,9.101343155,0.083841994,0.792688012,1.753059983,-1135.5,-8.700000763,-940.500061,1.899815365,-0.411141328,0.055942079,NLR
7.5,-4.009950638,0.14833945,8.985303879,0.495429993,0.708845973,0.015244,-1125.900024,1.5,-933.3000488,1.872602976,-0.420461862,-0.013379172,NLR
7.533333333,-3.307132483,-0.279930919,9.448266029,0.647870004,0.701223969,0.251525998,-1142.700073,-8.700000763,-938.1000366,1.887438143,-0.341865313,0.026357907,ST
7.566666667,-2.940470934,0.212340757,9.005640984,0.373477995,0.381099999,-0.449698001,-1123.5,2.700000048,-938.1000366,1.874245233,-0.317343556,-0.021778655,ST
7.6,-2.862712145,0.315819502,7.916422367,0.243903995,0.320124,-0.396344006,-1116.300049,5.100000381,-938.1000366,1.870452615,-0.345500508,-0.038942533,ST
7.633333333,-3.355581999,-0.479710668,9.409386635,-0.785066009,1.547266006,-1.105189919,-1111.5,-3.900000095,-935.7000122,1.903731637,-0.344865473,0.048992037,ST
7.666666667,-4.667309761,-0.794333875,8.577968597,-0.53354001,1.181409955,-1.524399996,-1123.5,-0.300000012,-938.1000366,1.926111664,-0.489003709,0.091709003,ST
7.7,-3.783254385,-1.44032824,10.11220551,-0.411587983,0.221037999,-2.629590034,-1125.900024,1.5,-940.500061,1.955604573,-0.362697418,0.141008847,ST
7.733333333,-4.282105446,-1.298568368,9.022388458,-0.457319975,-0.625003994,-2.46952796,-1116.300049,-2.700000048,-945.3000488,1.965272654,-0.43292804,0.145315162,ST
7.766666667,-2.795720339,-1.025217056,9.799974442,-0.556405962,-1.158543944,-1.173787951,-1116.300049,-5.100000381,-942.9000244,1.955340931,-0.283887345,0.108022835,ST
7.8,-2.030097246,-0.257201463,7.493535042,-0.266770005,-1.135677934,-0.083841994,-1125.900024,5.700000286,-942.9000244,1.936245856,-0.263519981,0.038360458,ST
7.833333333,-3.056510687,-0.383409649,9.643260956,-0.472563982,1.76830399,0.205793992,-1121.100098,-1.5,-945.3000488,1.935739816,-0.307004987,0.040359589,ST
7.866666667,-2.869291782,-0.090917729,7.714250088,0.632625997,0.205793992,-0.099086002,-1116.300049,-2.100000143,-950.1000366,1.927962299,-0.3534339,0.012566696,ST
7.9,-4.15171051,-0.023925718,10.51116657,0.060975999,1.410069942,-0.335367978,-1111.5,-2.100000143,-940.500061,1.925957136,-0.377255531,0.002961295,ST
7.933333333,-2.296270847,-0.572422802,9.02777195,0.327746004,-2.57623601,0.716467977,-1128.300049,3.300000191,-945.3000488,1.940552912,-0.252280158,0.058854461,ST
7.966666667,-3.287992001,-1.129892111,8.09586525,-1.463423967,-0.480185986,-1.364337921,-1123.5,0.900000036,-940.500061,1.968480501,-0.375630476,0.13822227,ST
8.0,-3.63850379,-1.707100034,8.679652214,-2.286599874,-0.038109999,-0.548784018,-1113.900024,1.5,-950.1000366,1.988171012,-0.389141133,0.194887745,ST
8.033333333,-2.610296011,-2.472124815,8.007340431,-2.416173935,-0.243903995,-0.29725799,-1118.700073,-0.900000036,-945.3000488,2.020765652,-0.306851423,0.297341925,ST
8.066666667,-4.062587261,-2.726933718,9.549352646,-1.516777992,1.257629991,-0.228659987,-1121.100098,3.900000095,-945.3000488,2.015667134,-0.385251517,0.282226072,ST
8.1,-3.530838013,-2.808879375,9.585241318,-0.602137983,0.121951997,-0.655492008,-1123.5,6.900000095,-938.1000366,2.018877407,-0.341904614,0.286320985,ST
8.133333333,-2.946452379,-2.735905886,8.598903656,0.335367978,-2.103672028,-1.364337921,-1113.900024,-1.5,-947.7000122,2.028680309,-0.312897107,0.306791558,ST
8.166666667,-2.463750839,-2.845964193,8.195157051,0.586893976,-1.135677934,-0.586893976,-1118.700073,3.900000095,-945.3000488,2.037675551,-0.276025924,0.332280705,ST
8.2,-5.1021595,-2.600127459,8.996069908,-0.091463998,1.051836014,-0.038109999,-1121.100098,3.900000095,-945.3000488,2.021092099,-0.486972238,0.285243179,ST
8.233333333,-2.504424572,-2.640202999,10.02667046,1.059458017,-1.653973937,1.509155989,-1106.700073,3.900000095,-947.7000122,2.004883009,-0.250306313,0.256402363,ST
8.266666667,-2.433245659,-3.15580225,4.388575077,1.387203932,0.586893976,1.989341974,-1118.700073,2.100000143,-935.7000122,2.116517691,-0.418991636,0.602337778,ST
8.3,-8.20173645,-1.275838971,13.12385464,-2.225623846,7.309497833,-2.210379839,-1116.300049,4.5,-950.1000366,1.903522028,-0.563178515,0.13716757,ST
8.333333333,-0.259594053,-3.06428647,8.656923294,2.484771967,-6.493943691,5.251557827,-1118.700073,-0.300000012,-945.3000488,1.938040082,-0.055043634,0.323278914,ST
8.366666667,-3.252103329,-1.698726058,15.71082306,1.608241916,-0.457319975,3.399411917,-1116.300049,-2.100000143,-950.1000366,1.899457468,-0.194324851,0.117529757,ST
8.4,1.558760524,-2.69941926,7.921805382,3.894841909,-7.446693897,3.368923903,-1121.100098,7.500000477,-938.1000366,1.88093349,0.170676246,0.309779512,ST
8.433333333,-3.951332569,-1.573714137,6.9659729,0.221037999,3.307947874,-1.257629991,-1121.100098,-3.300000191,-942.9000244,1.875765272,-0.466579232,0.230403897,ST
8.466666667,-3.279618025,-2.388983011,7.525236607,-0.457319975,0.190549999,3.399411917,-1116.300049,-5.100000381,-942.9000244,1.892986415,-0.400101949,0.30135836,ST
8.5,-4.517175674,-2.03787303,7.906851768,-1.394825935,4.504601955,3.940573931,-1123.5,1.5,-940.500061,1.860881897,-0.507784013,0.255323726,ST
8.533333333,-0.894821882,-1.197482228,8.256167412,-0.556405962,1.12805593,4.070147991,-1113.900024,4.5,-945.3000488,1.811743045,-0.134698474,0.149804275,ST
8.566666667,-3.244327545,-1.372738123,4.143934727,0.625003994,-0.434453994,3.567095995,-1109.100098,2.700000048,-947.7000122,1.856586853,-0.608478953,0.301393667,ST
8.6,-7.418169022,-2.146735191,11.80435181,-1.250007987,8.437553406,6.143332005,-1118.700073,2.100000143,-940.500061,1.774724321,-0.572835327,0.184237348,ST
8.633333333,-9.255663872,-1.741194248,13.57664871,0.42683199,-0.983237982,4.359784126,-1104.300049,0.900000036,-950.1000366,1.727035702,-0.592874021,0.124695607,ST
8.666666667,-6.060982704,-1.0730685,14.18137169,0.685979962,-3.460387945,5.762231827,-1099.5,-2.700000048,-942.9000244,1.681527717,-0.409477045,0.072488222,ST
8.7,1.291390657,0.598142982,4.189991474,1.814036012,-9.573231697,0.396344006,-1130.700073,-2.100000143,-938.1000366,1.665895849,0.265635411,-0.131028489,ST
8.733333333,0.116039738,-0.14594689,5.093785763,0.205793992,-1.23476398,1.04421401,-1137.900024,0.300000012,-942.9000244,1.638776971,0.03976886,0.018968793,ST
8.766666667,-1.409224868,0.02213129,6.428242683,-1.631107926,5.74698782,1.821658015,-1121.100098,1.5,-950.1000366,1.62839481,-0.214053833,-0.000252875,ST
8.8,-2.664726973,-0.169872597,5.970663071,-1.440557957,2.820139885,2.126538038,-1125.900024,0.900000036,-938.1000366,1.626974814,-0.413053166,0.027719734,ST
8.833333333,-5.172740459,-1.32967186,9.077417374,-2.461905956,2.972579956,3.582340002,-1113.900024,10.5,-945.3000488,1.660571324,-0.513020812,0.139120633,ST
8.866666667,-5.616562366,-1.869196773,11.23731232,-2.713431835,-0.213415995,2.225623846,-1113.900024,7.500000477,-947.7000122,1.66008181,-0.461637687,0.165897647,ST
8.9,-6.844550133,-1.638911724,11.18766594,-2.957335949,-0.884151995,1.935987949,-1118.700073,6.300000191,-947.7000122,1.639253787,-0.538375392,0.149667639,ST
8.933333333,-5.056102753,-1.921235204,10.92089462,-3.338435888,-0.960371971,1.532021999,-1104.300049,14.70000076,-947.7000122,1.639583471,-0.432713312,0.177021143,ST
8.966666667,-2.962003946,-1.399056435,9.059473038,-2.713431835,-1.227141976,1.42531395,-1113.900024,6.300000191,-945.3000488,1.622411447,-0.317468652,0.157991629,ST
9.0,-3.447695971,-0.725547433,6.604694843,-1.890255928,1.577754021,2.568614006,-1113.900024,9.900000572,-945.3000488,1.593134174,-0.472934536,0.113487016,ST
9.033333333,-2.920732021,-1.22380054,7.597611904,-1.181409955,2.225623846,2.76678586,-1106.700073,5.100000381,-942.9000244,1.599631879,-0.371975935,0.15811884,ST
9.066666667,-2.844768047,-1.021030068,7.143023491,-0.609759986,0.838419974,-0.259148002,-1118.700073,11.70000076,-947.7000122,1.595072238,-0.376626497,0.144201841,ST
9.1,-3.457864523,-1.536629319,8.079715729,-0.846041977,0.609759986,-0.61738199,-1104.300049,9.300000191,-940.500061,1.612792975,-0.397651255,0.187418722,ST
9.133333333,-4.164271355,-1.72265172,9.819114685,-0.960371971,1.387203932,-0.442075998,-1101.900024,12.30000019,-950.1000366,1.609622583,-0.397920268,0.176544226,ST
9.166666667,-4.554858685,-1.872785687,9.400414467,-0.487807989,-0.381099999,-1.23476398,-1099.5,11.10000038,-942.9000244,1.621672586,-0.440353216,0.197328642,ST
9.2,-3.759328604,-2.135370493,9.499108315,0.007622,0.419209987,-0.388722003,-1099.5,6.900000095,-938.1000366,1.632407007,-0.373384127,0.220015553,ST
9.233333333,-3.363358021,-2.254400969,9.739562035,-0.335367978,0.579271972,-0.487807989,-1104.300049,8.100000381,-950.1000366,1.637031261,-0.327955598,0.22796128,ST
9.266666667,-3.611587286,-1.817158341,7.4085989,-0.746955991,-1.219519973,-1.112811923,-1101.900024,12.90000057,-942.9000244,1.643903334,-0.432864296,0.24153193,ST
9.3,-4.751049519,-1.955329418,7.91941309,-1.661595941,1.006103992,-0.099086002,-1101.900024,9.900000572,-947.7000122,1.643498406,-0.524339082,0.245121096,ST
9.333333333,-3.861611128,-1.677790999,7.601799011,-2.522881985,-2.111294031,-0.091463998,-1094.700073,11.70000076,-945.3000488,1.626746402,-0.460955588,0.222664617,ST
9.366666667,-4.312610626,-1.847663641,7.838663578,-2.919225931,-0.960371971,2.332331896,-1099.5,11.70000076,-947.7000122,1.617405113,-0.489128524,0.233583952,ST
9.4,-4.922118664,-1.709492564,8.269925117,-2.888737917,-1.455801964,3.231727839,-1099.5,15.30000019,-935.7000122,1.586664894,-0.524177499,0.207178728,ST
9.433333333,-2.938676357,-2.367449999,7.976236343,-2.736297846,-2.865871906,4.375028133,-1109.100098,19.5,-938.1000366,1.597023943,-0.348238331,0.285195228,ST
9.466666667,-4.163673401,-2.267560005,7.25068903,-3.689047813,-2.347575903,2.881115913,-1109.100098,15.30000019,-947.7000122,1.586273121,-0.48978217,0.305141905,ST
9.5,-5.081822872,-2.94405961,7.872159481,-4.695151806,-0.381099999,3.993927956,-1111.5,22.5,-940.500061,1.589582564,-0.542239962,0.358528434,ST
9.533333333,-2.673100948,-3.881947994,8.728700638,-4.054903984,-1.250007987,2.36281991,-1113.900024,17.10000038,-942.9000244,1.597922312,-0.285910742,0.421009594,ST
9.566666667,-3.649270296,-3.349600554,7.279399872,-3.750023842,-2.736297846,-0.716467977,-1113.900024,19.5,-942.9000244,1.595736926,-0.415021638,0.436565475,ST
9.6,-5.156590462,-3.88314414,8.725111961,-3.246971846,-2.149404049,1.760681987,-1123.5,28.50000191,-940.500061,1.558063171,-0.492906501,0.42207904,ST
9.633333333,-3.948341846,-4.032680035,7.469011307,-3.689047813,-4.542711735,4.275941849,-1121.100098,24.30000114,-947.7000122,1.56169313,-0.435593366,0.492201248,ST
9.666666667,-4.091298103,-4.731909275,7.67178154,-3.094532013,-2.49239397,5.594547749,-1123.5,24.90000153,-928.500061,1.556103746,-0.427807016,0.550560055,ST
9.7,-3.966884136,-4.374817848,8.903956413,-3.81099987,-3.582340002,4.847591877,-1118.700073,22.5,-940.500061,1.494031681,-0.381782955,0.464482803,ST
9.733333333,-4.216907978,-3.872377634,7.89309454,-3.178373814,-3.460387945,4.862835884,-1133.100098,31.50000191,-928.500061,1.464209112,-0.441709838,0.457375684,ST
9.766666667,-3.316702843,-4.183412075,8.41168499,-2.629590034,-2.400929928,6.295772076,-1125.900024,32.70000076,-926.1000366,1.436724452,-0.346638507,0.461435825,ST
9.8,-3.956715822,-3.581081867,6.833783627,-2.881115913,-3.208861828,5.510705948,-1137.900024,33.30000305,-930.9000244,1.414622656,-0.46712028,0.481229824,ST
9.833333333,-3.733010292,-4.010548592,7.636491299,-3.025933981,-2.218001842,7.766818047,-1137.900024,32.10000229,-928.500061,1.381122314,-0.414669695,0.48258876,ST
9.866666667,-4.639794827,-3.915443897,8.741859436,-4.329296112,-3.246971846,8.993959427,-1149.900024,35.70000076,-942.9000244,1.310169794,-0.450858752,0.423437103,ST
9.9,-1.76511991,-4.430445194,7.969656944,-5.381131649,-6.501565933,8.529017448,-1147.5,33.30000305,-921.3000488,1.290178904,-0.204433108,0.507159801,ST
9.933333333,-3.49973464,-3.552969217,7.876945019,-5.647902012,-5.548815727,7.896391869,-1133.100098,28.50000191,-918.9000244,1.225014386,-0.371349245,0.432760669,ST
9.966666667,-2.397955179,-4.249805927,7.46542263,-5.243936062,-3.727157831,8.330845833,-1145.100098,45.90000153,-916.500061,1.210390207,-0.279554028,0.516622677,ST
10.0,-3.456070185,-3.431546211,7.451664925,-6.684494019,-3.772889853,7.271388054,-1135.5,36.90000153,-916.500061,1.145470893,-0.391288792,0.442630377,ST
10.03333333,-2.999088764,-3.8430686,8.631801605,-6.722603798,-3.125020027,8.247003555,-1137.900024,42.30000305,-916.500061,1.096027595,-0.312875529,0.426329093,ST
10.06666667,-2.543902159,-3.900490284,8.101248741,-5.12960577,-4.161612034,5.64027977,-1149.900024,42.30000305,-914.1000366,1.070191488,-0.275600077,0.452691767,ST
10.1,-3.214420319,-3.778469086,8.133547783,-2.911603928,-2.964957952,5.251557827,-1133.100098,51.30000305,-904.500061,1.038809829,-0.339276753,0.437390136,ST
10.13333333,-3.095988035,-4.571606636,8.960780144,-0.899396002,-2.179892063,5.419241905,-1145.100098,47.70000076,-904.500061,1.023076902,-0.301168156,0.468708077,ST
10.16666667,-2.882451057,-3.852040768,8.942835808,-1.028970003,-3.841487885,2.461905956,-1140.300049,49.50000381,-904.500061,0.990159746,-0.28453081,0.410301253,ST
10.2,-2.505620956,-3.708486319,8.413478851,0.282013983,-3.307947874,2.660078049,-1152.300049,50.70000076,-906.9000244,0.975212176,-0.263585652,0.412765007,ST
10.23333333,-2.842375517,-3.4052279,8.294448853,0.685979962,-1.471045971,1.600619912,-1137.900024,48.30000305,-902.1000366,0.961389155,-0.303137464,0.388830392,ST
10.26666667,-2.350701809,-3.795217037,8.595314026,1.196653962,0.022865999,1.730193973,-1152.300049,48.30000305,-892.500061,0.962726498,-0.249838756,0.411553498,ST
10.3,-2.441619635,-3.840077877,8.12637043,0.586893976,0.548784018,0.40396598,-1149.900024,50.10000229,-906.9000244,0.969685516,-0.265420103,0.438600417,ST
10.33333333,-3.695925474,-3.481192112,8.582753181,0.434453994,1.204275966,-0.518296003,-1142.700073,45.90000153,-914.1000366,0.958104057,-0.374274453,0.388552411,ST
10.36666667,-3.420181513,-3.799404144,8.535500526,0.922261953,1.493911982,-0.785066009,-1147.5,50.70000076,-906.9000244,0.974482592,-0.353944332,0.416449945,ST
10.4,-3.650466442,-3.878957272,9.105530739,1.539644003,1.013725996,-0.472563982,-1147.5,44.70000076,-911.7000122,0.974619186,-0.354615056,0.401530293,ST
10.43333333,-3.524856567,-3.977052689,7.928983212,1.379581928,0.655492008,-1.623485923,-1142.700073,51.30000305,-885.3000488,1.004063329,-0.376650095,0.459878226,ST
10.46666667,-3.523660183,-3.701906919,7.571293831,0.952749968,0.632625997,-1.676839948,-1152.300049,44.70000076,-902.1000366,1.010233963,-0.394557573,0.45472023,ST
10.5,-3.094193697,-3.932191849,6.992291451,0.754577994,0.640248001,0.160062,-1140.300049,44.70000076,-906.9000244,1.031729009,-0.370819315,0.507695101,ST
10.53333333,-3.567324638,-3.866396189,7.461235523,-0.228659987,1.196653962,0.175305992,-1137.900024,47.10000229,-899.7000122,1.02267745,-0.401476827,0.480563479,ST
10.56666667,-4.003370762,-3.728823185,8.162857056,-0.647870004,1.250007987,0.038109999,-1154.700073,50.70000076,-904.500061,1.004532895,-0.420424456,0.433091404,ST
10.6,-3.077445507,-4.234253883,7.868570805,-0.594515979,0.693601966,-0.480185986,-1137.900024,48.90000153,-902.1000366,1.02808148,-0.337759205,0.491530215,ST
10.63333333,-3.714467764,-4.253993034,7.910440922,-0.53354001,0.541162014,-0.632625997,-1125.900024,48.90000153,-899.7000122,1.031493524,-0.389128853,0.494702137,ST
10.66666667,-3.59603548,-4.288086891,7.732194424,-0.602137983,0.274392009,-1.410069942,-1135.5,45.30000305,-906.9000244,1.040532731,-0.385729903,0.507541384,ST
10.7,-3.649868488,-4.198365688,7.140630722,-0.342989981,0.518296003,-0.853663981,-1123.5,53.70000076,-897.3000488,1.05294724,-0.413284639,0.531315278,ST
10.73333333,-3.75155282,-4.060792446,7.147808552,-0.342989981,0.647870004,-0.373477995,-1140.300049,54.90000153,-921.3000488,1.049560992,-0.427843823,0.518583879,ST
10.76666667,-3.364554167,-4.547082901,7.324260712,-0.42683199,0.708845973,-0.335367978,-1137.900024,47.70000076,-904.500061,1.065888567,-0.375025675,0.555318379,ST
10.8,-3.756337881,-4.707983494,7.179510117,-0.518296003,0.487807989,-1.021348,-1133.100098,46.5,-892.500061,1.079383274,-0.410534786,0.580956816,ST
10.83333333,-4.134962559,-4.883837223,7.25128746,-0.449698001,0.716467977,-1.097568035,-1142.700073,45.90000153,-899.7000122,1.088714227,-0.439863273,0.593743268,ST
10.86666667,-4.937670231,-5.329453945,7.535405159,-0.876529992,1.028970003,-1.006103992,-1125.900024,47.10000229,-904.500061,1.103077249,-0.489412132,0.617299045,ST
10.9,-4.557251453,-4.986119747,7.652042866,0.205793992,0.708845973,0.266770005,-1140.300049,49.50000381,-904.500061,1.086656146,-0.465371719,0.579219446,ST
10.93333333,-3.426162958,-5.360557079,7.530620098,1.981719971,1.196653962,0.396344006,-1135.5,51.30000305,-897.3000488,1.104801296,-0.363675684,0.613342699,ST
10.96666667,-4.399341583,-4.763012409,8.260354042,3.361301899,0.045731999,-0.495429993,-1123.5,41.70000076,-906.9000244,1.077015597,-0.428978218,0.521834417,ST
11.0,-4.236048698,-4.665514946,7.079021931,4.672286034,-0.815553963,-0.091463998,-1140.300049,40.5,-909.3000488,1.105424353,-0.460334085,0.571301817,ST
11.03333333,-3.990211725,-4.933483124,8.047415733,4.390272141,-0.327746004,-0.792688012,-1125.900024,44.10000229,-911.7000122,1.103722114,-0.401755935,0.544072641,ST
11.06666667,-3.786245108,-4.191187859,7.316484928,4.870458126,-1.775925994,0.259148002,-1137.900024,39.30000305,-911.7000122,1.095031902,-0.418512004,0.512868848,ST
11.1,-4.182215691,-3.962697268,8.065360069,5.914671898,-0.800309956,-0.739333987,-1140.300049,42.90000153,-914.1000366,1.080285737,-0.432867146,0.450630869,ST
11.13333333,-3.942360401,-3.842470407,7.738175392,4.557955742,-2.637212038,0.327746004,-1137.900024,33.90000153,-916.500061,1.083056609,-0.424737239,0.45171303,ST
11.16666667,-3.141446829,-3.834694624,8.710158348,3.262215853,-3.117398024,-0.350611985,-1137.900024,37.5,-923.7000122,1.069232513,-0.320343436,0.411007348,ST
11.2,-3.130680323,-3.326272964,8.679652214,4.077769756,-2.416173935,0.990859985,-1147.5,39.30000305,-916.500061,1.05170329,-0.321501326,0.361023729,ST
11.23333333,-2.823832989,-3.423172235,8.119791031,4.801859856,-0.72408998,1.036592007,-1149.900024,36.30000305,-926.1000366,1.061402029,-0.310378992,0.388156902,ST
11.26666667,-4.457361221,-2.324981689,8.684437752,4.61893177,0.602137983,-2.23324585,-1159.5,32.70000076,-923.7000122,1.030828619,-0.451244325,0.263895099,ST
11.3,-2.137763023,-3.432144403,8.455348969,4.260697842,0.152439997,-0.167683989,-1149.900024,27.90000153,-938.1000366,1.074327044,-0.242603877,0.372445411,ST
11.33333333,-2.88544178,-2.801701784,8.20173645,2.644834042,-0.358233988,-0.922261953,-1169.100098,36.30000305,-918.9000244,1.067959089,-0.315564657,0.327898156,ST
11.36666667,-3.210233212,-2.359075785,7.62273407,2.19513607,1.272873998,0.411587983,-1140.300049,33.90000153,-933.3000488,1.06090517,-0.380637678,0.298233863,ST
11.4,-4.747460842,-1.605415702,7.329045773,0.236281991,1.791170001,1.966475964,-1152.300049,35.70000076,-918.9000244,1.020355952,-0.556630648,0.21927378,ST
11.43333333,-4.974156857,-1.566536427,7.517460823,-2.568614006,1.295740008,4.596065998,-1137.900024,30.90000153,-930.9000244,0.993298315,-0.577338595,0.206011491,ST
11.46666667,-3.380704165,-2.145538807,7.248296738,-7.035105705,-1.875011921,6.280528069,-1135.5,29.10000038,-933.3000488,0.994491258,-0.427371302,0.290938025,ST
11.5,-3.143241405,-2.29926157,7.399028778,-8.780544281,-2.004585981,7.309497833,-1140.300049,35.70000076,-928.500061,0.960006942,-0.388423063,0.309895315,ST
11.53333333,-3.00507021,-3.12051177,8.376394272,-9.146399498,-2.240867853,6.897909641,-1123.5,43.5,-926.1000366,0.939095252,-0.328714817,0.364649618,ST
11.56666667,-3.271842003,-2.934489489,9.241309166,-8.346089363,-2.477149963,5.160093784,-1128.300049,43.5,-911.7000122,0.8926736,-0.324578835,0.321467286,ST
11.6,-2.723942995,-3.800002337,9.212597847,-5.243936062,-1.379581928,2.393307924,-1135.5,47.10000229,-911.7000122,0.897431698,-0.269731994,0.394355948,ST
11.63333333,-3.274234533,-3.930397511,9.632493973,-3.056421995,-0.960371971,0.609759986,-1149.900024,49.50000381,-911.7000122,0.889531868,-0.301915625,0.392376235,ST
11.66666667,-3.283206701,-3.6761868,8.459535599,-1.097568035,-0.586893976,-0.510674,-1147.5,53.70000076,-894.9000244,0.894877048,-0.338770425,0.411026198,ST
11.7,-3.875368357,-3.276627302,7.659220695,0.861285985,1.440557957,1.04421401,-1133.100098,47.70000076,-894.9000244,0.891724789,-0.432993137,0.40290321,ST
11.73333333,-4.47829628,-3.08282876,7.64606142,0.373477995,0.990859985,0.83079797,-1137.900024,56.10000229,-904.500061,0.882327917,-0.495714244,0.383520754,ST
11.76666667,-3.684560776,-4.288685322,8.186184883,-0.342989981,0.182927996,0.945127964,-1135.5,46.5,-911.7000122,0.919143119,-0.385592613,0.478459285,ST
11.8,-2.939872742,-4.828209877,8.240017891,-1.943609953,-1.166165948,-0.503051996,-1125.900024,51.30000305,-904.500061,0.933467074,-0.301865696,0.530072719,ST
11.83333333,-4.076942444,-4.428650379,7.972647667,-3.51374197,-1.227141976,-3.315569878,-1128.300049,48.90000153,-890.1000366,0.931920068,-0.408759623,0.515877865,ST
11.86666667,-4.328760624,-4.218104362,8.549855232,-2.263733864,-0.236281991,-0.342989981,-1123.5,46.5,-892.500061,0.907942317,-0.424877275,0.464793433,ST
11.9,-1.693342805,-5.207432747,7.849430084,-0.716467977,-0.670735955,0.373477995,-1133.100098,51.90000153,-892.500061,0.939671072,-0.189682299,0.581058332,ST
11.93333333,-2.793925762,-3.968080521,7.725614548,0.91463995,-0.175305992,-1.303362012,-1133.100098,47.70000076,-890.1000366,0.919904055,-0.303439078,0.479508846,ST
11.96666667,-2.486480236,-4.018324375,7.574284554,3.498497963,1.310984015,0.190549999,-1140.300049,51.90000153,-892.500061,0.926481483,-0.28547806,0.481766648,ST
12.0,-3.634914875,-3.824526072,7.894290924,3.307947874,1.55488801,-1.402447939,-1137.900024,49.50000381,-906.9000244,0.927550549,-0.387611867,0.448877427,ST
12.03333333,-3.971071243,-4.093690395,8.382973671,3.429899931,1.996963978,-1.760681987,-1145.100098,47.70000076,-899.7000122,0.942462216,-0.403228713,0.45002421,ST
12.06666667,-4.435828209,-4.610486031,9.429125786,2.553369999,0.472563982,-5.038141727,-1145.100098,39.90000153,-906.9000244,0.968075018,-0.397000964,0.453644787,ST
12.1,-2.997294426,-5.774472237,8.814832687,3.452765942,-0.282013983,-6.11284399,-1147.5,47.70000076,-906.9000244,1.03044197,-0.278974488,0.569354985,ST
12.13333333,-3.207840681,-5.485569,8.786720276,7.103703976,1.951231956,-9.268351555,-1133.100098,49.50000381,-902.1000366,1.067897629,-0.293744091,0.551512653,ST
12.16666667,-2.377020121,-6.000570297,7.6795578,11.25769329,3.963439941,-12.37050533,-1161.900024,41.70000076,-923.7000122,1.151602176,-0.23602358,0.643093462,ST
12.2,-3.142643213,-5.310911655,7.145415783,12.24855328,5.038141727,-16.97419357,-1157.100098,40.5,-928.500061,1.230674928,-0.324388151,0.627944748,ST
12.23333333,-3.680373669,-4.487866879,7.708268642,12.57629967,6.143332005,-16.21961594,-1166.700073,35.70000076,-926.1000366,1.276604212,-0.382338268,0.523870392,ST
12.26666667,-3.986024857,-4.32816267,7.714250088,13.47569561,5.152472019,-15.19826794,-1154.700073,29.10000038,-935.7000122,1.347522808,-0.416208405,0.501243358,ST
12.3,-4.444800377,-3.335843325,8.38955307,12.24855328,4.519845963,-14.33698177,-1145.100098,23.10000038,-940.500061,1.370923999,-0.452881312,0.377760839,ST
12.33333333,-3.734206676,-3.169559717,8.443984032,9.794269562,2.141782045,-10.06103992,-1147.5,20.70000076,-957.3000488,1.413409351,-0.393764939,0.351268347,ST
12.36666667,-3.83589077,-2.256195307,6.754828453,6.493943691,1.859767914,-7.568645954,-1130.700073,6.900000095,-942.9000244,1.439680983,-0.4868847,0.320053507,ST
12.4,-3.667812586,-2.190997601,7.872757912,3.643316031,2.964957952,-4.352161884,-1137.900024,15.30000019,-938.1000366,1.443727214,-0.428183131,0.271839416,ST
12.43333333,-3.154007912,-1.848859906,8.710756302,3.239349842,2.461905956,-2.76678586,-1130.700073,6.900000095,-938.1000366,1.437522789,-0.348210764,0.209110982,ST
12.46666667,-3.618166924,-1.879963398,8.355459213,4.199721813,1.966475964,-1.471045971,-1128.300049,9.300000191,-947.7000122,1.452869279,-0.399240207,0.214915279,ST
12.5,-2.265167475,-2.418890238,9.373498917,4.466491699,2.164648056,-1.303362012,-1142.700073,14.10000038,-952.500061,1.474190229,-0.243142979,0.243879184,ST
12.53333333,-3.152811527,-1.721455455,9.106726646,5.213448048,2.957335949,-3.971061945,-1147.5,6.300000191,-947.7000122,1.480856403,-0.326277012,0.184187062,ST
12.56666667,-4.696618557,-1.295577645,9.82509613,6.029001713,3.460387945,-4.32167387,-1121.100098,10.5,-945.3000488,1.488444789,-0.441566751,0.127378291,ST
12.6,-2.003180742,-1.309334993,8.628211975,6.059489727,0.365855992,-3.955817938,-1121.100098,6.300000191,-952.500061,1.517195592,-0.235998228,0.141275392,ST
12.63333333,-4.149916172,-0.89183116,7.127471447,5.442107677,3.117398024,-5.663146019,-1116.300049,3.300000191,-952.500061,1.541093999,-0.510007769,0.121566271,ST
12.66666667,-3.936977148,-0.906186581,8.276504517,4.527467728,3.391789913,-4.314052105,-1109.100098,4.5,-947.7000122,1.559023054,-0.450607873,0.106157769,ST
12.7,-4.034474373,-0.645994425,7.494133472,3.262215853,2.210379839,-4.001549721,-1104.300049,-1.5,-942.9000244,1.570680834,-0.492806464,0.08550803,ST
12.73333333,-4.501624107,-0.696238399,8.467311859,1.814036012,1.539644003,-0.876529992,-1104.300049,4.5,-947.7000122,1.575156656,-0.489985648,0.080153519,ST
12.76666667,-4.863500595,-0.572422802,8.296242714,1.471045971,0.0,0.152439997,-1097.100098,2.700000048,-945.3000488,1.571211263,-0.527290151,0.066857813,ST
12.8,-4.645178318,-0.530552804,9.274805069,1.280496001,-1.379581928,1.509155989,-1099.5,6.900000095,-938.1000366,1.561600747,-0.464300067,0.054072412,ST
12.83333333,-3.618166924,-0.340941489,9.417162895,1.417691946,-2.149404049,1.577754021,-1113.900024,2.100000143,-942.9000244,1.549318303,-0.368475006,0.033688215,ST
12.86666667,-3.757534027,-0.018542431,8.641969681,2.149404049,-1.028970003,-0.091463998,-1092.300049,-3.300000191,-935.7000122,1.540461363,-0.406173043,0.00040283,ST
12.9,-3.110941648,0.004187001,8.986499786,2.667700052,-0.083841994,-0.853663981,-1104.300049,-2.100000143,-938.1000366,1.545805253,-0.337555038,-0.004274334,ST
12.93333333,-3.376517057,0.01016843,9.336413383,3.422277927,0.556405962,-2.957335949,-1104.300049,-1.5,-942.9000244,1.561848307,-0.347442626,-0.005152885,ST
12.96666667,-2.846562386,-0.40255022,10.54705524,4.954299927,-0.205793992,-5.419241905,-1109.100098,-10.5,-947.7000122,1.600067753,-0.267484756,0.030231836,ST
13.0,-3.666018248,-0.125011876,9.867564201,7.279009819,-1.028970003,-8.094563484,-1097.100098,-4.5,-940.500061,1.635309391,-0.349498886,0.006171276,ST
13.03333333,-3.36993742,0.089123301,10.18577671,8.025965691,1.189031959,-7.766818047,-1094.700073,-4.5,-940.500061,1.667854145,-0.32344345,-0.016673679,ST
13.06666667,-3.179129839,0.184228033,10.41666031,7.469559669,1.585376024,-7.759195805,-1099.5,-12.90000057,-926.1000366,1.703797762,-0.300745186,-0.025876686,ST
13.1,-2.803496122,0.168078169,8.923096657,6.95888567,0.480185986,-8.696702003,-1094.700073,-13.50000095,-928.500061,1.745431767,-0.305309708,-0.026190794,ST
13.13333333,-3.536819458,0.431859225,8.26932621,5.045763969,2.324709892,-8.513773918,-1077.900024,-20.70000076,-940.500061,1.774974604,-0.402147489,-0.053224442,ST
13.16666667,-3.260477304,0.43066293,8.27291584,3.780511856,1.478667974,-6.73022604,-1077.900024,-15.30000019,-921.3000488,1.805244483,-0.379624988,-0.053885842,ST
13.2,-4.583569527,-0.006579573,7.150799274,2.865871906,1.943609953,-6.067111969,-1077.900024,-18.30000114,-918.9000244,1.857021655,-0.562826701,-0.001276154,ST
13.23333333,-3.771291494,0.021533147,8.752027512,2.393307924,1.250007987,-3.071666002,-1061.100098,-16.5,-918.9000244,1.871208596,-0.418404174,-0.00396913,ST
13.26666667,-3.618764877,-0.519188106,7.775858402,2.591480017,0.434453994,-4.344540119,-1053.900024,-21.30000114,-921.3000488,1.919327475,-0.43423178,0.061813049,ST
13.3,-4.122401237,-0.943869591,8.330337524,1.875011921,0.884151995,-5.175337791,-1051.5,-21.30000114,-926.1000366,1.964322321,-0.456467621,0.111412232,ST
13.33333333,-4.80548048,-0.76263231,9.143213272,1.04421401,0.221037999,-5.190581799,-1046.700073,-16.5,-916.500061,1.974128159,-0.480492706,0.087640406,ST
13.36666667,-5.065074444,-0.474925518,8.887805939,0.518296003,-1.036592007,-3.711913824,-1058.700073,-14.70000076,-921.3000488,1.973842156,-0.513077002,0.057993009,ST
13.4,-4.978941917,0.242247909,9.123475075,-0.769822001,-2.591480017,-0.731711984,-1049.100098,-15.90000057,-911.7000122,1.93735658,-0.49610758,-0.019507775,ST
13.43333333,-5.218797207,-0.305651069,7.816532135,-3.018311977,-3.231727839,5.144849777,-1049.100098,-20.10000038,-928.500061,1.940420199,-0.578246599,0.035142718,ST
13.46666667,-3.328067541,-1.284811139,8.580361366,-8.932983398,-4.83234787,10.96043587,-1063.5,-14.10000038,-928.500061,1.929792555,-0.369181677,0.151429696,ST
13.5,-2.6898489,-1.296773911,9.376489639,-10.1448822,-4.466491699,11.27293777,-1082.700073,-11.10000038,-926.1000366,1.871081811,-0.277936194,0.149025504,ST
13.53333333,-2.286102533,-2.031293631,8.456544876,-8.361333847,-3.239349842,9.481767654,-1089.900024,-3.300000191,-926.1000366,1.844932829,-0.256419572,0.241007671,ST
13.56666667,-2.093500376,-2.055817366,10.07811069,-6.981751919,-1.303362012,7.675354004,-1080.300049,-5.700000286,-933.3000488,1.80151891,-0.204789803,0.212274249,ST
13.6,-2.956620693,-1.955927491,9.798778534,-4.878079891,-0.80793196,6.11284399,-1085.100098,-3.300000191,-940.500061,1.770316126,-0.283422019,0.203175193,ST
13.63333333,-3.52545476,-1.696333408,10.14869213,-3.307947874,0.022865999,5.693634033,-1092.300049,-2.700000048,-945.3000488,1.73308862,-0.329503224,0.169856847,ST
13.66666667,-2.272345066,-1.122116208,9.251477242,-1.310984015,-1.135677934,5.061007977,-1097.100098,-8.700000763,-940.500061,1.696329195,-0.242343378,0.1227507,ST
13.7,-3.580483913,-1.079648018,8.031864166,-0.61738199,-0.243903995,4.222588062,-1094.700073,-0.300000012,-945.3000488,1.681169038,-0.407981583,0.131200606,ST
13.73333333,-3.816152096,-0.794333875,8.142519951,-0.487807989,0.0,4.245453835,-1092.300049,-6.300000191,-947.7000122,1.649063102,-0.435923654,0.096311395,ST
13.76666667,-3.745571375,-0.575413525,8.958985329,-0.464941978,-0.045731999,4.718018055,-1111.5,-5.700000286,-940.500061,1.616984964,-0.397933969,0.063310534,ST
13.8,-3.737795353,-0.477318078,8.323159218,-0.015244,-0.282013983,4.679907799,-1106.700073,-4.5,-942.9000244,1.595481725,-0.420160337,0.054210207,ST
13.83333333,-4.185206413,-0.690257013,9.783226013,-0.076219998,0.160062,3.468009949,-1116.300049,-3.900000095,-942.9000244,1.587067792,-0.404807497,0.067312161,ST
13.86666667,-4.202552319,0.055627298,9.837059021,0.274392009,-1.303362012,2.545747995,-1106.700073,-1.5,-947.7000122,1.550144108,-0.401752185,-0.003469664,ST
13.9,-2.807085037,0.115441591,8.533107758,0.609759986,-1.882633924,2.797273874,-1099.5,1.5,-938.1000366,1.536225138,-0.319714638,-0.015505451,ST
13.93333333,-3.363358021,0.194396466,7.598808289,0.464941978,0.236281991,1.463423967,-1111.5,-7.500000477,-942.9000244,1.527066279,-0.412143041,-0.026885008,ST
13.96666667,-3.977052689,0.184228033,8.891395569,0.045731999,1.272873998,1.44817996,-1109.100098,-0.900000036,-938.1000366,1.523119439,-0.422220848,-0.022167714,ST
14.0,-3.815553904,0.038879294,8.996069908,0.129574001,0.358233988,0.91463995,-1104.300049,-1.5,-945.3000488,1.526313793,-0.402990712,-0.006251072,ST
14.03333333,-4.097877502,0.151330173,9.15218544,0.106707998,0.381099999,0.525918007,-1104.300049,-2.700000048,-942.9000244,1.520439111,-0.420454371,-0.016468558,ST
14.06666667,-3.534426928,-0.023925718,8.931470871,0.160062,-0.091463998,-0.129574001,-1118.700073,-9.900000572,-942.9000244,1.528117133,-0.379313951,0.001360484,ST
14.1,-4.655944824,-0.212938905,9.636083603,-0.312501997,1.836901903,-0.312501997,-1101.900024,0.900000036,-942.9000244,1.537219023,-0.449943207,0.021943818,ST
14.13333333,-3.55835247,-0.039477438,8.908143044,0.038109999,0.411587983,-1.310984015,-1099.5,0.300000012,-945.3000488,1.535806234,-0.384925046,0.006285045,ST
14.16666667,-3.185709476,-0.420494497,8.229848862,-0.320124,1.310984015,-1.730193973,-1097.100098,-3.900000095,-962.1000366,1.558135656,-0.371906182,0.050024583,ST
14.2,-3.901088476,-0.605918825,8.897974968,-0.548784018,1.669217944,-2.583858013,-1104.300049,-7.500000477,-947.7000122,1.575093616,-0.412589549,0.06981391,ST
14.23333333,-3.759328604,-0.820053995,9.162354469,-0.152439997,0.762199998,-1.882633924,-1094.700073,-0.300000012,-940.500061,1.59033105,-0.390155348,0.089907859,ST
14.26666667,-3.822731733,-0.746482432,9.695897102,0.655492008,0.701223969,-2.042695999,-1094.700073,0.300000012,-940.500061,1.595141009,-0.376202373,0.077765107,ST
14.3,-3.445901632,-0.811680019,9.450060844,2.339953899,0.0,-2.507637978,-1082.700073,-4.5,-933.3000488,1.609705193,-0.349825586,0.082885605,ST
14.33333333,-2.803496122,-0.849363029,9.249084473,3.307947874,-0.40396598,-3.437521935,-1087.5,-1.5,-947.7000122,1.630330505,-0.294209486,0.087459995,ST
14.36666667,-2.102472544,-0.831418753,8.782533646,4.146368027,-1.775925994,-5.221069813,-1089.900024,-3.900000095,-930.9000244,1.654678002,-0.233965151,0.089229918,ST
14.4,-2.709587574,-1.572517872,7.601201057,4.245453835,-2.46952796,-6.181441784,-1099.5,-4.5,-947.7000122,1.710276041,-0.324003753,0.192703869,ST
14.43333333,-4.329957008,-2.062397003,7.985806942,4.032037735,-0.594515979,-6.272905827,-1087.5,-3.300000191,-940.500061,1.764102593,-0.473631588,0.248243351,ST
14.46666667,-4.556653023,-2.56065011,9.219776154,4.458869934,0.853663981,-6.196685791,-1099.5,-11.10000038,-933.3000488,1.802818518,-0.444906805,0.267146155,ST
14.5,-3.89032197,-2.76760745,10.41486549,5.243936062,1.478667974,-4.61893177,-1092.300049,-3.900000095,-940.500061,1.823993335,-0.352858152,0.254650149,ST
14.53333333,-3.038566351,-2.707195044,10.35385513,8.46804142,-0.137196004,-5.716499805,-1077.900024,-5.100000381,-942.9000244,1.852258741,-0.278790811,0.244525032,ST
14.56666667,-3.473416328,-1.600630641,9.248486519,8.917739868,-0.198172003,-7.439071655,-1094.700073,-9.900000572,-933.3000488,1.867019883,-0.347386063,0.165466992,ST
14.6,-2.44760108,-1.039572477,8.200540543,8.887251854,-0.442075998,-5.442107677,-1080.300049,-13.50000095,-930.9000244,1.885678949,-0.288670537,0.115718527,ST
14.63333333,-3.204849958,-0.489879102,8.025283813,7.553401947,1.12805593,-4.93905592,-1082.700073,-15.90000057,-916.500061,1.895177989,-0.375117929,0.055077799,ST
14.66666667,-3.603811502,0.130993307,8.827393532,6.234796047,1.310984015,-3.879597902,-1075.5,-15.30000019,-918.9000244,1.892342387,-0.389125104,-0.018689762,ST
14.7,-3.667214632,-0.06459944,8.180203438,4.809482098,1.547266006,-2.347575903,-1056.300049,-15.30000019,-914.1000366,1.916107311,-0.422036241,7.02e-05,ST
14.73333333,-4.423865318,-0.041271865,9.059473038,2.545747995,2.050318003,-1.577754021,-1053.900024,-23.70000076,-911.7000122,1.9274385,-0.456069582,0.001375145,ST
14.76666667,-4.529138565,0.810483754,10.5877285,1.539644003,1.204275966,0.312501997,-1051.5,-23.70000076,-911.7000122,1.896490864,-0.407768947,-0.075528447,ST
14.8,-3.437527657,0.629246414,8.734682083,1.646351933,0.998481989,0.693601966,-1065.900024,-11.10000038,-916.500061,1.896223313,-0.377643277,-0.075330564,ST
14.83333333,-3.810768843,1.552181005,9.019397736,1.028970003,1.989341974,0.731711984,-1041.900024,-27.90000153,-918.9000244,1.859451625,-0.39665708,-0.167027017,ST
14.86666667,-2.997892618,1.027609587,7.947525501,0.365855992,1.23476398,2.400929928,-1051.5,-21.90000153,-899.7000122,1.862782121,-0.361576058,-0.132862426,ST
14.9,-4.282105446,1.299764633,8.859693527,-0.846041977,1.211897969,3.216483831,-1044.300049,-21.90000153,-904.500061,1.843424592,-0.442661878,-0.146110374,ST
14.93333333,-3.810768843,0.742893577,7.862589359,-2.309465885,-0.350611985,2.477149963,-1049.100098,-20.70000076,-914.1000366,1.852413239,-0.448186572,-0.09548564,ST
14.96666667,-4.672692776,1.003683925,8.157473564,-3.521363974,-0.365855992,2.743919849,-1039.5,-22.5,-904.500061,1.824379027,-0.512809379,-0.117778294,ST
15.0,-4.824023247,0.771604419,8.364431381,-5.335400105,-0.792688012,4.916189671,-1041.900024,-14.10000038,-911.7000122,1.810912897,-0.518742792,-0.089303583,ST
15.03333333,-3.733010292,-0.055029154,7.183098793,-6.570163727,-1.653973937,5.998513699,-1056.300049,-17.70000076,-926.1000366,1.823561591,-0.478957509,0.007483241,ST
15.06666667,-5.008849144,0.111254595,8.273513794,-7.416205883,-0.457319975,7.568645954,-1049.100098,-17.10000038,-918.9000244,1.775015531,-0.539594757,-0.007216772,ST
15.1,-4.517175674,-0.127404451,10.17142105,-6.493943691,-1.402447939,10.67842197,-1051.5,-13.50000095,-930.9000244,1.734445093,-0.423111002,0.013741214,ST
15.13333333,-4.117018223,0.550889671,9.838255882,-4.222588062,-0.899396002,8.445176125,-1073.100098,-12.30000019,-923.7000122,1.669504018,-0.39523716,-0.051076186,ST
15.16666667,-4.550073624,0.517393649,8.699989319,-2.309465885,-0.099086002,8.338467598,-1077.900024,-16.5,-928.500061,1.63061795,-0.474963094,-0.061921358,ST
15.2,-4.116419792,0.656162858,9.372900009,-2.439039946,2.050318003,7.64486599,-1077.900024,-13.50000095,-923.7000122,1.594034429,-0.419140304,-0.07122739,ST
15.23333333,-3.216214657,1.313521981,9.616344452,-1.821658015,0.861285985,5.800342083,-1077.900024,-12.30000019,-935.7000122,1.546958577,-0.326247806,-0.132430399,ST
15.26666667,-2.498443127,1.323092222,7.991788387,-1.760681987,-0.518296003,3.948195934,-1080.300049,-15.30000019,-935.7000122,1.520102822,-0.298623739,-0.161587807,ST
15.3,-3.950136185,0.47073853,8.317775726,-4.032037735,1.631107926,2.408551931,-1075.5,-12.30000019,-935.7000122,1.541397843,-0.437328071,-0.057830986,ST
15.33333333,-3.972865582,0.465355217,9.452453613,-3.963439941,0.40396598,0.945127964,-1082.700073,-11.70000076,-933.3000488,1.536552178,-0.400002079,-0.043727849,ST
15.36666667,-3.436929464,-0.072375298,8.184390068,-3.483253956,-2.06556201,0.335367978,-1082.700073,-3.900000095,-930.9000244,1.551104612,-0.394306027,0.011483325,ST
15.4,-3.980043411,-0.704014301,7.842252731,-4.009171963,-1.875011921,-0.304879993,-1085.100098,-4.5,-933.3000488,1.578150707,-0.461299665,0.092342549,ST
15.43333333,-4.105653286,-0.784763575,8.689821243,-3.78813386,-1.570132017,-0.701223969,-1099.5,-5.100000381,-938.1000366,1.575125363,-0.438043707,0.096913225,ST
15.46666667,-4.379004478,-1.328475595,7.875748634,-2.614346027,-1.692083955,-0.571649969,-1077.900024,-6.900000095,-942.9000244,1.603156237,-0.494818972,0.167245154,ST
15.5,-3.615774155,-1.802204728,9.134839058,-2.111294031,-1.577754021,-0.632625997,-1089.900024,-10.5,-938.1000366,1.613419245,-0.375227088,0.196844779,ST
15.53333333,-3.085819483,-2.130585194,8.76099968,-0.060975999,-3.125020027,-4.314052105,-1097.100098,3.300000191,-938.1000366,1.640840527,-0.325918412,0.238127154,ST
15.56666667,-3.98662281,-1.65924859,8.822608948,1.04421401,-3.338435888,-4.565577984,-1099.5,-5.100000381,-933.3000488,1.639362961,-0.40552439,0.190106255,ST
15.6,-2.775981426,-1.71547401,9.230542183,0.998481989,-4.702774048,-2.301843882,-1099.5,-6.300000191,-933.3000488,1.643654749,-0.286378784,0.18320246,ST
15.63333333,-3.034379244,-1.76511991,8.727503777,0.815553963,-2.500015974,-1.63872993,-1104.300049,-3.900000095,-942.9000244,1.653368707,-0.321345343,0.197807571,ST
15.66666667,-2.665325165,-1.754353285,10.02487659,1.074702024,-1.707327962,-0.29725799,-1118.700073,-5.700000286,-938.1000366,1.64741473,-0.257253309,0.172944132,ST
15.7,-2.877067804,-1.795027018,10.5219326,2.012207985,-1.905499935,-0.099086002,-1104.300049,0.300000012,-940.500061,1.646857257,-0.25984306,0.165728478,ST
15.73333333,-2.309430122,-1.955329418,11.34019279,2.926847935,-2.431417942,-2.096050024,-1118.700073,-3.300000191,-940.500061,1.656095945,-0.197309714,0.166223585,ST
15.76666667,-1.607210159,-1.615584135,10.91969776,4.809482098,-3.216483831,-4.53508997,-1123.5,-8.100000381,-930.9000244,1.672005762,-0.140811195,0.140848929,ST
15.8,-1.768110633,-1.477413177,8.931470871,7.858281612,-1.783547997,-8.368955612,-1118.700073,-6.300000191,-945.3000488,1.714388213,-0.185551726,0.15219718,ST
15.83333333,-2.001386404,-0.949851036,9.008631706,9.26072979,0.746955991,-10.12201595,-1118.700073,-9.900000572,-938.1000366,1.750811191,-0.214986482,0.096301649,ST
15.86666667,-2.555266857,-0.766819298,8.213101387,10.19061375,2.073184013,-11.34153557,-1109.100098,-12.90000057,-923.7000122,1.802608258,-0.297008003,0.082051298,ST
15.9,-3.779067278,0.129797027,9.723412514,9.245486259,3.10977602,-10.76988602,-1099.5,-21.30000114,-923.7000122,1.824086116,-0.371320244,-0.015937341,ST
15.93333333,-3.369339466,0.205761179,8.842946053,10.27445602,1.592997909,-8.46804142,-1101.900024,-24.30000114,-923.7000122,1.863987362,-0.367448249,-0.034323348,ST
15.96666667,-4.362854958,1.290792584,8.806459427,8.27749157,2.332331896,-7.591511726,-1075.5,-24.90000153,-916.500061,1.859612943,-0.45584231,-0.146524698,ST
16.0,-3.238944292,1.739997864,8.980518341,7.743951797,0.952749968,-4.222588062,-1063.5,-26.10000038,-923.7000122,1.867079491,-0.348891761,-0.199591844,ST
16.03333333,-3.703103065,1.741194248,8.17123127,6.04424572,0.411587983,-3.910085917,-1065.900024,-27.30000114,-916.500061,1.883941457,-0.415074564,-0.216623078,ST
16.06666667,-3.538015604,1.999591947,7.443889141,2.751541853,0.785066009,-2.835383892,-1075.5,-27.30000114,-906.9000244,1.8791782,-0.431836944,-0.262236195,ST
16.1,-4.780358791,2.110248327,9.460827827,1.539644003,2.454283953,-0.609759986,-1044.300049,-26.70000076,-906.9000244,1.910654325,-0.46317787,-0.221329466,ST
16.13333333,-5.506504059,2.229876995,9.855601311,2.080806017,1.935987949,0.929883957,-1046.700073,-32.10000229,-902.1000366,1.907163082,-0.499536247,-0.227042494,ST
16.16666667,-4.941857338,1.597639918,9.516454697,3.018311977,-0.91463995,3.300325871,-1046.700073,-24.30000114,-890.1000366,1.925024491,-0.472501315,-0.17751899,ST
16.2,-4.267750263,1.47801125,6.407307625,2.278977871,-0.80793196,1.051836014,-1058.700073,-35.10000229,-890.1000366,1.901206595,-0.569439855,-0.229141144,ST
16.23333333,-5.051317215,3.046940327,8.396132469,0.198172003,2.179892063,-0.480185986,-1041.900024,-28.50000191,-882.9000244,1.842405459,-0.521845543,-0.341744662,ST
16.26666667,-4.152308464,2.743083715,7.500114918,0.373477995,0.960371971,1.310984015,-1037.100098,-28.50000191,-885.3000488,1.832619251,-0.482784246,-0.352074564,ST
16.3,-4.608093262,2.835197687,8.199941635,-1.867389917,0.564027965,0.42683199,-1051.5,-31.50000191,-882.9000244,1.836597886,-0.488545568,-0.331505308,ST
16.33333333,-4.911352158,2.732317209,8.099453926,-2.896359921,-1.265251994,1.158543944,-1044.300049,-33.30000305,-890.1000366,1.832814861,-0.517293397,-0.321498839,ST
16.36666667,-4.341919899,1.670015216,8.26513958,-5.388753891,-2.538125992,5.411619663,-1037.100098,-30.30000114,-906.9000244,1.86252839,-0.471892517,-0.201096983,ST
16.4,-3.950136185,1.542610765,9.139624596,-6.44821167,-4.458869934,6.272905827,-1058.700073,-26.10000038,-902.1000366,1.848264041,-0.398091191,-0.162524572,ST
16.43333333,-3.346609831,1.496553659,9.526622772,-6.547297955,-5.53357172,7.370473862,-1075.5,-23.10000038,-906.9000244,1.819493322,-0.327097427,-0.149211489,ST
16.46666667,-1.726240635,0.43066293,8.34828186,-5.121984005,-7.263765812,9.291217804,-1094.700073,-29.10000038,-909.3000488,1.806002323,-0.198229424,-0.052130109,ST
16.5,-1.598237991,0.081347443,10.15467358,-5.015275955,-2.355197906,4.413137913,-1104.300049,-20.70000076,-928.500061,1.773543073,-0.152014102,-0.000459895,ST
16.53333333,-1.098190546,-0.059216153,9.093567848,-3.391789913,-1.981719971,4.207344055,-1109.100098,-15.30000019,-911.7000122,1.756394499,-0.118918679,0.01078774,ST
16.56666667,-1.76272738,-0.751267552,9.58045578,-3.689047813,0.053353999,3.864353895,-1121.100098,-23.10000038,-930.9000244,1.747417108,-0.179225945,0.080308166,ST
16.6,-2.315411329,-0.704014301,10.19295406,-3.551851988,0.503051996,2.454283953,-1113.900024,-14.70000076,-923.7000122,1.733844811,-0.221342751,0.074619706,ST
16.63333333,-2.474517584,-1.039572477,9.877135277,-3.757645845,0.457319975,2.57623601,-1121.100098,-18.30000114,-923.7000122,1.726707171,-0.244500807,0.108931396,ST
16.66666667,-1.779475331,-0.765622973,10.36163044,-3.262215853,-0.663114011,2.515259981,-1133.100098,-15.90000057,-938.1000366,1.708038526,-0.173435182,0.080408043,ST
16.7,-2.40274024,-1.068283319,9.278393745,-3.361301899,0.388722003,3.704291821,-1125.900024,-6.900000095,-933.3000488,1.698306242,-0.248363703,0.116601354,ST
16.73333333,-1.683772445,-0.758445263,9.433911324,-3.727157831,0.53354001,4.359784126,-1116.300049,-9.300000191,-938.1000366,1.670110311,-0.180789555,0.086628029,ST
16.76666667,-2.725737572,-1.140060544,9.401013374,-3.628072023,1.364337921,5.594547749,-1121.100098,-14.70000076,-935.7000122,1.65347254,-0.277525237,0.122146362,ST
16.8,-2.930900574,-1.119125485,9.789207458,-2.804895878,1.463423967,6.455833912,-1121.100098,-10.5,-938.1000366,1.62436002,-0.292044295,0.115878888,ST
16.83333333,-2.6898489,-0.770408154,9.352563858,-2.423795938,1.211897969,7.926879883,-1121.100098,-0.900000036,-940.500061,1.581514704,-0.283008755,0.084250736,ST
16.86666667,-3.420779705,-0.912766159,9.710252762,-2.378063917,1.730193973,8.483285904,-1123.5,-6.900000095,-935.7000122,1.547113039,-0.338823592,0.092467042,ST
16.9,-3.506912231,-0.489280939,9.84722805,-1.890255928,1.082324028,8.086941719,-1125.900024,-6.900000095,-952.500061,1.500111551,-0.344101415,0.050631585,ST
16.93333333,-2.436834574,-0.050244011,9.462023735,-1.524399996,0.266770005,8.094563484,-1118.700073,-14.10000038,-933.3000488,1.45403418,-0.258236667,0.006778242,ST
16.96666667,-2.167670012,-0.184228033,8.409890175,-1.669217944,-0.190549999,7.87352562,-1128.300049,-3.300000191,-933.3000488,1.425015074,-0.252492642,0.020386313,ST
17.0,-2.666521311,-0.044262581,8.861488342,-2.225623846,0.358233988,6.55491972,-1125.900024,-11.10000038,-935.7000122,1.393388691,-0.290563818,0.006439112,ST
17.03333333,-2.573809147,0.281127185,9.177906036,-1.836901903,0.038109999,4.169233799,-1125.900024,1.5,-950.1000366,1.365757043,-0.274256918,-0.027321862,ST
17.06666667,-3.267655134,-0.008374002,8.714942932,-1.227141976,-0.304879993,3.429899931,-1130.700073,-0.900000036,-940.500061,1.359279629,-0.353080254,-0.000798774,ST
17.1,-2.753850222,0.097497307,9.545763969,-1.219519973,0.327746004,2.25611186,-1135.5,-6.900000095,-942.9000244,1.345322398,-0.284206517,-0.008952579,ST
17.13333333,-3.575100422,0.007775859,9.350171089,-1.371959925,0.015244,2.134160042,-1128.300049,-0.300000012,-954.9000244,1.338111214,-0.360307061,-0.000366106,ST
17.16666667,-3.123502493,0.135180309,8.903956413,-1.166165948,0.236281991,1.509155989,-1121.100098,-4.5,-950.1000366,1.326360366,-0.339102318,-0.013264482,ST
17.2,-4.014137268,0.412120521,8.975733757,-1.158543944,2.17227006,1.592997909,-1125.900024,-1.5,-938.1000366,1.307013251,-0.419205864,-0.043338967,ST
17.23333333,-4.443006039,0.267369896,8.825001717,-1.105189919,2.370441914,2.736297846,-1116.300049,-2.700000048,-950.1000366,1.298878076,-0.467960846,-0.031369438,ST
17.26666667,-4.037465096,0.328978628,8.957191467,-0.030487999,2.385685921,2.202757835,-1116.300049,-1.5,-940.500061,1.287582011,-0.429707265,-0.038087955,ST
17.3,-3.914845705,0.643003702,9.1599617,0.190549999,1.364337921,1.42531395,-1109.100098,0.300000012,-947.7000122,1.269561179,-0.406709818,-0.069559614,ST
17.33333333,-3.318497181,0.208153754,8.856104851,0.503051996,0.198172003,0.777444005,-1101.900024,-2.700000048,-947.7000122,1.283121328,-0.36165718,-0.027558807,ST
17.36666667,-3.468032837,0.338548928,10.46750164,0.022865999,0.525918007,-1.204275966,-1109.100098,-2.100000143,-930.9000244,1.286375781,-0.323237066,-0.031423244,ST
17.4,-2.190399647,0.215331465,8.79509449,0.381099999,-2.606724024,-1.417691946,-1113.900024,1.5,-945.3000488,1.294407977,-0.244599907,-0.024885941,ST
17.43333333,-1.664033771,0.101684302,7.751334667,0.0,-2.507637978,-2.637212038,-1118.700073,1.5,-947.7000122,1.307648927,-0.209413319,-0.012873526,ST
17.46666667,-2.605510712,-0.428868502,8.046218872,-1.364337921,1.692083955,-3.193617821,-1116.300049,-0.900000036,-933.3000488,1.33611989,-0.309660448,0.053417703,ST
17.5,-4.201356411,-0.923532724,8.022891998,-1.836901903,1.646351933,-2.568614006,-1121.100098,2.700000048,-947.7000122,1.367042733,-0.471566208,0.115759432,ST
17.53333333,-4.751647949,-1.108957052,10.16185093,-1.85214591,1.684461951,-2.76678586,-1101.900024,0.300000012,-947.7000122,1.37387602,-0.439563914,0.114433341,ST
17.56666667,-3.531436205,-1.954133034,9.389648438,-0.632625997,-2.004585981,-4.009171963,-1116.300049,-1.5,-942.9000244,1.420667722,-0.353688843,0.203092138,ST
17.6,-3.04514575,-2.069574594,9.53918457,0.388722003,-1.196653962,-4.298808098,-1113.900024,2.100000143,-942.9000244,1.440920055,-0.301469077,0.214572554,ST
17.63333333,-2.747270584,-1.8380934,9.92259407,0.602137983,-0.72408998,-5.30491209,-1104.300049,-6.300000191,-935.7000122,1.453313877,-0.265159301,0.186374434,ST
17.66666667,-2.339935303,-2.23346591,7.840457916,1.021348,-1.882633924,-4.344540119,-1113.900024,2.100000143,-942.9000244,1.491850728,-0.273902374,0.2719497,ST
17.7,-3.104960203,-1.812971354,9.411779404,0.792688012,1.692083955,-3.445143938,-1099.5,0.300000012,-945.3000488,1.485198105,-0.312507029,0.195938427,ST
17.73333333,-3.895705223,-2.54868722,8.714942932,1.493911982,3.132642031,-2.903981924,-1109.100098,0.900000036,-940.500061,1.529989404,-0.40341838,0.278914712,ST
17.76666667,-3.497341871,-2.20774579,10.80545235,2.614346027,2.461905956,-4.413137913,-1094.700073,-0.300000012,-942.9000244,1.527393612,-0.31383484,0.203181659,ST
17.8,-2.18860507,-2.966191053,9.267626762,3.902463913,0.007622,-4.375028133,-1116.300049,3.900000095,-947.7000122,1.573286791,-0.22500078,0.298693434,ST
17.83333333,-3.447098017,-2.081537485,10.06375504,6.684494019,2.019829988,-10.05341816,-1094.700073,-2.100000143,-930.9000244,1.595110113,-0.317343399,0.204186248,ST
17.86666667,-2.926115513,-2.20774579,8.928480148,8.605237961,1.737815976,-10.06103992,-1085.100098,-4.5,-950.1000366,1.653113723,-0.307675095,0.231318785,ST
17.9,-4.164869308,-1.525264621,8.31418705,9.397925377,1.166165948,-11.09763145,-1089.900024,-6.300000191,-940.500061,1.689168245,-0.447136973,0.177478728,ST
17.93333333,-3.153409719,-0.89661634,8.184390068,9.336949348,1.303362012,-8.353712082,-1068.300049,-5.700000286,-933.3000488,1.705691782,-0.371308481,0.103445144,ST
17.96666667,-4.469922543,-1.495955586,7.798588276,8.567128181,1.760681987,-6.463455677,-1070.700073,-8.100000381,-928.500061,1.777157299,-0.50614574,0.176016257,ST
18.0,-3.300552845,-0.434251785,9.457837105,8.193650246,1.059458017,-5.358265877,-1063.5,-18.30000114,-918.9000244,1.756662133,-0.345209107,0.041730765,ST
18.03333333,-4.57280302,-0.226696193,8.816627502,9.184510231,1.516777992,-5.990891933,-1065.900024,-16.5,-923.7000122,1.784015071,-0.472474355,0.016382437,ST
18.06666667,-2.761626005,0.369054228,8.412282944,11.10525417,0.670735955,-6.181441784,-1053.900024,-18.90000153,-911.7000122,1.79999254,-0.32472465,-0.05648113,ST
18.1,-4.146327019,0.885849714,8.902161598,10.78512955,2.347575903,-7.210412025,-1046.700073,-27.30000114,-911.7000122,1.823087894,-0.432343977,-0.109213487,ST
18.13333333,-4.018922806,0.985739589,8.368020058,11.29580402,2.057940006,-7.660109997,-1034.700073,-21.90000153,-897.3000488,1.86067802,-0.449220581,-0.129503604,ST
18.16666667,-5.318089008,2.272943258,7.628715515,9.268351555,1.135677934,-8.879630089,-1025.100098,-25.50000191,-887.7000122,1.8332547,-0.5879042,-0.287717871,ST
18.2,-5.074046612,2.315411329,8.412282944,6.798823833,-0.72408998,-5.419241905,-1022.700012,-29.10000038,-885.3000488,1.875733009,-0.530756037,-0.275329197,ST
18.23333333,-5.18470335,1.978657007,7.734586716,4.230209827,-0.602137983,-5.609791756,-1025.100098,-33.30000305,-878.1000366,1.915467863,-0.574599953,-0.253108855,ST
18.26666667,-5.501718998,2.667119503,9.283777237,3.102154016,-1.089946032,-2.804895878,-1008.300049,-29.70000076,-878.1000366,1.918886207,-0.520078273,-0.280741252,ST
18.3,-3.898695946,1.18611753,7.360149384,1.516777992,-1.04421401,-0.243903995,-1013.100037,-27.90000153,-878.1000366,1.977568399,-0.482494608,-0.168398903,ST
18.33333333,-5.05729866,2.318402052,9.045716286,0.525918007,0.228659987,-0.327746004,-996.3000488,-33.90000153,-875.7000122,1.942454222,-0.496239633,-0.247463168,ST
18.36666667,-3.131876707,1.180734277,7.223772526,1.150921941,-0.282013983,0.922261953,-1005.900024,-33.90000153,-868.500061,1.975512623,-0.409233385,-0.169514549,ST
18.4,-4.853332043,1.528853416,9.395031929,-0.83079797,2.050318003,-0.990859985,-1001.100037,-35.10000229,-878.1000366,1.980696945,-0.472719092,-0.159713178,ST
18.43333333,-3.726430655,1.351204991,8.298037529,1.539644003,0.045731999,-1.371959925,-996.3000488,-34.5,-873.3000488,1.986911207,-0.421016739,-0.162832158,ST
18.46666667,-4.841967583,1.711287022,8.748438835,1.006103992,-0.198172003,-3.292703867,-1001.100037,-29.10000038,-868.500061,1.988499777,-0.493613943,-0.190104877,ST
18.5,-5.214610577,2.269952536,8.877039909,0.678357959,-1.227141976,-4.153989792,-1015.500061,-31.50000191,-873.3000488,1.979791158,-0.515916337,-0.244422957,ST
18.53333333,-4.148719788,2.365655422,8.009134293,1.55488801,-1.943609953,-3.689047813,-1010.700012,-32.10000229,-863.7000122,1.97871392,-0.463018336,-0.283828947,ST
18.56666667,-4.04284811,2.644390106,8.431423187,1.699705958,-1.189031959,-3.734779835,-993.9000244,-29.70000076,-870.9000244,1.987845993,-0.431100577,-0.302513247,ST
18.6,-2.948246717,1.76272738,6.6387887,1.150921941,-0.83079797,-4.016793728,-993.9000244,-34.5,-880.500061,2.02349331,-0.407006456,-0.260353782,ST
18.63333333,-5.057897091,1.015048623,9.549352646,-0.548784018,-0.891773999,-3.765267849,-998.7000122,-29.70000076,-873.3000488,2.130222787,-0.483890796,-0.101416298,ST
18.66666667,-4.664916992,0.434251785,9.691710472,0.320124,-2.408551931,-2.858249903,-986.7000122,-26.10000038,-890.1000366,2.166386761,-0.446723841,-0.046316623,ST
18.7,-4.612878799,0.698630989,9.860984802,0.29725799,-2.583858013,-1.905499935,-998.7000122,-28.50000191,-882.9000244,2.165102407,-0.433188022,-0.068159772,ST
18.73333333,-3.992006302,1.422384024,8.150296211,-0.838419974,-2.949713945,-0.990859985,-986.7000122,-23.10000038,-887.7000122,2.127924226,-0.444172335,-0.163873317,ST
18.76666667,-2.844169855,0.659751713,7.071844578,-2.964957952,-2.538125992,1.562510014,-979.500061,-29.10000038,-890.1000366,2.146918585,-0.380356001,-0.093249258,ST
18.8,-4.958006859,0.235668331,8.350673676,-7.583889961,-1.966475964,2.583858013,-991.500061,-25.50000191,-885.3000488,2.155246472,-0.522837916,-0.022243324,ST
18.83333333,-3.72284174,0.474925518,8.451162338,-11.05189991,-4.512223721,8.033587456,-1003.500061,-17.10000038,-890.1000366,2.098237111,-0.413026848,-0.042048432,ST
18.86666667,-3.290384531,-1.32727921,8.187380791,-12.40099335,-3.544229984,9.573231697,-1008.300049,-11.70000076,-904.500061,2.12122733,-0.37643635,0.162285848,ST
18.9,-5.39166069,-1.649678349,8.816627502,-13.13270569,-2.187514067,10.36592007,-1013.100037,-21.90000153,-909.3000488,2.069754236,-0.532864316,0.195849564,ST
18.93333333,-4.745068073,-1.162191749,10.88919258,-13.17081547,-5.083873749,17.81261444,-1032.300049,-11.70000076,-918.9000244,1.944689155,-0.411935331,0.119108988,ST
18.96666667,-2.477508068,-2.588164568,8.8363657,-10.03055191,-7.400961876,20.88427925,-1049.100098,-17.10000038,-933.3000488,1.891028377,-0.266000893,0.284737101,ST
19.0,-2.681474924,-1.763325453,7.960684776,-10.0991497,-4.138745785,19.29128075,-1063.5,-9.900000572,-921.3000488,1.780920027,-0.316042906,0.227577932,ST
19.03333333,-0.818857729,-2.536126137,8.795692444,-9.100667953,-2.19513607,16.61595917,-1073.100098,-2.700000048,-942.9000244,1.714850357,-0.103383914,0.290007706,ST
19.06666667,-2.914750814,-0.922336459,9.947117805,-5.609791756,0.762199998,11.37202358,-1094.700073,-2.100000143,-940.500061,1.629846238,-0.278136761,0.108185785,ST
19.1,-2.418890238,-1.388888001,9.132447243,-2.972579956,-0.708845973,13.42234135,-1097.100098,0.300000012,-950.1000366,1.58489472,-0.25939294,0.147355873,ST
19.13333333,-3.475808859,-1.519283175,9.506884575,-3.605206013,-0.29725799,11.03665543,-1099.5,-3.300000191,-933.3000488,1.54133869,-0.343535921,0.157523209,ST
19.16666667,-3.774880409,-0.369054228,10.23243141,-3.307947874,-1.211897969,9.199753761,-1087.5,1.5,-954.9000244,1.459654897,-0.351726508,0.041861407,ST
19.2,-2.906974792,-0.802109718,9.036146164,-3.567095995,-1.920743942,10.64793396,-1094.700073,-8.100000381,-935.7000122,1.428216816,-0.310872972,0.085815989,ST
19.23333333,-2.908769369,-0.791343153,8.932666779,-4.222588062,-0.998481989,9.817135811,-1099.5,1.5,-935.7000122,1.386320898,-0.313287909,0.089898511,ST
19.26666667,-2.714372873,-1.023422599,8.219082832,-4.756127834,-0.182927996,10.12201595,-1109.100098,-0.300000012,-935.7000122,1.349759228,-0.318239498,0.124626416,ST
19.3,-2.658147335,-1.352999449,8.847132683,-4.885701656,0.571649969,7.408583641,-1113.900024,-1.5,-954.9000244,1.323020841,-0.292932392,0.154882781,ST
19.33333333,-3.844862938,-1.47561872,9.317871094,-4.123501778,1.303362012,5.609791756,-1113.900024,0.900000036,-947.7000122,1.298890825,-0.384872604,0.160287612,ST
19.36666667,-3.727627039,-1.603621364,9.965062141,-2.606724024,0.685979962,4.032037735,-1104.300049,6.300000191,-942.9000244,1.279870078,-0.357498321,0.161489843,ST
19.4,-3.587063313,-1.406234145,9.244299889,-1.463423967,-0.632625997,2.789651871,-1097.100098,5.100000381,-945.3000488,1.263732429,-0.365446267,0.152217095,ST
19.43333333,-3.919032812,-1.40264523,8.351870537,-1.074702024,0.137196004,2.218001842,-1104.300049,5.700000286,-945.3000488,1.259216537,-0.430105947,0.165675387,ST
19.46666667,-3.768300772,-1.473824263,8.561220169,-1.265251994,1.623485923,2.743919849,-1104.300049,9.900000572,-947.7000122,1.250158086,-0.413926689,0.17050521,ST
19.5,-3.692934752,-1.461263299,8.121584892,-1.85214591,1.440557957,2.888737917,-1094.700073,9.900000572,-952.500061,1.240895435,-0.423535574,0.178693552,ST
19.53333333,-4.453174591,-1.729231358,8.444582939,-2.286599874,2.789651871,3.353679895,-1097.100098,8.700000763,-942.9000244,1.237032401,-0.479195167,0.202001901,ST
19.56666667,-3.641494513,-2.237054825,8.571389198,-2.621968031,1.333850026,1.981719971,-1082.700073,7.500000477,-942.9000244,1.249048645,-0.397365654,0.255981574,ST
19.6,-4.315003395,-2.152716637,8.287270546,-2.59910202,1.006103992,1.310984015,-1087.5,8.100000381,-935.7000122,1.241627114,-0.464736469,0.257718493,ST
19.63333333,-3.493753195,-2.342327833,8.181399345,-1.646351933,-0.365855992,0.42683199,-1082.700073,12.30000019,-945.3000488,1.246135837,-0.392857848,0.280199033,ST
19.66666667,-4.15111208,-2.090509653,7.659819126,-0.960371971,0.198172003,0.510674,-1087.5,2.700000048,-928.500061,1.237954244,-0.476873166,0.268516582,ST
19.7,-4.203748703,-2.161688805,7.643070698,-0.632625997,0.609759986,0.800309956,-1092.300049,12.30000019,-942.9000244,1.237941387,-0.487489295,0.275711383,ST
19.73333333,-4.620056152,-2.599529266,8.162259102,-0.144817993,0.960371971,0.716467977,-1082.700073,4.5,-935.7000122,1.250631911,-0.496052382,0.306226947,ST
19.76666667,-4.599719524,-2.564836979,9.334020615,0.388722003,0.358233988,0.602137983,-1077.900024,18.30000114,-935.7000122,1.232871005,-0.447617031,0.269382361,ST
19.8,-4.878454208,-2.759831667,8.027078629,-0.076219998,-0.861285985,0.304879993,-1082.700073,15.30000019,-935.7000122,1.257781284,-0.51719692,0.327903185,DLL
19.83333333,-4.368237972,-2.804094315,9.015211105,-0.42683199,-0.868907988,-0.434453994,-1063.5,15.90000057,-938.1000366,1.246346823,-0.435433707,0.303488998,DLL
19.86666667,-4.390967369,-2.481096983,7.256072521,-0.868907988,-1.143299937,0.929883957,-1089.900024,11.70000076,-942.9000244,1.251571863,-0.513601965,0.328115321,DLL
19.9,-4.46693182,-2.291485786,7.662211418,-1.707327962,0.419209987,2.568614006,-1080.300049,6.300000191,-945.3000488,1.22213505,-0.511513691,0.293080099,DLL
19.93333333,-5.178721905,-1.922431469,7.172930717,-2.804895878,-0.739333987,5.510705948,-1077.900024,12.30000019,-933.3000488,1.18105517,-0.604273681,0.262380475,DLL
19.96666667,-6.171041012,-2.940470934,7.496525764,-5.907049656,0.312501997,10.29732132,-1087.5,12.90000057,-947.7000122,1.193019886,-0.658288972,0.366453226,DLL
20.0,-3.444705486,-3.465640306,9.420153618,-6.814067841,-2.949713945,8.01072216,-1068.300049,14.70000076,-940.500061,1.143765093,-0.346798952,0.358494548,DLL
20.03333333,-3.184513092,-3.079838276,8.926087379,-5.548815727,-4.634175777,6.311016083,-1089.900024,15.30000019,-933.3000488,1.101330228,-0.322888079,0.338761866,DLL
20.06666667,-3.42436862,-3.051725388,7.911038876,-3.887219906,-3.10977602,4.961921692,-1097.100098,20.70000076,-933.3000488,1.083824158,-0.378635972,0.369255082,DLL
20.1,-4.392762184,-2.780766726,8.399123192,-2.347575903,-0.93750596,3.498497963,-1085.100098,23.10000038,-933.3000488,1.04818785,-0.456303279,0.323853979,DLL
20.13333333,-5.401230812,-2.70181179,8.518154144,-1.089946032,1.105189919,4.192100048,-1089.900024,23.70000076,-930.9000244,1.024879464,-0.542172391,0.306460412,DLL
20.16666667,-4.966979027,-2.11323905,6.72851038,-0.685979962,-0.83079797,3.536607981,-1092.300049,18.90000153,-940.500061,1.006754718,-0.611208576,0.301346022,DLL
20.2,-6.154891014,-2.294476509,7.689725876,-0.419209987,1.356715918,5.442107677,-1089.900024,21.90000153,-942.9000244,0.980657817,-0.656341285,0.285327633,DLL
20.23333333,-5.392259121,-2.689250708,8.543275833,-2.202757835,-1.524399996,4.146368027,-1073.100098,26.10000038,-930.9000244,0.970945209,-0.54846131,0.302893648,DLL
20.26666667,-4.277918339,-2.497844934,7.62273407,-4.093013763,-5.365887642,4.382649899,-1065.900024,24.30000114,-933.3000488,0.949585356,-0.487329713,0.317381751,DLL
20.3,-4.778563976,-1.97207737,6.764997005,-4.626554012,-4.53508997,6.44821167,-1089.900024,27.30000114,-935.7000122,0.897759469,-0.585229293,0.285534837,DLL
20.33333333,-3.848451853,-2.729326487,7.576078892,-4.573199749,-3.307947874,6.882665634,-1097.100098,23.70000076,-938.1000366,0.890964365,-0.452879373,0.343527767,DLL
20.36666667,-3.09718442,-2.77239275,7.841056347,-4.641798019,-2.919225931,6.349125862,-1089.900024,29.10000038,-933.3000488,0.855728541,-0.360176713,0.343215521,DLL
20.4,-3.80538559,-2.290887594,7.681352139,-4.390272141,-3.673803806,5.190581799,-1104.300049,26.10000038,-921.3000488,0.805802295,-0.435937027,0.295295198,DLL
20.43333333,-5.173936844,-2.224493742,8.086893082,-3.940573931,-2.911603928,5.998513699,-1089.900024,29.70000076,-935.7000122,0.76318939,-0.543714457,0.270340269,DLL
20.46666667,-4.789330959,-2.72513938,8.162857056,-4.047281742,-2.926847935,6.371991634,-1101.900024,33.30000305,-926.1000366,0.755351817,-0.508691067,0.319326676,DLL
20.5,-4.196570873,-3.185111284,8.763392448,-4.580821991,-2.964957952,5.693634033,-1104.300049,32.10000229,-916.500061,0.737830885,-0.426686783,0.349522332,DLL
20.53333333,-5.193077087,-2.521770716,7.84404707,-5.503083706,-3.993927956,5.503083706,-1097.100098,30.30000114,-928.500061,0.688566624,-0.550786165,0.316340793,DLL
20.56666667,-4.651757717,-3.586465359,8.467909813,-5.678390026,-2.560992002,7.782062054,-1104.300049,36.30000305,-921.3000488,0.688697099,-0.474308687,0.39798192,DLL
20.6,-3.248514414,-3.983632088,8.295046806,-7.355229855,-4.085391998,5.213448048,-1109.100098,44.70000076,-921.3000488,0.675239519,-0.345193015,0.452840285,DLL
20.63333333,-3.348404408,-3.548184156,7.883524418,-4.61893177,-1.082324028,5.175337791,-1094.700073,45.90000153,-914.1000366,0.637534516,-0.370555204,0.428516237,DLL
20.66666667,-3.53023982,-3.968080521,8.807655334,-3.216483831,-0.40396598,3.910085917,-1094.700073,45.30000305,-918.9000244,0.618223979,-0.35363732,0.426603109,DLL
20.7,-3.729421377,-3.445901632,7.42773962,-2.87349391,-1.875011921,2.141782045,-1094.700073,44.10000229,-909.3000488,0.607410153,-0.421604832,0.436646082,DLL
20.73333333,-3.209037066,-3.837685347,7.600004673,-1.836901903,-1.440557957,3.422277927,-1101.900024,43.5,-906.9000244,0.601308017,-0.363850377,0.466781525,DLL
20.76666667,-5.133861065,-2.721550465,7.503703594,-1.623485923,-0.541162014,2.568614006,-1101.900024,44.70000076,-906.9000244,0.539460451,-0.559756062,0.356148252,DLL
20.8,-4.175636292,-3.69712162,8.592324257,-0.922261953,-0.266770005,2.751541853,-1106.700073,45.90000153,-904.500061,0.550584679,-0.429700134,0.40293187,DLL
20.83333333,-3.925612211,-3.724038124,7.471404076,-1.143299937,-0.579271972,0.495429993,-1104.300049,47.70000076,-916.500061,0.570148466,-0.438498114,0.460102788,DLL
20.86666667,-5.12847805,-3.126493216,7.504899979,-1.707327962,-0.327746004,-1.059458017,-1092.300049,47.10000229,-909.3000488,0.542304996,-0.554080224,0.402641168,DLL
20.9,-4.505811214,-4.145130634,7.908646584,-0.114329994,1.265251994,0.685979962,-1101.900024,47.10000229,-902.1000366,0.579662952,-0.473619604,0.479554259,DLL
20.93333333,-4.096083164,-4.386182308,7.445085526,-0.670735955,-0.419209987,0.243903995,-1109.100098,42.90000153,-902.1000366,0.599297714,-0.444169662,0.529996003,DLL
20.96666667,-4.603906631,-3.851442575,7.257268906,-0.594515979,0.312501997,-0.266770005,-1082.700073,47.70000076,-899.7000122,0.582083637,-0.506992522,0.491866599,DLL
21.0,-5.500522614,-3.657644272,8.070743561,0.922261953,2.080806017,1.371959925,-1089.900024,45.30000305,-904.500061,0.550304486,-0.556700708,0.427737473,DLL
21.03333333,-4.822826862,-3.916042089,7.172332287,-0.053353999,0.060975999,0.099086002,-1089.900024,39.30000305,-894.9000244,0.585532923,-0.534548455,0.496297668,DLL
21.06666667,-3.987819195,-4.004567146,6.206929684,-0.548784018,-0.175305992,1.387203932,-1085.100098,49.50000381,-897.3000488,0.615439959,-0.49847198,0.568170364,DLL
21.1,-6.67647171,-2.6898489,6.848138809,-1.371959925,0.655492008,2.431417942,-1087.5,47.10000229,-897.3000488,0.501493374,-0.725442736,0.387804549,DLL
21.13333333,-5.956307888,-3.331656456,7.41577673,-1.196653962,1.333850026,4.786615849,-1094.700073,47.70000076,-892.500061,0.505101788,-0.643113697,0.417473747,DLL
21.16666667,-4.830602646,-3.821535349,7.245903969,-3.323191881,-1.120433927,2.378063917,-1082.700073,48.30000305,-894.9000244,0.526226942,-0.539681089,0.484249985,DLL
21.2,-5.109935284,-3.3442173,6.876849651,-4.283564091,-2.25611186,2.538125992,-1085.100098,44.70000076,-894.9000244,0.49185292,-0.584657739,0.458136724,DLL
21.23333333,-5.41738081,-3.314908266,6.741669655,-2.934469938,-0.952749968,4.21496582,-1080.300049,54.30000305,-890.1000366,0.470536775,-0.623968182,0.456964421,DLL
21.26666667,-4.572205067,-3.756936073,6.997674465,-3.307947874,-2.027451992,3.231727839,-1097.100098,54.30000305,-878.1000366,0.46977682,-0.52804192,0.492342204,DLL
21.3,-4.054213047,-4.009950638,7.034161568,-4.153989792,-3.140264034,3.559473991,-1080.300049,54.90000153,-885.3000488,0.457039367,-0.46573215,0.519835062,DLL
21.33333333,-4.286890507,-3.749758244,6.695612431,-4.740883827,-3.666181803,2.782029867,-1089.900024,53.10000229,-880.500061,0.43079831,-0.503811018,0.515106387,DLL
21.36666667,-3.963893414,-4.509997845,8.051602364,-3.338435888,-2.500015974,1.714949965,-1082.700073,54.30000305,-875.7000122,0.414777882,-0.409438132,0.514304117,DLL
21.4,-4.018324375,-4.702002048,7.917020321,-2.972579956,-3.307947874,0.396344006,-1092.300049,50.70000076,-885.3000488,0.41137892,-0.406997736,0.538349392,DLL
21.43333333,-4.789928913,-4.511194229,7.992386341,-1.42531395,-1.859767914,1.23476398,-1094.700073,60.30000305,-873.3000488,0.391044734,-0.476092938,0.515675514,DLL
21.46666667,-4.422668934,-4.407715321,8.233437538,-0.42683199,-1.356715918,1.539644003,-1094.700073,57.90000153,-868.500061,0.372568936,-0.443571309,0.492084941,DLL
21.5,-4.098475456,-4.444202423,8.034854889,0.312501997,-0.655492008,2.06556201,-1101.900024,53.70000076,-890.1000366,0.36960563,-0.421947607,0.502357573,DLL
21.53333333,-3.856227636,-4.550671577,7.383476734,0.358233988,-0.967993975,2.004585981,-1080.300049,57.30000305,-882.9000244,0.380177891,-0.418929839,0.547391632,DLL
21.56666667,-4.663720608,-4.008754253,8.176015854,0.564027965,-0.243903995,2.858249903,-1104.300049,56.70000076,-870.9000244,0.333191379,-0.47189368,0.458408116,DLL
21.6,-5.22238636,-3.280215979,7.543779373,0.541162014,-0.609759986,1.333850026,-1092.300049,50.70000076,-887.7000122,0.305731336,-0.559950924,0.410877132,DLL
21.63333333,-3.922621489,-3.858022213,7.873355865,1.364337921,-0.167683989,2.225623846,-1092.300049,51.30000305,-875.7000122,0.319140438,-0.430463787,0.449247503,DLL
21.66666667,-4.727722168,-3.411209345,7.3523736,0.975615978,-0.53354001,0.975615978,-1080.300049,62.70000076,-878.1000366,0.309484842,-0.521987948,0.432715151,DLL
21.7,-4.318592072,-3.707290173,7.466618538,-0.335367978,-0.762199998,1.189031959,-1082.700073,54.30000305,-882.9000244,0.316277695,-0.480389718,0.458524849,DLL
21.73333333,-3.378909588,-4.133766174,7.178912163,-0.746955991,-0.876529992,0.891773999,-1101.900024,48.30000305,-875.7000122,0.336144003,-0.390872871,0.520135242,DLL
21.76666667,-3.094193697,-3.950734377,7.683744431,1.12805593,0.632625997,1.135677934,-1087.5,56.70000076,-880.500061,0.316650775,-0.345792994,0.472505518,DLL
21.8,-4.015333652,-4.371827126,7.141229153,2.141782045,1.623485923,-2.393307924,-1087.5,47.70000076,-902.1000366,1.058216747,-0.432485876,1.426030852,DLL
21.83333333,-4.735497952,-3.688149452,7.215996742,2.278977871,2.08842802,-1.166165948,-1073.100098,51.90000153,-894.9000244,0.600484476,-0.531197591,0.470807849,DLL
21.86666667,-6.452168465,-2.744878054,8.148501396,2.46952796,1.775925994,-1.349093914,-1073.100098,42.90000153,-887.7000122,0.535901747,-0.639163514,0.332573018,DLL
21.9,-5.423362255,-3.395059586,7.303923607,3.00306797,1.036592007,-1.394825935,-1073.100098,50.70000076,-902.1000366,0.60257418,-0.596236941,0.426074469,DLL
21.93333333,-4.713964939,-3.94654727,6.926495552,2.317087889,0.289635986,-1.250007987,-1073.100098,45.90000153,-899.7000122,0.656816316,-0.537357788,0.509956061,DLL
21.96666667,-5.09079504,-3.243131161,7.056890965,1.082324028,-0.480185986,-1.592997909,-1085.100098,45.90000153,-899.7000122,0.623747489,-0.575874581,0.435230118,DLL
22.0,-4.530932903,-3.627139091,7.126275539,2.118916035,0.823175967,-0.022865999,-1087.5,47.70000076,-892.500061,0.645843536,-0.519708199,0.46599404,DLL
22.03333333,-4.088905334,-3.700710535,7.166949272,1.867389917,0.030487999,-0.525918007,-1075.5,43.5,-904.500061,0.654622371,-0.471893537,0.473373942,DLL
22.06666667,-5.09079504,-3.465640306,7.794401169,1.204275966,0.449698001,-1.303362012,-1092.300049,44.10000229,-911.7000122,0.636632741,-0.533869449,0.421163494,DLL
22.1,-5.848641872,-2.646782637,6.539496899,1.067080021,0.785066009,-2.370441914,-1070.700073,48.90000153,-902.1000366,0.629275531,-0.684864298,0.387906951,DLL
22.13333333,-5.574094296,-3.018827677,7.765091896,2.25611186,2.347575903,1.387203932,-1077.900024,44.10000229,-902.1000366,0.62124892,-0.598318239,0.367231562,DLL
22.16666667,-4.935277462,-3.104960203,7.905655861,1.699705958,-0.503051996,-0.167683989,-1092.300049,43.5,-899.7000122,0.62683631,-0.529864149,0.371032577,DLL
22.2,-5.817538738,-2.323785543,7.296147823,0.967993975,-1.55488801,0.625003994,-1082.700073,40.5,-914.1000366,0.591419952,-0.640347785,0.309568876,DLL
22.23333333,-4.508801937,-2.993107319,7.228557587,1.036592007,-1.196653962,2.08842802,-1089.900024,48.30000305,-914.1000366,0.626754466,-0.529464254,0.383849952,DLL
22.26666667,-4.928698063,-2.839384794,8.592922211,1.013725996,-1.432935953,0.243903995,-1068.300049,39.90000153,-916.500061,0.594972755,-0.498304169,0.320304491,DLL
22.3,-3.771291494,-2.985929728,7.967862606,1.318606019,-2.858249903,-0.259148002,-1089.900024,42.90000153,-906.9000244,0.609431302,-0.417581013,0.353599524,DLL
22.33333333,-2.770598173,-3.393863201,7.873954296,0.40396598,-3.612828016,-1.34147191,-1097.100098,41.70000076,-909.3000488,0.627260041,-0.312629813,0.403075761,DLL
22.36666667,-4.438818932,-2.378216505,8.380580902,1.265251994,-1.379581928,-1.623485923,-1104.300049,47.10000229,-909.3000488,0.588139436,-0.458808985,0.283553733,DLL
22.4,-3.156998634,-2.993705511,8.053995132,2.926847935,-0.792688012,-1.562510014,-1109.100098,39.90000153,-911.7000122,0.622711192,-0.356574549,0.347646646,DLL
22.43333333,-3.596633673,-3.018229485,8.637184143,3.033555984,-0.388722003,-1.501533985,-1097.100098,45.90000153,-923.7000122,0.627117007,-0.372238908,0.332539915,DLL
22.46666667,-4.4477911,-2.816057205,9.808348656,3.955817938,-0.182927996,-3.10977602,-1099.5,38.10000229,-906.9000244,0.623534369,-0.406978196,0.278401318,DLL
22.5,-3.347806215,-3.046940327,8.492433548,5.762231827,-0.777444005,-5.167716026,-1111.5,37.5,-918.9000244,0.67109815,-0.354237256,0.334314323,DLL
22.53333333,-3.143241405,-3.068473339,8.368020058,5.693634033,-0.442075998,-7.279009819,-1109.100098,41.10000229,-926.1000366,0.707863028,-0.33527447,0.344952108,DLL
22.56666667,-3.285599232,-2.809477568,7.802176952,5.015275955,0.114329994,-11.03665543,-1118.700073,42.90000153,-918.9000244,0.753907052,-0.368751337,0.343881985,DLL
22.6,-3.615774155,-1.824336052,8.174819946,6.158576012,2.789651871,-9.672317505,-1118.700073,35.10000229,-921.3000488,0.755605428,-0.405978569,0.224113753,DLL
22.63333333,-4.009950638,-2.368646145,7.979227066,5.312533855,1.974097967,-7.416205883,-1121.100098,33.30000305,-928.500061,0.816449563,-0.446220886,0.28177645,DLL
22.66666667,-4.131373405,-2.333953857,7.886515141,5.381131649,2.324709892,-5.53357172,-1111.5,33.30000305,-933.3000488,0.850207811,-0.46569058,0.283447524,DLL
22.7,-2.953031778,-2.859721661,8.363235474,4.458869934,1.42531395,-5.647902012,-1113.900024,29.10000038,-935.7000122,0.894957666,-0.329630274,0.323218037,DLL
22.73333333,-5.092589378,-2.22628808,8.204727173,3.269837856,1.471045971,-3.772889853,-1128.300049,30.30000114,-933.3000488,0.892896551,-0.529958169,0.266389068,DLL
22.76666667,-4.044642925,-3.00507021,8.816627502,2.545747995,1.303362012,-3.292703867,-1130.700073,29.10000038,-935.7000122,0.937593373,-0.415958806,0.324078882,DLL
22.8,-4.481287003,-2.778972149,8.556435585,1.737815976,0.891773999,-5.289668083,-1130.700073,29.10000038,-935.7000122,0.95847071,-0.458767979,0.315909522,DLL
22.83333333,-4.099073887,-2.991911173,8.49123764,1.966475964,0.846041977,-3.955817938,-1130.700073,25.50000191,-933.3000488,0.98562969,-0.428357668,0.337215752,DLL
22.86666667,-3.570315361,-3.170157671,7.500712872,2.06556201,0.663114011,-4.245453835,-1137.900024,23.10000038,-942.9000244,1.028309507,-0.412547684,0.39571457,DLL
22.9,-5.467624664,-2.460760117,8.155679703,2.560992002,3.589962006,-3.368923903,-1125.900024,24.90000153,-928.500061,1.003563369,-0.565000443,0.299884156,DLL
22.93333333,-4.626037598,-3.469229221,8.741859436,2.19513607,1.615863919,-2.423795938,-1128.300049,21.90000153,-940.500061,1.055257906,-0.463015989,0.373325901,DLL
22.96666667,-3.273038387,-3.503921509,8.390151024,2.309465885,0.83079797,-2.919225931,-1121.100098,26.10000038,-940.500061,1.077654953,-0.352118863,0.392437932,DLL
23.0,-4.467529774,-2.811870098,8.413478851,1.966475964,0.967993975,-3.147886038,-1118.700073,26.70000076,-935.7000122,1.066851508,-0.459433919,0.326344243,DLL
23.03333333,-3.415396452,-3.551174879,8.15687561,2.317087889,0.579271972,-1.661595941,-1106.700073,24.30000114,-942.9000244,1.108027864,-0.372139542,0.403053126,DLL
23.06666667,-4.428650379,-2.758635283,8.129959106,2.164648056,1.028970003,-2.202757835,-1106.700073,26.10000038,-947.7000122,1.091112483,-0.471578088,0.329419424,DLL
23.1,-4.13256979,-3.037968159,8.228055,1.85214591,0.663114011,0.365855992,-1111.5,20.70000076,-947.7000122,1.102915216,-0.443099706,0.349360991,DLL
23.13333333,-4.767199516,-2.759831667,7.470207691,1.478667974,0.876529992,0.228659987,-1121.100098,25.50000191,-938.1000366,1.106995046,-0.53502137,0.35123605,DLL
23.16666667,-4.390967369,-2.793925762,8.015115738,0.91463995,1.250007987,1.478667974,-1116.300049,17.10000038,-952.500061,1.096814703,-0.483290314,0.333876339,DLL
23.2,-5.328257561,-2.058808088,8.03246212,0.106707998,0.449698001,1.95885396,-1116.300049,21.30000114,-938.1000366,1.050908314,-0.567446339,0.254191557,DLL
23.23333333,-4.411902428,-2.464947224,7.827299118,-0.373477995,-1.089946032,3.940573931,-1104.300049,24.30000114,-947.7000122,1.058673366,-0.497979736,0.299023846,ST
23.26666667,-4.241431713,-1.97207737,8.008536339,0.076219998,-1.44817996,3.536607981,-1123.5,23.70000076,-952.500061,1.017234234,-0.475244039,0.240843688,ST
23.3,-4.255787373,-1.500740767,8.330337524,0.640248001,-1.097568035,4.512223721,-1113.900024,21.90000153,-933.3000488,0.972125319,-0.466004381,0.176712498,ST
23.33333333,-3.489566088,-1.705305576,8.921302795,0.853663981,-1.242385983,4.093013763,-1106.700073,22.5,-940.500061,0.95985721,-0.370868677,0.184054512,ST
23.36666667,-3.507510424,-1.333858848,8.890198708,0.716467977,-1.8292799,2.926847935,-1113.900024,17.10000038,-940.500061,0.934611528,-0.369679465,0.147223131,ST
23.4,-3.624148369,-1.364364147,9.126465797,1.074702024,-0.800309956,2.339953899,-1118.700073,21.90000153,-947.7000122,0.925778356,-0.373257396,0.144975334,ST
23.43333333,-3.914845705,-1.145443797,8.362636566,0.83079797,-0.891773999,1.34147191,-1111.5,14.10000038,-940.500061,0.917549091,-0.429419488,0.134235631,ST
23.46666667,-2.893217564,-1.752558947,8.86268425,0.564027965,0.144817993,1.219519973,-1109.100098,22.5,-930.9000244,0.934346642,-0.317807668,0.190091938,ST
23.5,-3.700112343,-1.296175838,7.582658291,0.060975999,-0.190549999,-0.106707998,-1106.700073,17.10000038,-942.9000244,0.927503327,-0.440039458,0.170579628,ST
23.53333333,-4.307227612,-1.652669072,8.856104851,0.121951997,1.42531395,0.609759986,-1111.5,16.5,-942.9000244,0.931865379,-0.448098718,0.183178561,ST
23.56666667,-4.346107006,-1.47322619,8.355459213,-0.282013983,0.602137983,0.114329994,-1101.900024,18.90000153,-940.500061,0.92793106,-0.472871002,0.175512485,ST
23.6,-4.130177021,-1.902094603,9.488940239,-0.251525998,0.167683989,-0.205793992,-1106.700073,23.10000038,-938.1000366,0.937646892,-0.407369145,0.197232167,ST
23.63333333,-3.219205379,-1.606013894,8.866871834,-0.381099999,-1.516777992,-0.61738199,-1104.300049,20.10000038,-942.9000244,0.932390911,-0.344379311,0.181069961,ST
23.66666667,-4.348499298,-1.427767277,8.181399345,-0.129574001,-0.998481989,0.182927996,-1130.700073,15.30000019,-935.7000122,0.927653366,-0.473957038,0.173121195,ST
23.7,-3.122306347,-1.558760524,7.733390331,-0.083841994,-0.754577994,-0.61738199,-1111.5,24.30000114,-938.1000366,0.939516249,-0.38134282,0.197837839,ST
23.73333333,-4.601513863,-0.879868329,7.151995659,-2.713431835,0.335367978,0.0,-1106.700073,26.10000038,-945.3000488,0.904700598,-0.557494323,0.132015293,ST
23.76666667,-3.904677391,-1.796223402,7.50968504,-5.838451862,-0.541162014,2.705809832,-1121.100098,20.10000038,-938.1000366,0.934917355,-0.473806702,0.235970765,ST
23.8,-5.358762741,-2.173651457,7.515666485,-7.423827648,-0.160062,3.307947874,-1106.700073,25.50000191,-940.500061,0.934436093,-0.594084203,0.287337005,ST
23.83333333,-4.958006859,-3.116324902,8.021097183,-8.178405762,0.625003994,5.365887642,-1097.100098,23.70000076,-947.7000122,0.946936284,-0.531173224,0.374389604,ST
23.86666667,-4.576391697,-3.835292816,7.891300201,-9.649452209,-1.585376024,2.98020196,-1101.900024,29.10000038,-930.9000244,0.956194729,-0.48282261,0.4621265,ST
23.9,-5.381492138,-3.767104387,7.177117348,-7.766818047,0.594515979,4.161612034,-1106.700073,30.90000153,-926.1000366,0.943003247,-0.58388,0.491198789,ST
23.93333333,-3.852040768,-4.921520233,8.478676796,-6.295772076,1.897877932,3.940573931,-1109.100098,31.50000191,-926.1000366,0.942202548,-0.393082345,0.532424401,ST
23.96666667,-4.971764565,-4.512390614,8.208315849,-4.786615849,-0.251525998,2.286599874,-1094.700073,41.10000229,-918.9000244,0.91686026,-0.483725459,0.510638564,ST
24.0,-4.468726158,-4.645178318,7.833878517,-2.515259981,-0.358233988,1.760681987,-1104.300049,32.70000076,-921.3000488,0.917648282,-0.458626954,0.536654708,ST
24.03333333,-5.554355621,-4.13256979,8.015713692,-0.518296003,0.29725799,2.225623846,-1082.700073,36.90000153,-909.3000488,0.882339576,-0.548552537,0.47893429,ST
24.06666667,-4.536914349,-4.644580364,7.902066708,0.655492008,-1.669217944,2.240867853,-1089.900024,40.5,-918.9000244,0.896107671,-0.464505502,0.524933129,ST
24.1,-3.731813908,-4.181019306,7.530620098,1.211897969,-1.875011921,2.446661949,-1089.900024,39.90000153,-928.500061,0.877973934,-0.411467906,0.503694113,ST
24.13333333,-5.611179352,-3.257486582,7.050909519,0.503051996,-2.644834042,1.836901903,-1106.700073,47.70000076,-921.3000488,0.832825899,-0.614448316,0.431926127,ST
24.16666667,-3.987221003,-3.95851016,7.473198414,1.059458017,-1.356715918,4.275941849,-1101.900024,36.90000153,-911.7000122,0.842657539,-0.45038268,0.479209156,ST
24.2,-4.291676044,-3.212027788,7.289568424,0.510674,-1.135677934,3.81099987,-1089.900024,31.50000191,-921.3000488,0.797876346,-0.493347207,0.413228782,ST
24.23333333,-3.893312693,-3.309525013,7.877542973,1.089946032,-0.777444005,4.138745785,-1085.100098,33.30000305,-909.3000488,0.776180522,-0.43296516,0.393679672,ST
24.26666667,-4.239637375,-3.247318268,8.39732933,1.943609953,-1.280496001,2.721053839,-1092.300049,37.5,-918.9000244,0.756409551,-0.439318312,0.364998359,ST
24.3,-3.997987509,-3.173148394,8.59950161,1.859767914,-2.500015974,0.541162014,-1101.900024,41.10000229,-926.1000366,0.748188068,-0.409251456,0.350054596,NLR
24.33333333,-4.413098812,-2.713774681,8.783729553,2.439039946,-3.353679895,1.028970003,-1099.5,39.30000305,-921.3000488,0.722603485,-0.440882001,0.296567643,NLR
24.36666667,-4.187598705,-2.137164831,7.312895775,1.653973937,-3.742401838,1.867389917,-1087.5,39.90000153,-918.9000244,0.707926935,-0.493785517,0.279893217,NLR
24.4,-3.937575102,-2.217914104,7.479179859,0.823175967,-2.157026052,3.490875959,-1106.700073,31.50000191,-926.1000366,0.696788764,-0.467236768,0.283136433,NLR
24.43333333,-3.246121883,-2.234064102,8.074332237,0.182927996,-0.655492008,2.355197906,-1106.700073,38.70000076,-926.1000366,0.680994266,-0.373483603,0.268473585,NLR
24.46666667,-4.736694336,-1.670015216,8.112014771,-0.137196004,0.594515979,1.669217944,-1109.100098,31.50000191,-923.7000122,0.648642611,-0.512190104,0.206178757,NLR
24.5,-3.872377634,-2.87587142,8.999659538,-0.480185986,0.137196004,1.356715918,-1097.100098,32.10000229,-933.3000488,0.685939571,-0.397428933,0.303248014,NLR
24.53333333,-4.781554699,-2.610893965,8.954798698,-0.358233988,0.61738199,0.754577994,-1113.900024,35.10000229,-940.500061,0.675564687,-0.47085584,0.28494283,NLR
24.56666667,-3.344815493,-3.301151037,8.635988235,-0.663114011,-0.609759986,-0.503051996,-1116.300049,30.90000153,-928.500061,0.70638658,-0.353486151,0.361715483,NLR
24.6,-3.945949078,-2.917741299,8.131155968,-0.548784018,0.137196004,-1.692083955,-1111.5,32.70000076,-911.7000122,0.706302786,-0.423180246,0.347685578,NLR
24.63333333,-4.442408085,-2.561846256,7.86019659,0.739333987,1.882633924,-1.143299937,-1109.100098,36.90000153,-916.500061,0.700334008,-0.491186111,0.317339868,NLR
24.66666667,-3.816152096,-3.056510687,7.908048153,2.004585981,1.996963978,-0.800309956,-1106.700073,34.5,-933.3000488,0.731112229,-0.428327713,0.364637596,NLR
24.7,-4.447193146,-2.740691185,8.269925117,3.185995817,3.018311977,-1.943609953,-1101.900024,36.30000305,-914.1000366,0.7275084,-0.473012275,0.319858498,NLR
24.73333333,-4.248011589,-3.198270559,8.449965477,3.346057892,0.228659987,-6.882665634,-1094.700073,32.10000229,-930.9000244,0.778253548,-0.437181931,0.359751791,NLR
24.76666667,-3.802394867,-3.54638958,9.104932785,6.204308033,0.259148002,-8.803409576,-1099.5,32.70000076,-930.9000244,0.821276644,-0.370369245,0.366006065,NLR
24.8,-3.913649559,-3.500332594,8.002554893,7.804927826,-0.42683199,-11.81409931,-1113.900024,32.70000076,-923.7000122,0.887876193,-0.410005134,0.404125424,NLR
24.83333333,-3.130680323,-3.667812586,8.236428261,9.245486259,-1.211897969,-12.33239555,-1118.700073,30.90000153,-938.1000366,0.948509629,-0.327527517,0.409220541,NLR
24.86666667,-4.300647736,-2.448797226,7.181304455,9.679940224,0.564027965,-12.72873974,-1128.300049,26.70000076,-933.3000488,0.976705252,-0.498098246,0.328344549,NLR
24.9,-4.419678211,-2.542107582,8.070144653,9.108289719,1.859767914,-8.589993477,-1130.700073,22.5,-942.9000244,1.011309307,-0.481092918,0.299170355,NLR
