seconds,sensor_accX_m_s_,sensor_accY_m_s_,sensor_accZ_m_s_,sensor_gyroX___s_,sensor_gyroY___s_,sensor_gyroZ___s_,sensor_magX__T_,sensor_magY__T_,sensor_magZ__T_,sensor_yaw___,sensor_pitch___,sensor_roll___,label2
0.0,2.21432519,-1.711885214,9.182092667,0.190549999,-0.381099999,0.099086002,-1250.700073,18.90000153,-890.1000366,-2.009589216,0.233342639,0.184082908,ST
0.033333333,2.208941936,-1.721455455,9.136633873,0.121951997,-0.342989981,0.076219998,-1248.300049,23.10000038,-890.1000366,-2.010722678,0.233802524,0.18597629,ST
0.066666667,2.161688805,-1.72265172,9.21558857,0.175305992,-0.266770005,0.076219998,-1248.300049,21.90000153,-899.7000122,-2.011061998,0.227457008,0.18462669,ST
0.1,2.208343744,-1.757344007,9.212597847,0.068598002,-0.312501997,-0.015244,-1253.100098,27.30000114,-890.1000366,-2.012097938,0.231529312,0.188159907,ST
0.133333333,2.128192663,-1.670015216,9.201831818,0.152439997,-0.274392009,0.182927996,-1238.700073,20.10000038,-890.1000366,-2.011269556,0.224611953,0.179891375,ST
0.166666667,2.289093256,-1.737007141,9.113903999,0.243903995,-0.304879993,0.442075998,-1238.700073,18.90000153,-885.3000488,-2.015433576,0.241495919,0.187749987,ST
0.2,2.246026754,-1.758540392,9.124073029,0.099086002,-0.282013983,0.472563982,-1245.900024,27.90000153,-880.500061,-2.018155348,0.237737473,0.19028466,ST
0.233333333,2.257391691,-1.803401113,9.131848335,0.091463998,-0.045731999,0.472563982,-1241.100098,18.90000153,-885.3000488,-2.021335326,0.237837267,0.194808003,ST
0.266666667,2.179034948,-1.789643764,9.199439049,0.144817993,-0.083841994,0.381099999,-1245.900024,23.10000038,-890.1000366,-2.022399742,0.229032861,0.192212611,ST
0.3,2.199371815,-1.833906293,9.194653511,0.099086002,-0.114329994,0.274392009,-1243.5,26.10000038,-878.1000366,-2.024619211,0.230427262,0.196537163,ST
0.333333333,2.092902184,-1.787849307,9.1073246,0.114329994,-0.114329994,0.289635986,-1241.100098,20.70000076,-882.9000244,-2.025377175,0.222354634,0.193916872,ST
0.366666667,2.088117123,-1.80280292,9.217981339,0.190549999,-0.091463998,0.434453994,-1243.5,20.70000076,-885.3000488,-2.02721177,0.218944033,0.193023053,ST
0.4,2.155707359,-1.86620605,9.139026642,0.243903995,-0.198172003,0.419209987,-1245.900024,18.90000153,-892.500061,-2.031105656,0.226948285,0.200827411,ST
0.433333333,2.12998724,-1.809382439,9.116296768,0.29725799,-0.076219998,0.396344006,-1233.900024,14.10000038,-885.3000488,-2.032002315,0.225354238,0.195805292,ST
0.466666667,2.134174109,-1.879365206,9.136633873,0.221037999,-0.053353999,0.243903995,-1243.5,25.50000191,-892.500061,-2.034603075,0.224955291,0.202169332,ST
0.5,1.981647611,-1.844672918,9.18269062,0.243903995,0.068598002,0.091463998,-1245.900024,20.10000038,-894.9000244,-2.034258345,0.209165989,0.198061314,ST
0.533333333,2.038471222,-1.734614611,9.412377357,0.625003994,0.053353999,0.259148002,-1241.100098,23.10000038,-882.9000244,-2.032463306,0.209647049,0.182265262,ST
0.566666667,2.180231094,-1.851252437,9.106726646,0.510674,-0.42683199,0.0,-1238.700073,23.10000038,-880.500061,-2.036807457,0.229871149,0.198631267,ST
0.6,2.098883629,-1.791438222,8.970350266,0.274392009,-0.40396598,0.015244,-1238.700073,24.30000114,-892.500061,-2.037027005,0.226430081,0.196779281,ST
0.633333333,2.070770979,-1.704707503,9.250879288,0.236281991,-0.144817993,0.274392009,-1229.100098,18.90000153,-882.9000244,-2.035404025,0.217266571,0.182584701,ST
0.666666667,2.213129044,-1.815962076,9.158764839,0.289635986,-0.221037999,0.586893976,-1236.300049,17.70000076,-892.500061,-2.040793356,0.231966333,0.19469873,ST
0.7,2.3064394,-1.927814841,9.168335915,0.182927996,-0.320124,0.396344006,-1236.300049,21.90000153,-890.1000366,-2.045628505,0.241308063,0.206513092,ST
0.733333333,2.295074463,-1.957721949,9.22755146,0.198172003,-0.342989981,0.167683989,-1238.700073,18.90000153,-878.1000366,-2.047252807,0.239320393,0.20867554,ST
0.766666667,2.080939293,-1.909272313,9.284973145,0.388722003,-0.129574001,0.114329994,-1241.100098,24.90000153,-894.9000244,-2.046764095,0.217676002,0.202571584,ST
0.8,1.929609179,-1.793232679,9.197644234,0.571649969,0.114329994,0.144817993,-1238.700073,17.70000076,-882.9000244,-2.045557952,0.203733723,0.192260736,ST
0.833333333,1.68975389,-1.696931601,9.104333878,0.762199998,0.282013983,0.335367978,-1248.300049,20.70000076,-880.500061,-2.045575328,0.181326185,0.183591178,ST
0.866666667,1.427169085,-1.673005939,9.085193634,0.72408998,0.464941978,0.442075998,-1238.700073,21.30000114,-892.500061,-2.047084081,0.153922536,0.181085324,ST
0.9,1.337447643,-1.490572333,9.264038086,0.769822001,0.282013983,0.449698001,-1245.900024,20.70000076,-899.7000122,-2.046048468,0.141606823,0.159404206,ST
0.933333333,1.514497995,-1.523470163,9.587634087,1.028970003,-0.289635986,0.61738199,-1241.100098,24.90000153,-887.7000122,-2.048801841,0.154272816,0.156170135,ST
0.966666667,1.724446177,-1.65685606,9.021790504,0.945127964,-1.189031959,0.129574001,-1231.5,20.10000038,-880.500061,-2.054571146,0.185802852,0.178625032,ST
1.0,1.664033771,-1.617976785,9.070240021,0.792688012,-0.983237982,-0.236281991,-1233.900024,23.70000076,-892.500061,-2.054320767,0.180737617,0.175314633,ST
1.033333333,1.649080157,-1.505525827,9.082800865,0.960371971,-0.876529992,-0.29725799,-1248.300049,20.70000076,-887.7000122,-2.052262789,0.178925436,0.163164696,ST
1.066666667,1.555171728,-1.589864016,8.722719193,0.983237982,-0.762199998,-0.388722003,-1245.900024,18.90000153,-890.1000366,-2.054495528,0.175298941,0.177567155,ST
1.1,0.968991637,-1.631135941,8.699391365,1.036592007,0.609759986,-0.350611985,-1248.300049,20.10000038,-902.1000366,-2.053921824,0.111067267,0.183191095,ST
1.133333333,0.626255691,-1.457674384,9.0540905,1.410069942,1.356715918,-0.358233988,-1241.100098,23.10000038,-887.7000122,-2.049669195,0.067931765,0.158237329,ST
1.166666667,0.308641762,-1.382308364,9.219776154,1.920743942,0.868907988,0.114329994,-1229.100098,21.30000114,-892.500061,-2.049359973,0.033164555,0.146028934,ST
1.2,0.059216153,-1.320699692,8.67905426,1.783547997,-0.068598002,0.053353999,-1236.300049,20.70000076,-899.7000122,-2.049775876,0.008445385,0.147788143,ST
1.233333333,0.066992015,-1.18133235,8.768177986,1.623485923,-0.708845973,-0.327746004,-1248.300049,16.5,-897.3000488,-2.048781202,0.0088487,0.132098137,ST
1.266666667,0.437840641,-1.161593676,9.281982422,1.600619912,-1.85214591,-0.586893976,-1236.300049,18.90000153,-904.500061,-2.047310417,0.047606627,0.12231116,ST
1.3,1.390084267,-1.152621508,9.562511444,1.250007987,-3.445143938,-0.922261953,-1241.100098,14.70000076,-882.9000244,-2.045409754,0.143315875,0.117945247,ST
1.333333333,2.152118444,-1.227987528,8.772364616,1.440557957,-4.443625927,-0.907018006,-1250.700073,11.10000038,-887.7000122,-2.048600429,0.239997417,0.135293367,ST
1.366666667,2.978153944,-1.355990171,9.622923851,0.731711984,-4.778994083,-1.04421401,-1250.700073,14.10000038,-875.7000122,-2.048746851,0.301888667,0.138315282,ST
1.4,3.539810181,-1.308138728,8.967359543,-0.083841994,-5.975647926,-1.44817996,-1257.900024,15.90000057,-875.7000122,-2.048378646,0.378145649,0.144223073,ST
1.433333333,3.246121883,-1.230978251,8.779542923,-0.266770005,-5.411619663,-1.379581928,-1255.5,17.70000076,-880.500061,-2.043885924,0.361539254,0.139595249,ST
1.466666667,3.482388496,-1.156210423,9.835863113,0.358233988,-4.359784126,-1.158543944,-1267.5,11.10000038,-866.1000366,-2.034297068,0.346778545,0.117261599,ST
1.5,4.225880146,-1.08503139,10.1774025,1.349093914,-4.878079891,-1.097568035,-1267.5,14.10000038,-866.1000366,-2.029494012,0.396991194,0.104287499,ST
1.533333333,4.982531071,-0.80031532,9.577465057,1.600619912,-5.503083706,-1.394825935,-1277.100098,14.10000038,-868.500061,-2.019253856,0.482534268,0.081267006,ST
1.566666667,5.251695156,-0.317015767,9.539782524,1.204275966,-4.496979713,-1.455801964,-1284.300049,11.10000038,-854.1000366,-1.993836589,0.509567441,0.032402949,ST
1.6,5.20324564,0.081347443,9.744945526,0.785066009,-3.269837856,-0.289635986,-1286.700073,15.30000019,-854.1000366,-1.975184553,0.496958069,-0.007467188,ST
1.633333333,4.646972656,0.35529694,9.958482742,0.762199998,-1.844523907,0.525918007,-1284.300049,9.900000572,-842.1000366,-1.965888672,0.442740821,-0.035062091,ST
1.666666667,4.433435917,0.472532958,9.180896759,1.181409955,0.693601966,1.562510014,-1298.700073,4.5,-858.9000244,-1.967412169,0.448037861,-0.051395157,ST
1.7,3.515286207,0.245836765,9.130652428,1.006103992,2.591480017,1.143299937,-1279.5,5.700000286,-844.500061,-1.98286746,0.36710868,-0.028951103,ST
1.733333333,3.163578272,0.093310304,9.461425781,0.022865999,3.00306797,-0.099086002,-1277.100098,18.90000153,-858.9000244,-1.988805622,0.319859563,-0.010860403,ST
1.766666667,2.833403349,-0.024523862,9.069642067,-0.853663981,2.210379839,-0.518296003,-1291.5,11.70000076,-858.9000244,-1.989890825,0.299966613,0.003187496,ST
1.8,2.518181801,0.018542431,9.357348442,-1.204275966,2.606724024,-0.40396598,-1284.300049,9.900000572,-870.9000244,-1.985873078,0.260165403,6.75e-05,ST
1.833333333,2.682073116,-0.419896364,10.25336647,-1.394825935,1.943609953,-0.205793992,-1274.700073,12.90000057,-861.3000488,-1.993692655,0.252620639,0.041338465,ST
1.866666667,2.506219149,-0.127404451,9.471593857,-1.105189919,1.310984015,-0.144817993,-1279.5,14.10000038,-878.1000366,-1.985444813,0.25621205,0.01645108,ST
1.9,2.271747112,-0.279930919,9.181494713,-1.028970003,2.507637978,0.320124,-1277.100098,17.10000038,-861.3000488,-1.98912488,0.239047189,0.031513057,ST
1.933333333,2.181427479,-0.376231939,9.000257492,-1.082324028,4.032037735,0.083841994,-1267.5,9.300000191,-863.7000122,-1.990481299,0.231066609,0.042898362,ST
1.966666667,1.793830752,-0.0765623,9.240112305,-0.907018006,4.657042027,0.106707998,-1272.300049,18.30000114,-880.500061,-1.983161085,0.185707652,0.011324107,ST
2.0,1.612593412,0.045458864,9.24190712,-0.259148002,5.693634033,1.44817996,-1250.700073,11.10000038,-890.1000366,-1.98617242,0.164200874,-0.003104207,ST
2.033333333,1.756147742,-0.588572681,9.889696121,-0.746955991,5.373509884,1.935987949,-1245.900024,11.10000038,-887.7000122,-2.003032563,0.165836253,0.058057048,ST
2.066666667,1.681379914,-0.942673326,10.18039322,-2.019829988,4.458869934,0.556405962,-1245.900024,15.30000019,-885.3000488,-2.008245179,0.155631671,0.094235329,ST
2.1,1.422384024,-1.064096332,9.579259872,-1.905499935,5.030519962,0.259148002,-1241.100098,14.10000038,-894.9000244,-2.008642141,0.138621775,0.11291994,ST
2.133333333,0.970786035,-1.351803064,9.206018448,-1.04421401,5.053385735,0.884151995,-1224.300049,15.90000057,-894.9000244,-2.012899947,0.096930178,0.146123914,ST
2.166666667,0.539524972,-1.704707503,9.64385891,0.007622,5.137228012,1.440557957,-1226.700073,14.10000038,-904.500061,-2.017526554,0.047792675,0.173862089,ST
2.2,0.086132586,-2.043854475,9.258056641,0.678357959,4.291185856,1.661595941,-1219.5,13.50000095,-894.9000244,-2.021756473,0.003993628,0.213550794,ST
2.233333333,-0.490477234,-2.159894228,8.568398476,0.868907988,4.862835884,1.371959925,-1205.100098,14.10000038,-909.3000488,-2.02165998,-0.060908466,0.243840346,ST
2.266666667,-1.013254166,-2.379412651,9.722215652,0.792688012,5.038141727,1.974097967,-1195.5,18.90000153,-904.500061,-2.024828579,-0.107827139,0.238775217,ST
2.3,-0.321800917,-2.806486845,10.60627079,-0.571649969,2.827761889,1.379581928,-1195.5,12.90000057,-916.500061,-2.026301754,-0.037926607,0.258717179,ST
2.333333333,0.21054633,-2.987724066,8.999659538,-0.076219998,2.141782045,1.013725996,-1183.5,19.5,-918.9000244,-2.02710332,0.015349016,0.317631567,ST
2.366666667,-0.388194799,-2.687456369,8.925489426,1.089946032,2.751541853,1.272873998,-1178.700073,14.70000076,-923.7000122,-2.029014373,-0.043466618,0.292022424,ST
2.4,-0.631639004,-2.469134092,8.841749191,1.775925994,2.157026052,2.035073996,-1185.900024,18.30000114,-928.500061,-2.035625931,-0.071818839,0.270186567,ST
2.433333333,-0.744687974,-2.089911461,9.203625679,1.394825935,0.952749968,2.149404049,-1178.700073,12.90000057,-906.9000244,-2.046213664,-0.080651624,0.223602848,ST
2.466666667,-0.305651069,-1.756745934,9.145008087,1.623485923,-0.160062,2.538125992,-1171.5,24.90000153,-921.3000488,-2.058032351,-0.036258354,0.188996198,ST
2.5,-0.586778283,-1.072470307,9.509875298,1.806414008,-0.53354001,2.797273874,-1188.300049,20.70000076,-914.1000366,-2.072710198,-0.059435089,0.113741976,ST
2.533333333,-0.272753209,-0.885849714,9.048109055,1.974097967,-0.548784018,3.673803806,-1178.700073,10.5,-928.500061,-2.088165126,-0.031473829,0.095117854,ST
2.566666667,0.025122005,-1.141256809,10.16543961,1.23476398,-0.922261953,2.461905956,-1176.300049,10.5,-926.1000366,-2.098162571,0.001471083,0.108748278,ST
2.6,-0.115441591,-1.088022113,8.918312073,1.189031959,-1.097568035,1.211897969,-1185.900024,15.90000057,-926.1000366,-2.103449809,-0.010424759,0.118663466,ST
2.633333333,0.029907148,-1.445711613,8.143716812,1.272873998,0.266770005,1.089946032,-1176.300049,17.70000076,-918.9000244,-2.107404363,0.002044983,0.170147064,ST
2.666666667,-0.97676748,-1.169967651,9.785618782,1.905499935,0.190549999,1.112811923,-1185.900024,8.700000763,-926.1000366,-2.113626029,-0.093206847,0.118865179,ST
2.7,-1.111349583,-1.250716925,9.491930962,1.875011921,-0.685979962,1.684461951,-1173.900024,18.90000153,-921.3000488,-2.119040238,-0.113438313,0.126879131,ST
2.733333333,-0.970187902,-1.262679815,9.472789764,1.577754021,-0.518296003,1.219519973,-1171.5,17.10000038,-916.500061,-2.123216329,-0.101332509,0.129369943,ST
2.766666667,-0.342735916,-1.238754034,8.60368824,1.42531395,-0.83079797,0.876529992,-1188.300049,9.300000191,-928.500061,-2.126052495,-0.042013532,0.13975794,ST
2.8,-0.232677609,-1.068283319,8.08569622,1.55488801,-0.899396002,0.899396002,-1185.900024,17.10000038,-921.3000488,-2.130523563,-0.027896831,0.129140463,ST
2.833333333,-1.186715603,-0.852951884,11.81392193,2.111294031,-0.625003994,1.478667974,-1185.900024,7.500000477,-916.500061,-2.139785771,-0.095096724,0.071513413,ST
2.866666667,-1.106564522,0.354698777,12.72070694,2.919225931,-1.753059983,1.120433927,-1197.900024,11.70000076,-926.1000366,-2.15243097,-0.084232567,-0.027995479,ST
2.9,1.031198502,0.117236026,8.669484138,2.560992002,-4.161612034,2.416173935,-1185.900024,11.10000038,-914.1000366,-2.162355592,0.112910761,-0.01831463,ST
2.933333333,0.922934592,-0.055627298,8.273513794,1.471045971,-3.239349842,1.440557957,-1205.100098,12.90000057,-914.1000366,-2.171824657,0.116577597,0.00345049,ST
2.966666667,0.29428634,0.607713282,9.686326981,1.028970003,-1.897877932,1.798792005,-1193.100098,6.300000191,-918.9000244,-2.174499912,0.037860051,-0.0609983,ST
3.0,-0.238659039,0.75784713,9.683935165,1.051836014,-1.410069942,2.553369999,-1202.700073,12.90000057,-909.3000488,-2.185082838,-0.01914208,-0.079147938,ST
3.033333333,0.718967855,0.664536834,9.337610245,0.144817993,-1.410069942,2.57623601,-1209.900024,6.900000095,-914.1000366,-2.195238611,0.073443799,-0.071547907,ST
3.066666667,1.070675969,0.732725143,9.974632263,0.42683199,-1.63872993,1.387203932,-1214.700073,12.30000019,-914.1000366,-2.200595041,0.1078974,-0.073732413,ST
3.1,1.028805852,0.404344648,8.971546173,0.228659987,-1.371959925,0.525918007,-1181.100098,14.10000038,-911.7000122,-2.205468213,0.115981028,-0.047068151,ST
3.133333333,1.079049945,0.233873904,10.10143852,-0.625003994,-0.983237982,0.121951997,-1207.5,9.300000191,-914.1000366,-2.208184508,0.108589529,-0.02355462,ST
3.166666667,1.309933066,0.17286332,9.774253845,-0.868907988,-1.905499935,-0.022865999,-1202.700073,12.90000057,-909.3000488,-2.208350664,0.134835395,-0.016628023,ST
3.2,1.250716925,-0.040673722,8.727503777,-0.586893976,-0.739333987,0.007622,-1200.300049,12.30000019,-909.3000488,-2.210944394,0.14309611,0.004333205,ST
3.233333333,1.00488019,-0.610105813,9.329833984,-0.594515979,-0.053353999,-0.434453994,-1207.5,16.5,-894.9000244,-2.216252251,0.109390513,0.062510912,ST
3.266666667,0.607713282,-0.835605741,9.526024818,-0.701223969,-0.396344006,-1.661595941,-1212.300049,12.30000019,-911.7000122,-2.211639587,0.067123985,0.086938416,ST
3.3,0.366063505,-0.882859051,10.2701149,-0.396344006,-0.716467977,-1.814036012,-1207.5,12.30000019,-906.9000244,-2.203640118,0.03820181,0.086341578,ST
3.333333333,0.18602246,-0.576011658,9.821507454,0.42683199,-0.708845973,-1.196653962,-1219.5,11.10000038,-899.7000122,-2.197846414,0.021060025,0.059043454,ST
3.366666667,-0.261388481,0.150133893,9.914219856,1.34147191,0.121951997,-0.708845973,-1217.100098,14.10000038,-911.7000122,-2.194877769,-0.024236314,-0.013706683,ST
3.4,-0.315221339,0.479112506,9.644456863,1.806414008,0.289635986,0.388722003,-1212.300049,12.90000057,-916.500061,-2.197413642,-0.032672283,-0.05089337,ST
3.433333333,0.165685609,-0.009570288,9.545763969,1.112811923,-0.190549999,1.44817996,-1221.900024,10.5,-914.1000366,-2.20298191,0.014962821,-0.003650606,ST
3.466666667,0.260790348,0.219518468,9.733580589,0.891773999,-0.541162014,1.105189919,-1221.900024,6.900000095,-918.9000244,-2.207080251,0.026985928,-0.022819924,ST
3.5,0.563450694,0.154919028,9.880723953,1.150921941,-0.762199998,1.34147191,-1219.5,9.900000572,-930.9000244,-2.212837985,0.056429553,-0.017886474,ST
3.533333333,0.692649543,0.518589973,8.99068737,1.326228023,-0.609759986,1.196653962,-1221.900024,10.5,-906.9000244,-2.215294964,0.076628977,-0.057238933,ST
3.566666667,0.246434897,0.878672004,9.560717583,1.135677934,-0.167683989,1.42531395,-1214.700073,5.700000286,-906.9000244,-2.219373149,0.029230016,-0.091341866,ST
3.6,0.571226537,0.791343153,9.785020828,0.586893976,-0.342989981,1.905499935,-1202.700073,8.700000763,-902.1000366,-2.227642864,0.057370978,-0.082084517,ST
3.633333333,0.824839175,0.668125689,8.765785217,-0.076219998,0.449698001,1.189031959,-1217.100098,15.30000019,-909.3000488,-2.233416333,0.091363071,-0.076034514,ST
3.666666667,0.055627298,0.890634894,10.13433647,0.335367978,1.882633924,0.144817993,-1209.900024,3.900000095,-909.3000488,-2.234225414,0.006140457,-0.087702161,ST
3.7,0.208751902,0.714780867,9.448864937,0.838419974,1.600619912,-0.472563982,-1219.5,11.10000038,-916.500061,-2.233021348,0.018386249,-0.077627115,ST
3.733333333,-0.477318078,0.885251582,9.862181664,0.411587983,1.211897969,-1.295740008,-1197.900024,12.90000057,-921.3000488,-2.228356883,-0.046298911,-0.089408084,ST
3.766666667,-0.714780867,0.924729049,10.21388912,-0.259148002,-0.106707998,-1.059458017,-1219.5,12.30000019,-916.500061,-2.224022632,-0.068295147,-0.089700333,ST
3.8,0.008374002,0.656760991,8.900367737,-0.952749968,-0.320124,-1.250007987,-1200.300049,14.70000076,-904.500061,-2.218098477,-0.002083024,-0.072837444,ST
3.833333333,-0.11484345,0.637620389,10.50099754,-0.602137983,0.396344006,-1.951231956,-1200.300049,7.500000477,-926.1000366,-2.210051339,-0.011287556,-0.060285122,ST
3.866666667,0.116637878,0.615489125,10.05657768,-0.221037999,-0.137196004,-2.461905956,-1205.100098,14.10000038,-928.500061,-2.200105964,0.010171345,-0.060739996,ST
3.9,-0.144750595,0.598142982,9.258654594,-0.160062,-0.205793992,-2.949713945,-1190.700073,11.10000038,-921.3000488,-2.188189594,-0.014010044,-0.063974469,ST
3.933333333,-0.03828115,0.467149675,9.993174553,-1.211897969,-0.785066009,-3.40703392,-1202.700073,7.500000477,-916.500061,-2.173337531,-0.003295714,-0.045518146,ST
3.966666667,0.01614986,0.537132382,9.612157822,-1.318606019,-1.417691946,-3.498497963,-1188.300049,9.900000572,-918.9000244,-2.158951676,0.003400976,-0.053050148,ST
4.0,0.336754501,0.412120521,9.877135277,-0.800309956,-1.471045971,-3.27745986,-1209.900024,9.300000191,-921.3000488,-2.145220453,0.034574789,-0.041162552,ST
4.033333333,1.002487659,0.052038439,9.48236084,-1.280496001,-2.096050024,-4.093013763,-1209.900024,8.700000763,-921.3000488,-2.129638012,0.105270612,-0.005769905,ST
4.066666667,0.94147706,0.339147061,9.468603134,-1.684461951,-2.06556201,-3.826243877,-1197.900024,13.50000095,-899.7000122,-2.10966975,0.102597545,-0.032206333,ST
4.1,0.745884299,0.287706763,8.908143044,-1.608241916,-0.693601966,-2.76678586,-1214.700073,9.300000191,-902.1000366,-2.097374788,0.085439093,-0.030020709,ST
4.133333333,1.121518016,-0.269164324,10.07990551,-1.364337921,0.099086002,-1.897877932,-1209.900024,8.700000763,-904.500061,-2.094144227,0.109425821,0.025838598,ST
4.166666667,0.924130917,-0.338548928,10.28447056,-1.356715918,-0.586893976,-2.606724024,-1200.300049,12.90000057,-906.9000244,-2.084074113,0.091872627,0.034300738,ST
4.2,1.137667894,0.298473328,10.04521275,-0.868907988,-0.480185986,-2.08842802,-1205.100098,6.900000095,-909.3000488,-2.068383801,0.112559354,-0.025821134,ST
4.233333333,1.990619779,-0.560459971,8.674269676,-1.189031959,0.312501997,-1.303362012,-1205.100098,9.900000572,-906.9000244,-2.076542212,0.217915045,0.060416584,ST
4.266666667,2.080341339,-0.837400138,8.573781013,-2.675322056,0.663114011,-2.484771967,-1209.900024,13.50000095,-918.9000244,-2.072708697,0.235101151,0.098517435,ST
4.3,1.265670538,-0.816465139,9.371106148,-2.812517881,1.356715918,-1.615863919,-1202.700073,14.70000076,-928.500061,-2.061814195,0.136203909,0.091657119,ST
4.333333333,1.245333672,-1.522871971,9.331029892,-2.560992002,1.105189919,-0.93750596,-1200.300049,5.700000286,-914.1000366,-2.065405631,0.129740592,0.161489798,ST
4.366666667,1.263278008,-1.442122698,7.988199234,-1.737815976,1.699705958,-1.196653962,-1190.700073,8.100000381,-909.3000488,-2.060543256,0.150867786,0.180385464,ST
4.4,1.234567046,-1.993012428,9.23772049,-1.349093914,2.073184013,-0.541162014,-1195.5,11.10000038,-918.9000244,-2.06028039,0.127753901,0.212949125,ST
4.433333333,-0.016748004,-1.59345293,9.637877464,0.160062,1.486289978,-1.105189919,-1183.5,19.5,-918.9000244,-2.04639907,-0.003889585,0.163604015,ST
4.466666667,-0.242247909,-1.535433054,10.70915222,1.516777992,1.844523907,0.42683199,-1178.700073,11.70000076,-923.7000122,-2.047262615,-0.024722341,0.140801462,ST
4.5,-0.130993307,-1.183126807,10.18936539,2.06556201,1.692083955,0.487807989,-1181.100098,9.300000191,-916.500061,-2.048766525,-0.016342747,0.113728953,ST
4.533333333,-0.023327576,-0.916953146,10.41905212,1.791170001,0.891773999,0.663114011,-1185.900024,9.900000572,-923.7000122,-2.05130309,-0.004640148,0.086411308,ST
4.566666667,0.300267786,-0.845774174,9.083997726,1.318606019,0.327746004,1.143299937,-1176.300049,6.900000095,-926.1000366,-2.056058063,0.030143508,0.090357045,ST
4.6,0.658555388,-1.283614874,8.747242928,0.701223969,1.371959925,1.478667974,-1173.900024,11.70000076,-916.500061,-2.064522625,0.069808448,0.142226145,ST
4.633333333,0.336754501,-1.184921265,9.616344452,0.464941978,1.486289978,0.899396002,-1178.700073,7.500000477,-933.3000488,-2.06651331,0.03403712,0.122950424,ST
4.666666667,0.258397758,-0.951047301,10.36462116,0.846041977,0.785066009,0.838419974,-1171.5,8.700000763,-928.500061,-2.068836424,0.023902395,0.091854433,ST
4.7,0.288903058,-0.90140146,9.00922966,1.753059983,1.989341974,1.730193973,-1164.300049,8.700000763,-930.9000244,-2.075711398,0.027943898,0.096494763,ST
4.733333333,-0.372643083,-1.305746078,10.17800045,2.111294031,4.146368027,2.583858013,-1171.5,11.70000076,-928.500061,-2.084139151,-0.040083517,0.12231125,ST
4.766666667,-0.798520863,-1.087423921,10.10442924,1.661595941,1.783547997,2.286599874,-1159.5,6.900000095,-928.500061,-2.093808802,-0.080091114,0.104840508,ST
4.8,-0.991122901,-0.653770268,9.675560951,1.42531395,0.205793992,2.446661949,-1149.900024,9.300000191,-921.3000488,-2.106414989,-0.101161576,0.067012162,ST
4.833333333,-0.959421337,-0.659751713,9.677354813,1.250007987,-0.464941978,2.690565825,-1161.900024,12.30000019,-933.3000488,-2.116954584,-0.098275998,0.065514885,ST
4.866666667,-0.542515695,-0.733323276,9.663000107,0.564027965,-0.990859985,2.25611186,-1145.100098,9.300000191,-928.500061,-2.125464674,-0.057142129,0.073959163,ST
4.9,-1.229183793,-0.626255691,8.445180893,0.548784018,-0.731711984,1.836901903,-1159.5,8.100000381,-921.3000488,-2.132904323,-0.13788061,0.072731588,ST
4.933333333,-1.433748722,-1.038974285,10.05717564,0.053353999,0.472563982,2.111294031,-1159.5,6.300000191,-926.1000366,-2.137221,-0.141792018,0.100542397,ST
4.966666667,-1.175350904,-0.88943857,10.06913853,0.419209987,-0.785066009,1.676839948,-1157.100098,8.700000763,-933.3000488,-2.145613088,-0.116299448,0.087824809,ST
5.0,-0.996506214,-1.003683925,9.09536171,0.792688012,-2.248489857,1.432935953,-1157.100098,8.100000381,-926.1000366,-2.149756406,-0.105527593,0.106974786,ST
5.033333333,-1.106564522,-0.779978454,9.889098167,0.990859985,-2.606724024,1.821658015,-1173.900024,3.900000095,-928.500061,-2.16155337,-0.106766531,0.077800623,ST
5.066666667,-0.625657558,-0.806296706,9.545165062,0.640248001,-4.611310005,1.387203932,-1176.300049,8.100000381,-933.3000488,-2.168003943,-0.060392578,0.082635762,ST
5.1,-0.629246414,-0.039477438,8.096463203,1.166165948,-3.27745986,0.640248001,-1176.300049,12.30000019,-930.9000244,-2.175660659,-0.071181071,0.007612488,ST
5.133333333,-0.57421726,-0.245836765,8.790906906,1.463423967,-0.518296003,1.478667974,-1183.5,2.100000143,-916.500061,-2.180124803,-0.064768027,0.024164,ST
5.166666667,-0.189611316,-0.056823581,9.907042503,1.181409955,-1.303362012,1.181409955,-1166.700073,5.100000381,-930.9000244,-2.185589547,-0.019782909,0.004862383,ST
5.2,0.03828115,-0.184228033,10.19235611,0.952749968,-2.210379839,1.135677934,-1176.300049,9.300000191,-923.7000122,-2.190182988,0.005925466,0.01571346,ST
5.233333333,0.514402926,-0.125610024,10.31318092,0.266770005,-3.025933981,0.922261953,-1185.900024,6.300000191,-914.1000366,-2.194109886,0.052409846,0.012003574,ST
5.266666667,0.281725347,0.267968059,9.011023521,0.922261953,-2.240867853,1.631107926,-1188.300049,9.900000572,-921.3000488,-2.199285351,0.036061894,-0.029113353,ST
5.3,0.24822934,-0.10886202,8.673072815,1.105189919,0.868907988,1.935987949,-1181.100098,8.700000763,-914.1000366,-2.209168929,0.027478431,0.008964898,ST
5.333333333,-0.492869794,0.03828115,8.538491249,1.272873998,2.515259981,1.257629991,-1185.900024,2.100000143,-921.3000488,-2.214326233,-0.056607392,-0.005841989,ST
5.366666667,-0.209350035,-0.346324772,9.238318443,0.670735955,2.240867853,0.792688012,-1185.900024,9.300000191,-914.1000366,-2.215638551,-0.028230568,0.033963734,ST
5.4,-0.086730734,-0.270958751,9.665391922,0.198172003,0.0,-0.342989981,-1173.900024,11.10000038,-911.7000122,-2.214230705,-0.009800063,0.027964039,ST
5.433333333,0.449803501,-0.472532958,9.909434319,0.015244,-0.175305992,-0.228659987,-1185.900024,11.70000076,-921.3000488,-2.21363858,0.042271163,0.046417117,ST
5.466666667,1.339242101,-0.6848737,10.25516129,-0.327746004,-0.670735955,-0.099086002,-1176.300049,9.900000572,-918.9000244,-2.214922801,0.12726187,0.066417426,ST
5.5,1.626948833,-0.67769599,9.12945652,-0.282013983,-0.503051996,0.381099999,-1181.100098,2.100000143,-914.1000366,-2.217727656,0.174534306,0.074344366,ST
5.533333333,1.270455718,-0.776389599,10.81502342,-0.152439997,0.152439997,0.266770005,-1178.700073,12.30000019,-921.3000488,-2.218388842,0.119193654,0.072102249,ST
5.566666667,1.417000651,-0.092712164,8.391945839,0.251525998,0.396344006,0.990859985,-1185.900024,5.700000286,-926.1000366,-2.214453551,0.164226646,0.013908668,ST
5.6,0.740500987,-0.414513081,9.095960617,0.068598002,2.339953899,2.385685921,-1181.100098,7.500000477,-926.1000366,-2.227411999,0.082209949,0.043882279,ST
5.633333333,-0.257201463,-0.660947978,11.54774857,-0.472563982,2.759163857,2.157026052,-1173.900024,11.10000038,-926.1000366,-2.235888823,-0.020597092,0.057132718,ST
5.666666667,0.619676113,-0.708201289,9.089380264,-0.571649969,1.310984015,0.602137983,-1171.5,10.5,-928.500061,-2.23827389,0.060279987,0.077481023,ST
5.7,-0.96719718,-0.086132586,9.454846382,0.693601966,1.966475964,0.358233988,-1171.5,8.700000763,-930.9000244,-2.240615604,-0.097224249,0.011313986,ST
5.733333333,-1.870393038,0.161498606,10.13433647,1.760681987,2.202757835,1.875011921,-1173.900024,11.70000076,-933.3000488,-2.251341465,-0.181417818,-0.017868978,ST
5.766666667,-1.653267145,0.213537037,9.293347359,1.684461951,0.861285985,2.25611186,-1171.5,8.100000381,-918.9000244,-2.260626298,-0.177658935,-0.026097464,ST
5.8,-1.933198094,0.389989227,8.646156311,0.129574001,-0.586893976,2.134160042,-1171.5,4.5,-930.9000244,-2.273614208,-0.216960248,-0.045296596,ST
5.833333333,-1.883552194,0.645994425,8.445180893,-0.746955991,-0.663114011,2.942091942,-1161.900024,13.50000095,-918.9000244,-2.291895475,-0.217296642,-0.074278109,ST
5.866666667,-0.727341831,-0.255407035,9.453649521,-0.929883957,0.373477995,2.934469938,-1161.900024,12.90000057,-926.1000366,-2.290520254,-0.083682149,0.023673587,ST
5.9,-0.462364525,-0.262584776,9.318469048,-1.04421401,0.228659987,1.082324028,-1161.900024,1.5,-921.3000488,-2.294991905,-0.051662608,0.029583695,ST
5.933333333,-0.266771764,-0.656760991,9.908836365,-1.036592007,0.144817993,0.42683199,-1173.900024,11.10000038,-935.7000122,-2.295386098,-0.028641494,0.065643858,ST
5.966666667,-0.492271662,-0.862522185,10.09485912,-1.326228023,-1.333850026,-0.625003994,-1161.900024,9.300000191,-926.1000366,-2.292747014,-0.045078628,0.08625676,ST
6.0,-0.290099353,-0.916953146,10.26891899,-1.189031959,-1.387203932,-0.106707998,-1157.100098,5.700000286,-926.1000366,-2.292812593,-0.02687714,0.090836874,ST
6.033333333,-0.045458864,-0.868503571,9.954295158,-0.625003994,-1.493911982,0.503051996,-1169.100098,11.70000076,-926.1000366,-2.295438592,-0.003536273,0.0882769,ST
6.066666667,-0.331969351,-0.736912131,9.555932045,0.236281991,-1.219519973,0.716467977,-1166.700073,17.10000038,-909.3000488,-2.299185574,-0.031320289,0.077030555,ST
6.1,-0.953439891,-0.321202785,9.017004967,1.021348,-0.457319975,0.907018006,-1185.900024,12.90000057,-928.500061,-2.305289362,-0.100109775,0.036327996,ST
6.133333333,-1.678389192,-0.187816888,9.36213398,1.356715918,0.571649969,2.042695999,-1169.100098,8.700000763,-916.500061,-2.3157506,-0.174974528,0.017955944,ST
6.166666667,-0.592161536,-0.663938701,9.043323517,-0.609759986,0.007622,1.814036012,-1178.700073,12.30000019,-926.1000366,-2.316771551,-0.072090599,0.070705547,ST
6.2,-0.60711509,-0.559263706,9.548754692,-1.181409955,-0.243903995,1.158543944,-1166.700073,15.90000057,-923.7000122,-2.32245714,-0.063634878,0.061053705,ST
6.233333333,-0.424681515,-0.641807437,9.829881668,-1.173787951,-0.754577994,1.097568035,-1171.5,17.70000076,-928.500061,-2.327575558,-0.042753955,0.066916325,ST
6.266666667,0.150133893,-0.379820794,9.634886742,-0.442075998,-0.342989981,1.189031959,-1173.900024,15.90000057,-926.1000366,-2.332827644,0.01250365,0.041802395,ST
6.3,0.209350035,-0.179442897,9.524828911,0.609759986,0.792688012,1.204275966,-1183.5,11.70000076,-926.1000366,-2.337411075,0.020102795,0.019121839,ST
6.333333333,-0.286510497,0.202172324,9.72700119,1.120433927,1.753059983,0.80793196,-1161.900024,17.10000038,-928.500061,-2.340945848,-0.029608817,-0.020481117,ST
6.366666667,-1.1227144,0.229088753,9.713243484,0.853663981,2.286599874,0.373477995,-1164.300049,15.90000057,-911.7000122,-2.34268975,-0.113592382,-0.024862672,ST
6.4,-0.868503571,0.0765623,9.856200218,-0.289635986,1.204275966,-0.007622,-1164.300049,12.90000057,-940.500061,-2.341152785,-0.091421274,-0.008326893,ST
6.433333333,-1.061105609,0.386400372,9.688719749,-1.013725996,-0.137196004,0.076219998,-1140.300049,15.30000019,-928.500061,-2.344639523,-0.107708871,-0.036294514,ST
6.466666667,-0.303856641,-0.205761179,8.981116295,-2.17227006,-1.059458017,1.875011921,-1157.100098,17.10000038,-916.500061,-2.348478756,-0.036607726,0.022739207,ST
6.5,-0.037683006,-0.28950119,8.729298592,-2.355197906,-0.495429993,2.530503988,-1152.300049,15.30000019,-921.3000488,-2.358609537,-0.005603259,0.036337103,ST
6.533333333,1.253109574,-1.170565844,7.854813576,-2.759163857,-0.434453994,3.193617821,-1166.700073,22.5,-926.1000366,-2.378330147,0.146674219,0.14620491,ST
6.566666667,0.077758588,-1.125106931,10.02786732,-2.46952796,-0.060975999,1.44817996,-1164.300049,18.90000153,-928.500061,-2.381872342,0.013013818,0.117302155,ST
6.6,-0.096301019,-1.123910666,9.733580589,-1.806414008,0.068598002,0.861285985,-1164.300049,18.30000114,-926.1000366,-2.385294566,-0.008720881,0.118055343,ST
6.633333333,-0.119628593,-1.565340161,9.564306259,-1.04421401,0.53354001,0.678357959,-1164.300049,19.5,-935.7000122,-2.387265693,-0.013158074,0.161247906,ST
6.666666667,-0.413316786,-2.442815781,10.48484802,-1.42531395,0.655492008,-0.152439997,-1161.900024,24.90000153,-923.7000122,-2.384528407,-0.038142358,0.227963429,ST
6.7,-0.464158952,-2.860917807,11.19245148,-1.661595941,1.021348,-2.111294031,-1149.900024,27.90000153,-923.7000122,-2.374606555,-0.04080959,0.251779188,ST
6.733333333,-1.064694524,-2.597734928,10.51296043,-0.449698001,1.8292799,-4.222588062,-1140.300049,26.70000076,-923.7000122,-2.356995717,-0.095766083,0.244215085,ST
6.766666667,-1.321297765,-2.150323868,9.443481445,0.442075998,1.928365946,-3.711913824,-1154.700073,21.90000153,-933.3000488,-2.341759805,-0.135365601,0.22503099,ST
6.8,-1.745979309,-1.87338376,8.791505814,1.646351933,1.463423967,-1.875011921,-1149.900024,23.70000076,-918.9000244,-2.334745288,-0.190126726,0.208818248,ST
6.833333333,-2.099481821,-1.528255343,8.91173172,1.95885396,1.173787951,-1.55488801,-1152.300049,15.30000019,-935.7000122,-2.334319418,-0.227306163,0.169645109,ST
6.866666667,-2.070172787,-1.175350904,8.767580032,1.76830399,0.320124,-1.074702024,-1142.700073,18.30000114,-938.1000366,-2.336651253,-0.230012516,0.132993255,ST
6.9,-1.597639918,-1.071872234,9.310693741,0.678357959,-1.897877932,-1.097568035,-1142.700073,17.70000076,-938.1000366,-2.336327054,-0.169247946,0.114871575,DLL
6.933333333,-1.098190546,-1.321895957,9.140222549,0.137196004,-2.76678586,0.076219998,-1145.100098,12.90000057,-933.3000488,-2.334265679,-0.11632478,0.141907496,DLL
6.966666667,-0.893027484,-1.32727921,9.603185654,0.449698001,-1.806414008,0.990859985,-1145.100098,22.5,-923.7000122,-2.339561052,-0.090630154,0.13669037,DLL
7.0,-0.966000915,-1.311727524,9.941734314,1.410069942,-0.442075998,1.173787951,-1161.900024,17.10000038,-935.7000122,-2.344645587,-0.095238826,0.12901603,DLL
7.033333333,-0.913364291,-1.136471629,9.203027725,1.463423967,0.411587983,1.013725996,-1147.5,14.70000076,-935.7000122,-2.348710457,-0.098875094,0.120685862,DLL
7.066666667,-1.067087054,-1.003683925,9.945920944,0.80793196,0.518296003,0.846041977,-1145.100098,24.30000114,-930.9000244,-2.353710838,-0.106932192,0.100200724,DLL
7.1,-1.276437044,-1.065292597,9.381872177,0.312501997,-0.251525998,0.579271972,-1154.700073,17.10000038,-928.500061,-2.354603044,-0.13240118,0.111641478,DLL
7.133333333,-1.034787297,-1.438533902,8.739466667,-0.960371971,-0.152439997,1.432935953,-1142.700073,8.700000763,-928.500061,-2.354650851,-0.117401986,0.161312165,DLL
7.166666667,-1.520479441,-1.034787297,8.733485222,-0.929883957,-0.099086002,2.439039946,-1164.300049,14.70000076,-918.9000244,-2.371622309,-0.169183018,0.120755188,DLL
7.2,-1.422982097,-1.549190283,8.330935478,-0.754577994,0.419209987,4.649419785,-1157.100098,13.50000095,-930.9000244,-2.381150749,-0.168536183,0.180738377,DLL
7.233333333,-1.863215327,-1.517488718,9.016407013,-0.93750596,0.251525998,6.493943691,-1147.5,14.70000076,-935.7000122,-2.411924775,-0.201828947,0.166803851,DLL
7.266666667,-1.392476797,-1.696931601,8.548061371,-1.082324028,-0.846041977,8.711945534,-1157.100098,24.90000153,-933.3000488,-2.445567517,-0.16172232,0.194042608,DLL
7.3,-1.531844139,-1.578499317,8.552248001,-1.394825935,-1.661595941,9.26072979,-1140.300049,22.5,-923.7000122,-2.48691384,-0.173768994,0.18275092,DLL
7.333333333,-1.235763431,-1.651472688,9.898668289,-1.631107926,-2.080806017,9.85524559,-1154.700073,24.30000114,-923.7000122,-2.534113642,-0.124121513,0.166583919,DLL
7.366666667,-1.068881512,-1.857233882,10.82937813,-1.059458017,-3.056421995,10.47262764,-1157.100098,24.30000114,-930.9000244,-2.580297636,-0.096235355,0.169629117,DLL
7.4,0.639414847,-3.002677679,8.528920174,0.060975999,-3.231727839,9.862867355,-1152.300049,26.10000038,-916.500061,-2.623286441,0.063292533,0.331616029,DLL
7.433333333,1.311129451,-2.927909851,7.355364323,-0.274392009,-1.623485923,6.943641663,-1154.700073,29.10000038,-921.3000488,-2.659224733,0.157983928,0.378913705,DLL
7.466666667,-0.723752975,-1.96729219,9.911827087,-0.076219998,-0.312501997,4.314052105,-1147.5,25.50000191,-918.9000244,-2.667665038,-0.058575487,0.207201817,DLL
7.5,-0.840390861,-1.858430266,10.44596863,0.586893976,-1.097568035,4.413137913,-1147.5,28.50000191,-930.9000244,-2.687838604,-0.0773404,0.17644294,DLL
7.533333333,-0.834409416,-1.620967507,10.04640961,1.295740008,-1.913121939,3.948195934,-1149.900024,29.70000076,-926.1000366,-2.706774636,-0.079508025,0.158072963,DLL
7.566666667,-1.233968973,-1.094003439,10.58234501,1.623485923,-1.905499935,3.376545906,-1142.700073,30.90000153,-918.9000244,-2.725730599,-0.110815982,0.103087691,DLL
7.6,-0.707603157,-0.966599047,10.67864609,1.333850026,-2.164648056,3.62045002,-1157.100098,34.5,-914.1000366,-2.741876845,-0.065626697,0.088403523,DLL
7.633333333,-0.672910869,-0.942673326,9.680345535,1.280496001,-2.324709892,3.292703867,-1149.900024,28.50000191,-921.3000488,-2.755627883,-0.065574169,0.094107993,DLL
7.666666667,-0.733921409,-0.713584542,9.259851456,0.464941978,-2.035073996,3.285081863,-1152.300049,20.10000038,-928.500061,-2.771818327,-0.075323286,0.076467526,DLL
7.7,-0.575413525,-0.619676113,8.368618011,-0.106707998,-1.8292799,3.315569878,-1164.300049,29.70000076,-899.7000122,-2.785877775,-0.066292109,0.07385896,DLL
7.733333333,-0.565843225,-1.088022113,8.967359543,-0.495429993,-1.112811923,4.153989792,-1173.900024,32.10000229,-918.9000244,-2.800750771,-0.061703986,0.118559807,DLL
7.766666667,-0.724351168,-0.932504892,9.995567322,-0.556405962,-1.585376024,3.772889853,-1164.300049,27.90000153,-914.1000366,-2.81819277,-0.069429858,0.095047588,DLL
7.8,0.35529694,-1.017441154,9.139026642,-0.160062,-1.471045971,3.117398024,-1161.900024,27.30000114,-909.3000488,-2.831447564,0.034570261,0.110375627,DLL
7.833333333,0.181237325,-0.840390861,8.842347145,-0.091463998,-0.480185986,1.272873998,-1159.5,33.90000153,-911.7000122,-2.836486497,0.021757657,0.095811516,DLL
7.866666667,-0.199779749,-1.127499461,9.475182533,-0.655492008,0.663114011,0.007622,-1173.900024,32.70000076,-916.500061,-2.836241744,-0.019934063,0.118419117,DLL
7.9,-0.698630989,-0.882859051,10.17620659,-0.983237982,0.708845973,-0.800309956,-1161.900024,32.10000229,-921.3000488,-2.833904727,-0.067217431,0.0896765,DLL
7.933333333,0.115441591,-1.172360182,10.07631683,-0.716467977,0.335367978,-1.021348,-1161.900024,24.30000114,-914.1000366,-2.828555617,0.007553128,0.115882562,DLL
7.966666667,0.515599251,-1.387691736,9.593615532,-0.655492008,0.289635986,-1.722571969,-1173.900024,33.90000153,-921.3000488,-2.82220876,0.050295981,0.142918462,DLL
8.0,-0.097497307,-1.181930542,9.982408524,-0.586893976,0.625003994,-2.301843882,-1159.5,34.5,-926.1000366,-2.812154219,-0.006611652,0.120324126,DLL
8.033333333,-0.121423021,-1.439131975,9.804759979,-0.129574001,1.227141976,-1.547266006,-1166.700073,26.10000038,-909.3000488,-2.805066438,-0.013547754,0.144445196,DLL
8.066666667,0.214733332,-1.495955586,9.057679176,0.083841994,1.63872993,-1.463423967,-1159.5,27.90000153,-911.7000122,-2.797640633,0.019451379,0.162653804,DLL
8.1,-0.617283523,-1.377523303,9.115698814,0.571649969,2.240867853,-2.614346027,-1171.5,27.30000114,-918.9000244,-2.784977489,-0.066095563,0.149855922,DLL
8.133333333,-1.450496674,-1.082638741,9.040332794,0.53354001,1.608241916,-2.926847935,-1152.300049,34.5,-911.7000122,-2.77544427,-0.154425895,0.120918257,DLL
8.166666667,-1.276437044,-1.372738123,8.724513054,-0.548784018,0.907018006,-1.707327962,-1147.5,29.10000038,-921.3000488,-2.762665256,-0.145083648,0.155885519,DLL
8.2,-1.299764633,-1.991217971,8.795692444,-1.646351933,0.442075998,-1.196653962,-1152.300049,30.90000153,-926.1000366,-2.748947558,-0.143560859,0.222010466,DLL
8.233333333,-1.155014038,-2.543303967,8.90754509,-3.445143938,-0.015244,-0.823175967,-1152.300049,27.30000114,-911.7000122,-2.739593157,-0.124618029,0.281262789,DLL
8.266666667,-1.086227655,-2.56065011,9.034949303,-3.521363974,-0.495429993,0.586893976,-1147.5,36.90000153,-914.1000366,-2.74397987,-0.115220345,0.282119653,DLL
8.3,-1.049740911,-2.658745527,9.386059761,-2.393307924,-0.419209987,1.775925994,-1142.700073,32.10000229,-923.7000122,-2.752582602,-0.107826774,0.279998641,DLL
8.333333333,-0.949252903,-2.668315887,9.369311333,-0.137196004,-0.266770005,3.132642031,-1157.100098,32.70000076,-911.7000122,-2.766044477,-0.098657795,0.277285999,DLL
8.366666667,-0.721360445,-2.795122147,9.226355553,0.411587983,-0.099086002,2.812517881,-1166.700073,34.5,-923.7000122,-2.775550913,-0.077303316,0.292103856,DLL
8.4,-0.626255691,-2.466741562,9.591820717,0.289635986,-0.251525998,0.876529992,-1157.100098,34.5,-914.1000366,-2.782104535,-0.063813738,0.253115326,DLL
8.433333333,-0.495262384,-2.480498791,9.624120712,0.312501997,-0.876529992,0.259148002,-1152.300049,33.30000305,-914.1000366,-2.784059723,-0.049261674,0.251739895,DLL
8.466666667,-0.648985147,-2.421282768,9.814330101,0.342989981,-0.72408998,-0.327746004,-1142.700073,36.90000153,-916.500061,-2.783954451,-0.061931758,0.241929054,DLL
8.5,-0.60950768,-2.332757473,9.721019745,0.72408998,-0.419209987,-0.060975999,-1147.5,35.70000076,-916.500061,-2.784375563,-0.060264971,0.234714624,DLL
8.533333333,-0.6447981,-2.103070736,9.575072289,1.562510014,-0.266770005,0.259148002,-1164.300049,33.90000153,-918.9000244,-2.78648126,-0.06501618,0.214734645,DLL
8.566666667,-1.415804386,-1.428963542,9.140820503,3.246971846,0.015244,0.769822001,-1152.300049,32.10000229,-921.3000488,-2.794487779,-0.146824337,0.153245751,DLL
8.6,-1.452291131,-1.216024637,8.886610031,3.551851988,0.40396598,1.577754021,-1152.300049,29.10000038,-926.1000366,-2.801702883,-0.160697241,0.130821404,DLL
8.633333333,-1.778279066,-1.107760787,9.108521461,3.010689974,-0.007622,2.263733864,-1159.5,33.90000153,-923.7000122,-2.811045117,-0.189995507,0.115991364,DLL
8.666666667,-0.977365613,-1.179537892,9.335217476,0.053353999,-1.410069942,2.926847935,-1154.700073,34.5,-914.1000366,-2.82315513,-0.105576215,0.124576845,DLL
8.7,-0.714182734,-1.339242101,9.806553841,-0.846041977,-2.225623846,3.307947874,-1159.5,33.90000153,-918.9000244,-2.837657808,-0.070753205,0.136133352,DLL
8.733333333,-0.077758588,-1.817756534,9.459033012,-0.792688012,-1.814036012,2.309465885,-1147.5,39.90000153,-926.1000366,-2.846085643,-0.009630218,0.187821688,DLL
8.766666667,-0.307445496,-1.839289665,9.660607338,-0.182927996,-0.342989981,1.417691946,-1159.5,33.30000305,-918.9000244,-2.851963247,-0.029824572,0.18835718,DLL
8.8,-0.422288924,-1.665828228,8.798683167,0.449698001,0.282013983,0.655492008,-1164.300049,35.70000076,-916.500061,-2.854347464,-0.046727315,0.186408293,DLL
8.833333333,-1.275838971,-1.137667894,8.337514877,0.731711984,1.04421401,0.29725799,-1142.700073,32.10000229,-906.9000244,-2.859265083,-0.145949804,0.13751613,DLL
8.866666667,-1.071872234,-1.393673182,8.842347145,0.350611985,0.655492008,0.952749968,-1164.300049,36.90000153,-899.7000122,-2.860538645,-0.12156021,0.154825458,DLL
8.9,-1.034189224,-1.479207516,8.948817253,-0.495429993,-0.609759986,0.396344006,-1149.900024,35.10000229,-914.1000366,-2.861835299,-0.112986368,0.164152972,DLL
8.933333333,-1.235165238,-1.802204728,9.498510361,-0.907018006,-0.632625997,1.04421401,-1149.900024,31.50000191,-918.9000244,-2.864081067,-0.125509966,0.18734353,DLL
8.966666667,-0.104076877,-2.51578927,9.24968338,-1.623485923,-1.280496001,0.503051996,-1147.5,37.5,-916.500061,-2.862216531,-0.016019085,0.263474625,DLL
9.0,0.494066089,-2.912956238,8.558229446,-1.646351933,-1.417691946,-0.762199998,-1159.5,39.30000305,-906.9000244,-2.861966101,0.052904486,0.326833955,DLL
9.033333333,-0.525767684,-3.115128517,8.498414993,-0.632625997,0.152439997,-1.661595941,-1173.900024,33.90000153,-923.7000122,-2.855112876,-0.051862836,0.351311134,DLL
9.066666667,-0.056225438,-3.795217037,9.448266029,-1.150921941,0.884151995,-2.49239397,-1159.5,39.30000305,-916.500061,-2.842988002,-0.007635005,0.382433447,DLL
9.1,-0.948056638,-2.794523954,10.84373379,-0.960371971,-1.783547997,-1.836901903,-1157.100098,35.70000076,-904.500061,-2.843344304,-0.076189507,0.261903592,DLL
9.133333333,-0.412120521,-1.884150386,9.110315323,2.012207985,-1.707327962,1.63872993,-1152.300049,41.10000229,-892.500061,-2.855301366,-0.043304023,0.20269294,DLL
9.166666667,0.342137784,-1.98404026,8.281289101,2.698187828,-0.503051996,1.966475964,-1142.700073,36.90000153,-918.9000244,-2.863442082,0.03517576,0.228834649,DLL
9.2,-1.137069821,-1.596443534,9.901061058,1.387203932,0.556405962,1.42531395,-1154.700073,36.30000305,-916.500061,-2.870723343,-0.105202695,0.16167505,DLL
9.233333333,-0.35290435,-2.300457954,10.31617165,0.053353999,0.099086002,0.701223969,-1159.5,31.50000191,-921.3000488,-2.869518863,-0.03814165,0.215783267,DLL
9.266666667,-0.17764847,-1.955927491,10.80306053,0.182927996,-0.464941978,-1.814036012,-1159.5,34.5,-918.9000244,-2.86342737,-0.016068502,0.18086591,DLL
9.3,-0.586778283,-0.842783451,10.00154877,2.858249903,-0.876529992,-2.248489857,-1161.900024,35.10000229,-928.500061,-2.857744867,-0.054035322,0.085434893,DLL
9.333333333,0.124413736,-1.133480906,9.128857613,3.125020027,-0.213415995,-0.579271972,-1159.5,32.10000229,-904.500061,-2.854660746,0.009876966,0.116103825,DLL
9.366666667,-0.437840641,-0.614890993,9.254467964,2.751541853,0.739333987,-0.472563982,-1157.100098,40.5,-928.500061,-2.853135592,-0.044866467,0.064887537,DLL
9.4,-0.17764847,-0.596946657,8.970350266,0.960371971,1.204275966,0.144817993,-1164.300049,32.10000229,-921.3000488,-2.853286513,-0.023265336,0.06477706,DLL
9.433333333,-0.539524972,-0.396568775,9.255065918,0.175305992,0.282013983,0.312501997,-1164.300049,35.70000076,-921.3000488,-2.855332062,-0.056760872,0.043708387,DLL
9.466666667,-0.488084674,-0.955832481,8.661708832,-1.082324028,-0.198172003,1.493911982,-1169.100098,32.10000229,-918.9000244,-2.858381122,-0.055913693,0.10831496,DLL
9.5,-1.07546103,-1.233968973,9.526622772,-1.600619912,0.251525998,1.882633924,-1149.900024,27.30000114,-909.3000488,-2.86456433,-0.108916361,0.129889109,DLL
9.533333333,-1.197482228,-1.568330884,10.11699009,-1.989341974,-0.160062,2.629590034,-1159.5,30.30000114,-921.3000488,-2.873154158,-0.116370481,0.155109106,DLL
9.566666667,-0.950449169,-1.500142574,10.36761189,-0.518296003,-1.547266006,2.843005896,-1147.5,32.10000229,-923.7000122,-2.88700607,-0.090053439,0.14470057,DLL
9.6,-0.646592557,-1.747773767,8.619239807,0.586893976,-0.571649969,3.048799992,-1161.900024,36.90000153,-926.1000366,-2.895122501,-0.074416614,0.195354984,DLL
9.633333333,-1.177743554,-1.683772445,8.823804855,0.678357959,1.996963978,1.692083955,-1157.100098,38.70000076,-916.500061,-2.900761005,-0.130708416,0.187604374,DLL
9.666666667,-1.393074989,-1.87099123,8.894386292,0.640248001,1.722571969,0.594515979,-1152.300049,35.10000229,-906.9000244,-2.898887319,-0.153754425,0.205027507,DLL
9.7,-0.720762253,-2.618071795,8.419460297,-0.541162014,1.272873998,-0.541162014,-1149.900024,36.30000305,-911.7000122,-2.884185455,-0.08656396,0.298314367,DLL
9.733333333,-0.223705471,-2.650969744,9.508678436,-1.250007987,0.129574001,-3.246971846,-1157.100098,35.10000229,-926.1000366,-2.871858266,-0.024184987,0.275315209,DLL
9.766666667,-1.146640062,-2.098285437,9.222167969,0.160062,-0.251525998,-4.817103863,-1149.900024,27.90000153,-914.1000366,-2.856544621,-0.112563165,0.227372413,DLL
9.8,-0.333763778,-2.798112869,9.134839058,0.182927996,0.685979962,-3.993927956,-1159.5,36.90000153,-930.9000244,-2.835266397,-0.038908103,0.293071687,DLL
9.833333333,0.628648281,-2.80289793,9.814928055,-0.114329994,-1.067080021,-5.594547749,-1145.100098,42.30000305,-921.3000488,-2.814650531,0.059655096,0.278925559,DLL
9.866666667,1.194491506,-2.341131687,9.498510361,0.251525998,-2.728675842,-7.202789783,-1159.5,38.70000076,-921.3000488,-2.786181308,0.125005738,0.242332147,DLL
9.9,0.493467957,-1.216024637,8.847132683,1.44817996,-3.224105835,-8.529017448,-1169.100098,27.90000153,-899.7000122,-2.745409714,0.066865594,0.139588575,DLL
9.933333333,0.736912131,-1.574312329,9.718029022,1.631107926,-0.708845973,-6.51680994,-1176.300049,29.10000038,-909.3000488,-2.721565623,0.077018651,0.155873168,DLL
9.966666667,0.335558206,-1.260885358,10.88620186,1.371959925,-0.739333987,-6.44821167,-1166.700073,30.30000114,-916.500061,-2.694180978,0.035910426,0.115067391,DLL
10.0,-0.504234552,-0.901999593,9.27659893,2.416173935,-0.038109999,-4.53508997,-1169.100098,24.90000153,-926.1000366,-2.674844325,-0.048843646,0.094082315,DLL
10.03333333,-0.437840641,-1.342831016,9.314880371,2.179892063,2.789651871,-3.201239824,-1166.700073,26.10000038,-906.9000244,-2.658117753,-0.050494485,0.136918533,DLL
10.06666667,-0.840988994,-1.212435842,10.01769829,1.646351933,2.347575903,-3.239349842,-1181.100098,26.10000038,-916.500061,-2.644725084,-0.084345745,0.119196239,DLL
10.1,-0.940878868,-1.592854738,9.162354469,1.059458017,1.318606019,-2.400929928,-1171.5,26.10000038,-923.7000122,-2.6295069,-0.10134864,0.1675969,DLL
10.13333333,-0.541917503,-1.552181005,8.7239151,0.083841994,2.019829988,-2.881115913,-1159.5,23.10000038,-923.7000122,-2.615593289,-0.065734146,0.175858262,DLL
10.16666667,-1.132882833,-1.330868125,9.505687714,0.602137983,2.08842802,-2.545747995,-1166.700073,27.30000114,-914.1000366,-2.607172999,-0.117130685,0.140860605,DLL
10.2,-1.431356072,-2.080939293,9.905845642,0.929883957,2.141782045,-1.013725996,-1164.300049,34.5,-926.1000366,-2.593271294,-0.142211634,0.201834726,DLL
10.23333333,-1.065890789,-2.042060137,9.123475075,0.152439997,1.814036012,-1.966475964,-1171.5,30.30000114,-918.9000244,-2.581707796,-0.117471098,0.219301961,DLL
10.26666667,-1.384701014,-1.850654364,9.245495796,0.259148002,1.013725996,-2.286599874,-1164.300049,28.50000191,-933.3000488,-2.573314913,-0.145599656,0.198568086,DLL
10.3,-1.486385226,-1.65924859,9.28018856,0.61738199,0.396344006,-1.966475964,-1161.900024,23.10000038,-935.7000122,-2.568071177,-0.155787096,0.177736976,DLL
10.33333333,-1.038376212,-1.646687627,9.115100861,0.685979962,-0.647870004,-1.34147191,-1152.300049,24.30000114,-930.9000244,-2.562888747,-0.112877834,0.177784863,DLL
10.36666667,-1.086227655,-1.393673182,8.954200745,1.196653962,-1.067080021,-1.707327962,-1161.900024,23.10000038,-933.3000488,-2.558802607,-0.116766583,0.153999665,DLL
10.4,-1.424178362,-1.19329524,9.557127953,1.928365946,-0.175305992,-0.975615978,-1164.300049,20.10000038,-928.500061,-2.558020162,-0.144498309,0.123084923,DLL
10.43333333,-0.61429286,-1.288998127,10.0194931,1.631107926,-1.059458017,-0.503051996,-1164.300049,21.30000114,-926.1000366,-2.55572607,-0.063987426,0.125035911,DLL
10.46666667,-0.226696193,-0.800913453,8.652137756,1.333850026,-1.821658015,-0.152439997,-1166.700073,24.30000114,-923.7000122,-2.557137892,-0.025384425,0.0921002,DLL
10.5,-0.077758588,-0.917551339,9.188074112,1.669217944,-0.182927996,0.205793992,-1161.900024,20.70000076,-933.3000488,-2.557883241,-0.009078451,0.096369432,DLL
10.53333333,0.304454774,-1.076059222,9.096558571,1.387203932,0.068598002,-0.152439997,-1157.100098,17.70000076,-933.3000488,-2.557522724,0.030576789,0.114168972,DLL
10.56666667,-0.020935005,-1.253707647,9.256860733,0.868907988,-0.144817993,-0.42683199,-1154.700073,20.70000076,-940.500061,-2.5562007,7.46e-05,0.131950105,DLL
10.6,0.802707851,-1.703511238,9.171326637,0.53354001,-0.213415995,-0.076219998,-1164.300049,17.70000076,-928.500061,-2.558147493,0.082437159,0.180471395,DLL
10.63333333,0.689658821,-1.719660997,9.099549294,0.221037999,-1.280496001,-0.411587983,-1171.5,18.90000153,-933.3000488,-2.557926924,0.076918064,0.186112539,ST
10.66666667,0.18602246,-1.521675706,9.040930748,0.045731999,-0.678357959,0.541162014,-1164.300049,20.10000038,-923.7000122,-2.559628456,0.024667537,0.167882138,ST
10.7,0.387596637,-1.680781722,8.947022438,0.190549999,0.411587983,1.821658015,-1166.700073,15.90000057,-926.1000366,-2.56712099,0.040263424,0.184407726,ST
10.73333333,-0.175854027,-1.896113276,8.867469788,0.182927996,1.463423967,1.753059983,-1159.5,17.70000076,-921.3000488,-2.573820161,-0.020037764,0.209289131,ST
10.76666667,-1.742390513,-1.745381236,11.51843929,0.099086002,3.033555984,1.166165948,-1161.900024,21.30000114,-921.3000488,-2.581154631,-0.147437563,0.15303083,ST
10.8,-1.058114886,-1.666426301,11.59021664,0.175305992,2.294221878,0.236281991,-1166.700073,27.30000114,-935.7000122,-2.581858071,-0.096754865,0.143027088,ST
10.83333333,-1.061703801,-0.879270196,10.02068901,2.134160042,2.06556201,-1.303362012,-1147.5,18.30000114,-930.9000244,-2.580533279,-0.107819021,0.087648225,ST
10.86666667,-1.856635809,-0.650181413,10.53748512,3.269837856,2.225623846,-1.432935953,-1142.700073,21.30000114,-938.1000366,-2.576156128,-0.173982399,0.058085493,ST
10.9,-1.198678493,-0.849961162,9.063062668,3.269837856,1.371959925,-2.050318003,-1140.300049,16.5,-930.9000244,-2.561235243,-0.135515738,0.086529427,ST
10.93333333,-0.681284845,-0.961215734,8.395534515,2.408551931,-0.274392009,-3.826243877,-1149.900024,17.10000038,-928.500061,-2.542139981,-0.082337989,0.109103187,ST
10.96666667,-0.608311415,-0.282921612,8.942835808,3.140264034,-0.990859985,-5.266801834,-1142.700073,13.50000095,-935.7000122,-2.52607854,-0.066759413,0.031760499,ST
11.0,-0.949252903,-0.077758588,7.719633102,4.763750076,-0.335367978,-4.801859856,-1152.300049,11.10000038,-923.7000122,-2.507444726,-0.118359831,0.004442591,ST
11.03333333,-2.080939293,0.559861839,10.21687984,4.314052105,1.844523907,-3.468009949,-1149.900024,11.10000038,-935.7000122,-2.499419872,-0.200384479,-0.05823494,ST
11.06666667,-1.740596056,0.68248111,10.88500595,1.722571969,-1.486289978,-1.349093914,-1157.100098,14.10000038,-940.500061,-2.493069258,-0.157780775,-0.064901333,ST
11.1,-1.546797752,0.632835269,10.02786732,0.365855992,-2.06556201,-1.737815976,-1137.900024,17.10000038,-935.7000122,-2.485158201,-0.149850584,-0.063271751,ST
11.13333333,-1.076059222,0.293688208,9.383069038,-0.342989981,-0.846041977,-0.922261953,-1145.100098,10.5,-938.1000366,-2.477434614,-0.114966457,-0.032467329,ST
11.16666667,-0.79792273,-0.516795516,9.283777237,-0.792688012,-0.365855992,-0.487807989,-1145.100098,8.100000381,-930.9000244,-2.467339645,-0.086782137,0.051652665,ST
11.2,-1.07546103,-0.747678697,9.255663872,-0.144817993,0.236281991,0.327746004,-1140.300049,15.30000019,-935.7000122,-2.465965305,-0.114485095,0.079512793,ST
11.23333333,-0.804502308,-0.924130917,9.005640984,0.053353999,0.792688012,0.792688012,-1137.900024,8.100000381,-938.1000366,-2.466636777,-0.091622528,0.100685335,ST
11.26666667,-0.233275756,-1.22140789,8.552248001,-1.143299937,-0.060975999,0.83079797,-1128.300049,15.90000057,-935.7000122,-2.467747905,-0.031004129,0.141189774,ST
11.3,-0.559861839,-1.238754034,9.110913277,-1.974097967,-0.114329994,0.42683199,-1135.5,10.5,-935.7000122,-2.470012647,-0.058918604,0.138701978,ST
11.33333333,-0.000598143,-1.414608121,9.688719749,-1.349093914,0.175305992,0.137196004,-1135.5,12.30000019,-938.1000366,-2.470376899,-0.002973463,0.146956989,ST
11.36666667,-0.084338158,-1.233370781,10.12177563,-0.967993975,-0.40396598,-0.274392009,-1135.5,13.50000095,-933.3000488,-2.469633204,-0.007235607,0.124402694,ST
11.4,0.042468149,-1.297970295,8.96436882,-0.083841994,-0.602137983,0.152439997,-1142.700073,6.900000095,-945.3000488,-2.470549776,0.004908457,0.142756175,ST
11.43333333,-1.399654508,-0.72016412,9.564306259,1.349093914,0.922261953,0.754577994,-1145.100098,11.70000076,-926.1000366,-2.477097847,-0.137413587,0.077001439,ST
11.46666667,-2.045050859,-0.436644375,9.7150383,2.49239397,1.623485923,1.989341974,-1145.100098,9.300000191,-933.3000488,-2.48877012,-0.205850522,0.042179463,ST
11.5,-1.830317497,-0.547898948,9.090577126,2.804895878,1.280496001,2.385685921,-1142.700073,14.10000038,-950.1000366,-2.493509128,-0.201066646,0.053810234,ST
11.53333333,-2.234662056,-0.653770268,10.82220078,0.93750596,-0.190549999,1.280496001,-1133.100098,18.90000153,-942.9000244,-2.497006918,-0.20294219,0.057969324,ST
11.56666667,-1.698127866,-0.342137784,10.29404068,0.198172003,-2.446661949,0.739333987,-1137.900024,6.900000095,-930.9000244,-2.50453282,-0.161839276,0.034160464,ST
11.6,-1.586873293,-0.290099353,10.03624058,0.754577994,-3.285081863,0.388722003,-1135.5,10.5,-938.1000366,-2.506988372,-0.151694776,0.027856281,ST
11.63333333,-0.949851036,-0.628648281,9.124670982,0.80793196,-3.650938034,-0.282013983,-1137.900024,8.700000763,-921.3000488,-2.501405909,-0.099247277,0.065838907,ST
11.66666667,-0.087328874,-0.745884299,8.281289101,-0.449698001,-4.093013763,-1.021348,-1130.700073,-0.300000012,-930.9000244,-2.497444538,-0.009057592,0.089146198,ST
11.7,0.037084863,-0.629246414,8.184390068,-0.137196004,-3.780511856,-1.021348,-1164.300049,11.10000038,-926.1000366,-2.494580519,0.010007409,0.077702021,ST
11.73333333,0.169872597,-0.943869591,8.444582939,0.266770005,-3.193617821,-0.373477995,-1154.700073,11.70000076,-928.500061,-2.494898423,0.024836479,0.109218471,ST
11.76666667,0.574815392,-1.385299087,9.341198921,-0.060975999,-2.507637978,-0.198172003,-1166.700073,8.700000763,-911.7000122,-2.496990636,0.062732912,0.145034492,ST
11.8,-0.046655152,-0.945664048,10.26652622,0.564027965,-1.04421401,-0.068598002,-1173.900024,6.900000095,-935.7000122,-2.495614765,0.001271323,0.094152959,ST
11.83333333,-0.786558032,-0.839792728,10.52791405,0.769822001,-0.472563982,0.350611985,-1173.900024,12.90000057,-930.9000244,-2.497556608,-0.0690251,0.079189832,ST
11.86666667,-0.50602895,-0.884653449,9.868163109,0.144817993,1.006103992,0.769822001,-1157.100098,12.30000019,-921.3000488,-2.499693739,-0.05387386,0.088489441,ST
11.9,-0.945664048,-0.692051411,9.446472168,-0.053353999,1.775925994,0.929883957,-1159.5,7.500000477,-935.7000122,-2.504192698,-0.100328457,0.073852309,ST
11.93333333,-0.961813927,-0.857138872,9.522436142,0.175305992,2.271355867,1.371959925,-1152.300049,3.900000095,-928.500061,-2.507371502,-0.10416914,0.088319572,ST
11.96666667,-0.971384168,-0.89661634,10.0715313,0.335367978,1.082324028,1.478667974,-1169.100098,9.900000572,-933.3000488,-2.513286198,-0.09815982,0.08798231,ST
12.0,-0.7554546,-0.698032856,9.33581543,0.846041977,0.190549999,1.775925994,-1164.300049,12.90000057,-930.9000244,-2.521523461,-0.082019136,0.073716797,ST
12.03333333,-0.28232348,-0.662742436,8.62223053,1.547266006,0.685979962,2.675322056,-1161.900024,8.100000381,-928.500061,-2.531720246,-0.037076668,0.073805972,ST
12.06666667,-0.668125689,-0.617283523,9.21558857,1.600619912,0.846041977,2.515259981,-1159.5,6.300000191,-935.7000122,-2.541718017,-0.071736501,0.064413559,ST
12.1,-0.348717362,-0.625657558,9.953099251,0.952749968,-0.777444005,1.890255928,-1159.5,14.10000038,-942.9000244,-2.549959154,-0.035662554,0.061145762,ST
12.13333333,0.214135185,-0.628050148,9.689317703,0.609759986,-2.073184013,1.166165948,-1161.900024,0.900000036,-938.1000366,-2.555320075,0.022192223,0.063555698,ST
12.16666667,0.330773056,-0.538328648,9.407592773,0.861285985,-2.317087889,1.295740008,-1166.700073,7.500000477,-923.7000122,-2.561148629,0.038079203,0.056172104,ST
12.2,1.218417287,-0.593357801,10.14809322,0.53354001,-2.408551931,0.266770005,-1173.900024,8.700000763,-930.9000244,-2.563060536,0.118280522,0.057462899,ST
12.23333333,1.532442331,-0.36247465,8.93805027,0.716467977,-3.048799992,-0.152439997,-1173.900024,11.10000038,-930.9000244,-2.560990198,0.17155453,0.040383766,ST
12.26666667,0.997702479,-0.40015766,9.593016624,0.571649969,-2.278977871,-0.792688012,-1161.900024,12.30000019,-923.7000122,-2.558291857,0.110387407,0.040540378,ST
12.3,0.492271662,-0.158507884,9.724010468,0.53354001,-1.181409955,-0.731711984,-1166.700073,9.300000191,-935.7000122,-2.553661702,0.05616395,0.016811878,ST
12.33333333,-0.559263706,-0.02213129,9.012220383,0.891773999,1.135677934,1.364337921,-1173.900024,14.70000076,-930.9000244,-2.559740386,-0.059221471,0.001427988,ST
12.36666667,-1.814765811,0.272155046,10.77195644,0.754577994,2.202757835,2.713431835,-1171.5,12.30000019,-926.1000366,-2.57336017,-0.163831164,-0.025522287,ST
12.4,-1.823139787,0.724351168,11.07521534,1.455801964,1.120433927,3.338435888,-1164.300049,9.900000572,-926.1000366,-2.592534438,-0.164386682,-0.066207544,ST
12.43333333,-1.281222224,0.363072783,8.683241844,0.114329994,0.236281991,3.010689974,-1164.300049,6.300000191,-933.3000488,-2.601069626,-0.147614815,-0.044202645,ST
12.46666667,-1.808186173,0.593357801,11.42572689,0.007622,0.777444005,2.926847935,-1157.100098,11.70000076,-914.1000366,-2.614075661,-0.157221408,-0.052193127,ST
12.5,-1.080844402,0.405540943,9.798778534,0.579271972,-0.442075998,2.225623846,-1157.100098,11.10000038,-918.9000244,-2.621401486,-0.111758073,-0.043398583,ST
12.53333333,-0.665733099,0.032897864,9.584044456,0.282013983,-0.457319975,0.152439997,-1147.5,10.5,-933.3000488,-2.618492407,-0.07117434,-0.006327874,ST
12.56666667,-0.28471604,0.01016843,9.674962997,-0.228659987,-1.036592007,-1.04421401,-1164.300049,13.50000095,-926.1000366,-2.61404253,-0.030253815,-0.000931438,ST
12.6,-0.157909751,0.251220047,8.460134506,-0.609759986,-1.371959925,-1.295740008,-1166.700073,12.90000057,-930.9000244,-2.609393738,-0.017157355,-0.026901839,ST
12.63333333,-0.203966752,0.06459944,9.081604958,-0.739333987,0.106707998,-0.388722003,-1161.900024,5.100000381,-930.9000244,-2.607311397,-0.022431461,-0.006638892,ST
12.66666667,0.123815596,-0.372643083,9.36213398,-0.670735955,0.472563982,-0.083841994,-1159.5,13.50000095,-930.9000244,-2.606644823,0.010685888,0.03861782,ST
12.7,0.081945591,-0.256005198,9.209009171,-0.670735955,0.076219998,-0.685979962,-1161.900024,10.5,-923.7000122,-2.603755687,0.008913381,0.02953758,ST
12.73333333,-0.573020995,0.194994614,9.944127083,-0.243903995,0.350611985,-0.632625997,-1161.900024,13.50000095,-935.7000122,-2.60214935,-0.054882702,-0.016736968,ST
12.76666667,-0.053234726,-0.014953574,9.086389542,0.045731999,0.160062,-0.625003994,-1166.700073,8.100000381,-926.1000366,-2.599001111,-0.008800308,0.000585166,ST
12.8,-0.241051614,0.120824881,9.884910583,-0.266770005,0.022865999,-1.006103992,-1164.300049,10.5,-923.7000122,-2.594910948,-0.023669311,-0.011116045,ST
12.83333333,0.190209463,0.377428204,9.414770126,-0.670735955,-1.158543944,-0.907018006,-1166.700073,12.90000057,-923.7000122,-2.590811084,0.020135878,-0.037696938,ST
12.86666667,0.378624499,0.239257187,9.934556961,-0.922261953,-1.410069942,-0.61738199,-1169.100098,18.90000153,-923.7000122,-2.58846515,0.039279946,-0.023430823,ST
12.9,0.713584542,0.253014475,8.999659538,-1.189031959,-1.806414008,-0.655492008,-1154.700073,11.10000038,-933.3000488,-2.585186221,0.079613881,-0.025956676,ST
12.93333333,0.019738719,-0.166283742,9.609167099,-0.823175967,0.114329994,-0.205793992,-1166.700073,10.5,-923.7000122,-2.586055613,0.006577072,0.016026764,ST
12.96666667,-0.028710863,-0.763230443,10.91192245,-1.219519973,0.625003994,-0.350611985,-1171.5,19.5,-930.9000244,-2.584609737,-0.003054942,0.068569264,ST
13.0,0.138171032,-0.784165442,10.76477909,-1.288118005,-0.396344006,-0.945127964,-1178.700073,12.30000019,-928.500061,-2.580917508,0.01260202,0.074562891,NLR
13.03333333,-0.065197587,-0.523973227,9.292749405,-0.29725799,0.182927996,-1.417691946,-1169.100098,11.10000038,-930.9000244,-2.575109656,-0.0059751,0.057924654,NLR
13.06666667,-0.352306217,-0.637022257,9.026576042,0.022865999,0.838419974,-1.684461951,-1152.300049,15.30000019,-928.500061,-2.567850165,-0.038102022,0.069751313,NLR
13.1,-0.196789041,-0.160302311,9.62531662,-0.487807989,0.190549999,-2.210379839,-1159.5,14.10000038,-921.3000488,-2.559912134,-0.021521765,0.020151846,NLR
13.13333333,-0.374437511,-0.413316786,9.31727314,0.022865999,-0.007622,-1.814036012,-1159.5,11.10000038,-918.9000244,-2.551461441,-0.039082856,0.043217433,NLR
13.16666667,-0.57421726,-1.111349583,8.892591476,-1.089946032,1.432935953,-1.905499935,-1157.100098,15.30000019,-930.9000244,-2.538929733,-0.064787226,0.122365407,NLR
13.2,-0.958823204,-1.234567046,8.7765522,-1.74543798,2.408551931,-2.416173935,-1157.100098,16.5,-930.9000244,-2.526964702,-0.10852286,0.142011979,NLR
13.23333333,-0.982748926,-1.605415702,9.354357719,-2.057940006,2.782029867,-2.25611186,-1145.100098,10.5,-928.500061,-2.513894328,-0.107384415,0.17212454,NLR
13.26666667,-0.887644172,-1.932001829,9.46022892,-1.570132017,1.684461951,-1.463423967,-1157.100098,12.90000057,-921.3000488,-2.504400588,-0.094865317,0.202535317,NLR
13.3,-0.799118996,-2.287298679,9.838853836,-0.853663981,1.417691946,-1.028970003,-1154.700073,7.500000477,-933.3000488,-2.497140047,-0.081804317,0.228434706,NLR
13.33333333,-0.588572681,-2.275933981,10.34727573,0.198172003,1.661595941,-1.646351933,-1149.900024,11.70000076,-938.1000366,-2.489954909,-0.059162889,0.217107525,NLR
13.36666667,-0.6447981,-1.586873293,10.54286766,1.783547997,0.091463998,-3.018311977,-1145.100098,12.30000019,-930.9000244,-2.481437656,-0.05968557,0.150866178,NLR
13.4,-0.253612608,-1.817158341,9.586437225,2.76678586,-0.312501997,-3.170752048,-1137.900024,5.100000381,-942.9000244,-2.467328806,-0.026617498,0.180753361,NLR
13.43333333,0.629246414,-2.201764345,8.502004623,2.690565825,-0.129574001,-5.274424076,-1147.5,5.700000286,-930.9000244,-2.446597453,0.069482053,0.245234621,NLR
13.46666667,1.098788619,-2.546294689,8.804664612,3.719535828,1.585376024,-10.48787212,-1135.5,5.700000286,-933.3000488,-2.406981947,0.118660513,0.271453109,NLR
13.5,0.945664048,-2.86869359,9.409985542,5.838451862,2.743919849,-16.85224152,-1130.700073,11.70000076,-933.3000488,-2.342572202,0.100528983,0.281968133,NLR
13.53333333,-1.130490184,-1.820149064,10.83296776,11.1890955,3.711913824,-26.33400917,-1121.100098,-1.5,-923.7000122,-2.23368591,-0.088671165,0.157589691,NLR
13.56666667,-3.021220207,0.202172324,10.37239742,13.29276752,0.434453994,-27.6754818,-1118.700073,-8.700000763,-942.9000244,-2.144931452,-0.272009179,-0.019003135,NLR
13.6,-2.330364943,1.87577641,7.152593613,9.146399498,-1.943609953,-19.08548737,-1092.300049,-5.100000381,-926.1000366,-2.125549592,-0.307153211,-0.247212441,NLR
13.63333333,-2.219110489,2.430853128,8.145510674,6.890287876,-1.166165948,-14.47417736,-1089.900024,-12.30000019,-921.3000488,-2.075289154,-0.263317621,-0.292304282,NLR
13.66666667,-1.224398613,2.208343744,8.692214012,3.10977602,-2.096050024,-5.785098076,-1099.5,-15.30000019,-921.3000488,-2.04108663,-0.14255533,-0.25482408,NLR
13.7,-1.044357657,1.884748459,10.97472763,2.027451992,-1.310984015,-0.342989981,-1097.100098,-14.70000076,-911.7000122,-2.024963747,-0.091378513,-0.173547134,NLR
13.73333333,-0.851157427,1.267464995,9.786815643,-0.670735955,0.282013983,3.391789913,-1087.5,-11.10000038,-909.3000488,-2.077654363,-0.085759937,-0.128102164,NLR
13.76666667,-0.802109718,1.064096332,9.382471085,-0.602137983,0.975615978,2.995445967,-1097.100098,-14.10000038,-911.7000122,-2.089001152,-0.085826243,-0.113299306,NLR
13.8,-0.822446585,1.335055113,9.44168663,-0.449698001,0.419209987,3.132642031,-1099.5,-12.30000019,-902.1000366,-2.104012677,-0.086019235,-0.138528723,NLR
13.83333333,-0.706406832,1.116732955,9.086389542,-0.205793992,0.487807989,3.163130045,-1101.900024,-12.30000019,-914.1000366,-2.116074553,-0.077647553,-0.123252705,NLR
13.86666667,-0.812278152,1.54380703,9.732384682,0.182927996,0.655492008,1.920743942,-1097.100098,-15.30000019,-906.9000244,-2.126636422,-0.082559337,-0.155815668,NLR
13.9,-0.570628405,1.54380703,9.066651344,0.647870004,0.541162014,0.998481989,-1087.5,-14.10000038,-918.9000244,-2.131736492,-0.063817207,-0.169058284,NLR
13.93333333,-0.710593879,1.958320141,9.665391922,0.685979962,-0.670735955,-0.442075998,-1097.100098,-17.70000076,-902.1000366,-2.128600174,-0.070936681,-0.201026902,NLR
13.96666667,-0.623264968,1.989423513,8.095267296,0.579271972,-0.853663981,-0.137196004,-1089.900024,-10.5,-914.1000366,-2.129893707,-0.073098821,-0.239462746,NLR
14.0,-0.554478526,1.328475595,9.722813606,-0.518296003,0.442075998,-0.609759986,-1097.100098,-17.10000038,-918.9000244,-2.12146927,-0.058353139,-0.141170233,NLR
14.03333333,-0.718369722,1.683174372,10.1576643,0.007622,-0.945127964,-1.158543944,-1089.900024,-12.90000057,-911.7000122,-2.112502162,-0.068354868,-0.164059056,NLR
14.06666667,-1.419991374,1.491170406,10.66429138,-0.381099999,1.349093914,-2.57623601,-1080.300049,-18.90000153,-923.7000122,-2.090469634,-0.134046175,-0.137714042,NLR
14.1,0.086132586,1.227389336,9.475780487,-1.006103992,-1.135677934,-1.272873998,-1077.900024,-10.5,-906.9000244,-2.084316453,0.001894695,-0.127662683,NLR
14.13333333,0.812278152,1.0425632,9.534996986,-0.655492008,-2.027451992,-1.059458017,-1082.700073,-18.30000114,-906.9000244,-2.079626143,0.083103633,-0.10900796,NLR
14.16666667,0.991721034,0.533543527,9.180896759,-0.548784018,-1.722571969,-0.983237982,-1085.100098,-14.70000076,-911.7000122,-2.079479285,0.108829883,-0.060119761,NLR
14.2,0.901999593,0.269762486,9.475780487,-0.777444005,-0.670735955,-2.187514067,-1082.700073,-13.50000095,-909.3000488,-2.073429642,0.096689695,-0.029459144,NLR
14.23333333,0.236864612,0.370250493,10.04820347,-0.907018006,-0.205793992,-2.614346027,-1087.5,-9.300000191,-918.9000244,-2.0623317,0.028173374,-0.035069976,NLR
14.26666667,-0.142956167,0.037683006,9.796983719,-0.495429993,0.182927996,-2.301843882,-1077.900024,-15.30000019,-899.7000122,-2.053294567,-0.012337717,-0.004903508,NLR
14.3,-0.455784947,-0.602329969,9.540978432,-0.464941978,0.998481989,-2.17227006,-1073.100098,-6.300000191,-926.1000366,-2.042252758,-0.047183693,0.060258127,NLR
14.33333333,-1.003085732,-0.334960073,9.631298065,-0.480185986,0.457319975,-1.783547997,-1082.700073,-10.5,-926.1000366,-2.036659272,-0.101264791,0.037233263,NLR
14.36666667,-1.398458242,-0.21772404,10.54167175,0.304879993,0.548784018,-0.762199998,-1070.700073,-13.50000095,-926.1000366,-2.035160349,-0.131069573,0.021218437,NLR
14.4,-0.90379405,-0.026318291,10.27131081,0.846041977,0.068598002,0.221037999,-1068.300049,-15.90000057,-921.3000488,-2.037863194,-0.089787419,0.001933741,NLR
14.43333333,0.031701576,0.236266479,9.156970978,1.463423967,-0.419209987,0.350611985,-1068.300049,-13.50000095,-916.500061,-2.040388815,-0.000930028,-0.026707148,NLR
14.46666667,0.056225438,0.584385693,8.920703888,1.867389917,-0.228659987,-0.175305992,-1075.5,-17.10000038,-914.1000366,-2.039558293,0.006208469,-0.066132228,NLR
14.5,-0.357091367,0.778782129,8.647951126,1.669217944,-0.114329994,0.358233988,-1058.700073,-10.5,-904.500061,-2.041211037,-0.037995809,-0.091129638,NLR
14.53333333,-1.217819095,0.543113828,8.628211975,0.762199998,1.021348,1.417691946,-1075.5,-17.10000038,-923.7000122,-2.044722464,-0.135264723,-0.066144847,NLR
14.56666667,-1.356588244,0.089721449,10.07870865,0.114329994,1.272873998,1.836901903,-1070.700073,-13.50000095,-916.500061,-2.045510548,-0.135931124,-0.012034542,NLR
14.6,-0.824839175,0.663938701,11.00523281,1.318606019,-0.525918007,2.278977871,-1082.700073,-13.50000095,-911.7000122,-2.059117117,-0.077344947,-0.05982573,NLR
14.63333333,-0.519188106,0.683677435,9.660607338,2.347575903,-1.653973937,2.218001842,-1073.100098,-14.10000038,-911.7000122,-2.067899555,-0.052035605,-0.074037193,NLR
14.66666667,0.375633776,1.215426564,8.636586189,3.041177988,-1.8292799,2.278977871,-1080.300049,-11.70000076,-909.3000488,-2.085012635,0.046722225,-0.144920699,NLR
14.7,-0.260192186,1.7579422,8.899768829,2.408551931,-1.173787951,3.231727839,-1085.100098,-14.10000038,-897.3000488,-2.113324005,-0.025547839,-0.199350007,NLR
14.73333333,-0.280529052,1.714277744,10.20910454,1.097568035,-1.539644003,4.344540119,-1094.700073,-18.90000153,-890.1000366,-2.140754035,-0.023172484,-0.168514391,NLR
14.76666667,-0.132189602,1.68736136,10.39512634,1.166165948,-1.211897969,3.978683949,-1097.100098,-21.30000114,-897.3000488,-2.156513207,-0.010010173,-0.163300588,NLR
14.8,0.585581958,2.051032305,9.086389542,0.876529992,-1.646351933,2.698187828,-1104.300049,-17.10000038,-897.3000488,-2.174216874,0.066598761,-0.223250833,NLR
14.83333333,-0.167480037,2.068378448,8.898572922,-0.213415995,0.579271972,1.913121939,-1111.5,-18.90000153,-890.1000366,-2.190172336,-0.018515041,-0.228071573,NLR
14.86666667,-0.235668331,1.795027018,9.24190712,-0.251525998,1.227141976,0.861285985,-1101.900024,-18.90000153,-882.9000244,-2.193835975,-0.026326766,-0.193667728,NLR
14.9,-0.782969177,2.059406281,9.81672287,-0.129574001,0.884151995,0.42683199,-1104.300049,-21.30000114,-894.9000244,-2.19688367,-0.076052452,-0.205845495,NLR
14.93333333,-0.776389599,2.074958086,9.475780487,-0.518296003,-0.320124,1.051836014,-1104.300049,-21.90000153,-902.1000366,-2.20181231,-0.078792022,-0.214359863,NLR
14.96666667,-0.917551339,2.706596851,10.18697262,-0.777444005,-0.022865999,1.440557957,-1106.700073,-20.10000038,-909.3000488,-2.211678791,-0.085849908,-0.256593614,NLR
15.0,-0.991721034,2.905778646,9.381274223,-2.431417942,0.182927996,4.32167387,-1104.300049,-14.70000076,-909.3000488,-2.232935634,-0.098022398,-0.294380919,NLR
15.03333333,-0.214733332,1.873981953,8.575575829,-4.458869934,-0.236281991,7.64486599,-1113.900024,-14.70000076,-909.3000488,-2.258446106,-0.02574875,-0.213098575,NLR
15.06666667,-0.081945591,2.025312185,9.910032272,-4.855214119,0.525918007,9.077801704,-1113.900024,-9.300000191,-914.1000366,-2.294650629,-0.007096898,-0.194481616,NLR
15.1,0.651377678,0.623264968,8.811841965,-5.762231827,0.769822001,12.27141953,-1130.700073,-8.100000381,-918.9000244,-2.351536215,0.070460586,-0.06527489,NLR
15.13333333,0.506627083,0.56943208,9.143213272,-5.846074104,1.730193973,12.09611416,-1133.100098,-12.30000019,-921.3000488,-2.399901601,0.054409259,-0.051660882,NLR
15.16666667,-0.748875022,-0.031103434,9.939341545,-5.274424076,1.577754021,13.08697414,-1125.900024,-7.500000477,-918.9000244,-2.452754859,-0.06983201,0.007376667,NLR
15.2,0.646592557,-1.152023315,8.985303879,-5.632658005,0.663114011,13.10221767,-1121.100098,-2.100000143,-938.1000366,-2.504253761,0.059207294,0.130196142,NLR
15.23333333,-0.293688208,-1.155014038,9.838255882,-3.986305952,1.013725996,10.3811636,-1130.700073,-2.700000048,-921.3000488,-2.545058019,-0.028007433,0.12399344,NLR
15.26666667,-0.54131937,-1.463057756,9.644456863,-3.40703392,0.754577994,9.405548096,-1140.300049,5.100000381,-923.7000122,-2.581467898,-0.057276507,0.153731686,NLR
15.3,-0.101086162,-1.6167804,9.844237328,-2.17227006,1.410069942,5.731743813,-1140.300049,0.900000036,-928.500061,-2.603852769,-0.016546182,0.165667328,NLR
15.33333333,-1.21423018,-1.159799218,10.83655643,-0.975615978,0.800309956,3.734779835,-1125.900024,3.300000191,-926.1000366,-2.621972503,-0.10726911,0.111298272,NLR
15.36666667,0.059814297,-1.780671597,9.076221466,-1.821658015,-1.532021999,3.368923903,-1145.100098,8.100000381,-933.3000488,-2.633699317,0.002931985,0.193080934,NLR
15.4,-0.004187001,-1.809382439,9.262244225,-1.600619912,-0.373477995,1.928365946,-1152.300049,1.5,-940.500061,-2.641614692,-0.000251341,0.195555459,NLR
15.43333333,-0.229686901,-1.967890382,9.528417587,-0.80793196,0.861285985,0.967993975,-1140.300049,3.300000191,-935.7000122,-2.644686145,-0.023889689,0.204473541,NLR
15.46666667,-0.747080564,-1.990619779,9.536193848,-0.503051996,0.838419974,0.548784018,-1135.5,8.700000763,-938.1000366,-2.646221236,-0.075203623,0.20651052,NLR
15.5,-0.995908022,-1.586873293,9.356152534,1.074702024,0.800309956,3.208861828,-1137.900024,4.5,-942.9000244,-2.673297837,-0.106848313,0.165587734,NLR
15.53333333,-0.97437489,-1.241146684,9.660009384,1.74543798,0.228659987,3.879597902,-1135.5,5.700000286,-957.3000488,-2.691894705,-0.101364541,0.126570378,NLR
15.56666667,-1.125106931,-0.683677435,9.911827087,2.393307924,-0.685979962,4.908567905,-1137.900024,11.10000038,-928.500061,-2.718177964,-0.111691505,0.06682259,NLR
15.6,-0.600535572,-0.513804793,9.826890945,2.667700052,-1.600619912,5.74698782,-1135.5,2.100000143,-942.9000244,-2.743041707,-0.061569033,0.047962868,NLR
15.63333333,-0.057421725,-0.07596416,9.236523628,2.667700052,-1.753059983,5.663146019,-1135.5,10.5,-923.7000122,-2.767147017,-0.006825919,0.006109237,NLR
15.66666667,-0.440831363,0.467149675,9.320861816,2.332331896,-0.846041977,5.396375656,-1137.900024,9.300000191,-916.500061,-2.792538857,-0.043790854,-0.052116114,NLR
15.7,-0.517991841,0.683079302,9.203027725,1.478667974,-0.007622,4.984787941,-1142.700073,-0.900000036,-935.7000122,-2.813414919,-0.054729957,-0.075609393,NLR
15.73333333,-0.92951417,0.711790144,10.16843033,1.440557957,0.579271972,4.679907799,-1159.5,5.100000381,-926.1000366,-2.831733638,-0.08912384,-0.073241777,NLR
15.76666667,-0.57421726,0.922336459,9.758104324,0.83079797,0.228659987,4.230209827,-1152.300049,7.500000477,-935.7000122,-2.850127432,-0.060116821,-0.09478342,NLR
15.8,-0.090319589,1.121518016,8.822608948,0.221037999,0.007622,3.544229984,-1152.300049,10.5,-918.9000244,-2.866254802,-0.011913189,-0.125369817,NLR
15.83333333,0.271556914,0.464158952,9.905247688,-1.890255928,-0.922261953,2.76678586,-1145.100098,4.5,-928.500061,-2.877905239,0.027029655,-0.047907288,NLR
15.86666667,0.675901532,0.827829897,9.977025032,-2.157026052,-2.103672028,0.983237982,-1145.100098,5.100000381,-933.3000488,-2.879509389,0.068789745,-0.077233181,NLR
15.9,0.832615018,0.574815392,8.56241703,-1.257629991,-0.899396002,0.274392009,-1157.100098,11.10000038,-926.1000366,-2.880938042,0.097019232,-0.065349773,NLR
15.93333333,0.377428204,0.134582162,8.677260399,-1.669217944,0.61738199,-0.61738199,-1149.900024,7.500000477,-933.3000488,-2.881636918,0.045678851,-0.015840282,ST
15.96666667,-1.001889467,0.05443101,9.844835281,-2.141782045,1.371959925,-1.631107926,-1142.700073,9.900000572,-933.3000488,-2.87477816,-0.096472297,-0.002278247,ST
16.0,-1.639509916,-0.089123301,10.09426117,-2.332331896,1.082324028,-1.547266006,-1154.700073,13.50000095,-933.3000488,-2.867974161,-0.158844479,0.01236095,ST
16.03333333,-2.427862406,-0.082543731,10.44895935,-2.035073996,1.288118005,-0.990859985,-1135.5,13.50000095,-923.7000122,-2.865731764,-0.226178307,0.011878999,ST
16.06666667,-1.358382702,-0.834409416,9.773655891,-3.193617821,0.708845973,-0.91463995,-1137.900024,10.5,-928.500061,-2.850466687,-0.144058104,0.086270756,ST
16.1,-0.949851036,-0.467747808,9.432714462,-3.528985977,-0.72408998,-2.202757835,-1142.700073,17.10000038,-933.3000488,-2.8470009,-0.101491467,0.057931499,ST
16.13333333,-0.949252903,-0.35290435,8.80945015,-2.751541853,-1.570132017,-2.317087889,-1154.700073,12.90000057,-933.3000488,-2.840402508,-0.104154562,0.046018875,ST
16.16666667,-1.286605477,-0.570030272,10.38316345,-2.111294031,-1.653973937,-2.423795938,-1149.900024,7.500000477,-938.1000366,-2.830667453,-0.119022398,0.058218387,ST
16.2,-0.689060688,-0.553282261,10.26054478,-1.623485923,-1.272873998,-2.042695999,-1142.700073,14.70000076,-935.7000122,-2.822995959,-0.067208129,0.057023492,ST
16.23333333,0.035290435,-0.36247465,7.625126362,-0.960371971,-0.983237982,-1.920743942,-1145.100098,9.300000191,-930.9000244,-2.815801053,0.002038215,0.049684278,ST
16.26666667,-0.799717128,-0.862522185,8.391945839,-1.219519973,2.004585981,-1.356715918,-1142.700073,14.70000076,-928.500061,-2.807653068,-0.091720563,0.101400231,ST
16.3,-1.397860169,-1.283614874,9.325048447,-1.23476398,2.804895878,-1.028970003,-1130.700073,12.90000057,-938.1000366,-2.798553008,-0.148389204,0.136981364,ST
16.33333333,-1.714875937,-1.235165238,10.46032429,-1.013725996,2.271355867,-2.111294031,-1142.700073,15.30000019,-928.500061,-2.791947725,-0.163978147,0.120909114,ST
16.36666667,-1.610200882,-1.138266087,10.21927261,-0.190549999,1.471045971,-2.225623846,-1152.300049,11.70000076,-938.1000366,-2.783673326,-0.157801775,0.112412481,ST
16.4,-1.649678349,-1.139462352,9.440490723,-0.091463998,0.472563982,-1.63872993,-1133.100098,11.70000076,-928.500061,-2.775754592,-0.171379968,0.120271809,ST
16.43333333,-1.358382702,-1.080844402,10.16783237,-0.525918007,-0.137196004,-0.129574001,-1123.5,20.70000076,-933.3000488,-2.777535734,-0.134210885,0.107658016,ST
16.46666667,-1.15561223,-1.224996805,9.801769257,0.213415995,-0.754577994,1.661595941,-1142.700073,12.90000057,-940.500061,-2.782512268,-0.116634753,0.122631183,ST
16.5,0.089721449,-1.216024637,8.32614994,0.579271972,-1.12805593,2.317087889,-1145.100098,20.10000038,-933.3000488,-2.792356141,0.006959977,0.143145571,DLL
16.53333333,0.118432306,-1.229781985,8.690419197,0.289635986,-0.685979962,0.998481989,-1130.700073,17.10000038,-921.3000488,-2.796713983,0.013980564,0.140280302,DLL
16.56666667,-0.348119199,-1.464254022,9.204223633,-0.221037999,-0.464941978,0.076219998,-1128.300049,15.90000057,-926.1000366,-2.797150623,-0.033487699,0.157060739,DLL
16.6,-0.832615018,-1.843476653,9.523034096,-0.609759986,-0.213415995,-0.060975999,-1130.700073,16.5,-938.1000366,-2.795271782,-0.082964025,0.190730172,DLL
16.63333333,-0.882859051,-2.014545441,10.28925514,-0.259148002,0.121951997,0.076219998,-1135.5,17.10000038,-930.9000244,-2.795333396,-0.084171755,0.193623182,DLL
16.66666667,-1.126901388,-2.139557362,10.06674576,0.503051996,-0.411587983,0.060975999,-1125.900024,12.90000057,-942.9000244,-2.794375135,-0.107194503,0.207784779,DLL
16.7,-1.277035236,-1.708296299,9.572680473,0.670735955,-0.495429993,-0.137196004,-1140.300049,11.70000076,-933.3000488,-2.797451639,-0.128328835,0.177403038,DLL
16.73333333,-1.360775232,-1.346419811,8.7765522,0.442075998,-0.777444005,1.631107926,-1130.700073,22.5,-928.500061,-2.807784602,-0.149929807,0.152452599,DLL
16.76666667,-1.551582813,-1.55576992,8.81363678,-0.060975999,-0.182927996,3.071666002,-1140.300049,16.5,-930.9000244,-2.816778149,-0.170893996,0.172616603,DLL
16.8,-1.911066771,-1.308138728,9.617540359,-0.121951997,0.42683199,3.841487885,-1135.5,11.70000076,-945.3000488,-2.83823033,-0.194576974,0.136481784,DLL
16.83333333,-1.700520515,-0.823044717,9.819114685,0.221037999,-0.922261953,6.745470047,-1135.5,15.30000019,-940.500061,-2.877970831,-0.171317754,0.083320595,DLL
16.86666667,-1.681379914,-0.956430614,8.833374977,-0.068598002,-2.59910202,9.779026031,-1125.900024,18.90000153,-923.7000122,-2.914066426,-0.183436637,0.10346462,DLL
16.9,-2.415301323,-0.926523447,10.02846527,-1.371959925,-2.782029867,13.56715965,-1142.700073,20.10000038,-928.500061,-2.972267727,-0.22972849,0.08997484,DLL
16.93333333,-1.791438222,-1.263278008,9.130054474,-1.989341974,-3.40703392,16.19674873,-1135.5,17.10000038,-918.9000244,-3.030051536,-0.192038586,0.132449124,DLL
16.96666667,0.041870009,-2.051032305,7.274016857,-3.178373814,-4.870458126,17.4848671,-1135.5,22.5,-930.9000244,-3.090294964,-0.00587082,0.270372782,DLL
17.0,-0.838596463,-2.083930016,9.110315323,-2.682943821,-3.094532013,16.06717491,-1164.300049,23.70000076,-928.500061,3.124671302,-0.085688653,0.230109428,DLL
17.03333333,-0.011364716,-2.66412878,9.937547684,-1.028970003,-1.684461951,13.15557194,-1133.100098,32.10000229,-935.7000122,3.072932067,-0.00902276,0.261215877,DLL
17.06666667,-0.290099353,-2.034882307,9.822704315,-0.007622,-2.23324585,9.878111839,-1149.900024,33.30000305,-926.1000366,3.027394726,-0.027902648,0.206355852,DLL
17.1,0.440233231,-2.064789534,9.271216393,-0.495429993,-3.147886038,7.675354004,-1152.300049,33.90000153,-930.9000244,2.990379974,0.045759079,0.219956194,DLL
17.13333333,0.520384371,-1.559956908,8.330337524,-0.998481989,-3.803377867,6.120465755,-1147.5,35.10000229,-926.1000366,2.965095609,0.064561033,0.189543368,DLL
17.16666667,0.462962657,-1.726240635,9.741954803,-1.280496001,-2.583858013,4.641798019,-1140.300049,35.10000229,-906.9000244,2.945738115,0.050638599,0.17876907,DLL
17.2,0.736912131,-1.580293775,9.522436142,-1.097568035,-2.789651871,3.772889853,-1154.700073,38.70000076,-916.500061,2.928399573,0.078601698,0.167439917,DLL
17.23333333,0.278136492,-1.21423018,9.449462891,0.205793992,-1.211897969,2.530503988,-1161.900024,32.70000076,-916.500061,2.919035805,0.033035363,0.129573465,DLL
17.26666667,0.043664437,-1.396663785,9.736571312,0.541162014,-0.434453994,1.326228023,-1161.900024,28.50000191,-897.3000488,2.913241206,0.006576964,0.140830278,DLL
17.3,-1.139462352,-0.845774174,10.33052731,-0.320124,-0.205793992,0.335367978,-1157.100098,35.10000229,-923.7000122,2.909093621,-0.102171674,0.085799566,DLL
17.33333333,-1.162789941,-0.919345737,10.36820984,-0.449698001,-0.289635986,0.990859985,-1149.900024,30.90000153,-902.1000366,2.905162582,-0.11037008,0.088834096,DLL
17.36666667,-0.434849948,-1.382906556,9.286170006,-0.998481989,-0.503051996,1.547266006,-1164.300049,35.70000076,-916.500061,2.902817043,-0.049320231,0.146120979,DLL
17.4,-0.248827472,-1.564741969,9.492528915,-1.509155989,-1.42531395,1.021348,-1149.900024,33.30000305,-906.9000244,2.898182892,-0.0250892,0.164861439,DLL
17.43333333,0.051440295,-1.747773767,8.301028252,-0.762199998,-1.067080021,0.93750596,-1159.5,37.5,-914.1000366,2.894040867,0.005583451,0.206184068,DLL
17.46666667,-0.808091164,-1.489974141,9.946519852,0.434453994,0.556405962,0.647870004,-1147.5,38.10000229,-916.500061,2.889651331,-0.077892773,0.15018741,DLL
17.5,-0.486290246,-1.352401257,8.958985329,0.93750596,-0.022865999,0.792688012,-1159.5,33.90000153,-921.3000488,2.886593698,-0.055246549,0.148232954,DLL
17.53333333,-1.128097653,-1.229781985,9.604381561,0.708845973,0.42683199,1.928365946,-1159.5,37.5,-911.7000122,2.877634817,-0.113409044,0.127147857,DLL
17.56666667,-1.167575121,-1.434346795,10.06734467,0.777444005,-0.030487999,2.621968031,-1159.5,29.10000038,-918.9000244,2.86860755,-0.114809304,0.138961758,DLL
17.6,-0.693247676,-1.787251234,9.353759766,0.503051996,-0.228659987,2.705809832,-1152.300049,36.30000305,-911.7000122,2.86226367,-0.075646335,0.184599455,DLL
17.63333333,-0.624461234,-1.804597378,9.140222549,0.0,-0.518296003,2.408551931,-1147.5,32.10000229,-902.1000366,2.853029904,-0.06737585,0.194024005,DLL
17.66666667,-0.524571359,-1.863813519,8.913526535,-0.190549999,-0.777444005,1.684461951,-1161.900024,32.70000076,-916.500061,2.845997396,-0.057326555,0.20567611,DLL
17.7,0.044262581,-2.270550728,8.669484138,-0.975615978,-0.678357959,1.021348,-1161.900024,37.5,-916.500061,2.842638395,0.001824088,0.254680196,DLL
17.73333333,0.269164324,-2.227484465,8.057583809,-1.95885396,-1.859767914,-0.030487999,-1161.900024,41.10000229,-914.1000366,2.840656417,0.033297284,0.272033594,DLL
17.76666667,-0.54610455,-2.175446033,9.067847252,-1.150921941,-0.929883957,0.251525998,-1149.900024,36.30000305,-899.7000122,2.838350341,-0.05155475,0.239557004,DLL
17.8,-0.149535745,-2.277130365,9.206616402,-0.625003994,-0.53354001,-0.221037999,-1169.100098,40.5,-911.7000122,2.83875396,-0.016999657,0.243323689,DLL
17.83333333,-0.495860517,-2.247223139,9.991379738,-0.175305992,-0.975615978,-0.373477995,-1161.900024,36.30000305,-899.7000122,2.838665618,-0.044784833,0.222874013,DLL
17.86666667,-0.511412263,-2.189801455,9.533203125,-0.381099999,-1.402447939,-0.434453994,-1157.100098,44.70000076,-899.7000122,2.839196355,-0.049384112,0.22624299,DLL
17.9,-1.023422599,-1.683772445,10.64455223,-0.388722003,-1.013725996,-0.29725799,-1159.5,35.70000076,-906.9000244,2.835003227,-0.090230184,0.161763399,DLL
17.93333333,-0.299669623,-1.937385082,9.881321907,-0.228659987,-1.440557957,0.663114011,-1169.100098,33.90000153,-909.3000488,2.833122214,-0.031305347,0.192001097,DLL
17.96666667,0.315221339,-2.563042641,9.097754478,-1.082324028,-1.394825935,0.952749968,-1157.100098,34.5,-904.500061,2.827584053,0.032318963,0.272826465,DLL
18.0,0.476719946,-2.872282505,8.047415733,-1.791170001,-0.731711984,0.015244,-1178.700073,45.90000153,-902.1000366,2.823936979,0.055441457,0.341535774,DLL
18.03333333,-0.429466665,-2.924320936,8.204727173,-1.463423967,1.349093914,-0.365855992,-1171.5,38.70000076,-904.500061,2.82708735,-0.044791535,0.344793693,DLL
18.06666667,-0.912766159,-2.925517321,8.90754509,-1.074702024,1.592997909,-0.053353999,-1169.100098,43.5,-906.9000244,2.827421603,-0.096970077,0.320557566,DLL
18.1,-1.245931864,-3.062491894,9.240112305,-0.640248001,0.53354001,0.594515979,-1154.700073,42.90000153,-909.3000488,2.825590772,-0.126600132,0.321044963,DLL
18.13333333,-1.273446441,-3.30414176,9.801769257,-0.312501997,-0.114329994,0.907018006,-1159.5,30.90000153,-914.1000366,2.822367921,-0.123042095,0.325215641,DLL
18.16666667,-0.78835243,-3.543398857,9.470995903,-0.129574001,-0.952749968,0.91463995,-1154.700073,39.30000305,-911.7000122,2.82069509,-0.079602867,0.356076827,DLL
18.2,-1.297970295,-3.006864786,9.380078316,1.021348,-0.259148002,1.013725996,-1152.300049,46.5,-899.7000122,2.812162212,-0.128339665,0.310837451,DLL
18.23333333,-0.980954468,-2.723942995,9.118091583,1.509155989,0.152439997,1.600619912,-1164.300049,42.30000305,-899.7000122,2.804332996,-0.105268009,0.288801681,DLL
18.26666667,-1.000693202,-2.752653837,9.398022652,1.615863919,-0.442075998,2.423795938,-1171.5,41.70000076,-892.500061,2.794484108,-0.102455417,0.282097803,DLL
18.3,-0.42827037,-2.758635283,9.046912193,1.539644003,-1.471045971,2.019829988,-1154.700073,37.5,-909.3000488,2.786200773,-0.047358698,0.292395391,DLL
18.33333333,-0.53653425,-2.405730963,9.037342072,2.301843882,-0.91463995,1.653973937,-1164.300049,37.5,-914.1000366,2.777084944,-0.056069917,0.257758215,DLL
18.36666667,-0.111852735,-2.290887594,9.019995689,1.806414008,-1.067080021,1.669217944,-1169.100098,41.10000229,-899.7000122,2.768631573,-0.012912045,0.246045894,DLL
18.4,0.393578082,-2.481096983,8.311794281,0.472563982,-2.294221878,2.218001842,-1176.300049,35.70000076,-899.7000122,2.756850097,0.044416436,0.286798721,DLL
18.43333333,0.133984029,-2.280121088,8.138931274,-0.045731999,-1.951231956,2.103672028,-1154.700073,38.10000229,-909.3000488,2.746945635,0.019717381,0.274150095,DLL
18.46666667,0.197985321,-2.554668665,9.622923851,0.525918007,0.663114011,2.682943821,-1171.5,42.90000153,-897.3000488,2.737441157,0.017683114,0.259588663,DLL
18.5,0.369652361,-2.73470974,9.732982635,0.121951997,-0.160062,2.507637978,-1152.300049,41.70000076,-899.7000122,2.726249319,0.03485371,0.273210849,DLL
18.53333333,0.044262581,-2.190997601,9.465014458,0.556405962,-0.282013983,2.644834042,-1154.700073,45.30000305,-914.1000366,2.716488055,0.005821586,0.229382591,DLL
18.56666667,-0.078954875,-1.68496871,10.17859936,2.294221878,0.083841994,2.667700052,-1157.100098,37.5,-904.500061,2.705951593,-0.007737169,0.16422709,DLL
18.6,-0.199779749,-1.269857526,9.39682579,3.170752048,-0.449698001,2.408551931,-1154.700073,39.30000305,-892.500061,2.695226682,-0.020214173,0.13045104,DLL
18.63333333,-0.551487803,-0.985141456,9.284973145,2.370441914,0.0,1.265251994,-1147.5,39.30000305,-892.500061,2.689526949,-0.056870235,0.103216452,DLL
18.66666667,-0.391783655,-1.021030068,8.939845085,1.028970003,-0.259148002,1.067080021,-1157.100098,42.90000153,-914.1000366,2.685752965,-0.044093325,0.111312945,DLL
18.7,-0.769211888,-0.733323276,9.101343155,0.030487999,-0.746955991,0.838419974,-1159.5,44.70000076,-909.3000488,2.680305096,-0.080525932,0.08211995,DLL
18.73333333,-0.3271842,-1.067087054,9.44168663,-1.85214591,-1.539644003,0.93750596,-1152.300049,33.30000305,-914.1000366,2.67694204,-0.034068274,0.114222372,DLL
18.76666667,-0.028112719,-1.731025815,9.405200005,-2.477149963,-2.606724024,1.120433927,-1154.700073,39.90000153,-892.500061,2.671507467,-0.000528588,0.182787582,DLL
18.8,0.736313999,-2.530742884,9.274207115,-1.600619912,-1.821658015,0.960371971,-1154.700073,37.5,-885.3000488,2.662773784,0.075586566,0.265528205,DLL
18.83333333,0.474327385,-2.79093504,10.66488934,-0.236281991,-1.211897969,0.838419974,-1161.900024,38.10000229,-906.9000244,2.658831783,0.046543929,0.257016449,DLL
18.86666667,0.255407035,-2.662334442,8.938648224,-0.137196004,-0.312501997,-0.929883957,-1164.300049,37.5,-899.7000122,2.660946798,0.02945852,0.287694788,DLL
18.9,-0.253014475,-2.225689888,9.10313797,-0.327746004,0.495429993,-0.701223969,-1171.5,38.70000076,-914.1000366,2.664308711,-0.024076866,0.243262504,DLL
18.93333333,-0.178246602,-2.275933981,8.924293518,-0.259148002,0.350611985,0.083841994,-1152.300049,39.30000305,-890.1000366,2.664447956,-0.020228814,0.249738849,DLL
18.96666667,-0.194396466,-2.659343719,8.560622215,-0.731711984,0.480185986,-0.282013983,-1154.700073,42.90000153,-904.500061,2.667067441,-0.022218714,0.299290796,DLL
19.0,-0.643003702,-2.661138058,8.712550163,-1.097568035,0.861285985,-1.166165948,-1169.100098,38.10000229,-897.3000488,2.672471973,-0.068625712,0.29854833,DLL
19.03333333,-0.029309006,-3.383096695,9.061865807,-1.135677934,0.762199998,-1.74543798,-1164.300049,45.90000153,-880.500061,2.682868023,-0.006133841,0.356673405,DLL
19.06666667,0.823044717,-3.905275345,9.797581673,-0.289635986,0.731711984,-4.016793728,-1176.300049,46.5,-894.9000244,2.698347361,0.074059145,0.378009338,DLL
19.1,1.088022113,-3.865797997,10.70197392,1.85214591,1.943609953,-7.698219776,-1164.300049,35.70000076,-906.9000244,2.732213995,0.095375493,0.344311615,DLL
19.13333333,1.676594734,-4.304834843,9.132447243,3.193617821,2.225623846,-13.94063759,-1171.5,33.90000153,-906.9000244,2.774622881,0.166200646,0.425865578,DLL
19.16666667,0.107067592,-3.439920187,9.399218559,4.580821991,3.269837856,-17.59919739,-1181.100098,44.70000076,-918.9000244,2.851433596,0.025281293,0.346471729,DLL
19.2,-0.711790144,-3.161783695,9.164148331,4.824726105,3.704291821,-16.47876358,-1173.900024,37.5,-914.1000366,2.919269784,-0.064302461,0.326532299,DLL
19.23333333,-1.057516813,-2.468536139,7.915823936,4.329296112,3.81099987,-14.74856949,-1164.300049,30.90000153,-904.500061,2.979496723,-0.121779088,0.299465265,DLL
19.26666667,-0.913364291,-2.211932659,7.813541412,3.475631952,4.504601955,-13.42234135,-1181.100098,27.90000153,-918.9000244,3.03478263,-0.113640508,0.274267328,DLL
19.3,-1.703511238,-1.748371959,8.979322433,3.125020027,3.231727839,-11.58543968,-1173.900024,18.30000114,-923.7000122,3.078751,-0.182710718,0.193858194,DLL
19.33333333,-2.358477831,-1.525862694,9.031360626,3.315569878,2.995445967,-8.887251854,-1157.100098,23.10000038,-918.9000244,3.113644641,-0.250605894,0.16710336,DLL
19.36666667,-2.329168797,-1.58388257,9.722215652,2.995445967,3.178373814,-6.051867962,-1164.300049,18.30000114,-921.3000488,3.140089339,-0.236858372,0.15951474,DLL
19.4,-1.454683661,-1.530647874,9.470995903,1.760681987,0.663114011,-4.489357948,-1152.300049,17.10000038,-938.1000366,-3.12399805,-0.155629284,0.158584365,DLL
19.43333333,-1.004281998,-1.368551135,10.67087078,1.63872993,0.091463998,-2.76678586,-1159.5,18.30000114,-930.9000244,-3.115474436,-0.09569645,0.126831683,DLL
19.46666667,0.447410941,-1.5109092,10.35624695,1.775925994,-1.371959925,-0.746955991,-1159.5,16.5,-923.7000122,-3.11273334,0.036704543,0.140869976,DLL
19.5,0.865512908,-1.281222224,8.83995533,2.49239397,-0.167683989,0.0,-1157.100098,17.70000076,-933.3000488,-3.113475197,0.093236405,0.139663691,DLL
19.53333333,0.413316786,-1.315316439,9.152783394,2.583858013,2.454283953,0.266770005,-1142.700073,17.70000076,-928.500061,-3.113722523,0.043567734,0.138305209,DLL
19.56666667,-0.827829897,-0.483299524,8.629408836,2.865871906,3.757645845,0.571649969,-1152.300049,11.10000038,-940.500061,-3.116258904,-0.093255646,0.0562583,DLL
19.6,-1.22140789,-0.340941489,9.203625679,2.911603928,3.460387945,1.943609953,-1133.100098,12.90000057,-918.9000244,-3.12508871,-0.135814592,0.032747903,DLL
19.63333333,-1.521675706,-0.488682806,9.748534203,3.170752048,2.439039946,2.964957952,-1142.700073,9.900000572,-933.3000488,-3.133098248,-0.157712094,0.043107925,DLL
19.66666667,-1.321297765,-0.157909751,9.621727943,3.894841909,2.500015974,2.820139885,-1125.900024,17.70000076,-930.9000244,3.136587897,-0.141917619,0.010977637,DLL
19.7,-1.872785687,0.290099353,9.135437965,3.521363974,0.823175967,2.934469938,-1137.900024,11.10000038,-935.7000122,3.119436779,-0.199673027,-0.035840965,DLL
19.73333333,-2.432049274,0.439635098,9.785618782,2.202757835,-0.160062,3.445143938,-1137.900024,14.70000076,-928.500061,3.10425185,-0.240683809,-0.049472852,DLL
19.76666667,-0.421092659,0.01614986,8.28368187,-0.693601966,-2.49239397,2.545747995,-1128.300049,15.30000019,-933.3000488,3.099825637,-0.054998773,-0.00319672,DLL
19.8,-0.314025074,0.209350035,9.303515434,-0.876529992,-2.934469938,1.509155989,-1140.300049,15.30000019,-916.500061,3.093056364,-0.03016897,-0.019974557,DLL
19.83333333,-0.207555607,0.130993307,9.261645317,0.396344006,-2.004585981,1.55488801,-1145.100098,8.700000763,-933.3000488,3.086898751,-0.019479508,-0.015168158,DLL
19.86666667,-0.651377678,0.321202785,10.20970249,0.876529992,-1.23476398,1.257629991,-1135.5,3.300000191,-933.3000488,3.081459471,-0.058918772,-0.03200313,DLL
19.9,-0.960617602,0.577806115,10.10263443,0.93750596,-1.265251994,0.480185986,-1145.100098,9.300000191,-926.1000366,3.078193113,-0.090368984,-0.05719859,DLL
19.93333333,-0.288903058,0.395970643,9.025977135,-0.792688012,-0.251525998,-0.472563982,-1152.300049,10.5,-935.7000122,3.08095278,-0.034449403,-0.043146362,ST
19.96666667,-0.869699895,0.395970643,10.16244888,-1.189031959,0.358233988,-0.762199998,-1140.300049,12.30000019,-938.1000366,3.084165301,-0.083455417,-0.037082828,ST
20.0,-0.699827254,-0.101086162,10.02726841,-1.04421401,0.487807989,-0.891773999,-1145.100098,11.10000038,-940.500061,3.090982416,-0.071314471,0.009044032,NLR
20.03333333,-0.339745194,-0.238659039,9.290356636,-1.04421401,0.792688012,-1.509155989,-1152.300049,12.90000057,-930.9000244,3.097875324,-0.039890913,0.026501689,NLR
20.06666667,-0.771006286,-0.233873904,8.877039909,-0.792688012,1.105189919,-2.179892063,-1142.700073,20.10000038,-911.7000122,3.106633355,-0.085486784,0.027932303,NLR
20.1,-1.171762109,-0.46116823,8.915919304,-0.975615978,1.897877932,-2.774407864,-1147.5,12.30000019,-945.3000488,3.120262335,-0.130662895,0.052413125,NLR
20.13333333,-1.238754034,-0.547300816,9.475182533,-1.158543944,1.486289978,-2.98020196,-1142.700073,15.90000057,-935.7000122,3.132867407,-0.13198482,0.059941629,NLR
20.16666667,-0.837400138,-1.065890789,9.611559868,-1.76830399,0.640248001,-3.353679895,-1130.700073,5.100000381,-935.7000122,-3.131809011,-0.089635953,0.110838424,NLR
20.2,-1.025217056,-1.274642706,9.489538193,-2.210379839,0.282013983,-2.949713945,-1135.5,18.90000153,-938.1000366,-3.118334858,-0.105458984,0.136270096,NLR
20.23333333,-1.159201026,-1.234567046,9.619335175,-1.951231956,0.678357959,-2.865871906,-1130.700073,15.90000057,-940.500061,-3.106675492,-0.1189248,0.131834661,NLR
20.26666667,-0.115441591,-1.890131831,8.716139793,-1.8292799,0.106707998,-2.035073996,-1130.700073,12.30000019,-938.1000366,-3.093425258,-0.018920344,0.21174193,NLR
20.3,-0.640611112,-1.780671597,8.829786301,-0.693601966,0.274392009,-2.073184013,-1135.5,17.10000038,-933.3000488,-3.084891298,-0.068462234,0.200934726,NLR
20.33333333,-1.359578967,-1.731623888,10.72948837,1.150921941,1.272873998,-1.867389917,-1128.300049,8.100000381,-930.9000244,-3.079959321,-0.122607606,0.161004573,NLR
20.36666667,-0.950449169,-1.623360038,10.0649519,1.996963978,0.152439997,-2.240867853,-1133.100098,19.5,-938.1000366,-3.069989968,-0.094077555,0.157018567,NLR
20.4,-1.415804386,-1.684370637,9.844237328,2.477149963,0.609759986,-3.468009949,-1133.100098,6.900000095,-940.500061,-3.053711448,-0.138048009,0.165397418,NLR
20.43333333,-0.230285048,-2.267560005,10.10263443,2.530503988,1.120433927,-5.602169991,-1128.300049,11.10000038,-935.7000122,-3.025955572,-0.029209942,0.2137752,NLR
20.46666667,1.523470163,-3.642092466,9.883714676,2.477149963,0.708845973,-11.57781792,-1128.300049,6.300000191,-947.7000122,-2.987901808,0.137932284,0.338407839,NLR
20.5,-0.401952088,-2.245428801,9.726403236,5.64027977,0.464941978,-20.28214073,-1116.300049,9.900000572,-940.500061,-2.902721905,-0.022152922,0.22423696,NLR
20.53333333,-1.698127866,-2.297467232,8.587538719,7.766818047,-0.243903995,-22.85837746,-1118.700073,2.700000048,-935.7000122,-2.80764921,-0.169110377,0.251594255,NLR
20.56666667,-2.15092206,-1.657454133,8.717933655,8.109807968,0.541162014,-23.89496994,-1111.5,0.900000036,-930.9000244,-2.720915676,-0.226822986,0.186958431,NLR
20.6,-1.695735335,-0.398961365,8.664100647,8.163162231,0.144817993,-21.77605438,-1094.700073,-3.900000095,-933.3000488,-2.65483777,-0.19272398,0.047342169,NLR
20.63333333,-2.853142023,0.295482635,8.717335701,8.948227882,-0.335367978,-18.94829178,-1075.5,-8.700000763,-911.7000122,-2.591734218,-0.308784292,-0.034256531,NLR
20.66666667,-2.460161924,0.78595984,10.29463863,6.981751919,0.121951997,-14.74094772,-1075.5,-14.10000038,-918.9000244,-2.539219281,-0.2403594,-0.078955251,NLR
20.7,-1.969684839,1.86142087,9.529015541,6.524431705,-1.349093914,-10.28969955,-1065.900024,-12.90000057,-914.1000366,-2.515299838,-0.202990993,-0.194565644,NLR
20.73333333,-1.813569546,1.152023315,9.739562035,5.53357172,-1.844523907,-6.44821167,-1070.700073,-20.70000076,-911.7000122,-2.472225419,-0.182605618,-0.129386384,NLR
20.76666667,-1.161593676,1.834504485,8.981715202,3.856731892,-1.890255928,-5.320156097,-1063.5,-15.30000019,-911.7000122,-2.458989232,-0.128097613,-0.202202076,NLR
20.8,-0.361278355,1.735810876,9.456640244,2.439039946,-1.676839948,-2.454283953,-1053.900024,-20.70000076,-916.500061,-2.445269947,-0.040030638,-0.186353741,NLR
20.83333333,-0.739902854,1.924225926,9.140820503,2.126538038,-1.143299937,-1.42531395,-1073.100098,-17.10000038,-921.3000488,-2.439112527,-0.075759163,-0.209782744,NLR
20.86666667,-0.677097857,1.859626532,9.151587486,1.089946032,-0.556405962,0.708845973,-1061.100098,-13.50000095,-899.7000122,-2.440618935,-0.071455074,-0.202893344,NLR
20.9,-0.103478737,1.90628159,9.378283501,0.434453994,-0.114329994,1.615863919,-1070.700073,-19.5,-904.500061,-2.446778409,-0.013778533,-0.201452599,NLR
20.93333333,-0.229088753,1.717268467,9.163550377,0.228659987,0.282013983,1.646351933,-1070.700073,-19.5,-904.500061,-2.453614135,-0.023985696,-0.186489991,NLR
20.96666667,-0.251220047,1.47322619,8.660511971,-0.114329994,0.945127964,1.631107926,-1053.900024,-17.70000076,-916.500061,-2.460310138,-0.029378299,-0.169481876,NLR
21.0,-0.990524769,1.417598844,10.24319839,-0.320124,0.716467977,2.515259981,-1068.300049,-24.90000153,-904.500061,-2.469301838,-0.092464079,-0.139104079,NLR
21.03333333,-1.025815248,1.618574858,8.967359543,0.861285985,0.53354001,1.63872993,-1049.100098,-21.30000114,-916.500061,-2.49994344,-0.112520382,-0.180438314,NLR
21.06666667,-0.782370985,1.440926433,8.721522331,-0.640248001,0.358233988,1.95885396,-1065.900024,-14.70000076,-902.1000366,-2.529827538,-0.088335232,-0.162924265,NLR
21.1,-1.775886536,2.161688805,10.40110779,-0.61738199,0.472563982,0.899396002,-1080.300049,-17.10000038,-914.1000366,-2.539363305,-0.162716376,-0.202266994,NLR
21.13333333,-0.621470571,1.741194248,9.183887482,0.167683989,-1.166165948,-0.198172003,-1070.700073,-22.5,-906.9000244,-2.534134338,-0.064486439,-0.187619511,NLR
21.16666667,-1.074862957,1.509712815,9.528417587,-1.021348,0.327746004,-0.625003994,-1049.100098,-18.30000114,-916.500061,-2.527594853,-0.111668093,-0.155260978,NLR
21.2,-0.308043629,1.068881512,8.88122654,-0.678357959,-1.699705958,-0.907018006,-1085.100098,-15.30000019,-918.9000244,-2.517315214,-0.031850258,-0.118613144,NLR
21.23333333,-0.309239924,0.540123105,9.405200005,-1.173787951,-0.868907988,-1.95885396,-1068.300049,-12.90000057,-911.7000122,-2.506919853,-0.031550035,-0.058313206,NLR
21.26666667,-0.440233231,1.204061747,10.31198502,-1.067080021,-1.089946032,-2.004585981,-1073.100098,-17.10000038,-921.3000488,-2.500519125,-0.040283893,-0.110840271,NLR
21.3,0.255407035,1.250118852,9.616942406,-0.114329994,-1.775925994,-1.12805593,-1073.100098,-22.5,-906.9000244,-2.495266335,0.024947816,-0.127996064,NLR
21.33333333,-0.602329969,1.669417024,8.592324257,0.419209987,0.396344006,-0.045731999,-1068.300049,-17.10000038,-916.500061,-2.496720772,-0.069400069,-0.192636188,NLR
21.36666667,-0.750071287,1.266268611,10.10801792,0.015244,0.29725799,-0.251525998,-1065.900024,-8.100000381,-911.7000122,-2.482817677,-0.078563999,-0.070785432,NLR
21.4,-0.159106031,0.75784713,9.028369904,-0.221037999,0.038109999,0.609759986,-1056.300049,-16.5,-914.1000366,-2.485906726,-0.021242469,-0.082630275,NLR
21.43333333,-0.613694668,0.618479848,9.223962784,-0.175305992,0.998481989,-0.213415995,-1053.900024,-10.5,-911.7000122,-2.484705482,-0.0654976,-0.067506156,NLR
21.46666667,-1.055124164,0.97676748,10.62481403,-0.182927996,0.282013983,0.045731999,-1070.700073,-17.70000076,-926.1000366,-2.48686335,-0.097020861,-0.089916229,NLR
21.5,-0.71298641,0.656162858,9.813732147,0.365855992,-0.266770005,0.388722003,-1061.100098,-9.300000191,-904.500061,-2.486553462,-0.072843659,-0.068333141,NLR
21.53333333,-1.19329524,1.597041726,10.20372105,0.457319975,0.068598002,0.060975999,-1056.300049,-17.10000038,-897.3000488,-2.494964771,-0.115110175,-0.156021895,NLR
21.56666667,-0.93190676,1.607210159,9.515856743,0.396344006,0.083841994,0.564027965,-1073.100098,-14.70000076,-918.9000244,-2.498289489,-0.097392228,-0.167379545,NLR
21.6,-1.211239576,1.994806767,8.891395569,-0.945127964,-0.998481989,2.59910202,-1068.300049,-13.50000095,-911.7000122,-2.513653151,-0.127567547,-0.216366579,NLR
21.63333333,-1.701716781,1.467244744,8.636586189,-3.399411917,-1.669217944,7.934501648,-1073.100098,-11.70000076,-918.9000244,-2.538151455,-0.182995922,-0.167826415,NLR
21.66666667,-0.340941489,-0.570628405,9.311889648,-4.672286034,-0.038109999,17.1037674,-1080.300049,-11.70000076,-918.9000244,-2.726843872,-0.038492127,0.068193254,NLR
21.7,0.220714763,-1.129892111,9.88849926,-2.454283953,-0.769822001,16.59309387,-1101.900024,-3.900000095,-914.1000366,-2.82752511,0.019700172,0.118140225,NLR
21.73333333,-0.030505292,-1.220211625,9.556529999,-0.960371971,-1.394825935,15.13729191,-1118.700073,-6.300000191,-928.500061,-2.892514557,-0.002922406,0.128162275,NLR
21.76666667,-0.501841962,-0.815867007,10.11399937,0.487807989,-0.045731999,12.81258202,-1128.300049,-5.100000381,-911.7000122,-2.945017713,-0.048407217,0.081736038,NLR
21.8,-0.547898948,-0.341539651,8.749635696,1.006103992,0.518296003,10.67080021,-1125.900024,-2.700000048,-921.3000488,-2.992546196,-0.063456502,0.038358437,NLR
21.83333333,-1.070077777,0.120824881,9.399218559,0.464941978,0.396344006,8.963471413,-1123.5,-10.5,-928.500061,-3.032732953,-0.110930596,-0.012012533,NLR
21.86666667,-1.209445119,0.339745194,10.7396574,1.013725996,-0.198172003,8.033587456,-1125.900024,0.300000012,-918.9000244,-3.066825126,-0.111297959,-0.033566574,NLR
21.9,-0.300267786,0.906784773,9.986595154,1.204275966,-2.339953899,6.913153648,-1123.5,-2.100000143,-921.3000488,-3.100064585,-0.028683938,-0.090518405,NLR
21.93333333,0.632835269,0.709397554,8.342898369,0.579271972,-2.675322056,6.089977741,-1133.100098,4.5,-914.1000366,-3.125213661,0.07562011,-0.085495077,NLR
21.96666667,0.761435986,0.504234552,9.017603874,0.060975999,-1.112811923,4.756127834,-1137.900024,5.100000381,-918.9000244,3.136896456,0.085900006,-0.057107945,NLR
22.0,0.636424124,0.422288924,9.843040466,-0.030487999,-0.464941978,3.323191881,-1135.5,-0.900000036,-921.3000488,3.12218998,0.066690994,-0.043220154,NLR
22.03333333,0.281127185,0.808091164,9.277197838,-0.152439997,-0.625003994,2.416173935,-1142.700073,2.100000143,-930.9000244,3.114721355,0.033722989,-0.083840886,NLR
22.06666667,0.242846042,0.930710435,9.777244568,-0.243903995,0.129574001,2.934469938,-1145.100098,1.5,-914.1000366,3.103215814,0.025497259,-0.093705656,NLR
22.1,0.013159146,0.678294122,10.13014889,0.243903995,1.23476398,2.675322056,-1128.300049,-3.900000095,-914.1000366,3.091735434,0.001064357,-0.068861329,NLR
22.13333333,-0.378624499,0.506627083,10.16663647,-0.190549999,1.55488801,1.356715918,-1157.100098,3.300000191,-926.1000366,3.085538748,-0.038155477,-0.050303254,NLR
22.16666667,-0.629844546,0.678294122,9.904051781,-0.243903995,1.112811923,0.785066009,-1142.700073,3.900000095,-926.1000366,3.08098486,-0.063884724,-0.06717309,NLR
22.2,-0.636424124,0.474327385,9.555334091,-0.365855992,0.282013983,0.228659987,-1125.900024,4.5,-933.3000488,3.081020338,-0.066712866,-0.050091211,NLR
22.23333333,-0.235668331,0.58139497,8.996668816,-1.097568035,-0.945127964,0.388722003,-1128.300049,-3.300000191,-916.500061,3.078939495,-0.027010296,-0.06187944,NLR
22.26666667,-0.376830071,0.745286167,9.258654594,-0.442075998,-0.800309956,0.381099999,-1135.5,6.300000191,-928.500061,3.077036882,-0.038371149,-0.078498634,NLR
22.3,-0.386998504,0.748875022,9.163550377,-0.167683989,-0.243903995,0.495429993,-1157.100098,0.900000036,-926.1000366,3.074935206,-0.041398537,-0.081131293,NLR
22.33333333,-0.550291538,0.595750391,9.840647697,-0.396344006,-0.091463998,0.541162014,-1147.5,1.5,-933.3000488,3.073545955,-0.054847863,-0.060868959,NLR
22.36666667,-0.568235815,0.704014301,10.00513744,-0.762199998,-0.72408998,-0.29725799,-1133.100098,2.700000048,-933.3000488,3.074347098,-0.055336471,-0.06839976,NLR
22.4,-0.676499724,0.626255691,9.511071205,-0.586893976,-0.678357959,0.099086002,-1133.100098,3.300000191,-926.1000366,3.074192686,-0.068794104,-0.064954404,NLR
22.43333333,-0.506627083,-0.033496007,10.02188587,-1.143299937,-0.663114011,0.259148002,-1145.100098,4.5,-926.1000366,3.076885515,-0.050534576,0.001055863,ST
22.46666667,-0.029309006,-0.476719946,9.747936249,-1.859767914,-1.471045971,-1.135677934,-1154.700073,3.900000095,-928.500061,3.082673971,-0.002817663,0.049627731,ST
22.5,-0.253014475,-0.323595345,9.244897842,-1.730193973,-1.028970003,-1.562510014,-1147.5,-0.900000036,-933.3000488,3.088530422,-0.024068365,0.038764277,ST
22.53333333,-0.640611112,-0.343334079,9.399816513,-1.364337921,0.053353999,-0.625003994,-1135.5,4.5,-930.9000244,3.090785979,-0.065385266,0.038944683,ST
22.56666667,-0.769810021,-0.751267552,8.982313156,-1.006103992,0.823175967,0.358233988,-1152.300049,6.300000191,-926.1000366,3.092476668,-0.085637323,0.082889011,ST
22.6,-0.948056638,-0.665733099,10.01351166,-1.12805593,0.846041977,0.190549999,-1137.900024,9.300000191,-918.9000244,3.090205781,-0.095245377,0.06897383,ST
22.63333333,-0.587974548,-0.772800744,9.954893112,-0.731711984,-0.434453994,-0.030487999,-1133.100098,8.700000763,-926.1000366,3.090695604,-0.06031323,0.078160557,ST
22.66666667,-0.409727931,-0.510814071,9.620531082,-0.282013983,-0.929883957,-0.213415995,-1133.100098,5.700000286,-923.7000122,3.090077251,-0.042041357,0.055041835,ST
22.7,0.004187001,-0.369652361,9.289758682,-0.060975999,-0.922261953,0.762199998,-1147.5,5.100000381,-918.9000244,3.086528369,-0.000668932,0.040785946,ST
22.73333333,0.037683006,-0.555674791,9.591222763,0.251525998,0.038109999,0.823175967,-1140.300049,7.500000477,-911.7000122,3.083197252,0.003509159,0.056426911,ST
22.76666667,-0.394176215,-0.255407035,9.164746284,0.72408998,0.655492008,0.663114011,-1145.100098,8.100000381,-921.3000488,3.080171207,-0.041260146,0.028373151,ST
22.8,-0.815867007,-0.156713456,9.521838188,0.945127964,1.364337921,1.097568035,-1140.300049,8.100000381,-926.1000366,3.075317232,-0.085052454,0.015494569,ST
22.83333333,-0.729136288,-0.410326064,9.386657715,1.539644003,0.731711984,0.861285985,-1140.300049,5.100000381,-916.500061,3.074408113,-0.079161533,0.039344733,ST
22.86666667,-0.634629667,-0.410924226,9.429125786,1.173787951,-0.121951997,0.221037999,-1140.300049,3.900000095,-928.500061,3.073936042,-0.067481115,0.041383422,ST
22.9,-0.467149675,-0.125610024,9.593016624,1.013725996,-1.387203932,0.472563982,-1140.300049,2.700000048,-933.3000488,3.070501569,-0.047536528,0.013103099,ST
22.93333333,0.061608724,0.148937598,8.877039909,0.586893976,-2.522881985,0.640248001,-1137.900024,6.300000191,-930.9000244,3.067426134,0.007782908,-0.015929978,ST
22.96666667,0.809885561,0.164489314,9.037940025,0.038109999,-2.835383892,1.265251994,-1154.700073,6.300000191,-928.500061,3.062619228,0.089092298,-0.017973096,ST
23.0,0.805100441,-0.25899592,9.316675186,-0.068598002,-2.080806017,1.570132017,-1149.900024,6.300000191,-930.9000244,3.052389435,0.089716113,0.025369751,ST
23.03333333,0.299669623,-0.220714763,10.16005611,-0.312501997,-1.059458017,1.532021999,-1149.900024,6.300000191,-916.500061,3.046366853,0.03481067,0.022566624,ST
23.06666667,-0.090319589,0.183629885,10.54944801,0.335367978,-0.396344006,1.585376024,-1154.700073,16.5,-930.9000244,3.040527253,-0.005256758,-0.015527523,ST
23.1,-0.915756881,0.002392572,11.4729805,1.074702024,0.487807989,1.722571969,-1149.900024,4.5,-930.9000244,3.034295395,-0.075923197,-0.003085797,ST
23.13333333,-0.72255671,0.507823408,10.79229355,0.838419974,0.388722003,1.250007987,-1152.300049,2.700000048,-923.7000122,3.026387404,-0.067894276,-0.045876686,ST
23.16666667,-0.840390861,0.876877606,8.777150154,0.91463995,1.394825935,1.387203932,-1152.300049,12.30000019,-926.1000366,3.015836774,-0.095905731,-0.098965866,ST
23.2,-1.035385489,0.549095273,8.682642937,0.800309956,2.378063917,1.608241916,-1154.700073,3.900000095,-906.9000244,3.012303633,-0.12095164,-0.066778231,ST
23.23333333,-0.995908022,0.247631192,9.204223633,0.007622,1.692083955,1.364337921,-1133.100098,5.100000381,-930.9000244,3.010863262,-0.111242126,-0.029586746,ST
23.26666667,-0.898410738,0.599339247,9.663000107,-0.419209987,-0.190549999,1.112811923,-1145.100098,5.700000286,-928.500061,3.003221426,-0.093258159,-0.059474488,ST
23.3,-0.29189378,0.382213354,9.048707008,-0.099086002,-0.945127964,0.777444005,-1142.700073,8.100000381,-930.9000244,3.001301511,-0.034313235,-0.043150172,ST
23.33333333,-0.542515695,0.364269078,9.559520721,0.091463998,-0.823175967,0.259148002,-1125.900024,9.900000572,-923.7000122,3.00061163,-0.053930432,-0.038563168,ST
23.36666667,-0.434251785,0.162694886,9.435705185,-0.480185986,-1.059458017,-0.632625997,-1149.900024,10.5,-914.1000366,3.004285579,-0.044691125,-0.017561563,ST
23.4,-0.03828115,0.006579573,9.131848335,-1.089946032,-1.082324028,-1.272873998,-1147.5,12.90000057,-914.1000366,3.009950761,-0.004621918,0.000182912,ST
23.43333333,0.010766573,-0.006579573,9.511669159,-1.615863919,-1.272873998,-1.661595941,-1147.5,8.700000763,-921.3000488,3.016642011,0.002877644,0.003305857,ST
23.46666667,-0.055627298,-0.047253296,9.553539276,-1.516777992,-1.097568035,-1.394825935,-1161.900024,6.300000191,-928.500061,3.022233686,-0.003480549,0.007338966,ST
23.5,0.439635098,-0.604722559,10.14390659,-1.684461951,-0.838419974,-0.853663981,-1157.100098,10.5,-926.1000366,3.024714812,0.041846667,0.059091557,ST
23.53333333,0.770408154,-0.611302137,8.659316063,-1.55488801,-1.059458017,-1.661595941,-1154.700073,7.500000477,-928.500061,3.031303338,0.088420781,0.072355103,ST
23.56666667,0.25181818,-0.727940023,9.351366997,-1.349093914,-0.457319975,-1.623485923,-1149.900024,10.5,-930.9000244,3.037932469,0.03082985,0.07956191,ST
23.6,0.191405743,-0.665733099,9.999155998,-0.990859985,-0.907018006,-0.91463995,-1142.700073,6.300000191,-914.1000366,3.041721746,0.021398198,0.068865882,ST
23.63333333,0.194396466,-0.995309889,10.26054478,-0.571649969,-0.72408998,-0.083841994,-1159.5,1.5,-940.500061,3.041291993,0.020204641,0.095950688,ST
23.66666667,0.094506592,-1.067087054,10.35863972,-0.213415995,0.213415995,0.121951997,-1161.900024,6.900000095,-933.3000488,3.040801987,0.009381429,0.102597845,ST
23.7,-0.190807611,-1.290194392,10.70556259,-0.503051996,0.701223969,0.091463998,-1157.100098,3.900000095,-923.7000122,3.040807296,-0.017211187,0.119711813,ST
23.73333333,-0.110656448,-1.341634631,9.338806152,-0.716467977,0.625003994,0.175305992,-1147.5,11.70000076,-911.7000122,3.040727147,-0.013064946,0.142747025,ST
23.76666667,-0.46595338,-1.525264621,8.89318943,-0.693601966,0.945127964,-0.274392009,-1145.100098,9.300000191,-928.500061,3.043169591,-0.050713018,0.16938097,ST
23.8,-0.86132586,-1.528853416,9.703075409,-0.72408998,0.731711984,-0.388722003,-1149.900024,2.100000143,-928.500061,3.044217487,-0.086318873,0.158330574,ST
23.83333333,-0.790146887,-1.634126544,8.395534515,-0.304879993,-0.022865999,-0.282013983,-1140.300049,7.500000477,-928.500061,3.048084908,-0.09164958,0.190722679,ST
23.86666667,-0.839194596,-1.479805708,8.95240593,0.060975999,0.464941978,0.038109999,-1152.300049,8.700000763,-938.1000366,3.045943183,-0.092951832,0.165352706,ST
23.9,-0.648985147,-1.671809554,10.36641598,0.868907988,-0.350611985,1.067080021,-1147.5,9.900000572,-926.1000366,3.041220982,-0.06333082,0.158677289,ST
23.93333333,-0.128600731,-1.411019325,9.639074326,0.693601966,-0.762199998,0.861285985,-1147.5,10.5,-935.7000122,3.036884482,-0.015210205,0.144988067,ST
23.96666667,0.05443101,-1.142453074,9.187476158,0.243903995,-1.097568035,1.699705958,-1145.100098,6.900000095,-923.7000122,3.029417013,0.006030053,0.124610816,ST
24.0,-0.293688208,-1.156210423,9.327441216,0.899396002,0.464941978,2.705809832,-1157.100098,13.50000095,-930.9000244,3.018847742,-0.0302765,0.121829228,ST
24.03333333,-0.069384582,-1.250118852,8.778944016,0.853663981,0.777444005,2.728675842,-1128.300049,3.300000191,-926.1000366,3.00814135,-0.01081976,0.139011283,ST
24.06666667,-0.831418753,-1.1532197,10.19415092,1.989341974,1.097568035,3.041177988,-1145.100098,7.500000477,-933.3000488,2.994979569,-0.079819016,0.110310827,ST
24.1,-0.531749129,-0.849363029,9.841844559,2.538125992,0.739333987,2.698187828,-1137.900024,3.300000191,-938.1000366,2.982325039,-0.056541271,0.082654715,ST
24.13333333,-0.196190894,-0.629246414,8.455946922,2.49239397,0.160062,2.210379839,-1145.100098,11.10000038,-933.3000488,2.973369091,-0.02568287,0.070588037,ST
24.16666667,-0.912168026,-0.340343356,9.646251678,2.19513607,0.083841994,1.928365946,-1135.5,7.500000477,-933.3000488,2.963841509,-0.090747793,0.033326492,ST
24.2,-0.099291734,-0.458775669,8.627016068,0.967993975,-1.112811923,1.364337921,-1142.700073,11.70000076,-930.9000244,2.958873273,-0.013646082,0.050496075,ST
24.23333333,0.128600731,-0.725547433,9.40699482,0.083841994,-2.126538038,1.021348,-1123.5,12.30000019,-921.3000488,2.954175068,0.01533484,0.075253893,ST
24.26666667,0.605918825,-0.633433402,10.236619,0.076219998,-2.591480017,1.242385983,-1135.5,2.100000143,-926.1000366,2.948945753,0.06047085,0.062614891,ST
24.3,0.944467723,-0.50124383,9.317871094,0.716467977,-2.263733864,1.753059983,-1149.900024,9.900000572,-926.1000366,2.941203333,0.102706347,0.053241482,ST
24.33333333,0.562254369,-0.409727931,8.805262566,1.295740008,-0.586893976,2.080806017,-1147.5,5.700000286,-921.3000488,2.933014618,0.066865803,0.045035424,ST
24.36666667,-0.431859225,-0.336156338,10.4226408,1.684461951,0.480185986,2.08842802,-1152.300049,12.90000057,-918.9000244,2.924133777,-0.037533792,0.029918168,ST
24.4,-0.551487803,-0.531749129,9.858592033,1.280496001,-0.274392009,1.34147191,-1152.300049,5.700000286,-923.7000122,2.919418923,-0.054647592,0.050575403,ST
24.43333333,-1.553975463,-0.165685609,11.30370617,0.609759986,-0.076219998,0.861285985,-1152.300049,9.900000572,-909.3000488,2.91271434,-0.132488695,0.01524984,ST
24.46666667,-0.96719718,0.288304925,10.06913853,0.434453994,-0.708845973,1.23476398,-1147.5,8.700000763,-930.9000244,2.903169646,-0.096756898,-0.026894124,ST
24.5,-0.629246414,0.189611316,8.847730637,0.975615978,0.236281991,1.821658015,-1152.300049,8.700000763,-921.3000488,2.896429293,-0.072860938,-0.0235879,ST
24.53333333,-0.910971761,0.003588858,9.499706268,0.922261953,0.983237982,1.798792005,-1145.100098,8.100000381,-930.9000244,2.891171783,-0.095817829,-0.003572217,ST
24.56666667,-1.052731633,0.145348743,9.565502167,0.884151995,0.823175967,1.34147191,-1142.700073,12.30000019,-923.7000122,2.884832132,-0.110084999,-0.016178421,ST
24.6,-0.79313755,0.450401664,8.927882195,0.625003994,0.388722003,0.93750596,-1147.5,8.700000763,-933.3000488,2.877796143,-0.090247229,-0.049721862,ST
24.63333333,-0.230883181,0.209350035,8.393141747,0.129574001,0.121951997,0.640248001,-1152.300049,11.10000038,-926.1000366,2.876558491,-0.031088241,-0.026544231,ST
24.66666667,-0.325987905,-0.13996546,9.322656631,-0.495429993,0.076219998,0.243903995,-1154.700073,0.300000012,-930.9000244,2.876821565,-0.034844464,0.013291417,ST
24.7,-0.551487803,-0.086132586,9.887901306,-1.181409955,-0.457319975,-0.312501997,-1145.100098,3.900000095,-926.1000366,2.877732144,-0.053693783,0.01095148,ST
24.73333333,-0.386400372,-0.145348743,10.03444672,-1.257629991,-0.541162014,0.0,-1149.900024,12.90000057,-933.3000488,2.877725247,-0.038519053,0.016331248,ST
24.76666667,0.162694886,-0.25421077,9.83945179,-1.173787951,-0.899396002,0.114329994,-1166.700073,6.900000095,-918.9000244,2.877286466,0.014659408,0.027180569,ST
24.8,0.29189378,-0.459971935,9.422546387,-1.326228023,-1.006103992,-0.289635986,-1154.700073,6.900000095,-921.3000488,2.877901427,0.03161483,0.049631033,ST
24.83333333,0.39058736,-0.674705267,9.171924591,-1.585376024,-0.80793196,-0.792688012,-1142.700073,11.10000038,-921.3000488,2.880192958,0.043201234,0.074536506,ST
