seconds,sensor_accX_m_s_,sensor_accY_m_s_,sensor_accZ_m_s_,sensor_gyroX___s_,sensor_gyroY___s_,sensor_gyroZ___s_,sensor_magX__T_,sensor_magY__T_,sensor_magZ__T_,sensor_yaw___,sensor_pitch___,sensor_roll___,label4
0.0,1.19150078296661,-0.817661464214325,9.49910831451416,0.259148001670837,-0.106707997620106,0.358233988285065,-1269.90002441406,-6.30000019073486,-897.300048828125,2.87600919163561,0.124472146705036,0.085499312012947,ST
0.0333333333333333,1.19269704818726,-0.833811283111572,9.48176193237305,0.289635986089706,-0.167683988809586,0.457319974899292,-1281.90002441406,-4.5,-899.700012207031,2.87173249791008,0.124875772981016,0.0873036484825157,ST
0.0666666666666667,1.23636150360107,-0.800315320491791,9.42912578582764,0.3125019967556,-0.190549999475479,0.487807989120483,-1260.30004882812,-5.10000038146973,-902.100036621094,2.86738604961054,0.130165356614143,0.0842491570621188,ST
0.1,1.26567053794861,-0.805100440979004,9.53679180145264,0.297257989645004,-0.175305992364883,0.381099998950958,-1253.10009765625,-3.30000019073486,-897.300048828125,2.8639780810641,0.131724641589267,0.0837948284090112,ST
0.133333333333333,1.29258692264557,-0.79074501991272,9.47219181060791,0.320124000310898,-0.25152599811554,0.3125019967556,-1262.70007324219,-5.10000038146973,-899.700012207031,2.86101634092536,0.135540099767134,0.0828108324169354,ST
0.166666666666667,1.29139065742493,-0.817661464214325,9.47458457946777,0.25152599811554,-0.266770005226135,0.236281991004944,-1272.30004882812,-3.90000009536743,-904.500061035156,2.85829030440494,0.1353993118212,0.0856989950024986,ST
0.2,1.24174475669861,-0.773997008800507,9.43450927734375,0.205793991684914,-0.228659987449646,0.259148001670837,-1277.10009765625,-9.30000019073486,-897.300048828125,2.8564045299596,0.130809677333194,0.0815752786003542,ST
0.233333333333333,1.28241848945618,-0.812278151512146,9.43690204620361,0.167683988809586,-0.152439996600151,0.335367977619171,-1269.90002441406,2.10000014305115,-904.500061035156,2.85291251980466,0.134775508997637,0.0856374944136344,ST
0.266666666666667,1.25310957431793,-0.809885561466217,9.47996807098389,0.152439996600151,-0.152439996600151,0.282013982534409,-1272.30004882812,-6.30000019073486,-906.900024414062,2.85048186704562,0.131188058321759,0.0850282446263063,ST
0.3,1.22858572006226,-0.813474416732788,9.46979999542236,0.198172003030777,-0.152439996600151,0.282013982534409,-1277.10009765625,-1.5,-897.300048828125,2.84787553307478,0.128780394140592,0.0854107962057507,ST
0.333333333333333,1.24593186378479,-0.835007607936859,9.43809795379639,0.190549999475479,-0.198172003030777,0.213415995240211,-1265.10009765625,-5.10000038146973,-906.900024414062,2.84550805773486,0.131050593037568,0.08795321734618,ST
0.366666666666667,1.25729656219482,-0.854746282100677,9.50987529754639,0.175305992364883,-0.137196004390717,0.228659987449646,-1260.30004882812,-3.30000019073486,-894.900024414062,2.84321804856753,0.131128119712464,0.0893830093819835,ST
0.4,1.19628596305847,-0.809287428855896,9.47996807098389,0.221037998795509,-0.228659987449646,0.259148001670837,-1260.30004882812,-6.90000009536743,-892.500061035156,2.84120298694795,0.125450212801473,0.0848479741296216,ST
0.433333333333333,1.2698575258255,-0.864316582679749,9.43271446228027,0.259148001670837,-0.0990860015153885,0.297257989645004,-1272.30004882812,-2.70000004768372,-892.500061035156,2.83770081212328,0.133362526483495,0.0909709503946014,ST
0.466666666666667,1.20406174659729,-0.857138872146606,9.51585674285889,0.167683988809586,-0.274392008781433,0.25152599811554,-1267.5,-9.30000019073486,-902.100036621094,2.83521791826421,0.125810511657119,0.0896026067539724,ST
0.5,1.25310957431793,-0.87388688325882,9.521240234375,0.228659987449646,-0.266770005226135,0.304879993200302,-1281.90002441406,-1.5,-897.300048828125,2.8321543138809,0.130715510038347,0.0911966683779953,ST
0.533333333333333,1.26567053794861,-0.860727727413177,9.40280723571777,0.282013982534409,-0.213415995240211,0.289635986089706,-1267.5,-6.30000019073486,-897.300048828125,2.82926878381175,0.133569066804455,0.0908657997588489,ST
0.566666666666667,1.22260427474976,-0.837998330593109,9.43271446228027,0.274392008781433,-0.0990860015153885,0.3125019967556,-1272.30004882812,-8.10000038146973,-902.100036621094,2.826684860434,0.128533725148693,0.0882082247486988,ST
0.6,1.19150078296661,-0.831418752670288,9.48176193237305,0.190549999475479,-0.121951997280121,0.3125019967556,-1277.10009765625,-8.70000076293945,-902.100036621094,2.82404365821787,0.12471284776666,0.087204019262244,ST
0.633333333333333,1.21423017978668,-0.860129594802856,9.45604228973389,0.221037998795509,-0.137196004390717,0.304879993200302,-1257.90002441406,-2.70000004768372,-904.500061035156,2.82055655744951,0.127375925784524,0.0903911026662341,ST
0.666666666666667,1.18432307243347,-0.862522184848785,9.46501445770264,0.213415995240211,-0.160062000155449,0.25152599811554,-1274.70007324219,-2.10000014305115,-894.900024414062,2.81798879737133,0.124215682467968,0.0905613652696131,ST
0.7,1.20884692668915,-0.824839174747467,9.48295879364014,0.243903994560242,-0.221037998795509,0.320124000310898,-1265.10009765625,-5.10000038146973,-902.100036621094,2.81528583460506,0.126651377636541,0.0864202782409615,ST
0.733333333333333,1.1735565662384,-0.854148149490356,9.44826602935791,0.304879993200302,-0.160062000155449,0.37347799539566,-1277.10009765625,-11.1000003814697,-890.100036621094,2.81117356209038,0.123305300749728,0.089702689544317,ST
0.766666666666667,1.20047295093536,-0.874485015869141,9.4787712097168,0.25152599811554,-0.144817993044853,0.388722002506256,-1277.10009765625,-2.70000004768372,-897.300048828125,2.80747742015209,0.125631811261024,0.0916388735024192,ST
0.8,1.15262150764465,-0.923532724380493,9.41118144989014,0.221037998795509,-0.198172003030777,0.25152599811554,-1267.5,-5.10000038146973,-899.700012207031,2.80438476835324,0.121606290745943,0.0974685485785019,ST
0.833333333333333,1.13826608657837,-1.00966536998749,9.39443397521973,0.190549999475479,-0.304879993200302,0.0762199983000755,-1272.30004882812,-4.5,-909.300048828125,2.80212348941758,0.120409621528276,0.106736241853137,ST
0.866666666666667,1.28241848945618,-1.05213344097137,9.30291748046875,0.121951997280121,-0.655492007732391,-0.320124000310898,-1277.10009765625,-3.90000009536743,-904.500061035156,2.80339994205491,0.137297486190092,0.112336032831412,ST
0.9,1.04854464530945,-0.941477060317993,9.51705265045166,0.297257989645004,-0.640248000621796,-0.472563982009888,-1267.5,-3.30000019073486,-894.900024414062,2.80841022165756,0.110448999924305,0.0980342351043922,ST
0.933333333333333,1.25071692466736,-1.16936945915222,9.06964206695557,0.160062000155449,-1.14329993724823,-0.602137982845306,-1260.30004882812,-0.900000035762787,-902.100036621094,2.80843562686151,0.137972545339282,0.127764622628104,ST
0.966666666666667,0.977365612983704,-1.1436493396759,9.07024002075195,0.144817993044853,-1.71494996547699,-0.853663980960846,-1262.70007324219,-7.50000047683716,-902.100036621094,2.8136971818946,0.109763918972676,0.125061129003132,ST
1.0,0.928317904472351,-1.05392789840698,9.45125675201416,0.381099998950958,-2.94971394538879,-1.37958192825317,-1272.30004882812,-5.10000038146973,-894.900024414062,2.82350869854132,0.102711770983956,0.110244084022536,ST
1.03333333333333,1.18312680721283,-1.04435765743256,9.75690841674805,0.846041977405548,-3.44514393806458,-1.12043392658234,-1281.90002441406,-8.70000076293945,-882.900024414062,2.82943589596471,0.126107672347804,0.105005910740076,ST
1.06666666666667,1.61737859249115,-1.21901535987854,10.0673446655273,1.2576299905777,-3.60520601272583,-1.34909391403198,-1281.90002441406,-7.50000047683716,-899.700012207031,2.83334942341247,0.164543046815776,0.117994717800819,ST
1.1,2.03129363059998,-1.2118376493454,9.71623420715332,0.647870004177094,-3.99392795562744,-1.82165801525116,-1293.90002441406,-5.70000028610229,-882.900024414062,2.84193393921369,0.211685969502825,0.122444392106286,ST
1.13333333333333,2.27413964271545,-1.24473547935486,9.36332988739014,-0.0152439996600151,-3.62045001983643,-1.96647596359253,-1298.70007324219,-8.70000076293945,-892.500061035156,2.85223686899614,0.242901506664856,0.131531371448239,ST
1.16666666666667,2.54629468917847,-1.1496307849884,9.02777194976807,-0.419209986925125,-2.71343183517456,-1.74543797969818,-1286.70007324219,0.900000035762787,-892.500061035156,2.86550112366314,0.277794402039711,0.126718767610736,ST
1.2,2.56244444847107,-1.11493849754333,9.0014533996582,-0.0,-1.58537602424622,-1.265251994133,-1301.10009765625,-8.70000076293945,-890.100036621094,2.87481842783273,0.278350422600805,0.122720048346209,ST
1.23333333333333,2.33993530273438,-0.976767480373383,9.5744743347168,0.579271972179413,-1.265251994133,-0.792688012123108,-1291.5,-8.10000038146973,-890.100036621094,2.88450820389616,0.240978006993089,0.100452600320467,ST
1.26666666666667,2.41709566116333,-1.07785367965698,9.43510723114014,0.990859985351562,-1.63872992992401,-0.342989981174469,-1298.70007324219,-10.5,-873.300048828125,2.88100365691585,0.252102074821119,0.111904152348858,ST
1.3,2.36386108398438,-0.787156164646149,9.77903938293457,1.2347639799118,-1.92074394226074,-0.198172003030777,-1303.5,-3.30000019073486,-897.300048828125,2.88706597929193,0.23985617719953,0.0782711858832863,ST
1.33333333333333,2.27653217315674,-0.74349170923233,9.82150745391846,1.6768399477005,-1.54726600646973,0.586893975734711,-1308.30004882812,-14.7000007629395,-873.300048828125,2.87970778415711,0.229796842965951,0.0729362570679721,ST
1.36666666666667,2.18681073188782,-0.641807436943054,8.86208629608154,1.6920839548111,-0.823175966739655,0.830797970294952,-1329.90002441406,-9.30000019073486,-892.500061035156,2.87026932175033,0.24260501365088,0.0697369750932261,ST
1.4,1.67719292640686,-0.479710668325424,9.65641975402832,1.47104597091675,0.960371971130371,1.69970595836639,-1305.90002441406,-8.10000038146973,-878.100036621094,2.85955889630756,0.170213714856682,0.0476502166991019,ST
1.43333333333333,2.03009724617004,-0.497654944658279,9.31488037109375,1.54726600646973,0.221037998795509,1.71494996547699,-1310.70007324219,-6.30000019073486,-880.500061035156,2.84289168105168,0.213591383334564,0.0513013814256117,ST
1.46666666666667,2.00916218757629,-0.605918824672699,8.72929859161377,1.50153398513794,0.37347799539566,1.74543797969818,-1305.90002441406,-8.70000076293945,-861.300048828125,2.82322591551958,0.224803494256922,0.0673047607309575,ST
1.5,1.96789038181305,-0.506627082824707,9.32923603057861,1.2500079870224,1.07470202445984,1.54726600646973,-1310.70007324219,-9.90000057220459,-885.300048828125,2.8121262768834,0.205634587937911,0.0526561195437475,ST
1.53333333333333,2.12041687965393,-0.487486511468887,9.48654747009277,1.31860601902008,0.990859985351562,1.44055795669556,-1293.90002441406,-6.90000009536743,-887.700012207031,2.79955799677811,0.217726725684616,0.0495869449421445,ST
1.56666666666667,2.18860507011414,-0.340941488742828,9.57088565826416,1.44817996025085,0.640248000621796,1.11281192302704,-1298.70007324219,-10.5,-880.500061035156,2.7919277926937,0.223466634548345,0.0335709944494596,ST
1.6,2.1772403717041,-0.550889670848846,9.86337757110596,1.06708002090454,0.525918006896973,0.891773998737335,-1301.10009765625,-11.7000007629395,-882.900024414062,2.77824140019363,0.215946471670854,0.0542119288946748,ST
1.63333333333333,2.32498168945312,-0.285912334918976,9.95309925079346,0.525918006896973,0.37347799539566,0.0152439996600151,-1296.30004882812,-18.9000015258789,-882.900024414062,2.78307207182374,0.22868853181255,0.0278992760062708,ST
1.66666666666667,2.09589290618896,0.191405743360519,9.62890529632568,0.937505960464478,0.274392008781433,0.274392008781433,-1298.70007324219,-12.3000001907349,-887.700012207031,2.79004348594086,0.213869171113515,-0.0212250205130407,ST
1.7,1.89312255382538,0.626853823661804,8.39852523803711,1.31860601902008,1.01372599601746,0.647870004177094,-1296.30004882812,-2.10000014305115,-880.500061035156,2.79398183579072,0.219412179555695,-0.0763177503989048,ST
1.73333333333333,1.79921400547028,0.641807436943054,8.87823581695557,1.41006994247437,2.00458598136902,1.6920839548111,-1298.70007324219,-12.3000001907349,-880.500061035156,2.77570534378315,0.196225156707657,-0.0739939806004667,ST
1.76666666666667,1.7405960559845,0.664536833763123,9.05109977722168,1.29574000835419,1.33385002613068,1.6692179441452,-1289.10009765625,-6.90000009536743,-899.700012207031,2.75850413334046,0.18740421220274,-0.0749649320707269,ST
1.8,1.45946884155273,0.71059387922287,9.20661640167236,0.792688012123108,1.84452390670776,1.6692179441452,-1296.30004882812,-9.30000019073486,-882.900024414062,2.74360025302604,0.153897459302375,-0.0779114575139535,ST
1.83333333333333,1.75136256217957,0.702817976474762,10.5835418701172,0.426831990480423,2.09605002403259,1.45580196380615,-1289.10009765625,-13.5000009536743,-892.500061035156,2.72697117632838,0.160149203988518,-0.0666233336326482,ST
1.86666666666667,1.61199533939362,0.633433401584625,10.5889253616333,0.419209986925125,1.18140995502472,0.960371971130371,-1289.10009765625,-11.1000003814697,-897.300048828125,2.71699289059889,0.148885123500084,-0.0602300184949119,ST
1.9,1.57072341442108,0.593955993652344,9.8077507019043,0.137196004390717,1.62348592281342,0.6250039935112,-1279.5,-17.7000007629395,-890.100036621094,2.71111514074241,0.1557295551408,-0.0605266924388877,ST
1.93333333333333,1.32249414920807,0.526963949203491,9.95309925079346,-0.0685980021953583,2.21800184249878,0.663114011287689,-1291.5,-10.5,-894.900024414062,2.70381846118638,0.128212931667255,-0.0526284043467897,ST
1.96666666666667,1.24652993679047,0.448009073734283,9.18867206573486,-0.3125019967556,2.24086785316467,0.396344006061554,-1272.30004882812,-17.1000003814697,-906.900024414062,2.69951405229298,0.130795517873083,-0.0480735636745891,ST
2.0,0.429466664791107,0.773997008800507,8.95061111450195,-0.0838419944047928,3.30032587051392,0.907018005847931,-1296.30004882812,-6.30000019073486,-882.900024414062,2.69348588481356,0.0424883924709937,-0.0858829005961644,ST
2.03333333333333,0.162096738815308,0.760837852954865,9.01222038269043,-0.282013982534409,3.3460578918457,0.983237981796265,-1262.70007324219,-11.7000007629395,-897.300048828125,2.6833018728194,0.0123557165199354,-0.0837103532189259,ST
2.06666666666667,-0.0759641602635384,0.997104346752167,8.20592308044434,-0.205793991684914,3.61282801628113,1.04421401023865,-1265.10009765625,-12.9000005722046,-890.100036621094,2.67159361443947,-0.0151309735700379,-0.120460241310411,ST
2.1,-0.695042133331299,0.322997212409973,11.4388866424561,-0.160062000155449,3.72715783119202,1.94360995292664,-1267.5,-14.1000003814697,-904.500061035156,2.65821771248247,-0.0668711952783385,-0.02852535116684,ST
2.13333333333333,0.189611315727234,0.635227859020233,8.76578521728516,-0.990859985351562,2.00458598136902,0.548784017562866,-1255.5,-17.1000003814697,-906.900024414062,2.65161093486777,0.0178940642687034,-0.0704660231760238,ST
2.16666666666667,-0.536534249782562,0.649583280086517,10.1026344299316,-0.525918006896973,2.76678586006165,1.42531394958496,-1250.70007324219,-2.70000004768372,-909.300048828125,2.63866639232052,-0.0573330611903227,-0.063473724383799,ST
2.2,-0.38939106464386,0.421092659235001,10.3837623596191,-0.609759986400604,1.83690190315247,0.853663980960846,-1245.90002441406,-9.30000019073486,-906.900024414062,2.63162306404848,-0.0406358306029976,-0.0395902521127371,ST
2.23333333333333,-0.436644375324249,0.780576586723328,8.97992038726807,-0.617381989955902,1.6920839548111,0.83841997385025,-1248.30004882812,-1.5,-909.300048828125,2.62150388030974,-0.051184509064256,-0.0855470535082605,ST
2.26666666666667,-0.918149471282959,0.608311414718628,9.15338230133057,0.182927995920181,2.85062789916992,1.84452390670776,-1226.70007324219,-11.7000007629395,-909.300048828125,2.60667462466325,-0.104305283561305,-0.0671143266040262,ST
2.3,-1.04435765743256,0.105871304869652,9.95728588104248,0.228659987449646,2.89635992050171,1.83690190315247,-1236.30004882812,-15.3000001907349,-918.900024414062,2.59753314956811,-0.109491193463585,-0.0115939346399585,ST
2.33333333333333,-0.672910869121552,-0.355296939611435,8.96377086639404,-0.739333987236023,2.05031800270081,0.411587983369827,-1229.10009765625,-6.90000009536743,-921.300048828125,2.59884155537536,-0.078535635289662,0.0407598115083198,ST
2.36666666666667,-1.46784281730652,-0.110058307647705,9.23054218292236,-0.647870004177094,1.87501192092896,0.381099998950958,-1231.5,-8.70000076293945,-921.300048828125,2.59202885670986,-0.160667453499427,0.0130568883697146,ST
2.4,-1.41341185569763,-0.641807436943054,9.84004974365234,-0.823175966739655,1.43293595314026,1.03659200668335,-1229.10009765625,-10.5,-916.500061035156,2.59099968954973,-0.14501649919683,0.0662004161505235,ST
2.43333333333333,-1.22200608253479,-0.781174719333649,8.1251745223999,-1.08994603157043,0.190549999475479,1.2347639799118,-1231.5,-13.5000009536743,-918.900024414062,2.58360344285355,-0.149135426300742,0.0973723939563246,ST
2.46666666666667,-2.5056209564209,-0.728538155555725,9.21857929229736,-0.78506600856781,1.38720393180847,1.80641400814056,-1226.70007324219,-3.30000019073486,-926.100036621094,2.56427884754351,-0.266983587945526,0.0794788343890029,ST
2.5,-2.70121359825134,-1.15800476074219,10.1815900802612,-0.960371971130371,1.48628997802734,2.36281991004944,-1229.10009765625,-6.30000019073486,-904.500061035156,2.55415103771917,-0.260806804481565,0.113782631605766,ST
2.53333333333333,-1.87816894054413,-1.85364508628845,10.1564674377441,-1.93598794937134,-0.381099998950958,0.708845973014832,-1231.5,-3.90000009536743,-906.900024414062,2.56028997236737,-0.17982163781634,0.183402372333127,ST
2.56666666666667,-1.53184413909912,-2.11682796478271,9.5625114440918,-2.15702605247498,-1.50153398513794,-0.0609759986400604,-1226.70007324219,-2.10000014305115,-916.500061035156,2.56177897633618,-0.152670057496567,0.221407664083894,ST
2.6,-0.775193274021149,-2.39556264877319,9.7060661315918,-1.98934197425842,-2.96495795249939,-1.11281192302704,-1224.30004882812,-9.90000057220459,-909.300048828125,2.56605167362536,-0.0721916739813247,0.245406984814342,ST
2.63333333333333,-0.368456065654755,-2.18441820144653,9.5505485534668,-1.08994603157043,-3.70429182052612,-1.40244793891907,-1224.30004882812,-2.10000014305115,-918.900024414062,2.5689175624895,-0.0308926060204336,0.22685474415384,ST
2.66666666666667,-0.464158952236176,-1.94456279277802,9.43092060089111,0.129574000835419,-3.54422998428345,-0.83841997385025,-1241.10009765625,-5.10000038146973,-914.100036621094,2.56880574640795,-0.0417713961394594,0.203209209444575,ST
2.7,-0.33137121796608,-1.70231485366821,10.1277570724487,0.655492007732391,-2.98782396316528,0.190549999475479,-1250.70007324219,-5.70000028610229,-909.300048828125,2.56199527166669,-0.0272212558088709,0.16548953486485,ST
2.73333333333333,-0.375633776187897,-1.00188946723938,9.93934154510498,0.815553963184357,-2.74391984939575,1.2423859834671,-1253.10009765625,-3.90000009536743,-916.500061035156,2.54775799188748,-0.0330163524116035,0.0991951468814315,ST
2.76666666666667,-0.436644375324249,-0.824839174747467,10.2138891220093,1.36433792114258,-1.87501192092896,2.26373386383057,-1267.5,-5.70000028610229,-911.700012207031,2.52568804990406,-0.0396219175637624,0.078066932404672,ST
2.8,-0.549693405628204,-0.65436840057373,9.7778434753418,1.76068198680878,-1.32622802257538,2.52288198471069,-1255.5,-14.7000007629395,-914.100036621094,2.50474438491579,-0.0539525495862102,0.0635600556116985,ST
2.83333333333333,-0.946860313415527,-0.678294122219086,9.85081672668457,0.853663980960846,-0.685979962348938,2.41617393493652,-1253.10009765625,-2.10000014305115,-904.500061035156,2.48352741752883,-0.0946244898319169,0.0668477980745875,ST
2.86666666666667,-0.69264954328537,-0.557469248771667,10.063157081604,0.213415995240211,-1.37195992469788,2.03507399559021,-1248.30004882812,3.30000019073486,-906.900024414062,2.46570523852662,-0.0665248031867965,0.0547650745896297,ST
2.9,0.136974737048149,-0.940878868103027,8.54327583312988,-0.0076219998300075,-1.98934197425842,1.83690190315247,-1253.10009765625,-1.5,-904.500061035156,2.45070397515857,0.018725541017107,0.10956080330376,ST
2.93333333333333,-0.001794428913854,-1.34522354602814,8.12397766113281,-0.594515979290009,0.0228659994900227,0.525918006896973,-1267.5,-4.5,-897.300048828125,2.44604850965159,-0.0003365875819991,0.164931362786263,ST
2.96666666666667,-0.215331465005875,-1.41819703578949,8.97334098815918,-0.701223969459534,0.990859985351562,0.0152439996600151,-1269.90002441406,-0.900000035762787,-904.500061035156,2.44699370569061,-0.0253180838765848,0.158004582816248,ST
3.0,-0.175854027271271,-1.86321532726288,8.18797874450684,-0.518296003341675,1.63872992992401,-0.396344006061554,-1253.10009765625,-0.900000035762787,-921.300048828125,2.45440307851222,-0.0235816927874201,0.224435239632117,ST
3.03333333333333,-1.4941611289978,-1.06708705425262,10.8461265563965,0.579271972179413,1.17378795146942,-0.0762199983000755,-1250.70007324219,-8.10000038146973,-918.900024414062,2.44644203991822,-0.137855238726805,0.0975786437070045,ST
3.06666666666667,-1.01445043087006,-0.937290012836456,11.7230043411255,1.40244793891907,-0.411587983369827,0.92988395690918,-1253.10009765625,-0.900000035762787,-926.100036621094,2.43715081267443,-0.0855824327706012,0.0772394624488021,ST
3.1,-0.0699827298521996,-0.428270369768143,8.79150581359863,1.86738991737366,-1.53964400291443,1.08994603157043,-1255.5,-8.10000038146973,-916.500061035156,2.42662094455065,-0.0056489988987683,0.045518257011243,ST
3.13333333333333,-0.211742609739304,-0.0352904349565506,10.210898399353,1.74543797969818,-0.396344006061554,1.33385002613068,-1245.90002441406,-6.30000019073486,-914.100036621094,2.41549543213724,-0.0199928029426761,0.0005296554488338,ST
3.16666666666667,0.29009935259819,-0.110656447708607,10.182785987854,1.70732796192169,-0.884151995182037,1.37195992469788,-1269.90002441406,-10.5,-911.700012207031,2.40408677702841,0.0298208835544281,0.0079287241175174,ST
3.2,1.06768524646759,-0.363670915365219,8.86866569519043,0.731711983680725,-1.28049600124359,1.09756803512573,-1262.70007324219,-8.70000076293945,-906.900024414062,2.3913248834418,0.121648831239092,0.0398707603348003,ST
3.23333333333333,1.08862018585205,-0.329576790332794,8.82320690155029,0.114329993724823,-0.769822001457214,0.67835795879364,-1262.70007324219,-8.10000038146973,-921.300048828125,2.38586848013807,0.123966236880244,0.0372995798940373,ST
3.26666666666667,0.881662726402283,-0.550291538238525,8.728102684021,0.350611984729767,0.0076219998300075,0.655492007732391,-1267.5,1.5,-916.500061035156,2.37751736883789,0.100477375609963,0.0623764608461013,ST
3.3,0.150133892893791,-0.809885561466217,8.99606990814209,0.701223969459534,1.55488801002502,0.0762199983000755,-1253.10009765625,-9.90000057220459,-923.700012207031,2.37626140749441,0.0142235141211135,0.0884634169462359,ST
3.33333333333333,-0.476719945669174,-0.712388277053833,9.35495567321777,0.670735955238342,1.60824191570282,-0.0457319989800453,-1260.30004882812,4.5,-916.500061035156,2.37758061821904,-0.0533122352795301,0.0748989518983481,ST
3.36666666666667,-0.422887086868286,-0.766221165657043,10.3000221252441,0.137196004390717,0.480185985565186,0.0304879993200302,-1248.30004882812,-4.5,-916.500061035156,2.37764000948215,-0.0417785695560025,0.0740157795814722,ST
3.4,-0.176452174782753,-0.806894838809967,10.390341758728,0.175305992364883,-0.754577994346619,0.335367977619171,-1255.5,2.10000014305115,-909.300048828125,2.3746002621923,-0.0157576693644801,0.0771738476182494,ST
3.43333333333333,0.418101936578751,-1.02461886405945,10.2850685119629,0.0685980021953583,-1.46342396736145,0.556405961513519,-1267.5,-4.5,-914.100036621094,2.3687106615015,0.0426596776543972,0.0991441663275572,ST
3.46666666666667,1.08921837806702,-1.17714536190033,8.92608737945557,-0.0304879993200302,-1.02897000312805,-0.0381099991500378,-1253.10009765625,-5.10000038146973,-902.100036621094,2.36539287067491,0.121890663837636,0.131075500050518,ST
3.5,0.61249840259552,-0.906784772872925,9.04810905456543,0.205793991684914,0.282013982534409,-0.25152599811554,-1250.70007324219,-3.90000009536743,-909.300048828125,2.37068042566252,0.0669152147635509,0.099553499711938,ST
3.53333333333333,-0.061608724296093,-0.922934591770172,9.0971565246582,0.724089980125427,1.20427596569061,-0.137196004390717,-1257.90002441406,-7.50000047683716,-906.900024414062,2.37269554495817,-0.0085268428948961,0.0998456622225173,ST
3.56666666666667,0.0131591456010938,-0.899008870124817,8.77415943145752,0.78506600856781,1.04421401023865,-0.0838419944047928,-1238.70007324219,-4.5,-918.900024414062,2.37423036827858,-0.0003368033956424,0.100731359307342,ST
3.6,-0.616685390472412,-0.671116411685944,9.70128059387207,1.18140995502472,0.449698001146317,0.0914639979600906,-1248.30004882812,-7.50000047683716,-904.500061035156,2.37316808903832,-0.063971738553166,0.0670808173215681,ST
3.63333333333333,-0.407335370779037,-0.35709136724472,9.54097843170166,1.53964400291443,-0.541162014007568,0.602137982845306,-1265.10009765625,-9.30000019073486,-914.100036621094,2.36660132061944,-0.0417737029171058,0.0347393994840332,ST
3.66666666666667,-0.0083740018308162,-0.56165623664856,9.38247108459473,0.99848198890686,-0.952749967575073,0.579271972179413,-1245.90002441406,-9.30000019073486,-914.100036621094,2.36207641134443,0.0005550287568018,0.0579623557275967,ST
3.7,0.148339450359344,-0.583787560462952,9.96625804901123,0.426831990480423,-1.08994603157043,0.503051996231079,-1257.90002441406,-6.30000019073486,-909.300048828125,2.35747521666283,0.0166467375389724,0.0577813539473568,ST
3.73333333333333,0.176452174782753,-0.647190690040588,10.302414894104,-0.0990860015153885,-1.47104597091675,0.807931959629059,-1253.10009765625,-0.900000035762787,-906.900024414062,2.35016276625667,0.0195550759417885,0.0629214434308761,ST
3.76666666666667,0.362474650144577,-0.399559497833252,9.66180324554443,0.0685980021953583,-1.33385002613068,1.50915598869324,-1238.70007324219,-9.90000057220459,-906.900024414062,2.33698976902088,0.0396441462882488,0.0413604936343668,ST
3.8,0.594554126262665,-0.283519774675369,10.0535869598389,0.396344006061554,-0.907018005847931,2.11129403114319,-1248.30004882812,-3.30000019073486,-914.100036621094,2.32027319782765,0.0604487136803774,0.0277756244199305,ST
3.83333333333333,1.0054783821106,-0.409727931022644,10.3371067047119,0.480185985565186,-1.08994603157043,2.31708788871765,-1255.5,-2.70000004768372,-916.500061035156,2.30009948401455,0.0984917355476005,0.0391391209375374,ST
3.86666666666667,1.30215728282928,-0.320006489753723,9.88670539855957,0.472563982009888,-0.6250039935112,1.98171997070312,-1269.90002441406,-6.30000019073486,-921.300048828125,2.28442568249307,0.131742927835099,0.0320177954262435,ST
3.9,1.44032824039459,-0.357689499855042,9.45305156707764,0.495429992675781,0.0990860015153885,1.44055795669556,-1257.90002441406,-3.30000019073486,-923.700012207031,2.27163846292021,0.150760660181978,0.0373158047359726,ST
3.93333333333333,1.0634982585907,-0.681882977485657,8.99965953826904,0.259148001670837,1.2423859834671,1.05183601379395,-1267.5,-2.70000004768372,-911.700012207031,2.25862314188556,0.115125201569658,0.0752259618683511,ST
3.96666666666667,-0.126208171248436,-0.577207982540131,9.39921855926514,0.274392008781433,2.4847719669342,0.480185985565186,-1262.70007324219,-7.50000047683716,-918.900024414062,2.25647792348621,-0.0175238239371723,0.0608733762110927,ST
4.0,-0.668723821640015,-0.312230616807938,9.77724456787109,0.868907988071442,2.24086785316467,0.685979962348938,-1238.70007324219,0.300000011920929,-911.700012207031,2.25041285260815,-0.0720697872753297,0.0304040849665181,ST
4.03333333333333,-0.720164120197296,-0.386998504400253,10.3119850158691,1.08994603157043,0.807931959629059,1.2347639799118,-1250.70007324219,-2.10000014305115,-914.100036621094,2.24169679529561,-0.0711643311663571,0.0354407437450961,ST
4.06666666666667,-0.563450694084167,-0.0580198690295219,9.5272216796875,1.15854394435883,-0.0152439996600151,1.41006994247437,-1250.70007324219,-1.5,-916.500061035156,2.22854893662621,-0.0590920287485214,0.0040152930524974,ST
4.1,-0.464158952236176,-0.084936298429966,9.73178577423096,1.09756803512573,0.121951997280121,1.86738991737366,-1245.90002441406,-6.90000009536743,-904.500061035156,2.21409944336328,-0.0479326924082231,0.0066452297662275,ST
4.13333333333333,-0.649583280086517,-0.05742172524333,9.31488037109375,0.647870004177094,0.609759986400604,2.15702605247498,-1245.90002441406,-2.10000014305115,-921.300048828125,2.19699792577768,-0.0706209029943989,0.0047765000894919,ST
4.16666666666667,-0.714182734489441,-0.0478514358401299,9.54097843170166,0.442075997591019,0.914639949798584,1.85976791381836,-1243.5,-3.90000009536743,-911.700012207031,2.18050520639454,-0.0763144623161821,0.0039975985945022,ST
4.2,-0.675303399562836,-0.406737208366394,9.43271446228027,0.0228659994900227,0.548784017562866,1.17378795146942,-1243.5,-7.50000047683716,-918.900024414062,2.17411760671772,-0.0724608938735921,0.0427647080834853,ST
4.23333333333333,-1.10417187213898,-0.186022460460663,9.35495567321777,-0.548784017562866,-0.152439996600151,0.6250039935112,-1250.70007324219,-1.5,-918.900024414062,2.16652157700168,-0.117057109264621,0.0207937501188689,ST
4.26666666666667,-0.822446584701538,-0.317613929510117,9.18807411193848,-0.800309956073761,-0.243903994560242,0.685979962348938,-1248.30004882812,-5.70000028610229,-923.700012207031,2.16188402229983,-0.0889421716476878,0.0357872071447137,ST
4.3,-0.768613696098328,-0.557469248771667,9.24908447265625,-0.609759986400604,-0.297257989645004,0.609759986400604,-1253.10009765625,-5.10000038146973,-916.500061035156,2.15861107973007,-0.0823325881633691,0.0610807520712113,ST
4.33333333333333,-0.948056638240814,-0.759641587734222,10.0811014175415,-0.236281991004944,-0.121951997280121,0.342989981174469,-1245.90002441406,3.30000019073486,-911.700012207031,2.15688574145846,-0.0932960045669,0.075512831191112,ST
4.36666666666667,-0.771604418754578,-0.698032855987549,9.74374866485596,-0.0381099991500378,-0.693601965904236,-0.236281991004944,-1260.30004882812,-2.10000014305115,-914.100036621094,2.158019254359,-0.0776443239843785,0.071623082093835,ST
4.4,-1.02820777893066,-0.575413525104523,9.97164154052734,0.121951997280121,-0.708845973014832,-0.297257989645004,-1245.90002441406,-1.5,-906.900024414062,2.15908493121196,-0.101269808198595,0.0575009244731297,ST
4.43333333333333,-1.275838971138,-0.406139075756073,9.74434757232666,0.381099998950958,-0.640248000621796,0.190549999475479,-1245.90002441406,-5.10000038146973,-906.900024414062,2.15581564522917,-0.128874499377318,0.0410023121093544,ST
4.46666666666667,-1.00188946723938,-0.483897656202316,8.81842136383057,0.525918006896973,-0.289635986089706,0.617381989955902,-1250.70007324219,-7.50000047683716,-914.100036621094,2.15264452100424,-0.112561301309375,0.0537376717403547,ST
4.5,-1.27225005626678,-0.451597929000854,9.81732082366943,0.640248000621796,0.342989981174469,0.221037998795509,-1250.70007324219,3.90000009536743,-906.900024414062,2.15057987287433,-0.129293294803004,0.0448366935115539,ST
4.53333333333333,-0.952841758728027,-0.573020994663239,9.88610744476318,0.3125019967556,-0.335367977619171,-0.0457319989800453,-1243.5,-3.30000019073486,-923.700012207031,2.15245633404569,-0.0954609991324429,0.0573106919452897,ST
4.56666666666667,-1.08682572841644,-0.340941488742828,8.93745231628418,0.46494197845459,-0.914639949798584,-0.137196004390717,-1257.90002441406,0.300000011920929,-926.100036621094,2.15154421122312,-0.119230471706704,0.0374123589585376,ST
4.6,-0.792539417743683,-0.160900458693504,9.88969612121582,0.457319974899292,-0.792688012123108,0.403965979814529,-1257.90002441406,-5.70000028610229,-918.900024414062,2.14604610647451,-0.0786628864554954,0.0154545657638895,ST
4.63333333333333,-0.223107323050499,-0.445616513490677,9.41357421875,0.46494197845459,-0.868907988071442,0.891773998737335,-1260.30004882812,-6.30000019073486,-916.500061035156,2.14027617874011,-0.0224332220791753,0.0463389472322333,ST
4.66666666666667,-0.431261092424393,-0.165087461471558,9.1390266418457,0.609759986400604,-0.388722002506256,1.12043392658234,-1257.90002441406,-1.5,-911.700012207031,2.13037099710798,-0.0464141450907643,0.0170155166763149,ST
4.7,-0.37025049328804,-0.254210770130157,9.77305793762207,0.350611984729767,0.0990860015153885,1.2423859834671,-1269.90002441406,-11.1000003814697,-914.100036621094,2.12054386015517,-0.0381060769403714,0.0252861542986766,ST
4.73333333333333,-0.314623206853867,-0.341539651155472,9.82090950012207,0.190549999475479,-0.198172003030777,1.21189796924591,-1250.70007324219,-3.90000009536743,-921.300048828125,2.11050404471505,-0.0317477217259931,0.0343406999660133,ST
4.76666666666667,-0.391783654689789,-0.145348742604256,9.11928749084473,0.144817993044853,0.0304879993200302,1.11281192302704,-1250.70007324219,-2.10000014305115,-916.500061035156,2.10089346349051,-0.0429733044186732,0.0156702859580991,ST
4.8,-0.828428030014038,-0.198583468794823,9.49312686920166,0.297257989645004,1.21189796924591,1.49391198158264,-1245.90002441406,-8.70000076293945,-914.100036621094,2.08955722749665,-0.089024055022242,0.0201538819788068,ST
4.83333333333333,-0.664536833763123,-0.471336662769318,9.07502555847168,-0.0457319989800453,1.16616594791412,1.40244793891907,-1257.90002441406,0.300000011920929,-916.500061035156,2.08127165565563,-0.0752070646322942,0.0516780790858403,ST
4.86666666666667,-1.00787091255188,-0.223107323050499,9.66180324554443,-0.0304879993200302,0.769822001457214,1.21189796924591,-1257.90002441406,0.300000011920929,-911.700012207031,2.06912332341329,-0.105194430779633,0.0230279552302727,ST
4.9,-0.816465139389038,-0.185424327850342,9.5565299987793,0.167683988809586,0.221037998795509,1.2576299905777,-1257.90002441406,0.300000011920929,-911.700012207031,2.05879026855377,-0.0857115756341273,0.0189340580149573,ST
4.93333333333333,-0.157311603426933,-0.236266478896141,9.32445049285889,-0.0457319989800453,-0.716467976570129,0.762199997901917,-1257.90002441406,-2.70000004768372,-918.900024414062,2.05282526702893,-0.0159047022816966,0.0253654933047921,ST
4.96666666666667,-0.337950766086578,0.0179442893713713,9.50688457489014,0.0609759986400604,-1.15854394435883,0.571649968624115,-1250.70007324219,-3.30000019073486,-916.500061035156,2.04752227313263,-0.0334449803655288,-0.0019261814661936,ST
5.0,-0.0089721446856856,-0.106469452381134,9.42673301696777,0.106707997620106,-0.891773998737335,0.503051996231079,-1255.5,3.90000009536743,-914.100036621094,2.04312476113198,0.000542223737287,0.0110876519616443,ST
5.03333333333333,0.0699827298521996,-0.424083352088928,8.97872447967529,-0.25152599811554,-0.190549999475479,0.304879993200302,-1262.70007324219,-2.70000004768372,-909.300048828125,2.04038718247034,0.0080702468982976,0.0475315163127971,ST
5.06666666666667,-0.179442897439003,-0.269762486219406,9.82390022277832,-0.548784017562866,-0.0304879993200302,0.160062000155449,-1253.10009765625,-2.70000004768372,-916.500061035156,2.03881220839817,-0.0181610521046494,0.0284427342357961,ST
5.1,0.0418700091540813,-0.36725977063179,9.45484638214111,-0.236281991004944,0.0685980021953583,0.411587983369827,-1248.30004882812,-6.30000019073486,-926.100036621094,2.03539068807777,0.0042234593575072,0.0392132596567337,ST
5.13333333333333,0.0909177288413048,-0.320604622364044,10.4118747711182,0.213415995240211,-0.152439996600151,0.282013982534409,-1250.70007324219,-2.10000014305115,-914.100036621094,2.03312226925851,0.0089611596748515,0.030446746679477,ST
5.16666666666667,0.330773055553436,-0.339147061109543,9.48056602478027,0.304879993200302,-0.92988395690918,0.236281991004944,-1262.70007324219,-2.70000004768372,-911.700012207031,2.03077932858909,0.0363596408309875,0.035224714092552,ST
5.2,0.244042336940765,-0.252416342496872,8.62103462219238,0.381099998950958,-0.472563982009888,0.518296003341675,-1255.5,0.900000035762787,-926.100036621094,2.0266099694218,0.0291132074740583,0.0286569877664868,ST
5.23333333333333,0.253014475107193,-0.561058104038239,10.0733261108398,0.0685980021953583,0.0381099991500378,0.46494197845459,-1262.70007324219,-0.900000035762787,-911.700012207031,2.022143077888,0.0249774971564044,0.0554416989240048,ST
5.26666666666667,0.225499898195267,-0.231481328606606,9.20661640167236,0.37347799539566,-0.0685980021953583,-0.213415995240211,-1269.90002441406,5.10000038146973,-909.300048828125,2.02453587119786,0.0246110843870717,0.0245904738079927,ST
5.3,-0.0412718653678894,-0.526963949203491,9.69709396362305,0.449698001146317,0.396344006061554,-0.579271972179413,-1260.30004882812,-2.10000014305115,-918.900024414062,2.02906133743521,-0.0047787813161913,0.0534022808205854,ST
5.33333333333333,-0.37025049328804,-0.66034984588623,10.732479095459,0.167683988809586,0.0609759986400604,-1.77592599391937,-1269.90002441406,3.30000019073486,-923.700012207031,2.04356756906672,-0.03422768866717,0.0612333535360965,ST
5.36666666666667,-0.641209244728088,-0.238659039139748,10.2420024871826,0.480185985565186,-0.411587983369827,-2.11129403114319,-1236.30004882812,-3.90000009536743,-923.700012207031,2.05882695426223,-0.0616011213150536,0.0228258795578752,ST
5.4,-0.361278355121613,-0.530552804470062,10.0464096069336,0.137196004390717,-0.228659987449646,-1.83690190315247,-1255.5,-6.90000009536743,-911.700012207031,2.07500758276601,-0.0354273042655548,0.0525266134592032,ST
5.43333333333333,-0.254210770130157,-0.61847984790802,9.35435771942139,-0.701223969459534,-0.419209986925125,-1.77592599391937,-1257.90002441406,-7.50000047683716,-921.300048828125,2.0893678578011,-0.0262064158762618,0.0672704746833576,ST
5.46666666666667,-0.291295617818832,-0.505430817604065,9.56131553649902,-1.28049600124359,-0.746955990791321,-1.6920839548111,-1253.10009765625,-3.30000019073486,-926.100036621094,2.10279376757681,-0.0289426232055826,0.0551602657980779,ST
5.5,-0.83560574054718,-0.531749129295349,10.2270488739014,-0.967993974685669,-0.67835795879364,-1.05183601379395,-1257.90002441406,-3.90000009536743,-918.900024414062,2.11033366451744,-0.0799457604087435,0.053782442432614,ST
5.53333333333333,-0.64838695526123,-0.827231705188751,9.39443397521973,-0.655492007732391,0.0609759986400604,-0.868907988071442,-1257.90002441406,-4.5,-918.900024414062,2.11957377678841,-0.0686583905529877,0.0889482199836051,ST
5.56666666666667,-1.03658175468445,-0.559263706207275,10.1923561096191,0.487807989120483,0.297257989645004,-0.754577994346619,-1265.10009765625,-8.70000076293945,-923.700012207031,2.12318605195642,-0.101526838461765,0.0542289585934514,ST
5.6,-0.60651695728302,-0.486888378858566,10.1570653915405,0.701223969459534,-0.533540010452271,-0.685979962348938,-1257.90002441406,-2.10000014305115,-923.700012207031,2.12827636232047,-0.0587462654022,0.0467716339715819,ST
5.63333333333333,-0.287706762552261,-0.247631192207336,8.61385726928711,0.807931959629059,-0.99848198890686,-0.716467976570129,-1267.5,-3.90000009536743,-916.500061035156,2.13385865843925,-0.0316399214743931,0.0273984090923143,ST
5.66666666666667,-0.199779748916626,-0.297875195741653,9.29873085021973,0.403965979814529,-0.25152599811554,-0.327746003866196,-1265.10009765625,-7.50000047683716,-909.300048828125,2.13669687481732,-0.0210452964061683,0.0313181047454633,ST
5.7,-0.326586067676544,-0.683079302310944,10.0535869598389,-0.167683988809586,-0.114329993724823,-0.365855991840363,-1265.10009765625,-9.30000019073486,-921.300048828125,2.14052012611645,-0.0321157111177835,0.068016702500685,ST
5.73333333333333,0.0921140164136887,-0.718369722366333,10.0003519058228,-0.579271972179413,-0.769822001457214,-0.685979962348938,-1272.30004882812,-9.90000057220459,-906.900024414062,2.14564919038881,0.0104569450168536,0.0726945654644391,ST
5.76666666666667,0.18183545768261,-0.857138872146606,9.4554443359375,-0.480185985565186,-0.746955990791321,-0.632625997066498,-1260.30004882812,-7.50000047683716,-911.700012207031,2.14999055429407,0.0205112100762667,0.0911532564192901,ST
5.8,-0.276342064142227,-0.629844546318054,9.21499061584473,0.106707997620106,0.342989981174469,-0.716467976570129,-1255.5,-11.7000007629395,-923.700012207031,2.156399836933,-0.0303227258890308,0.0681405747351431,ST
5.83333333333333,-0.745884299278259,-0.765024840831757,9.34418964385986,0.647870004177094,1.08232402801514,0.144817993044853,-1277.10009765625,-12.9000005722046,-909.300048828125,2.15696952820932,-0.0811945815438011,0.0805267384834533,ST
5.86666666666667,-1.27464270591736,-0.547300815582275,9.25925350189209,0.830797970294952,1.37958192825317,0.304879993200302,-1260.30004882812,-11.1000003814697,-921.300048828125,2.15355390717267,-0.138788734502882,0.0576207824870298,ST
5.9,-1.4361412525177,-0.57062840461731,9.41357421875,0.99848198890686,1.97409796714783,0.663114011287689,-1277.10009765625,-9.90000057220459,-921.300048828125,2.15055890574402,-0.154569618956325,0.0586497252098892,ST
5.93333333333333,-1.53423666954041,-0.851755619049072,9.84543323516846,0.342989981174469,2.18751406669617,0.769822001457214,-1250.70007324219,-17.1000003814697,-916.500061035156,2.15043727450929,-0.1579288601759,0.0854397206802767,ST
5.96666666666667,-1.38230836391449,-0.735715866088867,10.1277570724487,-0.3125019967556,1.53202199935913,0.78506600856781,-1248.30004882812,-7.50000047683716,-921.300048828125,2.14291152638585,-0.13813669990128,0.0729438772181594,ST
6.0,-0.939084470272064,-1.10895705223083,9.58703517913818,-0.685979962348938,0.823175966739655,1.34909391403198,-1241.10009765625,-12.3000001907349,-916.500061035156,2.13735730993074,-0.0988422394784159,0.115982703745433,ST
6.03333333333333,-0.511412262916565,-1.18312680721283,9.15218544006348,-0.617381989955902,0.175305992364883,1.44817996025085,-1241.10009765625,-9.30000019073486,-930.900024414062,2.12669267464377,-0.0561472315549191,0.129446800862677,ST
6.06666666666667,-0.682481110095978,-1.06768524646759,9.36153602600098,0.228659987449646,0.594515979290009,1.85214591026306,-1245.90002441406,-15.9000005722046,-914.100036621094,2.11108035692736,-0.0736510217032864,0.112982180881614,ST
6.1,-0.881662726402283,-0.805100440979004,9.4315185546875,1.2500079870224,1.00610399246216,2.37044191360474,-1241.10009765625,-8.10000038146973,-921.300048828125,2.09119494517006,-0.0948901279974658,0.0827097392140009,ST
6.13333333333333,-1.14065861701965,-0.296080768108368,8.96795749664307,1.79117000102997,1.18903195858002,3.48325395584106,-1236.30004882812,-16.5,-914.100036621094,2.05793352781838,-0.128621830217058,0.0292319983003527,ST
6.16666666666667,-1.30873680114746,-0.275145769119263,9.43510723114014,1.47104597091675,1.43293595314026,3.84910988807678,-1241.10009765625,-12.9000005722046,-930.900024414062,2.02864230296035,-0.140402140158727,0.0256621897985492,ST
6.2,-1.01504862308502,-0.407335370779037,9.61335372924805,0.510673999786377,0.853663980960846,3.803377866745,-1233.90002441406,-18.3000011444092,-918.900024414062,2.00076139637087,-0.106983361718579,0.0406903748156941,ST
6.23333333333333,-0.269762486219406,-0.675303399562836,9.98121166229248,-0.541162014007568,-0.480185985565186,3.13264203071594,-1219.5,-15.3000001907349,-923.700012207031,1.97387473231465,-0.026618698383711,0.0683049245675851,ST
6.26666666666667,0.99889874458313,-1.63532292842865,8.74305534362793,-1.36433792114258,-1.79879200458527,1.47866797447205,-1226.70007324219,-19.5,-926.100036621094,1.95554010487461,0.113926240409493,0.18719181475638,ST
6.3,0.848764896392822,-1.65805232524872,7.89907598495483,-1.27287399768829,-1.15854394435883,-0.503051996231079,-1221.90002441406,-11.1000003814697,-916.500061035156,1.95649746389736,0.106951506963472,0.209022100678975,ST
6.33333333333333,-0.0831418707966805,-1.56414389610291,8.95778942108154,-0.106707997620106,0.67835795879364,-0.617381989955902,-1236.30004882812,-9.30000019073486,-916.500061035156,1.9646623268296,-0.00989637939199,0.173136815013109,ST
6.36666666666667,-0.641209244728088,-1.57969558238983,9.73358058929443,0.754577994346619,0.762199997901917,-0.243903994560242,-1229.10009765625,-11.1000003814697,-911.700012207031,1.9674099040556,-0.065972588621851,0.159664589060083,ST
6.4,-0.955234348773956,-1.26686680316925,9.14141941070557,1.18140995502472,0.663114011287689,0.259148001670837,-1224.30004882812,-9.30000019073486,-916.500061035156,1.96497372824028,-0.104206057548333,0.135704777964394,ST
6.43333333333333,-1.73939979076385,-0.836802005767822,9.83945178985596,1.6692179441452,1.09756803512573,0.975615978240967,-1209.90002441406,-17.7000007629395,-918.900024414062,1.95238231934294,-0.176230937195305,0.0817873633750838,ST
6.46666666666667,-2.1491277217865,-0.347521066665649,11.509467124939,1.77592599391937,0.335367977619171,1.77592599391937,-1205.10009765625,-12.3000001907349,-914.100036621094,1.93111930027976,-0.185158829803551,0.0267121464233502,ST
6.5,-1.53064787387848,0.0610105842351913,9.92737865447998,2.33995389938354,-0.945127964019775,2.82776188850403,-1207.5,-17.7000007629395,-916.500061035156,1.9047076956318,-0.15137904459205,-0.0108721345079298,ST
6.53333333333333,-1.41341185569763,0.243444189429283,9.72640323638916,2.82013988494873,-0.403965979814529,3.06404399871826,-1200.30004882812,-13.5000009536743,-909.300048828125,1.87944792655575,-0.143416249038952,-0.0306684646870673,ST
6.56666666666667,-1.68556690216064,0.497056812047958,9.73178577423096,2.70580983161926,-0.556405961513519,3.55947399139404,-1197.90002441406,-11.7000007629395,-906.900024414062,1.85088834874129,-0.169868404962257,-0.0567103468457956,ST
6.6,-1.56175124645233,0.41750380396843,8.90156364440918,0.6250039935112,-0.967993974685669,5.434485912323,-1195.5,-13.5000009536743,-914.100036621094,1.81019040385532,-0.171328008729757,-0.0496094240539254,ST
6.63333333333333,-0.248229339718819,-0.15312460064888,8.74843883514404,-0.602137982845306,-1.05945801734924,5.83083009719849,-1205.10009765625,-15.9000005722046,-911.700012207031,1.76387824333987,-0.0269140561967752,0.0181585305223097,ST
6.66666666666667,-1.00368392467499,0.539524972438812,10.1199808120728,1.36433792114258,-0.846041977405548,3.57471799850464,-1212.30004882812,-7.50000047683716,-909.300048828125,1.73091430189236,-0.0966929097670329,-0.0560111166509876,ST
6.7,-0.485093951225281,0.247033044695854,9.74673938751221,1.81403601169586,-0.510673999786377,1.90549993515015,-1209.90002441406,-14.1000003814697,-916.500061035156,1.71725189177847,-0.0488183175946367,-0.028721620672102,ST
6.73333333333333,-0.620872378349304,0.257799625396729,9.61754035949707,1.21189796924591,-0.541162014007568,-1.02897000312805,-1200.30004882812,-12.9000005722046,-916.500061035156,1.72623960665402,-0.0634972465398834,-0.028798429560551,ST
6.76666666666667,-1.01325416564941,0.465355217456818,9.11629676818848,0.0381099991500378,-0.777444005012512,-2.32470989227295,-1209.90002441406,-11.7000007629395,-906.900024414062,1.74330847134246,-0.109229425062333,-0.0505397906910521,ST
6.8,-1.58806955814362,0.653172135353088,9.49372482299805,-0.830797970294952,-0.830797970294952,-2.28659987449646,-1202.70007324219,-17.7000007629395,-911.700012207031,1.75871871386801,-0.163972541660305,-0.0665115079981919,ST
6.83333333333333,-0.636424124240875,0.163891181349754,9.05289363861084,-1.92836594581604,-1.18140995502472,-2.00458598136902,-1212.30004882812,-5.70000028610229,-911.700012207031,1.77969510348208,-0.0685202897095484,-0.0146772542275773,ST
6.86666666666667,-0.903195858001709,-0.0137572884559631,9.70307540893555,-1.53964400291443,-0.708845973014832,-2.19513607025146,-1205.10009765625,-2.10000014305115,-909.300048828125,1.79777202706506,-0.0914789221894001,0.004384140888561,ST
6.9,-0.711192011833191,-0.05742172524333,9.33102989196777,-1.21951997280121,-0.129574000835419,-2.37806391716003,-1205.10009765625,-0.900000035762787,-916.500061035156,1.81644575865908,-0.075865849406462,0.0085834062706474,ST
6.93333333333333,-1.15022897720337,-0.0203368607908487,9.83586311340332,-0.693601965904236,0.594515979290009,-2.14940404891968,-1207.5,-3.30000019073486,-911.700012207031,1.8326212459121,-0.11728365815572,0.0037354573418824,ST
6.96666666666667,-0.997702479362488,-0.358885794878006,9.90345287322998,-0.83841997385025,0.37347799539566,-1.95123195648193,-1221.90002441406,0.900000035762787,-918.900024414062,1.85182437210685,-0.100912104580643,0.0379317656614195,ST
7.0,-1.49655365943909,-0.0311034340411425,9.79638576507568,-0.617381989955902,0.0381099991500378,-1.53964400291443,-1214.70007324219,3.30000019073486,-911.700012207031,1.85959275665875,-0.151494513566711,0.0047605423492345,ST
7.03333333333333,-1.13706982135773,-0.034094151109457,9.53559494018555,-0.579271972179413,-0.0762199983000755,-0.907018005847931,-1212.30004882812,-2.70000004768372,-911.700012207031,1.86626190980919,-0.118664209530933,0.0047760234568843,ST
7.06666666666667,-1.05691862106323,-0.291893780231476,8.97513484954834,-0.342989981174469,-0.0304879993200302,-0.571649968624115,-1212.30004882812,-2.70000004768372,-923.700012207031,1.87384043170313,-0.117079870865423,0.0331222146904191,ST
7.1,-1.11972367763519,-0.26437920331955,9.31488037109375,-0.518296003341675,0.198172003030777,-0.282013982534409,-1214.70007324219,0.300000011920929,-918.900024414062,1.87520211980412,-0.119907209994433,0.02935378073452,ST
7.13333333333333,-1.06469452381134,-0.450999796390533,9.05468845367432,-0.46494197845459,0.396344006061554,0.0685980021953583,-1214.70007324219,-1.5,-926.100036621094,1.87686195249948,-0.117609271617134,0.050490790385157,ST
7.16666666666667,-1.00368392467499,-0.815867006778717,9.22755146026611,-0.769822001457214,0.739333987236023,0.114329993724823,-1205.10009765625,2.10000014305115,-911.700012207031,1.88014309521049,-0.109260759411587,0.0893780201712694,ST
7.2,-1.21482837200165,-0.672312676906586,9.6163444519043,-0.503051996231079,0.807931959629059,-0.137196004390717,-1224.30004882812,-4.5,-928.500061035156,1.87903506007486,-0.126686530803821,0.0707895277041368,ST
7.23333333333333,-0.468345940113068,-1.08742392063141,9.4075927734375,-0.0609759986400604,0.525918006896973,-0.0533539988100529,-1209.90002441406,-4.5,-928.500061035156,1.88379469514778,-0.0505970246962849,0.115033764392759,ST
7.26666666666667,-0.525767683982849,-1.00787091255188,8.97453689575195,0.0990860015153885,0.342989981174469,-0.640248000621796,-1224.30004882812,1.5,-923.700012207031,1.88975490652562,-0.0586105477878519,0.111735973814152,ST
7.3,-0.892429292201996,-0.485692083835602,9.84961986541748,0.358233988285065,-0.342989981174469,-0.571649968624115,-1202.70007324219,-2.70000004768372,-921.300048828125,1.88976079904588,-0.089488455948212,0.0489639808911222,ST
7.33333333333333,-0.0311034340411425,-0.670518279075623,8.4110860824585,0.0304879993200302,-0.99848198890686,-0.0304879993200302,-1219.5,-3.90000009536743,-911.700012207031,1.89082095349814,-0.0022668829987867,0.0793847327084864,ST
7.36666666666667,-0.260192185640335,-0.916953146457672,8.91711521148682,-0.419209986925125,-0.884151995182037,-0.0685980021953583,-1197.90002441406,-1.5,-902.100036621094,1.89095070099102,-0.0273778967573367,0.103113617100795,ST
7.4,-0.374437510967255,-1.25251138210297,10.082896232605,-1.27287399768829,-0.975615978240967,-0.724089980125427,-1200.30004882812,-2.70000004768372,-916.500061035156,1.89629361906526,-0.0349659602173583,0.125778556040893,ST
7.43333333333333,-0.245836764574051,-1.39905643463135,9.37529277801514,-1.12805593013763,-0.769822001457214,-0.952749967575073,-1205.10009765625,-0.300000011920929,-914.100036621094,1.90366985564693,-0.0243839707191271,0.150066681242769,ST
7.46666666666667,-0.836203873157501,-1.10477006435394,9.40520000457764,0.205793991684914,0.510673999786377,-0.663114011287689,-1226.70007324219,5.10000038146973,-914.100036621094,1.90806717893141,-0.0886680840547035,0.116759776599938,ST
7.5,-1.20824885368347,-1.11134958267212,10.402304649353,1.05945801734924,0.342989981174469,-0.342989981174469,-1212.30004882812,-4.5,-921.300048828125,1.91116338691656,-0.115466212398759,0.104683646359563,ST
7.53333333333333,-1.19150078296661,-0.707004964351654,10.4686985015869,1.53202199935913,-1.08232402801514,-0.297257989645004,-1202.70007324219,-9.30000019073486,-923.700012207031,1.90979117094635,-0.11116985234073,0.0649489230607105,ST
7.56666666666667,-1.05093717575073,-0.592759668827057,10.3371067047119,1.65397393703461,-1.38720393180847,-0.205793991684914,-1205.10009765625,-6.90000009536743,-911.700012207031,1.91105931488294,-0.0987622848510245,0.0544540136362795,ST
7.6,-0.92472904920578,-0.645396292209625,10.2144870758057,1.22714197635651,-0.990859985351562,-0.0609759986400604,-1224.30004882812,1.5,-923.700012207031,1.91257547654086,-0.0884120561534963,0.0609346752867352,ST
7.63333333333333,-0.924130916595459,-0.311632484197617,10.4471654891968,0.655492007732391,-1.15854394435883,0.289635986089706,-1229.10009765625,-3.90000009536743,-914.100036621094,1.9075695878233,-0.0861909759555155,0.028746202611627,ST
7.66666666666667,-0.384605944156647,-0.820053994655609,8.76638317108154,0.609759986400604,-1.00610399246216,0.769822001457214,-1217.10009765625,1.5,-916.500061035156,1.90425316861604,-0.0420971740063528,0.0920476043709445,ST
7.7,-0.482701390981674,-0.714780867099762,8.97334098815918,0.213415995240211,-0.701223969459534,-0.304879993200302,-1212.30004882812,0.300000011920929,-926.100036621094,1.9057175928313,-0.0522719306898312,0.0791857584216307,ST
7.73333333333333,-0.882260859012604,-0.873288750648499,8.71793365478516,0.792688012123108,0.556405961513519,0.0304879993200302,-1231.5,-2.10000014305115,-918.900024414062,1.90799939166516,-0.101212306153395,0.0984127418257399,ST
7.76666666666667,-1.23695969581604,-1.02282452583313,8.78253364562988,0.121951997280121,0.525918006896973,-0.137196004390717,-1224.30004882812,-8.70000076293945,-918.900024414062,1.91187461191762,-0.139786795057537,0.115732298302403,ST
7.8,-1.38290655612946,-1.06529259681702,9.53559494018555,-0.525918006896973,0.434453994035721,0.0533539988100529,-1224.30004882812,-3.30000019073486,-923.700012207031,1.91069686336237,-0.143897433228178,0.112181409640044,ST
7.83333333333333,-1.30694234371185,-1.32847559452057,9.50090312957764,-0.6250039935112,-0.259148001670837,0.335367977619171,-1207.5,-11.7000007629395,-921.300048828125,1.91092124085183,-0.135067002168515,0.139827136060046,ST
7.86666666666667,-1.35180306434631,-1.14664006233215,8.79389762878418,-0.442075997591019,0.198172003030777,0.419209986925125,-1219.5,-2.10000014305115,-926.100036621094,1.9059367929897,-0.15164306055639,0.130361706393333,ST
7.9,-1.72504436969757,-1.1436493396759,9.45723819732666,-0.282013982534409,0.655492007732391,0.83841997385025,-1219.5,-2.70000004768372,-923.700012207031,1.89796221189136,-0.180350444762694,0.120633349310974,ST
7.93333333333333,-1.40982294082642,-1.49655365943909,9.86457347869873,-0.25152599811554,0.175305992364883,0.99848198890686,-1224.30004882812,2.70000004768372,-926.100036621094,1.89454819945599,-0.141052357358965,0.150672464441204,ST
7.96666666666667,-1.02461886405945,-1.36137342453003,9.83406829833984,-0.0914639979600906,-0.487807989120483,0.983237981796265,-1207.5,0.900000035762787,-921.300048828125,1.88452722071646,-0.102377354357891,0.137579668907716,ST
8.0,-0.769211888313293,-1.02521705627441,9.39024639129639,0.533540010452271,-0.807931959629059,1.20427596569061,-1231.5,-2.10000014305115,-921.300048828125,1.87121184854528,-0.0801314470427424,0.107707891993564,ST
8.03333333333333,-0.865512907505035,-0.988730311393738,8.99367809295654,1.28049600124359,-0.160062000155449,1.88263392448425,-1224.30004882812,-0.300000011920929,-916.500061035156,1.85563469127734,-0.0954128467570875,0.106948070636716,ST
8.06666666666667,-0.861325860023499,-1.12211620807648,8.90933990478516,0.884151995182037,0.762199997901917,1.92074394226074,-1231.5,-3.30000019073486,-914.100036621094,1.84249181552237,-0.0973539234840145,0.123397352599468,ST
8.1,-1.27823150157928,-0.893625617027283,9.24130916595459,0.823175966739655,1.15854394435883,1.73019397258759,-1221.90002441406,-6.30000019073486,-918.900024414062,1.82567085430722,-0.139049520630259,0.0946151828153461,ST
8.13333333333333,-1.13049018383026,-0.633433401584625,9.74494552612305,1.02897000312805,0.144817993044853,2.15702605247498,-1219.5,-0.300000011920929,-928.500061035156,1.80399613373193,-0.115785468520327,0.0627394041056856,ST
8.16666666666667,-0.807493031024933,-0.528758406639099,9.26643085479736,1.16616594791412,-1.2423859834671,2.46190595626831,-1212.30004882812,-2.70000004768372,-916.500061035156,1.78373682865303,-0.0849652970601325,0.0546158385514079,ST
8.2,-0.797324597835541,-0.442625790834427,9.28018856048584,1.42531394958496,-1.36433792114258,2.54574799537659,-1219.5,-5.10000038146973,-938.100036621094,1.76292098851532,-0.0834365226788666,0.0448272262401011,ST
8.23333333333333,-0.288304924964905,-0.715378999710083,9.5864372253418,1.05945801734924,-1.60824191570282,2.57623600959778,-1219.5,-0.900000035762787,-930.900024414062,1.74191374982866,-0.0276400006479868,0.072437249398697,ST
8.26666666666667,0.328978627920151,-0.967197179794312,9.87653636932373,0.739333987236023,-2.47714996337891,2.37806391716003,-1229.10009765625,-0.300000011920929,-935.700012207031,1.72074842459407,0.0368073438945926,0.0964005600341402,ST
8.3,1.02222633361816,-0.835007607936859,9.16055965423584,1.00610399246216,-2.84300589561462,1.70732796192169,-1229.10009765625,-1.5,-916.500061035156,1.70475025798453,0.115062014785372,0.0895601110296902,ST
8.33333333333333,1.06947958469391,-0.770408153533936,9.54337120056152,1.36433792114258,-1.74543797969818,1.80641400814056,-1231.5,5.10000038146973,-911.700012207031,1.68919035552086,0.114033285260203,0.0785994131998177,ST
8.36666666666667,0.82962429523468,-0.508421540260315,9.91362190246582,1.57775402069092,-1.41769194602966,1.53202199935913,-1233.90002441406,2.10000014305115,-909.300048828125,1.67807996803692,0.0858249181221243,0.0488381366574302,ST
8.4,-0.497654944658279,0.445018380880356,9.96506214141846,2.43903994560242,-0.190549999475479,1.56251001358032,-1231.5,-9.30000019073486,-921.300048828125,1.66737250381912,-0.0489853726977376,-0.0487200307389125,ST
8.43333333333333,-0.86790543794632,0.595750391483307,9.13005447387695,2.27897787094116,1.36433792114258,2.09605002403259,-1236.30004882812,-7.50000047683716,-914.100036621094,1.64945445607753,-0.0965575254578413,-0.0694406635878478,ST
8.46666666666667,-1.64010798931122,0.676499724388123,9.29514217376709,1.85976791381836,2.43141794204712,2.01220798492432,-1231.5,-1.5,-928.500061035156,1.63345454036461,-0.177863347640152,-0.0765513901775447,ST
8.5,-2.17843675613403,0.634031534194946,10.0822982788086,0.846041977405548,2.33233189582825,1.6768399477005,-1236.30004882812,-1.5,-918.900024414062,1.62267889926293,-0.216118287015605,-0.0650176464994053,ST
8.53333333333333,-1.87398195266724,0.973776757717133,10.2647314071655,0.106707997620106,0.922261953353882,1.28049600124359,-1229.10009765625,-2.70000004768372,-928.500061035156,1.60614709794067,-0.181306665123227,-0.0950968882989135,ST
8.56666666666667,-1.18193054199219,0.877475738525391,9.63548469543457,-0.221037998795509,-0.823175966739655,0.823175966739655,-1214.70007324219,-5.10000038146973,-926.100036621094,1.60063455463936,-0.120220597031058,-0.0906061500528115,ST
8.6,-0.961813926696777,0.82663357257843,9.4907341003418,-0.586893975734711,-1.82927989959717,0.121951997280121,-1226.70007324219,-1.5,-916.500061035156,1.60096472705841,-0.0975038254718869,-0.0858665504868771,ST
8.63333333333333,-0.708799421787262,0.820053994655609,9.1270637512207,-0.647870004177094,-1.69970595836639,-0.472563982009888,-1233.90002441406,-5.10000038146973,-928.500061035156,1.60573488572541,-0.0743565591729193,-0.0883911232376422,ST
8.66666666666667,-0.298473328351974,0.506028950214386,8.89677810668945,-0.731711983680725,-1.15092194080353,-1.16616594791412,-1233.90002441406,-6.30000019073486,-923.700012207031,1.61748464163419,-0.0317178714027957,-0.0555678100898806,ST
8.7,-0.509019672870636,0.233873903751373,9.55174541473389,-0.868907988071442,-0.800309956073761,-1.69970595836639,-1245.90002441406,-2.10000014305115,-930.900024414062,1.63238759060075,-0.0518238268351376,-0.0229297190769501,ST
8.73333333333333,-0.128002598881721,0.0514402948319912,9.10074520111084,-1.34909391403198,-0.891773998737335,-2.46952795982361,-1245.90002441406,-8.10000038146973,-921.300048828125,1.652746689894,-0.0126681636123563,-0.0033120148809682,ST
8.76666666666667,-0.348717361688614,0.0723752975463867,9.23831844329834,-1.22714197635651,-0.663114011287689,-2.5152599811554,-1229.10009765625,-0.300000011920929,-918.900024414062,1.67267283694124,-0.0365064803296466,-0.0055254935444549,ST
8.8,-0.797922730445862,-0.285912334918976,9.69290637969971,-0.861285984516144,0.282013982534409,-2.01220798492432,-1226.70007324219,-6.30000019073486,-933.300048828125,1.69247834649628,-0.0824117169795901,0.0312238536825395,ST
8.83333333333333,-0.818857729434967,-0.350511789321899,10.1337385177612,-0.800309956073761,0.556405961513519,-2.01220798492432,-1241.10009765625,-8.70000076293945,-916.500061035156,1.70867671150808,-0.0814291789689162,0.0362423500328338,ST
8.86666666666667,-0.60352623462677,-0.669920146465302,10.6888151168823,-0.945127964019775,-0.167683988809586,-1.93598794937134,-1248.30004882812,-3.90000009536743,-926.100036621094,1.72743338145722,-0.0558246709396756,0.0643870679149668,ST
8.9,-0.231481328606606,-0.848166704177856,9.62890529632568,-1.03659200668335,-0.221037998795509,-1.89787793159485,-1243.5,-2.10000014305115,-914.100036621094,1.74326829329222,-0.0233836875885588,0.0896531340987083,DLL
8.93333333333333,-0.0430662930011749,-0.951047301292419,8.80167388916016,-0.967993974685669,0.358233988285065,-1.83690190315247,-1236.30004882812,-3.90000009536743,-923.700012207031,1.75850600925612,-0.0052049113233249,0.10927050769678,DLL
8.96666666666667,-0.44023323059082,-0.955832481384277,9.45364952087402,-0.571649968624115,1.02134799957275,-1.49391198158264,-1221.90002441406,-0.300000011920929,-918.900024414062,1.77095470455051,-0.0476491664516621,0.101919667467379,DLL
9.0,-0.470738530158997,-0.804502308368683,9.26284217834473,-0.0076219998300075,0.594515979290009,-0.663114011287689,-1241.10009765625,9.90000057220459,-918.900024414062,1.77594903298645,-0.0515051479470072,0.0867684118414906,DLL
9.03333333333333,-0.83560574054718,-0.515599250793457,8.88601207733154,0.282013982534409,0.472563982009888,0.365855991840363,-1224.30004882812,0.900000035762787,-921.300048828125,1.77131899420368,-0.0943066869042041,0.0575194230315026,DLL
9.06666666666667,-1.47920751571655,-0.261986613273621,9.22157001495361,-0.37347799539566,0.274392008781433,2.67532205581665,-1231.5,0.300000011920929,-921.300048828125,1.74460746305334,-0.159445959730284,0.0283812589405654,DLL
9.1,-0.811081886291504,-1.01445043087006,9.21199989318848,-1.91312193870544,-0.632625997066498,5.0838737487793,-1224.30004882812,1.5,-928.500061035156,1.71222076247876,-0.0874389195699895,0.111918356491556,DLL
9.13333333333333,0.217724040150642,-1.64190244674683,9.63907432556152,-2.43141794204712,-1.05183601379395,5.53357172012329,-1214.70007324219,6.90000009536743,-926.100036621094,1.66876112343689,0.022019734844664,0.172933512254032,DLL
9.16666666666667,0.642405569553375,-1.51449799537659,10.0374374389648,-0.67835795879364,0.129574000835419,3.32319188117981,-1226.70007324219,7.50000047683716,-928.500061035156,1.64367747336548,0.0619532393467816,0.151367675812136,DLL
9.2,0.74947315454483,-1.35359752178192,9.94831371307373,0.403965979814529,0.137196004390717,1.2347639799118,-1221.90002441406,0.300000011920929,-933.300048828125,1.63488830485395,0.0739391083812836,0.134744016547232,DLL
9.23333333333333,0.452794224023819,-0.945065915584564,9.48654747009277,1.28049600124359,0.365855991840363,-0.701223969459534,-1236.30004882812,7.50000047683716,-930.900024414062,1.64287280146785,0.0470081913132895,0.0970891221002582,DLL
9.26666666666667,-0.748276829719543,-0.404942780733109,9.18388748168945,1.59299790859222,1.47866797447205,-1.54726600646973,-1229.10009765625,1.5,-916.500061035156,1.65565541763579,-0.0832003446062262,0.0417168214510968,DLL
9.3,-1.02880585193634,-0.561058104038239,9.25267314910889,0.739333987236023,1.90549993515015,-1.08994603157043,-1217.10009765625,-6.90000009536743,-933.300048828125,1.66760829507032,-0.113629264205506,0.0594454741754599,DLL
9.33333333333333,-1.01385235786438,-0.764426708221436,9.11091327667236,-0.221037998795509,1.55488801002502,-1.34147191047668,-1214.70007324219,4.5,-926.100036621094,1.68226254955525,-0.112948252370114,0.0843081315732886,DLL
9.36666666666667,-1.51330173015594,-0.767417430877686,10.1139993667603,-0.182927995920181,1.21189796924591,-1.63110792636871,-1217.10009765625,-3.30000019073486,-923.700012207031,1.69599179375142,-0.149922389036054,0.0765177949937847,DLL
9.4,-1.51928317546844,-1.01325416564941,10.2749004364014,0.243903994560242,0.884151995182037,-1.60824191570282,-1205.10009765625,6.30000019073486,-914.100036621094,1.71292231647565,-0.147372453610117,0.0982281498893048,DLL
9.43333333333333,-1.29079258441925,-1.19628596305847,9.91063117980957,-0.266770005226135,-0.342989981174469,-1.41769194602966,-1214.70007324219,0.300000011920929,-930.900024414062,1.72796896651058,-0.127729691207215,0.120863365339587,DLL
9.46666666666667,-1.32488667964935,-0.919943869113922,9.60318565368652,-0.647870004177094,-0.853663980960846,-1.02134799957275,-1219.5,-8.70000076293945,-926.100036621094,1.7315685120901,-0.134798813297548,0.0969445326251914,DLL
9.5,-1.51689052581787,-0.48449581861496,8.90275955200195,0.0685980021953583,-0.327746003866196,0.434453994035721,-1197.90002441406,-1.5,-928.500061035156,1.72160371774207,-0.167868315479671,0.0542725778638112,DLL
9.53333333333333,-2.19279217720032,-0.41152235865593,9.05289363861084,-0.0,0.190549999475479,2.85824990272522,-1200.30004882812,7.50000047683716,-921.300048828125,1.69719196315289,-0.237703865855116,0.0442668341609666,DLL
9.56666666666667,-2.2890932559967,-0.608311414718628,9.19525146484375,-0.685979962348938,-0.198172003030777,4.75612783432007,-1214.70007324219,4.5,-923.700012207031,1.66355528115939,-0.243641487254866,0.0651162127411705,DLL
9.6,-2.11742615699768,-0.848764896392822,9.20781326293945,-2.60672402381897,-1.87501192092896,8.1936502456665,-1209.90002441406,6.30000019073486,-911.700012207031,1.59979755077917,-0.223242199351471,0.0930610521667768,DLL
9.63333333333333,-1.8105788230896,-1.11792922019958,8.89558219909668,-3.11739802360535,-2.29422187805176,10.9909238815308,-1217.10009765625,0.900000035762787,-926.100036621094,1.50470557482682,-0.197751227911416,0.126476320086308,DLL
9.66666666666667,-1.41281366348267,-1.75973665714264,9.48295879364014,-2.9268479347229,-1.59299790859222,13.0107536315918,-1205.10009765625,11.7000007629395,-923.700012207031,1.40660872829336,-0.147045347433468,0.184974155012154,DLL
9.7,-1.19628596305847,-1.64728569984436,9.84363842010498,-2.45428395271301,-1.86738991737366,12.8583135604858,-1205.10009765625,11.1000003814697,-933.300048828125,1.29769026422107,-0.11991931592569,0.167411467907828,DLL
9.73333333333333,-1.25430583953857,-1.36197149753571,9.47518253326416,-1.76830399036407,-2.17227005958557,12.9116678237915,-1209.90002441406,9.90000057220459,-918.900024414062,1.18793211955567,-0.129717607774999,0.142962588328172,DLL
9.76666666666667,-1.26806306838989,-1.20107114315033,8.99487400054932,-2.09605002403259,-2.09605002403259,14.1311874389648,-1226.70007324219,9.30000019073486,-916.500061035156,1.06287831838659,-0.138458010563656,0.13295532542014,DLL
9.8,-1.31352198123932,-1.18731379508972,8.89498424530029,-2.74391984939575,-2.37806391716003,14.9619855880737,-1231.5,18.3000011444092,-909.300048828125,0.92739576097676,-0.144688233481979,0.133637013005236,DLL
9.83333333333333,-1.3440272808075,-1.28600740432739,9.36871337890625,-3.43752193450928,-2.36281991004944,15.2058897018433,-1214.70007324219,15.3000001907349,-921.300048828125,0.801152272560415,-0.140770363550757,0.13858987291289,DLL
9.86666666666667,-0.923532724380493,-1.73700714111328,9.63010215759277,-3.59758400917053,-2.76678586006165,14.4436893463135,-1217.10009765625,12.9000005722046,-921.300048828125,0.685160286344747,-0.0940621447490431,0.182132771177338,DLL
9.9,-0.119628593325615,-2.34113168716431,9.12885761260986,-3.60520601272583,-3.07166600227356,12.9192895889282,-1207.5,29.1000003814697,-918.900024414062,0.568123282968321,-0.0133418281170417,0.25689491929448,DLL
9.93333333333333,0.218920320272446,-2.4458065032959,8.81303882598877,-3.37654590606689,-2.98782396316528,10.5564699172974,-1217.10009765625,26.1000003814697,-914.100036621094,0.479943038243149,0.023782594633727,0.276970866455448,DLL
9.96666666666667,0.241051614284515,-2.26397109031677,8.76817798614502,-1.99696397781372,-2.62959003448486,8.00309944152832,-1214.70007324219,22.5,-899.700012207031,0.413059500122042,0.0274882311628049,0.256646224564846,DLL
10.0,0.397166937589645,-2.34113168716431,8.43979740142822,-0.297257989645004,-1.60824191570282,4.83234786987305,-1205.10009765625,21.3000011444092,-902.100036621094,0.367919356015767,0.0457244263641223,0.271483079632367,DLL
10.0333333333333,0.119030453264713,-2.61029601097107,8.81543064117432,-0.78506600856781,-1.34147191047668,0.87652999162674,-1200.30004882812,21.9000015258789,-904.500061035156,0.3570999616028,0.0148287846263577,0.289239774728437,DLL
10.0666666666667,-0.312828779220581,-2.64797902107239,8.73169136047363,-2.00458598136902,-2.03507399559021,-0.853663980960846,-1212.30004882812,31.5000019073486,-904.500061035156,0.358628719791451,-0.0302726119476353,0.297923973117072,DLL
10.1,-0.30624920129776,-2.84177732467651,8.79808521270752,-2.53050398826599,-1.98934197425842,-1.15854394435883,-1207.5,23.7000007629395,-906.900024414062,0.362639933672294,-0.0291860350915021,0.316806702594576,DLL
10.1333333333333,-1.26626861095428,-2.46614336967468,10.2581520080566,-0.87652999162674,-0.160062000155449,-0.121951997280121,-1226.70007324219,31.5000019073486,-897.300048828125,0.356690443309623,-0.118798683030336,0.237771531471457,DLL
10.1666666666667,-1.01684308052063,-2.52296710014343,9.5984001159668,0.426831990480423,0.579271972179413,-0.160062000155449,-1205.10009765625,29.1000003814697,-887.700012207031,0.361592092118849,-0.103056579034164,0.256292918592358,DLL
10.2,-1.59285473823547,-2.07017278671265,9.06066989898682,0.411587983369827,0.945127964019775,-0.754577994346619,-1195.5,29.7000007629395,-892.500061035156,0.365555086746143,-0.170845623921438,0.224284650345644,DLL
10.2333333333333,-2.41709566116333,-2.05462121963501,10.6983852386475,-0.480185985565186,0.327746003866196,0.137196004390717,-1214.70007324219,33.3000030517578,-904.500061035156,0.357596037104354,-0.218831056895422,0.190631339426309,DLL
10.2666666666667,-1.50851655006409,-2.33634638786316,10.4483613967896,-0.701223969459534,-1.81403601169586,0.617381989955902,-1214.70007324219,35.1000022888184,-880.500061035156,0.354205760986481,-0.137423585159194,0.220860079050833,DLL
10.3,-0.364867210388184,-2.28969120979309,9.99676322937012,0.411587983369827,-3.40703392028809,0.121951997280121,-1224.30004882812,33.3000030517578,-904.500061035156,0.347638804997316,-0.030207667313019,0.224378998329549,DLL
10.3333333333333,-0.0514402948319912,-1.86919677257538,9.49492168426514,1.84452390670776,-3.01831197738647,-0.167683988809586,-1219.5,26.7000007629395,-897.300048828125,0.343465232296892,-0.0001464994983082,0.191221690400736,DLL
10.3666666666667,0.386998504400253,-1.4020471572876,8.69879341125488,2.32470989227295,-1.6692179441452,0.381099998950958,-1226.70007324219,24.3000011444092,-894.900024414062,0.338379988544709,0.046496100156978,0.155926741276482,DLL
10.4,0.398961365222931,-0.884653449058533,8.34887981414795,1.82165801525116,-0.647870004177094,0.304879993200302,-1236.30004882812,29.7000007629395,-892.500061035156,0.337173706475847,0.0485468799759221,0.102615337306497,DLL
10.4333333333333,-0.251818180084229,-0.738706588745117,9.13483905792236,1.37195992469788,-0.182927995920181,0.0914639979600906,-1231.5,28.5000019073486,-880.500061035156,0.336697130612788,-0.0268863202034367,0.0783814549425617,DLL
10.4666666666667,-0.324193477630615,-0.909177303314209,9.75870227813721,0.724089980125427,-0.807931959629059,-0.342989981174469,-1226.70007324219,27.9000015258789,-916.500061035156,0.339651756051056,-0.0315976648038378,0.0916228662857418,DLL
10.5,-0.0376830063760281,-1.06888151168823,9.31667518615723,0.137196004390717,-1.51677799224854,-1.03659200668335,-1238.70007324219,27.3000011444092,-897.300048828125,0.347211679611862,-0.001273606666052,0.113924904753292,DLL
10.5333333333333,-0.10826388001442,-1.25729656219482,9.51226806640625,-0.525918006896973,-0.746955990791321,-1.73019397258759,-1229.10009765625,32.7000007629395,-892.500061035156,0.361523048268739,-0.009576613929426,0.132323545505379,DLL
10.5666666666667,-0.283519774675369,-1.54978847503662,9.49851036071777,-0.78506600856781,0.175305992364883,-1.73781597614288,-1226.70007324219,21.9000015258789,-887.700012207031,0.376437303297556,-0.0292029775282065,0.163102203246471,DLL
10.6,-0.298473328351974,-2.40812349319458,9.8017692565918,-1.40244793891907,0.724089980125427,-2.10367202758789,-1241.10009765625,24.9000015258789,-894.900024414062,0.396294746092676,-0.0299087291084375,0.243178199001345,DLL
10.6333333333333,-0.258995920419693,-2.95602250099182,9.43630313873291,-1.65397393703461,0.320124000310898,-2.24086785316467,-1238.70007324219,33.9000015258789,-890.100036621094,0.415725034968744,-0.0255596880974695,0.306330857197627,DLL
10.6666666666667,-0.747678697109222,-3.10077309608459,8.89199352264404,-1.12805593013763,0.541162014007568,-1.98934197425842,-1226.70007324219,29.1000003814697,-904.500061035156,0.433298044692425,-0.0787758492463575,0.33766250223984,DLL
10.7,-1.12450873851776,-3.20903706550598,8.656325340271,-0.266770005226135,1.93598794937134,-1.12043392658234,-1238.70007324219,30.9000015258789,-899.700012207031,0.449478755492361,-0.123587068263482,0.355803011092804,DLL
10.7333333333333,-0.900803327560425,-3.2987585067749,9.27301025390625,-0.472563982009888,1.43293595314026,-0.381099998950958,-1226.70007324219,22.5,-902.100036621094,0.454461203720839,-0.0935120531865818,0.342787819178301,DLL
10.7666666666667,-0.916953146457672,-2.8202440738678,9.2227668762207,-0.213415995240211,-0.106707997620106,0.327746003866196,-1236.30004882812,26.1000003814697,-890.100036621094,0.44724841341267,-0.0947776686580157,0.297244599998898,DLL
10.8,-0.336754500865936,-3.12888598442078,8.44996547698975,0.708845973014832,-0.236281991004944,1.85976791381836,-1236.30004882812,28.5000019073486,-909.300048828125,0.436494537363012,-0.0382970046686614,0.353061624955127,DLL
10.8333333333333,-0.346324771642685,-2.87886214256287,8.452956199646,0.358233988285065,-0.0685980021953583,1.47866797447205,-1226.70007324219,24.9000015258789,-894.900024414062,0.424176251945895,-0.03947777055041,0.327623905462473,DLL
10.8666666666667,-0.629844546318054,-2.81964588165283,8.79090690612793,0.381099998950958,0.342989981174469,1.87501192092896,-1236.30004882812,32.1000022888184,-899.700012207031,0.408666179330403,-0.0696275492076289,0.309545527218641,DLL
10.9,-0.0622068680822849,-2.64020299911499,9.00564098358154,0.228659987449646,-0.152439996600151,2.12653803825378,-1231.5,25.5000019073486,-894.900024414062,0.39097092222591,-0.007645936909382,0.284840885760942,DLL
10.9333333333333,-0.128600731492043,-2.64439010620117,9.73896408081055,0.830797970294952,-0.655492007732391,2.11129403114319,-1238.70007324219,29.7000007629395,-892.500061035156,0.373015417993732,-0.0125819413856301,0.263713942141103,DLL
10.9666666666667,0.206957474350929,-2.63422155380249,9.92678070068359,1.28811800479889,-0.548784017562866,1.17378795146942,-1229.10009765625,32.7000007629395,-904.500061035156,0.362620569778579,0.0204315401926072,0.257206822207754,DLL
11.0,-0.315221339464188,-2.1269965171814,10.254563331604,1.85976791381836,-0.46494197845459,0.716467976570129,-1224.30004882812,26.7000007629395,-887.700012207031,0.355661966148675,-0.0294493483666929,0.201341475664909,DLL
11.0333333333333,-0.541319370269775,-1.81416761875153,9.26523494720459,1.98171997070312,0.762199997901917,0.205793991684914,-1229.10009765625,27.3000011444092,-902.100036621094,0.355570266047635,-0.0585776691512761,0.189920512203654,DLL
11.0666666666667,-0.506028950214386,-2.07077097892761,9.57268047332764,1.15854394435883,1.20427596569061,-0.0076219998300075,-1226.70007324219,28.5000019073486,-894.900024414062,0.359388916313095,-0.0536882423151309,0.210978061799697,DLL
11.1,-0.945065915584564,-1.92960917949677,8.92788219451904,0.495429992675781,0.907018005847931,-0.388722002506256,-1224.30004882812,24.3000011444092,-906.900024414062,0.36473546172752,-0.104382206385525,0.212095165065191,DLL
11.1333333333333,-1.33266258239746,-1.92542219161987,8.93685436248779,0.830797970294952,1.99696397781372,0.129574000835419,-1226.70007324219,26.7000007629395,-902.100036621094,0.367833704230363,-0.148049887547544,0.210834332448951,DLL
11.1666666666667,-1.3398402929306,-2.01155471801758,9.00982761383057,1.18140995502472,2.19513607025146,0.289635986089706,-1209.90002441406,27.9000015258789,-904.500061035156,0.371738550567484,-0.147979830842309,0.217623743043566,DLL
11.2,-1.77588653564453,-1.83091568946838,10.0637550354004,1.46342396736145,0.701223969459534,1.02897000312805,-1214.70007324219,30.9000015258789,-899.700012207031,0.36008867137782,-0.173347692551268,0.177259447629016,DLL
11.2333333333333,-1.67599666118622,-1.71966099739075,9.74315071105957,1.53202199935913,-0.708845973014832,0.983237981796265,-1224.30004882812,32.7000007629395,-906.900024414062,0.352551109557748,-0.166905440248125,0.171725603564526,DLL
11.2666666666667,-1.08802211284637,-1.69872605800629,8.78791618347168,0.975615978240967,-0.937505960464478,1.08994603157043,-1224.30004882812,23.1000003814697,-904.500061035156,0.346081304885068,-0.119888277801217,0.188917687699505,DLL
11.3,-0.776389598846436,-1.47621691226959,8.52353763580322,0.525918006896973,-0.868907988071442,1.31860601902008,-1217.10009765625,32.7000007629395,-906.900024414062,0.332924856126425,-0.0885238877626968,0.17041624198291,DLL
11.3333333333333,-1.01983380317688,-1.10058307647705,8.40271282196045,0.571649968624115,-0.617381989955902,1.34147191047668,-1214.70007324219,29.1000003814697,-899.700012207031,0.317834268629182,-0.118888870644718,0.129100350034245,DLL
11.3666666666667,-0.936691880226135,-1.4080286026001,8.86507701873779,0.3125019967556,0.0152439996600151,1.60061991214752,-1224.30004882812,24.3000011444092,-904.500061035156,0.308498967738298,-0.104490407662718,0.156576842028126,DLL
11.4,-0.639414846897125,-2.17963290214539,9.55114650726318,-0.967993974685669,-0.815553963184357,1.05183601379395,-1219.5,24.3000011444092,-911.700012207031,0.30319115745736,-0.0642765970941254,0.225783223267632,DLL
11.4333333333333,-1.04136693477631,-1.75973665714264,9.44527530670166,-0.663114011287689,-1.80641400814056,0.731711983680725,-1219.5,25.5000019073486,-911.700012207031,0.289868273735027,-0.105024626489331,0.185240660948016,DLL
11.4666666666667,-0.66633129119873,-1.94815170764923,8.76638317108154,0.297257989645004,-0.579271972179413,0.99848198890686,-1231.5,21.3000011444092,-904.500061035156,0.283627827552715,-0.07352893152452,0.217936558958009,DLL
11.5,-0.583787560462952,-1.81775653362274,9.17252254486084,0.891773998737335,0.0685980021953583,-0.0914639979600906,-1229.10009765625,20.7000007629395,-892.500061035156,0.283310387952976,-0.0624776327927022,0.194181619380006,DLL
11.5333333333333,-0.930112302303314,-1.52646088600159,9.15637302398682,1.20427596569061,0.3125019967556,-0.442075997591019,-1226.70007324219,24.9000015258789,-906.900024414062,0.285616063412193,-0.100138385177083,0.163288219053858,DLL
11.5666666666667,-0.631040811538696,-1.81955087184906,9.11330604553223,0.434453994035721,0.106707997620106,-0.518296003341675,-1207.5,26.1000003814697,-909.300048828125,0.292898525422206,-0.0679255080907028,0.196251166855909,DLL
11.6,-0.344530344009399,-2.24183988571167,9.03016471862793,-1.06708002090454,-0.914639949798584,-0.518296003341675,-1221.90002441406,29.7000007629395,-904.500061035156,0.297520384533227,-0.0353233154868628,0.245103815236593,DLL
11.6333333333333,-0.212340757250786,-1.90149652957916,8.21848487854004,-0.586893975734711,-0.67835795879364,-0.0228659994900227,-1209.90002441406,28.5000019073486,-909.300048828125,0.295787447219144,-0.024038215989439,0.228436018966529,DLL
11.6666666666667,-0.336754500865936,-1.58328449726105,8.67307281494141,0.975615978240967,0.693601965904236,-0.121951997280121,-1224.30004882812,25.5000019073486,-894.900024414062,0.296660680679092,-0.0392942686699902,0.178996455464839,DLL
11.7,-0.614890992641449,-1.68377244472504,8.92788219451904,1.55488801002502,0.967993974685669,-1.15092194080353,-1219.5,28.5000019073486,-897.300048828125,0.308573593152655,-0.0687830323926116,0.183835728574987,DLL
11.7333333333333,-0.355895072221756,-2.35488891601562,9.01281833648682,0.0304879993200302,0.342989981174469,-2.46952795982361,-1209.90002441406,28.5000019073486,-904.500061035156,0.333581682061876,-0.0377555968622642,0.255507431710707,DLL
11.7666666666667,0.608909547328949,-2.82742190361023,10.2270488739014,-1.35671591758728,0.304879993200302,-6.34150409698486,-1205.10009765625,20.1000003814697,-904.500061035156,0.388310312476627,0.0595877659001531,0.271431009532797,DLL
11.8,0.840988993644714,-2.88783431053162,10.3604345321655,0.198172003030777,0.518296003341675,-9.21499824523926,-1238.70007324219,27.3000011444092,-904.500061035156,0.460735151487267,0.0813762656205518,0.270217692865854,DLL
11.8333333333333,-0.173461467027664,-2.59354782104492,10.53688621521,1.95885396003723,1.28811800479889,-13.1174621582031,-1231.5,27.3000011444092,-906.900024414062,0.566795337935488,-0.012403238712013,0.238284648471246,DLL
11.8666666666667,-0.815867006778717,-2.50322842597961,10.7869100570679,3.29270386695862,2.58385801315308,-14.4208240509033,-1231.5,22.5,-902.100036621094,0.68542883717511,-0.0721160672181106,0.224147784997015,DLL
11.9,-0.385802209377289,-2.47092866897583,9.41357421875,3.52136397361755,2.34757590293884,-14.6342391967773,-1245.90002441406,22.5,-911.700012207031,0.806947590148854,-0.0373709914542973,0.2514261242703,DLL
11.9333333333333,-0.86192399263382,-1.93559062480927,8.61923980712891,3.86435389518738,2.41617393493652,-14.161675453186,-1236.30004882812,4.5,-923.700012207031,0.922340114059674,-0.0958303203510746,0.216665267416807,DLL
11.9666666666667,-0.97557121515274,-2.04026556015015,8.59830474853516,3.47563195228577,2.85824990272522,-12.774471282959,-1241.10009765625,14.1000003814697,-926.100036621094,1.04119753274555,-0.109709393771559,0.229399488719482,DLL
12.0,-1.59405100345612,-1.73162388801575,9.41417217254639,2.62959003448486,2.58385801315308,-11.1890954971313,-1233.90002441406,16.5,-916.500061035156,1.1291096990363,-0.165711226115131,0.180824327210068,DLL
12.0333333333333,-2.00138640403748,-1.23097825050354,10.2324314117432,2.62959003448486,2.25611186027527,-9.702805519104,-1231.5,11.7000007629395,-916.500061035156,1.20043036183666,-0.193583387444521,0.11874810651554,DLL
12.0666666666667,-1.61977112293243,-1.27284824848175,9.186279296875,2.70580983161926,2.21800184249878,-7.14943599700928,-1219.5,0.300000011920929,-921.300048828125,1.26958682195586,-0.175112502908756,0.135205680788453,DLL
12.1,-1.32309222221375,-1.49775004386902,8.82021617889404,2.09605002403259,2.76678586006165,-5.00765371322632,-1233.90002441406,5.10000038146973,-928.500061035156,1.32001448103505,-0.150242649232261,0.165864564319166,DLL
12.1333333333333,-1.72683870792389,-1.35658824443817,8.82320690155029,1.89787793159485,3.30032587051392,-4.2302098274231,-1226.70007324219,4.5,-921.300048828125,1.35980374593955,-0.195555133108797,0.150895300148176,DLL
12.1666666666667,-2.04206013679504,-1.07187223434448,9.73238468170166,1.6768399477005,3.55947399139404,-2.71343183517456,-1224.30004882812,6.30000019073486,-914.100036621094,1.3792965535204,-0.211227819050795,0.108048343176383,DLL
12.2,-1.53902184963226,-1.1095552444458,10.0009508132935,1.76830399036407,2.03507399559021,-1.6692179441452,-1207.5,0.300000011920929,-921.300048828125,1.39710028363575,-0.155158430019028,0.107924885676773,DLL
12.2333333333333,-1.58388257026672,-1.48160016536713,9.41895771026611,1.52439999580383,0.426831990480423,-1.03659200668335,-1214.70007324219,-0.900000035762787,-935.700012207031,1.41500935591103,-0.165039505809116,0.153508502921019,DLL
12.2666666666667,-1.54739582538605,-1.71547400951385,10.1893653869629,0.67835795879364,-0.0990860015153885,-0.792688012123108,-1202.70007324219,1.5,-938.100036621094,1.42385408169812,-0.148314856829306,0.16576605558543,DLL
12.3,-0.707004964351654,-1.72205364704132,9.65761661529541,0.289635986089706,-1.40244793891907,-0.564027965068817,-1217.10009765625,-3.30000019073486,-935.700012207031,1.42767728452819,-0.0696541731895516,0.175951685785331,DLL
12.3333333333333,-0.489280939102173,-1.39845824241638,8.45116233825684,0.853663980960846,-1.54726600646973,-0.327746003866196,-1209.90002441406,0.300000011920929,-933.300048828125,1.42785248368038,-0.0543358536350592,0.162538354795599,DLL
12.3666666666667,-0.0550291538238525,-1.55158281326294,8.57677173614502,1.22714197635651,-0.426831990480423,0.449698001146317,-1217.10009765625,2.70000004768372,-930.900024414062,1.42427497568543,-0.005896645584158,0.176769333538187,DLL
12.4,0.0203368607908487,-1.4080286026001,8.89498424530029,1.21189796924591,-0.990859985351562,0.144817993044853,-1219.5,5.70000028610229,-926.100036621094,1.42181290256093,0.0038915583957138,0.154959186981787,DLL
12.4333333333333,-0.765622973442078,-0.939682602882385,8.41826438903809,1.91312193870544,-0.701223969459534,1.09756803512573,-1214.70007324219,-6.30000019073486,-923.700012207031,1.41094339009486,-0.0889093099013061,0.107759938973061,DLL
12.4666666666667,-0.742295444011688,-0.745884299278259,9.59720420837402,1.90549993515015,-0.25152599811554,1.29574000835419,-1226.70007324219,-0.900000035762787,-928.500061035156,1.39883627277948,-0.0767366940616422,0.0741842977487549,DLL
12.5,-0.859531462192535,-0.153722748160362,10.0021467208862,2.15702605247498,-1.42531394958496,1.12805593013763,-1214.70007324219,-2.10000014305115,-921.300048828125,1.38567204371775,-0.0832329200718148,0.0116224195982218,DLL
12.5333333333333,-0.366063505411148,-0.0795530155301094,10.4017066955566,1.95885396003723,-0.99848198890686,1.57013201713562,-1221.90002441406,0.300000011920929,-923.700012207031,1.37323676226469,-0.0336290293378772,0.0041613191312055,ST
12.5666666666667,-0.703416109085083,0.158507883548737,11.2289381027222,2.0731840133667,-1.52439999580383,1.79879200458527,-1209.90002441406,-3.90000009536743,-918.900024414062,1.35879152771959,-0.0597445610198739,-0.0178364731681655,ST
12.6,-0.779380261898041,-0.0927121639251709,9.99915599822998,2.12653803825378,-1.34909391403198,1.46342396736145,-1212.30004882812,-2.70000004768372,-926.100036621094,1.34981152216179,-0.0753849455623998,0.0052810790337389,ST
12.6333333333333,-1.34881234169006,-0.36725977063179,9.07502555847168,1.48628997802734,1.73019397258759,0.655492007732391,-1207.5,0.300000011920929,-914.100036621094,1.35024359497946,-0.150214815251027,0.0375789087468886,ST
12.6666666666667,-1.5180869102478,-0.64838695526123,8.90515232086182,0.899396002292633,2.59910202026367,-0.388722002506256,-1219.5,-8.70000076293945,-938.100036621094,1.36162075534807,-0.172835272040275,0.0712060557539123,ST
12.7,-1.05691862106323,-0.661546111106873,8.28427982330322,0.175305992364883,0.853663980960846,-2.22562384605408,-1214.70007324219,0.900000035762787,-935.700012207031,1.38192006996073,-0.127807732160182,0.0798706142730563,ST
12.7333333333333,-1.2058562040329,-0.594554126262665,8.11680030822754,-0.106707997620106,-1.06708002090454,-2.66770005226135,-1209.90002441406,-5.70000028610229,-921.300048828125,1.40158855010664,-0.144830891463317,0.0739833072533231,ST
12.7666666666667,-1.57191967964172,-0.599937379360199,8.2741117477417,-0.670735955238342,-1.98171997070312,-2.14940404891968,-1224.30004882812,-0.300000011920929,-935.700012207031,1.41743151860936,-0.183442551554824,0.0741973150118009,ST
12.8,-1.48040390014648,-0.919943869113922,10.0141096115112,-1.57775402069092,-1.95885396003723,-0.990859985351562,-1217.10009765625,0.300000011920929,-928.500061035156,1.42526731923462,-0.142746596963713,0.0944902706524796,ST
12.8333333333333,-0.786558032035828,-1.66164112091064,10.6708707809448,-1.89787793159485,-1.6844619512558,-0.602137982845306,-1205.10009765625,-3.30000019073486,-923.700012207031,1.4335052203974,-0.0699069777203898,0.157599383338127,ST
12.8666666666667,-0.771604418754578,-1.69394087791443,10.0595684051514,-1.76830399036407,-0.67835795879364,-0.92988395690918,-1231.5,6.30000019073486,-916.500061035156,1.43981702372291,-0.0740388724269878,0.169970596896608,ST
12.9,-0.780576586723328,-1.86620604991913,9.88969612121582,-1.02897000312805,0.78506600856781,-0.777444005012512,-1221.90002441406,-5.10000038146973,-928.500061035156,1.44828227941736,-0.0784861491173077,0.188385146482346,ST
12.9333333333333,-1.1735565662384,-1.70769822597504,9.45424747467041,-0.167683988809586,0.754577994346619,-0.6250039935112,-1212.30004882812,5.10000038146973,-930.900024414062,1.45374907808726,-0.122567066868036,0.17917185783717,ST
12.9666666666667,-1.08084440231323,-1.49176859855652,9.44587421417236,0.46494197845459,0.350611984729767,-0.0838419944047928,-1214.70007324219,-0.300000011920929,-935.700012207031,1.4525603958643,-0.113163074933717,0.155935799554061,ST
13.0,-1.10477006435394,-1.43793570995331,9.28497314453125,0.891773998737335,-0.457319974899292,0.670735955238342,-1217.10009765625,-6.90000009536743,-928.500061035156,1.4470670438881,-0.116422065458079,0.151955108570634,ST
13.0333333333333,-1.11194777488708,-0.979160070419312,9.2108039855957,1.40244793891907,-0.594515979290009,0.899396002292633,-1231.5,0.900000035762787,-938.100036621094,1.43462352884164,-0.11860035228266,0.103377958694468,ST
13.0666666666667,-0.991721034049988,-0.620274245738983,9.28138446807861,1.94360995292664,-0.655492007732391,1.59299790859222,-1217.10009765625,-0.300000011920929,-940.500061035156,1.41800874580005,-0.105279477940707,0.063133392421181,ST
13.1,-0.762632310390472,-0.439635097980499,9.64924240112305,1.95123195648193,-0.830797970294952,2.61434602737427,-1221.90002441406,-5.70000028610229,-928.500061035156,1.39607521443401,-0.0776361552808971,0.0418406535415899,ST
13.1333333333333,-0.476121813058853,-0.493467956781387,9.35734844207764,1.6920839548111,-1.15092194080353,2.65245604515076,-1219.5,-8.10000038146973,-918.900024414062,1.37552926551738,-0.0490949675651792,0.049470966342862,ST
13.1666666666667,-0.20755560696125,-0.455186814069748,9.08878231048584,1.36433792114258,-0.868907988071442,1.79117000102997,-1231.5,-9.30000019073486,-930.900024414062,1.36100408133751,-0.0215394052637824,0.0475955640613497,ST
13.2,-0.693845868110657,0.0466551519930363,9.67675685882568,1.85214591026306,0.0762199983000755,1.41006994247437,-1233.90002441406,-3.90000009536743,-918.900024414062,1.34703298163235,-0.0715971240241434,-0.0081209978541125,ST
13.2333333333333,-0.150732025504112,0.0269164331257343,9.19345760345459,1.69970595836639,-0.25152599811554,1.21951997280121,-1226.70007324219,-9.30000019073486,-930.900024414062,1.33769312285164,-0.0161466380168184,-0.0059389167482728,ST
13.2666666666667,0.222509190440178,-0.264977335929871,9.5625114440918,0.670735955238342,-1.18903195858002,0.853663980960846,-1212.30004882812,-0.300000011920929,-928.500061035156,1.32972690239117,0.0252113368294558,0.0265076432655439,ST
13.3,0.430662930011749,-0.368456065654755,9.25147724151611,0.0304879993200302,-1.73781597614288,0.320124000310898,-1217.10009765625,-0.900000035762787,-930.900024414062,1.32593731745474,0.0494306072407898,0.0397539107806425,ST
13.3333333333333,0.215331465005875,-0.24882747232914,9.80954456329346,0.0152439996600151,-1.02134799957275,0.823175966739655,-1214.70007324219,-0.900000035762787,-918.900024414062,1.31959081841953,0.0237802231279892,0.0254225328386552,ST
13.3666666666667,-0.268566191196442,-0.111254595220089,9.77604866027832,0.46494197845459,-0.137196004390717,1.79879200458527,-1229.10009765625,-4.5,-921.300048828125,1.30510645157186,-0.0270705259245013,0.010541150273015,ST
13.4,-0.418101936578751,-0.134582161903381,9.52303409576416,0.266770005226135,1.12805593013763,2.61434602737427,-1219.5,-0.900000035762787,-918.900024414062,1.28371941080883,-0.0458456292756806,0.0134504326383779,ST
13.4333333333333,-0.891831159591675,-0.479112505912781,9.37589073181152,-0.304879993200302,1.89787793159485,2.34757590293884,-1229.10009765625,2.70000004768372,-928.500061035156,1.26802117747072,-0.0980339059468026,0.0510672388245722,ST
13.4666666666667,-1.41281366348267,-0.552085936069489,9.38905048370361,-0.556405961513519,1.70732796192169,1.28049600124359,-1212.30004882812,-0.900000035762787,-923.700012207031,1.25778705041096,-0.152123415450851,0.0593774598134353,ST
13.5,-2.1012761592865,-0.263781040906906,10.2521705627441,-0.0533539988100529,1.03659200668335,0.92988395690918,-1209.90002441406,1.5,-923.700012207031,1.24463939064935,-0.203755526744144,0.0256183263646582,ST
13.5333333333333,-1.48698341846466,-0.2105463296175,9.85320949554443,-0.0152439996600151,0.503051996231079,1.32622802257538,-1224.30004882812,-2.70000004768372,-933.300048828125,1.23334986038464,-0.150871048116504,0.0210569507744012,ST
13.5666666666667,-0.799118995666504,0.198583468794823,10.3060035705566,0.701223969459534,0.0838419944047928,1.99696397781372,-1231.5,-2.10000014305115,-930.900024414062,1.21307345360249,-0.0777168051408772,-0.0206144123687306,ST
13.6,-0.293090045452118,0.061608724296093,9.02179050445557,1.13567793369293,0.396344006061554,1.77592599391937,-1214.70007324219,-1.5,-928.500061035156,1.19933989066782,-0.0332706457774657,-0.0089510725056251,ST
13.6333333333333,-0.398961365222931,-0.0496458671987057,8.49303245544434,0.990859985351562,1.49391198158264,0.914639949798584,-1221.90002441406,-6.90000009536743,-916.500061035156,1.19288987360034,-0.049493509990456,0.0039904564565,ST
13.6666666666667,-1.11374223232269,0.38939106464386,8.9954719543457,1.03659200668335,1.92074394226074,0.0381099991500378,-1214.70007324219,-9.30000019073486,-921.300048828125,1.18867571203889,-0.126187617840273,-0.044949169251117,ST
13.7,-1.93798327445984,0.432457357645035,9.25267314910889,0.861285984516144,1.28049600124359,-0.0685980021953583,-1226.70007324219,3.30000019073486,-928.500061035156,1.18964934284458,-0.208326338129502,-0.0481987605133774,ST
13.7333333333333,-2.05342483520508,0.241649761795998,10.3478736877441,0.266770005226135,0.777444005012512,-0.167683988809586,-1207.5,-3.30000019073486,-921.300048828125,1.19612608788395,-0.197247142173924,-0.0238513268885056,ST
13.7666666666667,-1.63771545886993,0.167480036616325,10.194748878479,-0.342989981174469,-1.28049600124359,-0.92988395690918,-1221.90002441406,-2.10000014305115,-928.500061035156,1.20469679650061,-0.157199748812067,-0.0155940489483355,ST
13.8,-1.1556122303009,-0.276342064142227,8.97094821929932,-0.564027965068817,-1.13567793369293,-1.41006994247437,-1207.5,4.5,-930.900024414062,1.22187009115857,-0.126109386061839,0.0319096112783718,ST
13.8333333333333,-1.02940404415131,-0.451597929000854,9.04212760925293,-1.11281192302704,-0.266770005226135,-1.76830399036407,-1197.90002441406,-0.300000011920929,-926.100036621094,1.23728429436126,-0.112642757515487,0.0521168377965285,ST
13.8666666666667,-1.6084064245224,-0.215929612517357,10.0254745483398,-0.297257989645004,-0.106707997620106,-0.594515979290009,-1207.5,-1.5,-928.500061035156,1.23761364123517,-0.158660679607326,0.0223287782057205,ST
13.9,-1.06888151168823,-0.323595345020294,9.19585037231445,0.0685980021953583,-0.106707997620106,-0.365855991840363,-1202.70007324219,-4.5,-935.700012207031,1.2425963462576,-0.115520203997577,0.0351040005364478,ST
13.9333333333333,-0.754856407642365,-0.462962657213211,8.65273666381836,0.152439996600151,0.342989981174469,-0.297257989645004,-1202.70007324219,-1.5,-933.300048828125,1.24706186892746,-0.0875686310756152,0.0531698819283821,ST
13.9666666666667,-1.0455539226532,-0.687864422798157,9.45424747467041,-0.411587983369827,0.114329993724823,-0.792688012123108,-1214.70007324219,-2.10000014305115,-918.900024414062,1.25511424520685,-0.109871119361091,0.0734258796952834,ST
14.0,-0.760837852954865,-0.573020994663239,9.68572902679443,-1.02134799957275,-1.03659200668335,-1.15854394435883,-1217.10009765625,2.10000014305115,-928.500061035156,1.26203652930103,-0.0764490669975231,0.0610680657253957,ST
14.0333333333333,-0.0155517170205712,-0.41750380396843,9.69888782501221,-0.708845973014832,-1.61586391925812,-0.6250039935112,-1212.30004882812,-0.300000011920929,-940.500061035156,1.26586053288219,0.0010324848334811,0.044307342671537,ST
14.0666666666667,-0.287706762552261,-0.607115089893341,9.98958587646484,-0.0838419944047928,-1.2423859834671,-0.0304879993200302,-1214.70007324219,2.10000014305115,-938.100036621094,1.26572819155789,-0.0264706763372928,0.0607836511269866,ST
14.1,-0.458775669336319,-0.641209244728088,9.64864444732666,0.37347799539566,-0.0381099991500378,-0.152439996600151,-1214.70007324219,-0.900000035762787,-935.700012207031,1.26724398818327,-0.0472475833201155,0.0657005514778267,ST
14.1333333333333,-1.09998488426208,-0.665134966373444,9.98121166229248,0.0076219998300075,0.381099998950958,-0.403965979814529,-1212.30004882812,0.300000011920929,-938.100036621094,1.27117648933418,-0.110040685011575,0.0666077458613709,ST
14.1666666666667,-1.27823150157928,-0.768015563488007,9.77126312255859,-0.282013982534409,0.503051996231079,-0.403965979814529,-1217.10009765625,-0.900000035762787,-933.300048828125,1.27590417272018,-0.130425917336479,0.0789855176762594,ST
14.2,-1.24593186378479,-0.805100440979004,8.82918834686279,-0.350611984729767,0.830797970294952,-0.228659987449646,-1197.90002441406,-1.5,-930.900024414062,1.27962428323678,-0.14098640672757,0.0915751841664299,ST
14.2333333333333,-1.66702449321747,-0.851755619049072,9.234130859375,-0.0685980021953583,0.990859985351562,0.0685980021953583,-1193.10009765625,-2.10000014305115,-926.100036621094,1.27979539707337,-0.179456906508716,0.0921045714368183,ST
14.2666666666667,-2.13237977027893,-0.840390861034393,10.0374374389648,-0.0,0.564027965068817,0.0228659994900227,-1205.10009765625,-4.5,-930.900024414062,1.27834639135937,-0.209495227622557,0.0835714509174353,ST
14.3,-1.69453907012939,-1.00667464733124,9.84842395782471,-0.152439996600151,-1.08232402801514,-0.0304879993200302,-1205.10009765625,1.5,-945.300048828125,1.2809225440736,-0.167723513444895,0.102069868041793,ST
14.3333333333333,-0.939682602882385,-1.22798752784729,9.31129169464111,-0.556405961513519,-2.10367202758789,-0.114329993724823,-1197.90002441406,-0.900000035762787,-923.700012207031,1.28310604953107,-0.0962679393938144,0.131979700440414,ST
14.3666666666667,-0.829026162624359,-1.12151801586151,8.68563365936279,-0.411587983369827,-1.05945801734924,0.0228659994900227,-1217.10009765625,-2.70000004768372,-928.500061035156,1.2812443252172,-0.0925659671021953,0.129116043083082,ST
14.4,-1.33026993274689,-1.17714536190033,9.40041446685791,0.0685980021953583,0.297257989645004,0.708845973014832,-1214.70007324219,3.90000009536743,-911.700012207031,1.27543099489522,-0.139996648114704,0.124309496622567,ST
14.4333333333333,-1.43973016738892,-1.48698341846466,9.56430625915527,0.602137982845306,0.327746003866196,1.12805593013763,-1193.10009765625,0.900000035762787,-928.500061035156,1.27101755909604,-0.14851029940814,0.152853300259865,ST
14.4666666666667,-1.57191967964172,-1.23396897315979,9.34897422790527,0.762199997901917,0.0609759986400604,1.05945801734924,-1200.30004882812,2.70000004768372,-933.300048828125,1.25964700446309,-0.16547835276034,0.129653431731943,ST
14.5,-1.67958545684814,-0.837998330593109,10.3771820068359,1.42531394958496,-0.182927995920181,1.84452390670776,-1221.90002441406,3.30000019073486,-923.700012207031,1.23713591302526,-0.159895389340611,0.0776700131432512,ST
14.5333333333333,-1.12929391860962,-0.671116411685944,9.22097206115723,1.97409796714783,-0.487807989120483,2.40855193138123,-1214.70007324219,-3.30000019073486,-928.500061035156,1.21684421584278,-0.121060475740293,0.0687059645079631,ST
14.5666666666667,-0.935495615005493,-0.422887086868286,8.96496677398682,1.85214591026306,0.739333987236023,2.62196803092957,-1193.10009765625,0.900000035762787,-933.300048828125,1.19374282043185,-0.105387061402945,0.043486044272755,ST
14.6,-1.40384149551392,-0.0723752975463867,9.25446796417236,1.73019397258759,0.701223969459534,2.66770005226135,-1214.70007324219,-2.10000014305115,-930.900024414062,1.16770154374798,-0.15169782706845,0.0041691220054788,ST
14.6333333333333,-1.1418548822403,-0.147143170237541,9.50808048248291,1.44055795669556,-0.0990860015153885,2.84300589561462,-1217.10009765625,-0.300000011920929,-926.100036621094,1.14751258430859,-0.119512945991426,0.0123313977634856,ST
14.6666666666667,-1.12570512294769,-0.0502440109848976,9.26463603973389,1.20427596569061,-1.05945801734924,2.22562384605408,-1212.30004882812,-1.5,-921.300048828125,1.12815831744499,-0.119074774002459,0.0028736778359369,ST
14.7,-1.22559499740601,-0.0885251611471176,9.30531024932861,0.914639949798584,-1.6768399477005,1.38720393180847,-1221.90002441406,-4.5,-921.300048828125,1.11848002938634,-0.128008505630159,0.0075845753150733,ST
14.7333333333333,-0.516795516014099,-0.524571359157562,10.3012180328369,0.0381099991500378,-2.10367202758789,1.11281192302704,-1197.90002441406,-0.300000011920929,-930.900024414062,1.11230905855162,-0.0467341471441218,0.0505830205042338,ST
14.7666666666667,0.472532957792282,-0.401952087879181,9.88849925994873,0.0533539988100529,-2.94971394538879,0.975615978240967,-1212.30004882812,2.10000014305115,-926.100036621094,1.10264752831491,0.052592480242253,0.0406506570797841,ST
14.8,0.441429525613785,-0.365465342998505,9.45364952087402,0.579271972179413,-1.10518991947174,1.59299790859222,-1200.30004882812,2.10000014305115,-921.300048828125,1.08939782480371,0.048463020427347,0.0377775262500114,ST
14.8333333333333,0.034094151109457,-0.28411790728569,8.88541412353516,1.04421401023865,1.08994603157043,2.56099200248718,-1212.30004882812,-2.70000004768372,-923.700012207031,1.069122824444,0.0019691685684599,0.0301828114788082,ST
14.8666666666667,-0.933103024959564,-0.0083740018308162,9.10672664642334,1.2423859834671,1.57775402069092,2.90398192405701,-1226.70007324219,-4.5,-935.700012207031,1.04502583288288,-0.104463219902121,-0.0016522235175358,ST
14.9,-1.71487593650818,0.189611315727234,10.5321016311646,1.27287399768829,1.2423859834671,3.04117798805237,-1214.70007324219,-2.70000004768372,-926.100036621094,1.01956582134245,-0.163224102157473,-0.0210259141515347,ST
14.9333333333333,-1.41101932525635,0.352306216955185,10.474081993103,1.22714197635651,0.525918006896973,2.99544596672058,-1209.90002441406,-1.5,-923.700012207031,0.994617967176264,-0.134668175619452,-0.0364233396775911,ST
14.9666666666667,-0.491075366735458,0.385204076766968,8.82559967041016,1.61586391925812,2.29422187805176,2.16464805603027,-1207.5,0.300000011920929,-923.700012207031,0.974801576820068,-0.0595017722278138,-0.0466575526933318,ST
15.0,-0.932504892349243,0.637620389461517,9.95309925079346,1.56251001358032,4.25307607650757,1.06708002090454,-1207.5,-1.5,-933.300048828125,0.963654829156186,-0.100359928022794,-0.0668609569816459,ST
15.0333333333333,-2.42008638381958,0.95463615655899,10.1415138244629,1.81403601169586,2.98020195960999,0.236281991004944,-1200.30004882812,-9.90000057220459,-928.500061035156,0.95760083059541,-0.23788566844765,-0.0971243334202927,ST
15.0666666666667,-2.92551732063293,0.890036761760712,9.3238525390625,1.40244793891907,1.60061991214752,0.0762199983000755,-1200.30004882812,-3.30000019073486,-935.700012207031,0.95908475580309,-0.305408575364073,-0.0977423311587756,ST
15.1,-2.69882106781006,1.02701151371002,8.61804389953613,0.282013982534409,-0.0838419944047928,0.0457319989800453,-1178.70007324219,-0.300000011920929,-935.700012207031,0.953121447286984,-0.301340905059768,-0.119043569655458,ST
15.1333333333333,-2.15989422798157,1.25909090042114,8.20532512664795,-0.388722002506256,-0.87652999162674,-0.518296003341675,-1200.30004882812,-4.5,-914.100036621094,0.948476781046431,-0.253342603126125,-0.151172921188505,ST
15.1666666666667,-1.92003893852234,1.17594909667969,8.82380485534668,-0.205793991684914,-0.640248000621796,-0.510673999786377,-1205.10009765625,-9.30000019073486,-935.700012207031,0.957202843140998,-0.211599994204459,-0.13197813093969,ST
15.2,-1.63592100143433,0.643601834774017,9.53738975524902,-0.236281991004944,-0.724089980125427,-1.2347639799118,-1190.70007324219,-2.10000014305115,-933.300048828125,0.979415647747428,-0.168541515532919,-0.0668238891882014,ST
15.2333333333333,-1.32369041442871,0.804502308368683,9.50688457489014,-0.320124000310898,-0.884151995182037,-2.04269599914551,-1188.30004882812,-0.900000035762787,-926.100036621094,0.99335189858152,-0.136734355115037,-0.0832939184096212,ST
15.2666666666667,-1.22499680519104,0.659751713275909,9.56550216674805,-0.274392008781433,-0.571649968624115,-2.39330792427063,-1185.90002441406,6.30000019073486,-935.700012207031,1.01449774339675,-0.126399548277809,-0.0679016152377639,ST
15.3,-0.86192399263382,0.430064797401428,8.91292858123779,-0.388722002506256,0.0838419944047928,-3.3613018989563,-1200.30004882812,3.30000019073486,-938.100036621094,1.04579961616836,-0.0967746462414633,-0.0470061855121756,ST
15.3333333333333,-1.17714536190033,0.275145769119263,8.71554088592529,-0.320124000310898,0.952749967575073,-3.58996200561523,-1193.10009765625,0.900000035762787,-935.700012207031,1.07584392641052,-0.135893105335228,-0.0302179198711043,ST
15.3666666666667,-1.78605496883392,0.0155517170205712,9.24908447265625,-0.419209986925125,1.57013201713562,-3.45276594161987,-1193.10009765625,-12.3000001907349,-933.300048828125,1.10749741642362,-0.193288928847098,0.0001092873224678,ST
15.4,-1.95233869552612,0.0663938671350479,10.5003995895386,-0.754577994346619,0.282013982534409,-2.9192259311676,-1190.70007324219,-6.30000019073486,-938.100036621094,1.12870926238362,-0.184372936093985,-0.0040400778427581,ST
15.4333333333333,-1.33086812496185,-0.145348742604256,9.64086818695068,-0.708845973014832,-0.579271972179413,-2.19513607025146,-1190.70007324219,-2.10000014305115,-933.300048828125,1.14915276068436,-0.136232242154188,0.0167763943072267,ST
15.4666666666667,-1.26925933361053,-0.462962657213211,8.96855545043945,-0.937505960464478,0.403965979814529,-1.93598794937134,-1190.70007324219,-4.5,-930.900024414062,1.16876411038551,-0.140913757209894,0.0535587472878681,ST
15.5,-1.20346367359161,-0.701023578643799,9.69470119476318,-1.48628997802734,1.08994603157043,-2.27135586738586,-1181.10009765625,-2.10000014305115,-921.300048828125,1.18882847917442,-0.124846575469009,0.0752131888482195,ST
15.5333333333333,-1.21363210678101,-0.760239720344543,9.67257022857666,-1.265251994133,-0.37347799539566,-2.34757590293884,-1190.70007324219,-3.30000019073486,-928.500061035156,1.20782642494704,-0.123461675120863,0.0811308945366178,ST
15.5666666666667,-1.0395724773407,-0.794333875179291,8.51396751403809,-0.762199997901917,-0.586893975734711,-2.0731840133667,-1181.10009765625,2.70000004768372,-935.700012207031,1.22529324125024,-0.119630612119984,0.0947399085990382,ST
15.6,-1.85185062885284,-0.830222427845001,9.76408576965332,0.0685980021953583,0.213415995240211,-1.05945801734924,-1190.70007324219,2.70000004768372,-930.900024414062,1.23270729134682,-0.186787711909418,0.085085717303085,ST
15.6333333333333,-2.29746723175049,-0.808091163635254,10.1199808120728,1.02897000312805,0.594515979290009,-0.586893975734711,-1176.30004882812,-9.30000019073486,-935.700012207031,1.2380526918917,-0.223373366526034,0.0781614615804184,ST
15.6666666666667,-2.59713673591614,-0.793137550354004,9.7898063659668,1.09756803512573,0.891773998737335,-0.823175966739655,-1181.10009765625,-4.5,-938.100036621094,1.24749768100177,-0.25981040109296,0.079332692161026,ST
15.7,-2.65575480461121,-0.82663357257843,9.66778469085693,0.586893975734711,0.6250039935112,-0.945127964019775,-1176.30004882812,-7.50000047683716,-933.300048828125,1.25815526220136,-0.268082584299828,0.0847327287280231,ST
15.7333333333333,-2.72334504127502,-0.798520863056183,9.35136699676514,0.152439996600151,0.106707997620106,-0.83841997385025,-1176.30004882812,-4.5,-930.900024414062,1.26520476253055,-0.282420566335008,0.0853431235169261,ST
15.7666666666667,-2.55646300315857,-0.757248997688293,9.32744121551514,-0.0,-0.289635986089706,-0.449698001146317,-1178.70007324219,2.70000004768372,-930.900024414062,1.26738812365912,-0.266166663355934,0.0812248691288697,ST
15.8,-2.02112507820129,-0.939084470272064,9.21798133850098,-0.0,-1.10518991947174,0.403965979814529,-1171.5,-0.900000035762787,-928.500061035156,1.26802382886047,-0.213076370271718,0.101271103371545,ST
15.8333333333333,-1.89730954170227,-0.943271458148956,9.39981651306152,0.3125019967556,-1.55488801002502,1.08232402801514,-1171.5,0.300000011920929,-918.900024414062,1.25749682605287,-0.19571992281288,0.0990472789586504,ST
15.8666666666667,-1.63950991630554,-0.820053994655609,9.27899169921875,0.609759986400604,-1.06708002090454,1.54726600646973,-1183.5,-7.50000047683716,-933.300048828125,1.24310234631709,-0.172683973176875,0.0866308017507877,ST
15.9,-1.50732028484344,-0.702817976474762,9.66300010681152,0.503051996231079,-1.12043392658234,1.80641400814056,-1181.10009765625,-6.90000009536743,-940.500061035156,1.22623399264338,-0.152689145150162,0.0712764710385472,ST
15.9333333333333,-1.31950342655182,-0.61249840259552,8.87345123291016,0.480185985565186,-1.16616594791412,2.26373386383057,-1195.5,-0.300000011920929,-940.500061035156,1.20758470398617,-0.145537663093376,0.0674936973389862,ST
15.9666666666667,-1.37692511081696,-0.512010395526886,9.01640701293945,0.891773998737335,-0.46494197845459,2.60672402381897,-1188.30004882812,-4.5,-928.500061035156,1.18577214578877,-0.150722348413653,0.0545205590552292,ST
16.0,-1.44391715526581,-0.336754500865936,9.21558856964111,1.05945801734924,-0.518296003341675,2.46190595626831,-1185.90002441406,-3.30000019073486,-914.100036621094,1.16252191009767,-0.154552589334614,0.0340421984325023,ST
16.0333333333333,-1.63532292842865,-0.191405743360519,9.35495567321777,1.38720393180847,-0.548784017562866,2.37806391716003,-1185.90002441406,-7.50000047683716,-933.300048828125,1.14113324987756,-0.172105932512811,0.0173448428110454,ST
16.0666666666667,-2.05641555786133,0.184228032827377,9.27181434631348,2.04269599914551,0.0,2.36281991004944,-1190.70007324219,-9.30000019073486,-935.700012207031,1.11784319204017,-0.217953789175951,-0.0241882203741605,ST
16.1,-2.25858783721924,0.10527316480875,9.77485275268555,1.93598794937134,0.335367977619171,2.27897787094116,-1193.10009765625,-7.50000047683716,-923.700012207031,1.10538467940374,-0.227554561270152,-0.0151037132043177,ST
16.1333333333333,-1.79442894458771,0.0071777156554162,9.50568771362305,1.30336201190948,-0.564027965068817,1.73019397258759,-1195.5,-3.90000009536743,-935.700012207031,1.09539755868247,-0.185684236653695,-0.0036257738230454,ST
16.1666666666667,-1.93140363693237,0.571824669837952,9.09356784820557,1.10518991947174,-0.716467976570129,1.06708002090454,-1195.5,-12.9000005722046,-938.100036621094,1.07670892015387,-0.207462968864855,-0.0649545469554562,ST
16.2,-1.47621691226959,0.196789041161537,9.3717041015625,0.25152599811554,-1.2423859834671,1.44055795669556,-1188.30004882812,-6.30000019073486,-918.900024414062,1.0736305407328,-0.15417271436568,-0.0219768794572189,ST
16.2333333333333,-0.654966533184052,-0.147741317749023,8.57437992095947,-1.19665396213531,-3.15550804138184,0.419209986925125,-1195.5,-0.900000035762787,-933.300048828125,1.07376642430282,-0.0710407659318959,0.0191067308735595,ST
16.2666666666667,-0.279332756996155,-0.219518467783928,8.37818813323975,-1.47104597091675,-3.16313004493713,-0.304879993200302,-1185.90002441406,-3.30000019073486,-930.900024414062,1.07570550890725,-0.0278667768574191,0.0287549533631162,ST
16.3,-0.489280939102173,-0.309838056564331,9.00265026092529,-0.236281991004944,-2.0579400062561,-0.0914639979600906,-1214.70007324219,-2.10000014305115,-930.900024414062,1.07604046080561,-0.0506130892291981,0.0348023605737355,ST
16.3333333333333,-1.02521705627441,-0.119628593325615,9.66778469085693,0.701223969459534,-1.93598794937134,-0.198172003030777,-1205.10009765625,-0.900000035762787,-923.700012207031,1.07627409194429,-0.102159173778822,0.0112262817603772,ST
16.3666666666667,-1.08323693275452,0.0586180128157139,10.8407430648804,0.396344006061554,-2.26373386383057,-0.350611984729767,-1219.5,-0.900000035762787,-945.300048828125,1.07774089680455,-0.0956672729498781,-0.0059746505095616,ST
16.4,-0.816465139389038,0.0598142966628075,10.3610324859619,-0.152439996600151,-2.77440786361694,-0.426831990480423,-1209.90002441406,-2.10000014305115,-926.100036621094,1.08124379764054,-0.0738799258310067,-0.0054513022000677,ST
16.4333333333333,-1.02043187618256,0.739304721355438,10.3113870620728,-0.769822001457214,-1.6920839548111,-2.10367202758789,-1221.90002441406,-1.5,-923.700012207031,1.09493913734101,-0.0956636122642188,-0.0697603589368644,ST
16.4666666666667,-1.3781213760376,0.39836323261261,9.94592094421387,-0.861285984516144,-1.10518991947174,-1.98171997070312,-1219.5,-6.30000019073486,-909.300048828125,1.11393145917752,-0.13563501503975,-0.0381659187229412,ST
16.5,-1.34941053390503,-0.422887086868286,9.24968338012695,-1.48628997802734,-0.564027965068817,-0.480185985565186,-1209.90002441406,-1.5,-923.700012207031,1.12807370613489,-0.143675428161322,0.048187216711699,ST
16.5333333333333,-1.19568777084351,-0.578404247760773,9.63548469543457,-1.64635193347931,-0.335367977619171,-0.304879993200302,-1217.10009765625,3.30000019073486,-933.300048828125,1.13060975126341,-0.122701726233887,0.0628373734565197,ST
16.5666666666667,-0.816465139389038,-0.596348524093628,9.15338230133057,-1.00610399246216,-0.320124000310898,-0.0762199983000755,-1212.30004882812,-0.300000011920929,-926.100036621094,1.13069453171914,-0.0883360028281879,0.066808532559618,ST
16.6,-0.812278151512146,-0.632835268974304,9.01879978179932,-0.228659987449646,0.0228659994900227,0.221037998795509,-1219.5,-4.5,-938.100036621094,1.12909145247185,-0.0896655388903797,0.0704051261609425,ST
16.6333333333333,-0.601133704185486,-0.821848452091217,9.33222675323486,-0.46494197845459,-0.205793991684914,-0.426831990480423,-1221.90002441406,-0.300000011920929,-928.500061035156,1.133509337217,-0.0637508126456544,0.0886290812094478,ST
16.6666666666667,-0.712986409664154,-1.05691862106323,9.77066516876221,-0.792688012123108,-0.525918006896973,-0.480185985565186,-1212.30004882812,-3.30000019073486,-926.100036621094,1.1378457974771,-0.071390521331462,0.109113978750101,ST
16.7,-0.697434723377228,-1.00248765945435,9.01281833648682,-0.754577994346619,0.0762199983000755,-0.594515979290009,-1233.90002441406,-0.300000011920929,-918.900024414062,1.1424299299325,-0.0767535451608754,0.112159862834576,ST
16.7333333333333,-0.903794050216675,-1.04375946521759,9.56968975067139,-0.426831990480423,0.647870004177094,-0.228659987449646,-1219.5,-1.5,-930.900024414062,1.14446911523055,-0.0946578979579347,0.109439335155387,ST
16.7666666666667,-0.936691880226135,-1.16697692871094,10.2168798446655,0.342989981174469,0.37347799539566,0.137196004390717,-1212.30004882812,-3.30000019073486,-942.900024414062,1.14430552816017,-0.0915241472613646,0.113100438407875,ST
16.8,-1.06768524646759,-0.901999592781067,10.1684303283691,0.762199997901917,0.114329993724823,0.274392008781433,-1212.30004882812,-0.300000011920929,-921.300048828125,1.14028790255232,-0.104403845251117,0.0871915663861194,ST
16.8333333333333,-1.02461886405945,-0.695042133331299,9.31906795501709,1.08232402801514,0.335367977619171,0.518296003341675,-1209.90002441406,-0.300000011920929,-926.100036621094,1.13572553434401,-0.109837612313746,0.0725154449328727,ST
16.8666666666667,-1.1675751209259,-0.345726639032364,9.58404445648193,0.975615978240967,0.884151995182037,0.6250039935112,-1205.10009765625,-2.10000014305115,-926.100036621094,1.12718905002537,-0.122704929253221,0.034301402097847,ST
16.9,-1.12690138816833,-0.524571359157562,9.3597412109375,0.617381989955902,0.556405961513519,1.19665396213531,-1193.10009765625,-0.300000011920929,-930.900024414062,1.12091042446321,-0.120726460198703,0.054588224419586,ST
16.9333333333333,-1.19808042049408,-0.474327385425568,8.6623067855835,0.510673999786377,0.663114011287689,0.594515979290009,-1217.10009765625,-1.5,-921.300048828125,1.11688731811809,-0.138381038637911,0.0536798477342246,ST
16.9666666666667,-0.824241042137146,-0.818259596824646,9.55892276763916,-0.0152439996600151,0.548784017562866,-0.503051996231079,-1221.90002441406,-6.90000009536743,-921.300048828125,1.12480903117422,-0.0867734263147047,0.0853878223575436,ST
17.0,-0.308641761541367,-0.863718450069427,9.76647853851318,-0.487807989120483,-1.34909391403198,-1.44817996025085,-1200.30004882812,-8.10000038146973,-918.900024414062,1.13552317973648,-0.0291117478615612,0.0891149620498197,ST
17.0333333333333,0.452794224023819,-0.947458446025848,9.41357421875,-0.396344006061554,-3.14788603782654,-1.47866797447205,-1209.90002441406,0.300000011920929,-935.700012207031,1.1448595891177,0.0532431084835294,0.100854351101876,ST
17.0666666666667,0.444420218467712,-0.723752975463867,8.69101715087891,0.571649968624115,-2.30946588516235,-0.99848198890686,-1212.30004882812,3.30000019073486,-933.300048828125,1.15203426418922,0.0550690459528899,0.082078568138529,ST
17.1,0.0968991592526436,-0.760837852954865,8.65811920166016,1.00610399246216,-0.0304879993200302,-0.0609759986400604,-1214.70007324219,-3.30000019073486,-935.700012207031,1.15220898355022,0.0113715517335702,0.0858793397792626,ST
17.1333333333333,-0.551487803459167,-0.793137550354004,10.1331396102905,0.83841997385025,0.411587983369827,0.548784017562866,-1224.30004882812,0.900000035762787,-918.900024414062,1.14813461708108,-0.0547511067037826,0.0766350247881695,ST
17.1666666666667,-0.772202551364899,-1.21901535987854,10.0918684005737,0.37347799539566,0.0457319989800453,-0.121951997280121,-1224.30004882812,-8.10000038146973,-923.700012207031,1.15223562285829,-0.0758229249801252,0.119470838544721,ST
17.2,-1.21423017978668,-1.32548487186432,9.99496936798096,-0.152439996600151,0.701223969459534,-0.403965979814529,-1219.5,-3.30000019073486,-928.500061035156,1.15774534170017,-0.120902801348702,0.132196140619964,ST
17.2333333333333,-1.50552582740784,-1.49176859855652,10.0081281661987,-0.228659987449646,1.265251994133,-0.602137982845306,-1224.30004882812,-0.900000035762787,-928.500061035156,1.16589592610437,-0.149625926280617,0.148509985736533,ST
17.2666666666667,-1.68317437171936,-1.2357634305954,9.39862060546875,0.0762199983000755,1.55488801002502,-0.129574000835419,-1202.70007324219,4.5,-930.900024414062,1.16578227009854,-0.178283046307036,0.130770111489855,ST
17.3,-1.70949256420135,-1.28062415122986,9.02119255065918,0.3125019967556,1.36433792114258,0.586893975734711,-1188.30004882812,0.300000011920929,-926.100036621094,1.16463279638355,-0.187942775078732,0.14032196306257,ST
17.3333333333333,-1.71906292438507,-1.21123957633972,9.21199989318848,0.205793991684914,0.823175966739655,1.15092194080353,-1197.90002441406,-0.300000011920929,-921.300048828125,1.15485816333446,-0.184647570702973,0.130076453003478,ST
17.3666666666667,-1.62874329090118,-0.983347058296204,9.19166278839111,0.434453994035721,-0.647870004177094,2.31708788871765,-1205.10009765625,0.900000035762787,-928.500061035156,1.13217781497621,-0.173744731493476,0.10518256971321,ST
17.4,-1.3841028213501,-0.945664048194885,9.15338230133057,0.655492007732391,-1.09756803512573,2.90398192405701,-1219.5,-0.900000035762787,-930.900024414062,1.10840263637987,-0.147992952319549,0.101035647333906,ST
17.4333333333333,-1.3278774023056,-0.772800743579865,9.7000846862793,1.08232402801514,-0.87652999162674,2.88873791694641,-1212.30004882812,3.90000009536743,-930.900024414062,1.08263474432522,-0.134537892718477,0.077002826333261,ST
