seconds,sensor_accX_m_s_,sensor_accY_m_s_,sensor_accZ_m_s_,sensor_gyroX___s_,sensor_gyroY___s_,sensor_gyroZ___s_,sensor_magX__T_,sensor_magY__T_,sensor_magZ__T_,sensor_yaw___,sensor_pitch___,sensor_roll___,label1
0.0,4.90178155899048,-1.6383136510849,8.19156837463379,0.37347799539566,-0.121951997280121,0.282013982534409,-1284.30004882812,13.5000009536743,-815.700012207031,1.93034379682391,0.531666555036879,0.199047507641245,ST
0.0333333333333333,4.84196758270264,-1.56773269176483,8.1544828414917,0.388722002506256,-0.106707997620106,0.335367977619171,-1289.10009765625,10.5,-825.300048828125,1.93304608280268,0.528633509059589,0.191295992750555,ST
0.0666666666666667,4.85452842712402,-1.60063064098358,8.21788597106934,0.205793991684914,-0.236281991004944,0.434453994035721,-1286.70007324219,12.9000005722046,-844.500061035156,1.93139045194358,0.526305045254474,0.192246107027918,ST
0.1,4.87247276306152,-1.64967834949493,8.22386741638184,0.137196004390717,-0.213415995240211,0.426831990480423,-1286.70007324219,5.10000038146973,-837.300048828125,1.92779380275077,0.526452257557845,0.197134461216785,ST
0.133333333333333,4.94843673706055,-1.73880159854889,8.18678283691406,0.0914639979600906,-0.266770005226135,0.236281991004944,-1289.10009765625,12.9000005722046,-815.700012207031,1.92217100006319,0.532752398114796,0.206931724266901,ST
0.166666666666667,4.88084650039673,-1.65027642250061,8.27829837799072,0.236281991004944,-0.274392008781433,0.236281991004944,-1289.10009765625,8.10000038146973,-813.300048828125,1.92551273707471,0.526179179873848,0.198592350581075,ST
0.2,4.92690372467041,-1.69394087791443,8.14072608947754,0.327746003866196,-0.266770005226135,0.403965979814529,-1286.70007324219,10.5,-813.300048828125,1.92141052128829,0.533703973262296,0.203957162886301,ST
0.233333333333333,4.88264083862305,-1.64369690418243,8.19276428222656,0.236281991004944,-0.182927995920181,0.449698001146317,-1274.70007324219,14.1000003814697,-834.900024414062,1.92256990752882,0.529925817744531,0.199258126134092,ST
0.266666666666667,4.90716505050659,-1.69095015525818,8.25377464294434,0.228659987449646,-0.160062000155449,0.510673999786377,-1284.30004882812,10.5,-822.900024414062,1.92005227473651,0.527991010868959,0.201621870967233,ST
0.3,4.87665987014771,-1.70710003376007,8.1903715133667,0.160062000155449,-0.190549999475479,0.358233988285065,-1293.90002441406,13.5000009536743,-818.100036621094,1.91738563164219,0.527950239164338,0.204892439597501,ST
0.333333333333333,4.90776300430298,-1.70470750331879,8.15209102630615,0.175305992364883,-0.236281991004944,0.243903994560242,-1291.5,12.9000005722046,-810.900024414062,1.91598999711757,0.532049317727142,0.205935241026634,ST
0.366666666666667,4.90836143493652,-1.7286331653595,8.18319416046143,0.205793991684914,-0.236281991004944,0.266770005226135,-1284.30004882812,11.7000007629395,-822.900024414062,1.91416455957252,0.531194744016804,0.207746747329494,ST
0.4,4.84675264358521,-1.69095015525818,8.25915813446045,0.221037998795509,-0.266770005226135,0.37347799539566,-1293.90002441406,8.70000076293945,-830.100036621094,1.91539100791014,0.523714704310645,0.203008981138819,ST
0.433333333333333,4.88922071456909,-1.67898726463318,8.28727054595947,0.335367977619171,-0.228659987449646,0.518296003341675,-1284.30004882812,14.7000007629395,-825.300048828125,1.9151017262578,0.524328198115238,0.20042691362273,ST
0.466666666666667,4.89938926696777,-1.69932413101196,8.11620235443115,0.358233988285065,-0.198172003030777,0.487807989120483,-1281.90002441406,12.3000001907349,-808.500061035156,1.91113978521262,0.532131712501729,0.20524461674805,ST
0.5,4.96578311920166,-1.68556690216064,8.19934368133545,0.365855991840363,-0.144817993044853,0.358233988285065,-1289.10009765625,15.9000005722046,-820.500061035156,1.91107011956351,0.534857498925852,0.203055869460284,ST
0.533333333333333,4.90118360519409,-1.65386533737183,8.20293235778809,0.243903994560242,-0.282013982534409,0.259148001670837,-1301.10009765625,13.5000009536743,-825.300048828125,1.91187859523222,0.531166674704954,0.199691301720126,ST
0.566666666666667,4.86828565597534,-1.6203693151474,8.20173645019531,0.274392008781433,-0.228659987449646,0.426831990480423,-1293.90002441406,15.3000001907349,-832.500061035156,1.91249160671386,0.528202454987195,0.195873659193272,ST
0.6,4.95262384414673,-1.7124832868576,8.17302513122559,0.205793991684914,-0.198172003030777,0.442075997591019,-1298.70007324219,9.30000019073486,-813.300048828125,1.90665687136831,0.534286668535585,0.204851182452694,ST
0.633333333333333,4.83000469207764,-1.6544634103775,8.18977355957031,0.190549999475479,-0.0990860015153885,0.335367977619171,-1291.5,12.3000001907349,-820.500061035156,1.90796928502392,0.526114102629309,0.200393715559566,ST
0.666666666666667,4.89340782165527,-1.67719292640686,8.25078392028809,0.259148001670837,-0.144817993044853,0.327746003866196,-1284.30004882812,9.90000057220459,-815.700012207031,1.90688963661443,0.526524158906505,0.200437481649611,ST
0.7,4.82701396942139,-1.66822075843811,8.24360656738281,0.274392008781433,-0.259148001670837,0.342989981174469,-1291.5,11.7000007629395,-810.900024414062,1.9060865883895,0.522266209202687,0.19973340678739,ST
0.733333333333333,4.89221143722534,-1.70889449119568,8.1491003036499,0.228659987449646,-0.205793991684914,0.403965979814529,-1279.5,15.9000005722046,-827.700012207031,1.90198914428576,0.529795093405211,0.205495668325409,ST
0.766666666666667,4.90118360519409,-1.68437063694,8.30820560455322,0.152439996600151,-0.213415995240211,0.335367977619171,-1293.90002441406,5.70000028610229,-825.300048828125,1.90322940080193,0.525529570261117,0.201212766375863,ST
0.8,4.91254806518555,-1.72923135757446,8.18857765197754,0.243903994560242,-0.236281991004944,0.327746003866196,-1286.70007324219,13.5000009536743,-820.500061035156,1.89945696445959,0.529962714092848,0.20668401308896,ST
0.833333333333333,4.90776300430298,-1.71966099739075,8.17063331604004,0.259148001670837,-0.198172003030777,0.320124000310898,-1303.5,10.5,-818.100036621094,1.89818172350385,0.531278439109674,0.207216756919059,ST
0.866666666666667,4.85093927383423,-1.68556690216064,8.25856018066406,0.320124000310898,-0.190549999475479,0.358233988285065,-1286.70007324219,11.1000003814697,-830.100036621094,1.8994692383458,0.524004051367067,0.202245161792193,ST
0.9,4.85991144180298,-1.69992232322693,8.17900657653809,0.221037998795509,-0.152439996600151,0.381099998950958,-1289.10009765625,10.5,-813.300048828125,1.89732764825142,0.526417682838618,0.204400755572351,ST
0.933333333333333,4.77676963806152,-1.71547400951385,8.2741117477417,0.167683988809586,-0.137196004390717,0.365855991840363,-1284.30004882812,14.7000007629395,-827.700012207031,1.896313546331,0.516991294350201,0.204502716049206,ST
0.966666666666667,4.71217012405396,-1.75196075439453,8.17960548400879,0.236281991004944,-0.228659987449646,0.342989981174469,-1289.10009765625,9.30000019073486,-820.500061035156,1.89273280105202,0.514023432700891,0.209665254166938,ST
1.0,4.62484169006348,-1.78725123405457,8.24899005889893,0.160062000155449,-0.426831990480423,0.205793991684914,-1286.70007324219,11.1000003814697,-830.100036621094,1.89052418987411,0.504354542154833,0.212628139651935,ST
1.03333333333333,4.17862701416016,-1.67659473419189,8.19455909729004,0.342989981174469,-0.0838419944047928,0.114329993724823,-1291.5,18.9000015258789,-815.700012207031,1.89413771446464,0.47165818574389,0.203583675008194,ST
1.06666666666667,4.12419557571411,-1.54021811485291,8.51994895935059,0.525918006896973,-0.0838419944047928,-0.0381099991500378,-1284.30004882812,7.50000047683716,-818.100036621094,1.90278508833652,0.450146473951564,0.18303455679456,ST
1.1,4.27911472320557,-1.53662931919098,8.56122016906738,0.297257989645004,-1.00610399246216,-0.259148001670837,-1281.90002441406,22.5,-815.700012207031,1.90474455383299,0.457221743248418,0.178229450263251,ST
1.13333333333333,4.21511363983154,-1.58089184761047,8.07612609863281,0.175305992364883,-1.03659200668335,-0.213415995240211,-1281.90002441406,15.9000005722046,-813.300048828125,1.89933704232798,0.471589818076793,0.189993017151233,ST
1.16666666666667,4.44480037689209,-1.63173401355743,8.75681304931641,0.121951997280121,-0.434453994035721,0.182927995920181,-1284.30004882812,18.3000011444092,-830.100036621094,1.90074923028954,0.465152621300816,0.185396849629255,ST
1.2,4.57579374313354,-1.72025918960571,8.46731185913086,0.236281991004944,-0.78506600856781,0.365855991840363,-1286.70007324219,10.5,-827.700012207031,1.89396709572078,0.483607353974177,0.197420721934722,ST
1.23333333333333,4.47710037231445,-1.52227389812469,8.3991231918335,0.289635986089706,-0.0990860015153885,0.37347799539566,-1286.70007324219,7.50000047683716,-820.500061035156,1.89984087674361,0.483197805748099,0.182209321547169,ST
1.26666666666667,4.34132146835327,-1.62934148311615,8.4350118637085,0.289635986089706,0.342989981174469,0.365855991840363,-1298.70007324219,9.90000057220459,-813.300048828125,1.89578454017558,0.470238623700639,0.188999949516704,ST
1.3,3.81435775756836,-1.69394087791443,7.95889043807983,0.388722002506256,0.708845973014832,-0.0685980021953583,-1277.10009765625,8.10000038146973,-818.100036621094,1.88879043796491,0.443835847010935,0.204917214540649,ST
1.33333333333333,2.83938479423523,-1.49117040634155,8.57079029083252,0.922261953353882,1.10518991947174,-0.411587983369827,-1298.70007324219,8.70000076293945,-818.100036621094,1.89996774505228,0.339947174406106,0.177084929701072,ST
1.36666666666667,2.90757298469543,-1.47502052783966,8.58335208892822,1.2347639799118,0.0076219998300075,-0.243903994560242,-1286.70007324219,6.90000009536743,-818.100036621094,1.90201021781117,0.325429970242784,0.16952481824105,ST
1.4,3.03318309783936,-1.54261076450348,7.94513320922852,1.06708002090454,-0.670735955238342,-0.160062000155449,-1279.5,13.5000009536743,-825.300048828125,1.89588470190375,0.352858201752219,0.185740145285222,ST
1.43333333333333,3.1707558631897,-1.57790112495422,8.36323547363281,0.861285984516144,-1.06708002090454,0.243903994560242,-1279.5,5.10000038146973,-822.900024414062,1.89438537477472,0.357267029206561,0.185355828988679,ST
1.46666666666667,3.59304475784302,-1.66941702365875,8.28427982330322,0.548784017562866,-2.23324584960938,0.0838419944047928,-1291.5,1.5,-810.900024414062,1.88895755669521,0.39659549311102,0.195781906972561,ST
1.5,4.01234292984009,-1.81715834140778,8.1371374130249,0.640248000621796,-2.85824990272522,0.457319974899292,-1293.90002441406,9.90000057220459,-827.700012207031,1.87854203315569,0.441825213782714,0.214586141817936,ST
1.53333333333333,4.83239698410034,-2.19398832321167,7.83028984069824,0.221037998795509,-3.08691000938416,0.0685980021953583,-1293.90002441406,15.3000001907349,-806.100036621094,1.8550879390713,0.521345530617748,0.261256004972546,ST
1.56666666666667,5.00884914398193,-2.03248977661133,8.79987907409668,0.221037998795509,-3.71953582763672,-0.282013982534409,-1298.70007324219,11.7000007629395,-820.500061035156,1.86704982821854,0.514552004743375,0.234004624698867,ST
1.6,5.45984888076782,-1.97566628456116,8.79030895233154,0.754577994346619,-4.34454011917114,0.228659987449646,-1305.90002441406,6.90000009536743,-796.500061035156,1.86895393398398,0.545417378452316,0.223366149715049,ST
1.63333333333333,6.28528642654419,-2.05163049697876,8.5666036605835,0.83841997385025,-3.7881338596344,0.274392008781433,-1310.70007324219,10.5,-789.300048828125,1.86020991784731,0.612500791766183,0.232967868561605,ST
1.66666666666667,6.33433389663696,-1.88175773620605,8.86029148101807,1.2423859834671,-2.70580983161926,0.403965979814529,-1322.70007324219,4.5,-794.100036621094,1.86803534893367,0.614295434855813,0.213261681946843,ST
1.7,5.92759704589844,-1.40743041038513,8.89139556884766,1.87501192092896,-2.5000159740448,0.586893975734711,-1303.5,7.50000047683716,-813.300048828125,1.89014259763053,0.592141262395351,0.166477703856644,ST
1.73333333333333,6.32177305221558,-1.4881796836853,8.76877593994141,2.31708788871765,-2.30184388160706,1.34909391403198,-1308.30004882812,5.10000038146973,-791.700012207031,1.88401897768606,0.615579687596569,0.166210094886084,ST
1.76666666666667,6.34211015701294,-1.51509618759155,8.38596439361572,2.19513607025146,-1.58537602424622,1.15092194080353,-1317.90002441406,15.9000005722046,-789.300048828125,1.87354734328442,0.636826814508634,0.174551506087205,ST
1.8,6.00655174255371,-1.48698341846466,8.67187690734863,2.20275783538818,-0.472563982009888,1.34147191047668,-1313.10009765625,8.70000076293945,-794.100036621094,1.87115288257958,0.60694974434253,0.169089565208766,ST
1.83333333333333,6.0071496963501,-1.46724474430084,8.70118618011475,2.26373386383057,0.0914639979600906,1.31098401546478,-1320.30004882812,11.1000003814697,-786.900024414062,1.86778788346135,0.599136438200493,0.165532669579356,ST
1.86666666666667,5.82591247558594,-1.66582822799683,8.30940246582031,1.92836594581604,0.533540010452271,0.92988395690918,-1308.30004882812,9.30000019073486,-794.100036621094,1.85022590242354,0.600707255620216,0.189418372905783,ST
1.9,5.60998296737671,-1.60302317142487,8.84832859039307,1.97409796714783,1.46342396736145,0.868907988071442,-1317.90002441406,2.10000014305115,-791.700012207031,1.85231273644882,0.564192283384583,0.179044671423815,ST
1.93333333333333,5.1691517829895,-1.31711077690125,9.00982761383057,2.62959003448486,1.95123195648193,1.08994603157043,-1305.90002441406,6.90000009536743,-782.100036621094,1.86332235300455,0.523058701515003,0.148845012409374,ST
1.96666666666667,5.29715394973755,-1.27763342857361,8.05040645599365,2.56099200248718,3.75002384185791,1.93598794937134,-1310.70007324219,5.10000038146973,-808.500061035156,1.85538540350733,0.559977037020274,0.153182200015688,ST
2.0,5.20683479309082,-1.02103006839752,9.20302772521973,2.32470989227295,4.73326206207275,1.54726600646973,-1303.5,7.50000047683716,-810.900024414062,1.8699069228182,0.51379353631178,0.115449801892762,ST
2.03333333333333,4.82402324676514,-0.592759668827057,8.49542427062988,2.65245604515076,4.74850606918335,0.937505960464478,-1313.10009765625,6.30000019073486,-813.300048828125,1.88542594947332,0.508428500546443,0.075641570919979,ST
2.06666666666667,4.66790771484375,-0.0448607243597507,8.45415306091309,2.53812599182129,5.91467189788818,1.07470202445984,-1284.30004882812,8.10000038146973,-815.700012207031,1.90941263859234,0.4971547407315,0.0166661859996283,ST
2.1,5.21461057662964,0.402550220489502,8.3871603012085,1.70732796192169,5.06100797653198,0.548784017562866,-1284.30004882812,10.5,-822.900024414062,1.93334989184585,0.538696714920171,-0.0386058081996069,ST
2.13333333333333,4.72891855239868,1.22738933563232,7.72681093215942,1.22714197635651,6.46345567703247,0.434453994035721,-1293.90002441406,9.30000019073486,-837.300048828125,1.97875307807112,0.534347947974373,-0.134071937608123,ST
2.16666666666667,3.94654726982117,1.27464270591736,8.20711994171143,0.861285984516144,8.63572597503662,0.853663980960846,-1272.30004882812,3.90000009536743,-839.700012207031,1.9810972093276,0.450150585301555,-0.14984462534874,ST
2.2,2.26337289810181,1.55995690822601,8.0593786239624,0.632625997066498,9.3674373626709,0.609759986400604,-1260.30004882812,7.50000047683716,-837.300048828125,1.98802591943595,0.293013055748374,-0.182984074343412,ST
2.23333333333333,2.119220495224,0.955832481384277,9.51765060424805,0.0838419944047928,10.2668333053589,1.36433792114258,-1255.5,-0.900000035762787,-861.300048828125,1.96451878968419,0.219371973157618,-0.115724857799946,ST
2.26666666666667,2.99310731887817,0.418700069189072,10.035044670105,-0.655492007732391,8.46804141998291,1.01372599601746,-1243.5,3.90000009536743,-858.900024414062,1.94558506470168,0.265778424934971,-0.0528273326417718,ST
2.3,2.95482635498047,-0.225499898195267,9.234130859375,-0.891773998737335,6.76071405410767,-0.388722002506256,-1236.30004882812,-0.300000011920929,-875.700012207031,1.92883054967,0.292551100409609,0.012399088000468,ST
2.33333333333333,2.93269491195679,-0.130395174026489,8.67606353759766,-1.14329993724823,5.34302186965942,-2.25611186027527,-1236.30004882812,11.1000003814697,-875.700012207031,1.93427999865277,0.312351286690082,0.0151384147472073,ST
2.36666666666667,1.29617583751678,-1.1095552444458,10.2043190002441,-1.13567793369293,5.15247201919556,-2.04269599914551,-1229.10009765625,6.90000009536743,-880.500061035156,1.92243685677175,0.152107836622012,0.0931732368763459,ST
2.4,0.905588448047638,-0.658555388450623,9.56131553649902,-0.922261953353882,3.62807202339172,-1.90549993515015,-1226.70007324219,6.90000009536743,-882.900024414062,1.93063683414074,0.0989022206583145,0.0738240999497304,ST
2.43333333333333,0.576011657714844,-0.610105812549591,8.74903678894043,-0.152439996600151,3.29270386695862,-0.922261953353882,-1188.30004882812,3.30000019073486,-894.900024414062,1.93359537579584,0.0678140086610443,0.0705556984793329,ST
2.46666666666667,-0.156713455915451,-1.12091994285583,12.0310478210449,-0.472563982009888,2.9116039276123,-0.602137982845306,-1193.10009765625,8.10000038146973,-887.700012207031,1.93492699182533,-0.0006479429070313,0.0890421366460641,ST
2.5,0.656162858009338,-0.446214646100998,9.1509895324707,-0.152439996600151,1.15092194080353,-0.92988395690918,-1205.10009765625,7.50000047683716,-885.300048828125,1.93814202688311,0.0554325453124208,0.057046993642639,ST
2.53333333333333,0.358287632465363,-0.0831418707966805,9.56191349029541,0.350611984729767,2.37806391716003,0.533540010452271,-1202.70007324219,6.90000009536743,-914.100036621094,1.93890367614988,0.0377474492681762,0.017975816591413,ST
2.56666666666667,0.508421540260315,-0.241649761795998,9.51705265045166,0.0609759986400604,1.2576299905777,1.69970595836639,-1190.70007324219,6.90000009536743,-899.700012207031,1.93466924040945,0.0485630858835268,0.0239996277387068,ST
2.6,1.05273163318634,-1.15800476074219,8.94462966918945,-1.11281192302704,0.228659987449646,1.61586391925812,-1193.10009765625,8.70000076293945,-899.700012207031,1.92430815041845,0.103638105371661,0.11171259203788,ST
2.63333333333333,1.16996765136719,-1.13946235179901,9.04571628570557,-1.10518991947174,-1.05945801734924,0.556405961513519,-1193.10009765625,4.5,-904.500061035156,1.92162626528034,0.124165957368184,0.124216008135048,ST
2.66666666666667,1.60302317142487,-0.767417430877686,9.43989276885986,-0.221037998795509,-1.31860601902008,-0.0609759986400604,-1197.90002441406,8.10000038146973,-887.700012207031,1.92634644843826,0.160757061711594,0.0901847650235594,ST
2.7,2.40632915496826,-1.4821982383728,8.60907173156738,-0.92988395690918,0.6250039935112,-0.746955990791321,-1202.70007324219,11.1000003814697,-909.300048828125,1.91551748613175,0.246306165292055,0.154999558726106,ST
2.73333333333333,0.834409415721893,-1.09579789638519,10.7749471664429,-0.419209986925125,2.12653803825378,-1.10518991947174,-1176.30004882812,4.5,-890.100036621094,1.92653476950052,0.106352533199598,0.111757648853682,ST
2.76666666666667,-0.0328978635370731,-0.721958577632904,9.80296516418457,0.518296003341675,2.5152599811554,-0.823175966739655,-1193.10009765625,5.10000038146973,-892.500061035156,1.93096484851214,0.0127736985457502,0.0795469850871783,ST
2.8,0.0305052921175957,-0.392979919910431,9.12407302856445,0.396344006061554,3.04117798805237,-0.426831990480423,-1195.5,6.90000009536743,-890.100036621094,1.93259902296248,0.0010461385521322,0.0498453414481645,ST
2.83333333333333,-0.329576790332794,0.109460160136223,10.1941509246826,0.937505960464478,2.62196803092957,-0.518296003341675,-1181.10009765625,13.5000009536743,-894.900024414062,1.93327542543999,-0.0292378832581665,0.0001940117126173,ST
2.86666666666667,0.809287428855896,0.0352904349565506,8.53729438781738,1.30336201190948,1.35671591758728,-0.472563982009888,-1176.30004882812,6.30000019073486,-890.100036621094,1.93449984718402,0.0717197617227906,-0.0053252990960496,ST
2.9,1.35658824443817,-0.581993103027344,9.22037410736084,0.396344006061554,1.41769194602966,-0.945127964019775,-1173.90002441406,8.70000076293945,-887.700012207031,1.93121980866451,0.129794578096673,0.0492275284985742,ST
2.93333333333333,1.02880585193634,-0.71059387922287,9.59182071685791,0.213415995240211,1.33385002613068,-1.93598794937134,-1166.70007324219,9.30000019073486,-918.900024414062,1.93347685270113,0.109563917526543,0.0683506692080371,ST
2.96666666666667,0.416905641555786,-1.01145970821381,9.65462589263916,-0.129574000835419,1.6920839548111,-1.70732796192169,-1164.30004882812,5.70000028610229,-909.300048828125,1.93569783035468,0.0518956767127526,0.0983646446492403,ST
3.0,0.729136288166046,-1.04794645309448,9.66120529174805,-0.403965979814529,0.708845973014832,-1.76830399036407,-1164.30004882812,7.50000047683716,-904.500061035156,1.93971445060475,0.0700346077073534,0.106726231370537,ST
3.03333333333333,0.622068703174591,-1.30574607849121,9.10433387756348,-0.243903994560242,0.350611984729767,-1.29574000835419,-1161.90002441406,6.90000009536743,-904.500061035156,1.94095987735781,0.0677214125866774,0.136287935198982,ST
3.06666666666667,0.244640469551086,-1.38350474834442,9.96386528015137,-0.716467976570129,0.525918006896973,-1.02134799957275,-1157.10009765625,9.90000057220459,-906.900024414062,1.94349872097726,0.0320149892979846,0.138601423714177,ST
3.1,-0.215929612517357,-1.04854464530945,9.63668155670166,-0.0381099991500378,0.724089980125427,-0.724089980125427,-1154.70007324219,8.10000038146973,-921.300048828125,1.94560378411832,-0.0122111074375628,0.114530632109177,ST
3.13333333333333,-0.180639177560806,-0.885849714279175,9.24370193481445,0.586893975734711,1.29574000835419,-0.0914639979600906,-1154.70007324219,-3.30000019073486,-926.100036621094,1.94589706326401,-0.0197754890191558,0.098555640098552,ST
3.16666666666667,-0.270958751440048,-0.970187902450562,9.39742469787598,0.617381989955902,0.510673999786377,0.0076219998300075,-1137.90002441406,6.30000019073486,-904.500061035156,1.94609178329178,-0.0275892620374027,0.101145835560891,ST
3.2,-0.282921612262726,-1.14604198932648,9.44886493682861,0.419209986925125,0.556405961513519,0.114329993724823,-1149.90002441406,-1.5,-911.700012207031,1.9464299819215,-0.030076914758337,0.116172087708237,ST
3.23333333333333,-0.25839775800705,-1.48758161067963,9.97223949432373,0.137196004390717,0.518296003341675,0.541162014007568,-1154.70007324219,7.50000047683716,-899.700012207031,1.9460817424647,-0.0273401938928862,0.141440459698406,ST
3.26666666666667,0.229088753461838,-1.20645439624786,9.47817325592041,-0.6250039935112,-1.57013201713562,0.411587983369827,-1140.30004882812,4.5,-906.900024414062,1.94449948722205,0.016961111039871,0.130159093285175,ST
3.3,0.433653652667999,-0.946262180805206,9.84304046630859,0.259148001670837,-1.75305998325348,1.15092194080353,-1145.10009765625,12.3000001907349,-902.100036621094,1.94217877629816,0.0406658979261271,0.102460986595047,ST
3.33333333333333,0.772800743579865,-1.02043187618256,9.93754768371582,1.06708002090454,-1.50915598869324,1.95123195648193,-1161.90002441406,12.3000001907349,-892.500061035156,1.93670316938153,0.0733680601486233,0.100975501829604,ST
3.36666666666667,0.798520863056183,-0.970786035060883,9.05827713012695,1.03659200668335,-1.16616594791412,1.57013201713562,-1173.90002441406,3.90000009536743,-923.700012207031,1.93238299898071,0.085987462240742,0.104344148890861,ST
3.4,0.573020994663239,-1.09938681125641,9.35136699676514,0.884151995182037,-0.533540010452271,1.22714197635651,-1166.70007324219,2.70000004768372,-897.300048828125,1.92860356713653,0.0664121568686638,0.113375966615191,ST
3.43333333333333,0.311632484197617,-1.42597281932831,9.25745868682861,0.541162014007568,-0.815553963184357,0.693601965904236,-1171.5,7.50000047683716,-916.500061035156,1.92483270241587,0.039865424626569,0.145494776406982,ST
3.46666666666667,0.0783567279577255,-1.34701800346375,9.78442287445068,0.266770005226135,-0.121951997280121,0.914639949798584,-1161.90002441406,4.5,-899.700012207031,1.92282425265215,0.0139790220028023,0.138110658291541,ST
3.5,-0.0203368607908487,-1.21542656421661,9.90764045715332,0.266770005226135,0.0914639979600906,1.92836594581604,-1159.5,9.30000019073486,-904.500061035156,1.91840587457313,0.0005195411039229,0.12474477429009,ST
3.53333333333333,-0.0197387188673019,-1.00667464733124,9.79638576507568,0.525918006896973,0.3125019967556,2.18751406669617,-1178.70007324219,7.50000047683716,-918.900024414062,1.91316612349765,-0.0023499168836685,0.105627595049766,ST
3.56666666666667,-0.565245091915131,-0.610105812549591,9.48894023895264,1.19665396213531,0.762199997901917,2.96495795249939,-1171.5,3.30000019073486,-892.500061035156,1.90545919167683,-0.0499872513594686,0.0702478411431531,ST
3.6,-0.479710668325424,-1.2058562040329,9.15876483917236,0.830797970294952,1.32622802257538,3.27745985984802,-1152.30004882812,2.10000014305115,-914.100036621094,1.90077424867641,-0.0538236414440796,0.117297773112898,ST
3.63333333333333,-0.750071287155151,-1.34103655815125,9.16235446929932,0.396344006061554,1.44817996025085,2.33233189582825,-1157.10009765625,3.30000019073486,-904.500061035156,1.89736109639167,-0.077818501651443,0.138916751117805,ST
3.66666666666667,-1.03777801990509,-1.45348739624023,10.2031230926514,0.495429992675781,0.899396002292633,2.08842802047729,-1152.30004882812,3.30000019073486,-909.300048828125,1.89270688529083,-0.0982944268705544,0.140088805225597,ST
3.7,-1.08084440231323,-1.03119850158691,9.77724456787109,1.265251994133,-0.594515979290009,1.97409796714783,-1149.90002441406,11.1000003814697,-899.700012207031,1.88527239974919,-0.106760455258199,0.11007885955817,ST
3.73333333333333,-1.05332982540131,-1.20765066146851,9.88909816741943,0.868907988071442,-0.518296003341675,2.59148001670837,-1157.10009765625,4.5,-926.100036621094,1.87991636042119,-0.105282428053016,0.117830458627556,ST
3.76666666666667,-1.05990934371948,-0.860727727413177,10.4399871826172,0.182927995920181,-0.800309956073761,2.38568592071533,-1157.10009765625,11.1000003814697,-911.700012207031,1.87113099057637,-0.100895775741919,0.0883859503434749,ST
3.8,-0.623264968395233,-1.06828331947327,9.21199989318848,0.335367977619171,-0.297257989645004,2.32470989227295,-1164.30004882812,10.5,-909.300048828125,1.86750535667596,-0.0734426625536971,0.109582122041774,ST
3.83333333333333,-0.779380261898041,-1.08742392063141,9.20183181762695,0.617381989955902,0.381099998950958,2.29422187805176,-1161.90002441406,7.50000047683716,-899.700012207031,1.86289071187673,-0.0826956439299675,0.114898015775659,ST
3.86666666666667,-1.00488018989563,-0.799717128276825,9.83885383605957,1.44055795669556,0.327746003866196,2.34757590293884,-1152.30004882812,13.5000009536743,-904.500061035156,1.85525448868763,-0.0984485142154453,0.085609514477122,ST
3.9,-0.438438802957535,-1.1155366897583,8.49662113189697,1.12043392658234,-0.708845973014832,2.04269599914551,-1154.70007324219,6.30000019073486,-909.300048828125,1.8532155182691,-0.0594377319565951,0.120243558966336,ST
3.93333333333333,-0.516197383403778,-0.549095273017883,9.07382869720459,0.724089980125427,-1.21951997280121,2.11891603469849,-1171.5,6.30000019073486,-911.700012207031,1.84536928591011,-0.0558569684587674,0.0712993204214303,ST
3.96666666666667,-0.0005981429712846,-0.698032855987549,9.74374866485596,0.922261953353882,-1.77592599391937,3.3460578918457,-1171.5,-0.900000035762787,-909.300048828125,1.83693985523464,-0.0078131211016916,0.0700432662662251,ST
4.0,0.293090045452118,-0.339745193719864,9.53021240234375,1.03659200668335,-1.6692179441452,2.75154185295105,-1159.5,6.90000009536743,-899.700012207031,1.83062360752573,0.0250923690535801,0.0411796682949411,ST
4.03333333333333,0.21712589263916,-0.317015767097473,8.83217906951904,1.00610399246216,-0.381099998950958,2.68294382095337,-1169.10009765625,8.10000038146973,-887.700012207031,1.82430593267491,0.0250600341349134,0.0355555155540043,ST
4.06666666666667,-0.30624920129776,-0.402550220489502,10.051194190979,0.609759986400604,0.914639949798584,1.92074394226074,-1161.90002441406,0.300000011920929,-904.500061035156,1.81995013014816,-0.0206281920186804,0.0382643285958054,ST
4.1,-0.61249840259552,-0.223705470561981,9.92618274688721,0.975615978240967,0.426831990480423,1.39482593536377,-1159.5,3.90000009536743,-902.100036621094,1.81622686041126,-0.0544972970538761,0.0240568289767393,ST
4.13333333333333,-0.424681514501572,-0.293090045452118,9.95668792724609,0.350611984729767,0.37347799539566,0.846041977405548,-1142.70007324219,6.30000019073486,-918.900024414062,1.81431139615287,-0.045063448270911,0.0280082109906991,ST
4.16666666666667,-0.593955993652344,0.171667039394379,9.95728588104248,0.731711983680725,0.0381099991500378,0.777444005012512,-1161.90002441406,3.90000009536743,-904.500061035156,1.81071609766564,-0.0567135867152808,-0.0091920895625705,ST
4.2,-0.105871304869652,-0.203368604183197,9.40400409698486,1.02134799957275,0.0228659994900227,1.01372599601746,-1176.30004882812,-0.300000011920929,-909.300048828125,1.80936636903549,-0.0204602290446561,0.013949375620876,ST
4.23333333333333,-0.221312895417213,0.109460160136223,9.76707649230957,0.78506600856781,-0.0076219998300075,0.617381989955902,-1166.70007324219,-3.30000019073486,-906.900024414062,1.80748164565133,-0.0222274004538117,-0.0075628606579543,ST
4.26666666666667,-0.0239257179200649,0.122619308531284,9.14859676361084,0.891773998737335,-0.190549999475479,0.693601965904236,-1159.5,8.10000038146973,-904.500061035156,1.80568868691105,-0.0056161122496605,-0.0137291237823634,ST
4.3,-0.0945065915584564,0.01914057508111,9.08280086517334,0.297257989645004,-0.0152439996600151,0.282013982534409,-1159.5,8.10000038146973,-926.100036621094,1.80511106582604,-0.0094155218495683,-0.0048667076020628,ST
4.33333333333333,-0.290697485208511,0.0388792939484119,9.31488037109375,-0.411587983369827,0.0533539988100529,-0.137196004390717,-1164.30004882812,5.70000028610229,-914.100036621094,1.80542995860147,-0.0268827541415643,-0.0037359557815062,ST
4.36666666666667,-0.15312460064888,-0.619077980518341,8.9715461730957,-0.762199997901917,0.144817993044853,-0.815553963184357,-1171.5,8.70000076293945,-909.300048828125,1.80870945333929,-0.0190709841384668,0.0562027607756711,ST
4.4,-0.30923992395401,-0.781174719333649,9.45424747467041,-1.12043392658234,-0.221037998795509,-1.65397393703461,-1154.70007324219,3.90000009536743,-911.700012207031,1.81295969581929,-0.0293915116079214,0.0787679127244455,ST
4.43333333333333,-1.00248765945435,-0.435448080301285,9.83705902099609,-0.0914639979600906,-0.358233988285065,-1.28049600124359,-1159.5,8.10000038146973,-911.700012207031,1.81441486114093,-0.0887342919924901,0.0503305326081851,ST
4.46666666666667,-0.186620607972145,-0.963010191917419,9.80954456329346,-0.449698001146317,-0.525918006896973,-0.510673999786377,-1171.5,12.9000005722046,-904.500061035156,1.81791882056258,-0.0298530275739577,0.0905820290736173,ST
4.5,0.273949474096298,-0.830222427845001,10.270712852478,-0.655492007732391,-2.03507399559021,-0.907018005847931,-1166.70007324219,3.90000009536743,-911.700012207031,1.81964871193085,0.0195153860954475,0.0833705513600992,ST
4.53333333333333,0.73451954126358,-0.824241042137146,9.42075157165527,-0.0609759986400604,-2.17989206314087,-0.533540010452271,-1171.5,2.70000004768372,-916.500061035156,1.82039689203781,0.0716291639831431,0.0867200596321113,ST
4.56666666666667,1.27763342857361,-1.17236018180847,8.77057075500488,-0.152439996600151,-0.708845973014832,-0.304879993200302,-1178.70007324219,6.30000019073486,-930.900024414062,1.817236628557,0.129952076771078,0.123692838598435,ST
4.6,0.701023578643799,-1.18432307243347,9.89567756652832,-0.182927995920181,-0.449698001146317,-0.205793991684914,-1164.30004882812,5.70000028610229,-902.100036621094,1.81804895238581,0.0803247903113978,0.120088485724814,ST
4.63333333333333,0.890634894371033,-1.18791198730469,8.38656234741211,0.274392008781433,-0.297257989645004,0.3125019967556,-1171.5,7.50000047683716,-914.100036621094,1.81574082515943,0.100193302975616,0.136209275631044,ST
4.66666666666667,0.314025074243546,-1.44391715526581,9.76468372344971,0.0533539988100529,0.205793991684914,0.609759986400604,-1173.90002441406,9.30000019073486,-918.900024414062,1.81379429174606,0.0451810385192967,0.144666876576386,ST
4.7,-0.154919028282166,-1.07605922222137,10.70436668396,0.449698001146317,-0.426831990480423,1.15092194080353,-1171.5,7.50000047683716,-902.100036621094,1.81154177150701,-0.0039928026069371,0.107020777844709,ST
4.73333333333333,0.0083740018308162,-0.791343152523041,9.98300647735596,1.52439999580383,0.0076219998300075,1.81403601169586,-1169.10009765625,6.90000009536743,-911.700012207031,1.80733659285562,-0.0003767396624032,0.0825976136688684,ST
4.76666666666667,-0.409727931022644,-0.307445496320724,10.426230430603,1.95885396003723,0.304879993200302,2.4923939704895,-1166.70007324219,6.90000009536743,-914.100036621094,1.80098400928713,-0.0320422638514604,0.0373842554954911,ST
4.8,-0.0837400183081627,-0.260790348052979,10.2509746551514,1.50915598869324,-0.0838419944047928,2.98020195960999,-1149.90002441406,2.10000014305115,-909.300048828125,1.79392910639098,-0.0129798533233999,0.025656657896511,ST
4.83333333333333,0.227294325828552,-0.272753208875656,9.28078651428223,1.02134799957275,-0.571649968624115,2.53050398826599,-1183.5,8.10000038146973,-902.100036621094,1.78805566641392,0.0176335050532891,0.0272336450077115,ST
4.86666666666667,0.261986613273621,-0.149535745382309,9.61813926696777,0.586893975734711,-0.472563982009888,2.80489587783813,-1152.30004882812,5.10000038146973,-909.300048828125,1.78137208500884,0.0261142892657327,0.0168838816400527,ST
4.9,0.281725347042084,0.0945065915584564,9.7060661315918,1.35671591758728,-0.937505960464478,3.49849796295166,-1178.70007324219,0.900000035762787,-911.700012207031,1.77338088082228,0.0298414362867791,-0.0067911704495546,ST
4.93333333333333,0.483897656202316,0.270958751440048,8.98171520233154,1.28811800479889,-0.975615978240967,3.67380380630493,-1171.5,3.90000009536743,-909.300048828125,1.76565141316623,0.0504414010862816,-0.0270231336140141,ST
4.96666666666667,0.375633776187897,0.430064797401428,8.96377086639404,1.09756803512573,0.0,2.85062789916992,-1173.90002441406,4.5,-902.100036621094,1.75963326989259,0.0436261142178623,-0.0453440794445389,ST
5.0,-0.0669920146465302,0.407933503389359,9.5684928894043,0.503051996231079,0.289635986089706,1.87501192092896,-1181.10009765625,10.5,-902.100036621094,1.75482960410999,0.0011964090665933,-0.0437587225776532,ST
5.03333333333333,-0.206359326839447,0.171667039394379,10.0685405731201,-0.0533539988100529,0.3125019967556,0.937505960464478,-1178.70007324219,2.70000004768372,-909.300048828125,1.75262696099967,-0.0172677421315911,-0.0214684302841481,ST
5.06666666666667,0.0813474431633949,-0.0005981429712846,9.26583290100098,-0.327746003866196,0.0838419944047928,0.0609759986400604,-1169.10009765625,14.1000003814697,-902.100036621094,1.75260098715559,0.0034137974815213,-0.0038186904164143,ST
5.1,-0.240453481674194,0.142358019948006,9.98180961608887,-0.205793991684914,-0.274392008781433,-0.967993974685669,-1178.70007324219,9.30000019073486,-914.100036621094,1.75477290017076,-0.0181692005710384,-0.0118533748333341,NLL
5.13333333333333,-0.196789041161537,0.072973445057869,9.87354564666748,-0.320124000310898,-0.762199997901917,-0.792688012123108,-1157.10009765625,5.70000028610229,-914.100036621094,1.75673266221842,-0.01852642050583,-0.007764199895945,NLL
5.16666666666667,0.0496458671987057,0.0179442893713713,9.60856914520264,-0.632625997066498,-1.2423859834671,-0.868907988071442,-1164.30004882812,8.10000038146973,-906.900024414062,1.75896431377779,0.0029900527021287,-0.0019338859269315,NLL
5.2,-0.0089721446856856,0.0412718653678894,9.56789493560791,-0.457319974899292,-0.87652999162674,-0.846041977405548,-1178.70007324219,8.70000076293945,-897.300048828125,1.76110098773286,0.0009910300841126,-0.0032519388414519,NLL
5.23333333333333,-0.279930919408798,0.084936298429966,9.10672664642334,-0.449698001146317,-0.0304879993200302,-0.442075997591019,-1166.70007324219,6.30000019073486,-916.500061035156,1.7620586883194,-0.0242956073437644,-0.0074649580713947,NLL
5.26666666666667,-0.718967854976654,-0.0209350045770407,9.20900917053223,-1.14329993724823,0.114329993724823,0.342989981174469,-1171.5,6.30000019073486,-906.900024414062,1.7615564523711,-0.0678970592816968,0.0020105406523452,NLL
5.3,-1.69812786579132,0.18482618033886,9.38486289978027,-1.2347639799118,0.121951997280121,1.89787793159485,-1171.5,6.30000019073486,-918.900024414062,1.75492568624602,-0.158011672377646,-0.0141226463067046,NLL
5.33333333333333,-1.4241783618927,0.135180309414864,8.96735954284668,-2.85824990272522,0.0533539988100529,4.53508996963501,-1169.10009765625,10.5,-909.300048828125,1.74391310772601,-0.157585454628414,-0.0119027723516611,NLL
5.36666666666667,-2.27653217315674,0.522178828716278,9.2640380859375,-3.19361782073975,-0.739333987236023,7.48480367660522,-1181.10009765625,17.1000003814697,-916.500061035156,1.71937771025997,-0.222525895960614,-0.0448985267887643,NLL
5.4,-0.0544310100376606,-1.11374223232269,8.72511196136475,-5.96040391921997,-0.3125019967556,11.8598318099976,-1169.10009765625,17.7000007629395,-904.500061035156,1.71007873596753,-0.050747989852901,0.0991336548227383,NLL
5.43333333333333,-0.262584775686264,-1.39845824241638,10.3568458557129,-4.32167387008667,-0.647870004177094,11.5549516677856,-1173.90002441406,18.9000015258789,-897.300048828125,1.6828033266497,-0.0307939349701026,0.133567157031839,NLL
5.46666666666667,0.215929612517357,-2.37881469726562,10.7869100570679,-3.7805118560791,-0.289635986089706,12.1799554824829,-1166.70007324219,23.1000003814697,-897.300048828125,1.65574998596946,0.0067139018725668,0.205439575381121,NLL
5.5,-1.17594909667969,-1.50432956218719,10.5015964508057,-1.36433792114258,-1.49391198158264,11.8140993118286,-1176.30004882812,24.9000015258789,-899.700012207031,1.62615232918404,-0.0876596130534293,0.156041545341968,NLL
5.53333333333333,-0.539524972438812,-1.89850580692291,9.12168025970459,-0.731711983680725,-1.58537602424622,14.0168581008911,-1159.5,28.5000019073486,-918.900024414062,1.59470085043642,-0.0646031735803952,0.19607732193745,NLL
5.56666666666667,1.16458439826965,-2.41649770736694,9.42134952545166,-1.53964400291443,-2.04269599914551,9.96195411682129,-1157.10009765625,30.9000015258789,-911.700012207031,1.5693653952071,0.085777893782528,0.244029707484372,NLL
5.6,0.874485015869141,-2.18980145454407,8.94881725311279,0.0990860015153885,0.78506600856781,6.83693361282349,-1142.70007324219,27.3000011444092,-897.300048828125,1.55431382262435,0.0895612893912941,0.241420677243645,NLL
5.63333333333333,0.253014475107193,-2.20654940605164,9.42194843292236,0.556405961513519,1.58537602424622,5.10673999786377,-1157.10009765625,34.5,-899.700012207031,1.54424809594048,0.0350874882669336,0.231903417518424,NLL
5.66666666666667,-0.420494496822357,-1.72324991226196,9.2640380859375,0.92988395690918,0.236281991004944,3.66618180274963,-1147.5,29.1000003814697,-902.100036621094,1.535921280386,-0.0308890054107461,0.191667561978138,NLL
5.7,0.33137121796608,-1.7405960559845,8.10603332519531,0.990859985351562,-0.144817993044853,2.20275783538818,-1154.70007324219,26.7000007629395,-892.500061035156,1.53060912839293,0.0268557995277149,0.206587050203201,NLL
5.73333333333333,-0.580198705196381,-1.24054849147797,9.46680927276611,2.79727387428284,-0.175305992364883,-0.663114011287689,-1142.70007324219,32.1000022888184,-904.500061035156,1.53157870850126,-0.0426835865995234,0.14185130941853,NLL
5.76666666666667,0.0663938671350479,-0.986337780952454,9.18149471282959,2.62196803092957,-0.0152439996600151,-1.11281192302704,-1152.30004882812,33.9000015258789,-894.900024414062,1.53354143991095,-0.0026624175751027,0.11040746707094,NLL
5.8,0.458775669336319,-0.857737004756927,9.06366062164307,1.6920839548111,0.160062000155449,-1.64635193347931,-1149.90002441406,35.1000022888184,-897.300048828125,1.53780025497491,0.0408816400279873,0.0947362312751577,NLL
5.83333333333333,0.39238178730011,-1.13407909870148,10.3951263427734,0.602137982845306,1.12043392658234,-2.31708788871765,-1161.90002441406,30.3000011444092,-899.700012207031,1.54339980757029,0.0367986085158898,0.10532009560656,NLL
5.86666666666667,0.268566191196442,-1.32967185974121,10.2940406799316,0.236281991004944,1.01372599601746,-2.94971394538879,-1152.30004882812,24.3000011444092,-902.100036621094,1.54981818448914,0.0271543419859194,0.123334236396647,NLL
5.9,-0.398961365222931,-1.40503787994385,9.38725566864014,-0.297257989645004,0.922261953353882,-3.16313004493713,-1137.90002441406,29.1000003814697,-897.300048828125,1.55781110293975,-0.0303263891607436,0.144547506217398,NLL
5.93333333333333,-0.640611112117767,-1.32309222221375,9.82988166809082,-0.800309956073761,0.861285984516144,-3.05642199516296,-1152.30004882812,27.9000015258789,-899.700012207031,1.56528155876973,-0.0593827978204979,0.137000325020879,NLL
5.96666666666667,-1.02342259883881,-0.827829897403717,8.81004810333252,-0.342989981174469,0.121951997280121,-2.35519790649414,-1145.10009765625,26.7000007629395,-887.700012207031,1.5678692049284,-0.103712998181174,0.103240708747972,NLL
6.0,-1.16697692871094,-1.45887064933777,9.72939395904541,-0.663114011287689,0.182927995920181,-1.60061991214752,-1147.5,23.7000007629395,-899.700012207031,1.57549354685935,-0.115157888248647,0.140798631967376,NLL
6.03333333333333,-1.1376678943634,-1.9128612279892,9.41716289520264,-1.00610399246216,-0.106707997620106,-1.60824191570282,-1133.10009765625,31.5000019073486,-923.700012207031,1.58451172528335,-0.116805078382546,0.190020157893497,NLL
6.06666666666667,-1.06230187416077,-2.24901747703552,9.56131553649902,-2.04269599914551,-0.182927995920181,-2.11129403114319,-1142.70007324219,24.9000015258789,-906.900024414062,1.59266182763784,-0.108707236426476,0.225914182768813,NLL
6.1,-0.770408153533936,-2.69642853736877,9.69709396362305,-2.25611186027527,0.0304879993200302,-1.91312193870544,-1145.10009765625,26.1000003814697,-892.500061035156,1.60069020219453,-0.081189515885167,0.267136466753933,NLL
6.13333333333333,-0.400755792856216,-2.44640469551086,9.59301662445068,-1.36433792114258,-0.25152599811554,-2.60672402381897,-1140.30004882812,26.1000003814697,-890.100036621094,1.60583805991712,-0.0459811943788789,0.254804363582476,NLL
6.16666666666667,-0.141161739826202,-2.4816951751709,9.05349159240723,-0.0228659994900227,0.304879993200302,-2.09605002403259,-1152.30004882812,27.3000011444092,-897.300048828125,1.61146936227579,-0.0198753341981364,0.265524643108774,NLL
6.2,-0.614292860031128,-2.41948843002319,9.2161865234375,0.121951997280121,0.243903994560242,-2.69056582450867,-1152.30004882812,25.5000019073486,-902.100036621094,1.61734604087457,-0.0547710174413409,0.258505625722221,NLL
6.23333333333333,-0.634031534194946,-2.34232783317566,8.99188327789307,-0.37347799539566,0.342989981174469,-1.55488801002502,-1140.30004882812,23.7000007629395,-897.300048828125,1.62081632239512,-0.0653480781463822,0.256230257234031,NLL
6.26666666666667,-0.971982300281525,-2.09888362884521,9.00384616851807,-0.304879993200302,0.480185985565186,-0.830797970294952,-1142.70007324219,32.1000022888184,-894.900024414062,1.62115871696521,-0.0971922939295815,0.235061103607013,NLL
6.3,-1.08204066753387,-2.29507446289062,8.97453689575195,-0.396344006061554,0.792688012123108,0.274392008781433,-1145.10009765625,26.1000003814697,-906.900024414062,1.62222866514889,-0.113600932489494,0.247817496149855,NLL
6.33333333333333,-0.607713282108307,-2.7682056427002,9.22037410736084,-1.14329993724823,0.701223969459534,0.198172003030777,-1147.5,25.5000019073486,-899.700012207031,1.62540010086928,-0.0742869705205111,0.284447169114916,NLL
6.36666666666667,-1.08263874053955,-2.82981443405151,9.08339881896973,-0.449698001146317,-0.0685980021953583,-0.0381099991500378,-1142.70007324219,30.9000015258789,-914.100036621094,1.62667941168074,-0.105794884428008,0.299303726883257,NLL
6.4,-1.52347016334534,-2.85254383087158,8.52951908111572,-0.0533539988100529,0.480185985565186,0.426831990480423,-1152.30004882812,26.7000007629395,-916.500061035156,1.62855696265502,-0.157572560654797,0.318548737602095,NLL
6.43333333333333,-1.88953363895416,-2.67190456390381,9.16115760803223,-0.0152439996600151,-0.160062000155449,1.55488801002502,-1149.90002441406,23.7000007629395,-899.700012207031,1.61969194775173,-0.189588526064879,0.28926557197151,NLL
6.46666666666667,-1.23337078094482,-2.67489528656006,9.04870700836182,0.175305992364883,-0.823175966739655,2.21800184249878,-1137.90002441406,26.1000003814697,-906.900024414062,1.61402733246389,-0.141767042395387,0.287033655472993,NLL
6.5,-1.73341834545135,-2.23286771774292,8.96137809753418,1.6844619512558,-0.358233988285065,2.31708788871765,-1140.30004882812,21.9000015258789,-911.700012207031,1.60345016743061,-0.177110055977741,0.249978656250466,NLL
6.53333333333333,-1.19688403606415,-2.13537049293518,9.69709396362305,1.92074394226074,-0.945127964019775,2.53050398826599,-1145.10009765625,27.9000015258789,-902.100036621094,1.59345452167263,-0.131003057925817,0.220172799310556,NLL
6.56666666666667,-1.0335910320282,-2.00019001960754,9.0851936340332,2.30184388160706,-2.11891603469849,1.85976791381836,-1147.5,33.3000030517578,-911.700012207031,1.5881304406608,-0.112420963968861,0.213817180549201,NLL
6.6,-0.825437307357788,-1.88056147098541,9.21319580078125,1.82165801525116,-1.82165801525116,1.05183601379395,-1137.90002441406,29.1000003814697,-916.500061035156,1.5840521918418,-0.0903805905503907,0.201128464774066,NLL
6.63333333333333,-0.442027658224106,-1.70231485366821,9.36392784118652,1.31098401546478,-1.93598794937134,0.510673999786377,-1152.30004882812,20.7000007629395,-899.700012207031,1.58077910638004,-0.0516710946676605,0.181667507733561,NLL
6.66666666666667,-0.294286340475082,-1.91226303577423,9.27001953125,0.907018005847931,-1.16616594791412,0.106707997620106,-1147.5,27.3000011444092,-909.300048828125,1.58080795707646,-0.0336690648592561,0.197766144947589,NLL
6.7,0.244042336940765,-2.20654940605164,8.92190074920654,0.503051996231079,-0.282013982534409,-1.99696397781372,-1164.30004882812,26.7000007629395,-904.500061035156,1.58549045686002,0.0153690619107909,0.232738377290227,NLL
6.73333333333333,-0.368456065654755,-1.98583471775055,9.11928749084473,1.09756803512573,-0.320124000310898,-3.7805118560791,-1154.70007324219,24.3000011444092,-899.700012207031,1.59373812139175,-0.0268115774472929,0.216658625674888,NLL
6.76666666666667,-0.530552804470062,-1.89611327648163,9.63488674163818,1.37195992469788,0.198172003030777,-3.91770792007446,-1161.90002441406,21.9000015258789,-914.100036621094,1.60204700488825,-0.0476702148317845,0.197136100878321,NLL
6.8,-0.0065795728005468,-2.03727507591248,9.54755783081055,1.57013201713562,-0.190549999475479,-3.10977602005005,-1142.70007324219,30.3000011444092,-909.300048828125,1.60973309206584,-0.0079137652117713,0.205729954302024,NLL
6.83333333333333,0.154320880770683,-1.9828439950943,9.52303409576416,1.58537602424622,-0.579271972179413,-2.78965187072754,-1164.30004882812,24.3000011444092,-902.100036621094,1.61611235564645,0.0132371842237411,0.203065378449439,NLL
6.86666666666667,0.272155046463013,-2.02232146263123,8.29145812988281,1.59299790859222,-0.37347799539566,-3.38416790962219,-1164.30004882812,24.9000015258789,-892.500061035156,1.62351909808579,0.0303570949730771,0.230721594353038,NLL
6.9,0.104675017297268,-2.1030707359314,9.29454326629639,1.14329993724823,0.221037998795509,-4.55795574188232,-1161.90002441406,19.5,-906.900024414062,1.63398876987333,0.016008628272112,0.222454591068121,NLL
6.93333333333333,-0.460570096969604,-1.70470750331879,10.1618509292603,2.080806016922,0.0381099991500378,-6.3719916343689,-1171.5,23.1000003814697,-906.900024414062,1.6480752779145,-0.0308147967014178,0.174823072785941,NLL
6.96666666666667,0.0155517170205712,-2.05462121963501,9.14919471740723,2.10367202758789,0.0990860015153885,-6.59302997589111,-1169.10009765625,18.9000015258789,-906.900024414062,1.66367198872605,-0.0032427048791696,0.20877726832133,NLL
7.0,0.0197387188673019,-1.11374223232269,9.80715179443359,2.43903994560242,-0.205793991684914,-6.84455585479736,-1154.70007324219,15.3000001907349,-906.900024414062,1.67910446597953,0.0026789119124419,0.129003562289898,NLL
7.03333333333333,-0.420494496822357,-0.677695989608765,9.55892276763916,3.41465592384338,0.403965979814529,-5.17533779144287,-1176.30004882812,17.1000003814697,-923.700012207031,1.69071125254589,-0.0349043185634556,0.0772018523529621,NLL
7.06666666666667,0.24882747232914,-0.729734420776367,8.74664497375488,3.20123982429504,0.525918006896973,-2.76678586006165,-1173.90002441406,15.3000001907349,-921.300048828125,1.69762037193142,0.0165876724317213,0.0775684954931661,NLL
7.1,0.274547636508942,-0.849363029003143,9.21439266204834,2.40092992782593,0.472563982009888,-1.47104597091675,-1173.90002441406,12.3000001907349,-904.500061035156,1.7010857010849,0.0269608940720244,0.0859691172464058,NLL
7.13333333333333,0.123815596103668,-0.785959839820862,9.14859676361084,1.80641400814056,0.800309956073761,-0.411587983369827,-1164.30004882812,12.9000005722046,-906.900024414062,1.70225142408144,0.0146364317756863,0.0831090349238888,NLL
7.16666666666667,-0.436644375324249,-0.538926839828491,9.64086818695068,1.51677799224854,1.63872992992401,0.914639949798584,-1169.10009765625,14.1000003814697,-906.900024414062,1.70020361564144,-0.0355004291704809,0.0592104754035562,NLL
7.2,-1.0856294631958,-0.438438802957535,10.6188325881958,1.37958192825317,1.73781597614288,1.84452390670776,-1164.30004882812,4.5,-918.900024414062,1.69533143474027,-0.0909805277650414,0.0427924023557804,NLL
7.23333333333333,-0.486290246248245,-0.956430613994598,9.92498588562012,0.792688012123108,1.28049600124359,3.16313004493713,-1161.90002441406,8.70000076293945,-914.100036621094,1.69131941532162,-0.0588940740859802,0.0845660496125665,NLL
7.26666666666667,-0.0640012994408607,-0.952243626117706,9.40460205078125,0.602137982845306,3.04879999160767,2.54574799537659,-1157.10009765625,11.1000003814697,-916.500061035156,1.68620617781166,-0.020271262809111,0.0971943803777348,NLL
7.3,-1.01145970821381,-0.403148353099823,10.4154634475708,0.807931959629059,2.53050398826599,1.57775402069092,-1142.70007324219,15.9000005722046,-916.500061035156,1.68058427282825,-0.085006413728039,0.0492814335676914,NLL
7.33333333333333,-0.951047301292419,-0.324193477630615,9.34418964385986,0.769822001457214,-0.434453994035721,1.21951997280121,-1149.90002441406,8.70000076293945,-906.900024414062,1.67673196907904,-0.0975387572830493,0.0363910932352054,NLL
7.36666666666667,-0.401353925466537,-0.499449372291565,8.99606990814209,-0.0838419944047928,-1.16616594791412,1.79117000102997,-1147.5,6.30000019073486,-914.100036621094,1.6732822506504,-0.0518440803122752,0.0522176430687418,NLL
7.4,-0.559263706207275,0.0083740018308162,9.72161769866943,0.0152439996600151,-1.30336201190948,1.85214591026306,-1145.10009765625,15.3000001907349,-909.300048828125,1.66633826230674,-0.0546650310149166,0.0084463924964081,NLL
7.43333333333333,-0.654966533184052,0.404344648122787,9.84004974365234,0.967993974685669,-0.708845973014832,1.63110792636871,-1154.70007324219,12.9000005722046,-902.100036621094,1.66032330137851,-0.0630220233974705,-0.0325712712461359,NLL
7.46666666666667,-0.213537037372589,0.321800917387009,9.11330604553223,1.27287399768829,-0.0685980021953583,1.18903195858002,-1152.30004882812,16.5,-911.700012207031,1.65754261171846,-0.0312384162940131,-0.036591631107147,NLL
7.5,-0.821848452091217,0.474327385425568,9.53380107879639,0.6250039935112,0.0762199983000755,-0.25152599811554,-1145.10009765625,15.9000005722046,-923.700012207031,1.65758851068836,-0.0749865610036382,-0.0479113912454717,NLL
7.53333333333333,-1.03538548946381,0.495860517024994,9.91122913360596,-0.381099998950958,-0.457319974899292,-1.08232402801514,-1147.5,11.1000003814697,-918.900024414062,1.6601051887479,-0.0982045409233034,-0.0489263569007836,ST
7.56666666666667,-0.39836323261261,0.267968058586121,10.2749004364014,-0.861285984516144,-1.09756803512573,-1.64635193347931,-1142.70007324219,6.90000009536743,-899.700012207031,1.66566271202895,-0.0472131146907043,-0.0285011349269209,ST
7.6,-0.105871304869652,0.0233275759965181,9.88491058349609,-0.716467976570129,-1.10518991947174,-2.53812599182129,-1149.90002441406,10.5,-909.300048828125,1.6725604032787,-0.0156959615980172,-0.0059086546265758,ST
7.63333333333333,0.166881889104843,-0.146545022726059,9.17252254486084,-1.07470202445984,-0.259148001670837,-3.3613018989563,-1152.30004882812,11.7000007629395,-911.700012207031,1.68079400672295,0.0125406424326686,0.0135851515107085,ST
7.66666666666667,0.0167480036616325,-0.25839775800705,8.99427604675293,-1.57013201713562,0.350611984729767,-3.3460578918457,-1159.5,10.5,-933.300048828125,1.68912946120014,0.0032627439656007,0.0284294999461055,ST
7.7,-0.590367138385773,-0.611900269985199,9.22575759887695,-1.51677799224854,1.21951997280121,-3.15550804138184,-1157.10009765625,10.5,-906.900024414062,1.69794732462953,-0.0540289626438255,0.0622368248283818,ST
7.73333333333333,-0.852353751659393,-0.771006286144257,9.86995697021484,-0.960371971130371,1.64635193347931,-2.9344699382782,-1145.10009765625,7.50000047683716,-911.700012207031,1.7057473203226,-0.0814539749874154,0.0764280107305437,ST
7.76666666666667,-0.824241042137146,-0.667527556419373,9.81133937835693,0.160062000155449,0.983237981796265,-3.03355598449707,-1152.30004882812,8.10000038146973,-918.900024414062,1.71233625282142,-0.0842460884960662,0.0697825988519144,ST
7.8,-0.673509001731873,-0.750071287155151,9.79758167266846,0.411587983369827,0.564027965068817,-2.98020195960999,-1147.5,13.5000009536743,-911.700012207031,1.71972073773074,-0.0721042768346118,0.0748195348663495,ST
7.83333333333333,-0.872690618038177,-0.563450694084167,10.3293313980103,0.586893975734711,0.3125019967556,-3.08691000938416,-1137.90002441406,15.3000001907349,-916.500061035156,1.72585919561293,-0.082039904150958,0.0578744775287295,ST
7.86666666666667,-0.608311414718628,-0.416307508945465,9.77365589141846,0.716467976570129,0.449698001146317,-3.40703392028809,-1135.5,11.7000007629395,-923.700012207031,1.73335123124182,-0.0660734040409515,0.0446230044462029,ST
7.9,-0.349913626909256,-0.510814070701599,9.1988410949707,0.510673999786377,0.967993974685669,-3.47563195228577,-1145.10009765625,5.70000028610229,-923.700012207031,1.74246430473761,-0.0441218723282485,0.0530619477939849,ST
7.93333333333333,-0.628648281097412,-0.51440292596817,9.18807411193848,0.381099998950958,1.01372599601746,-3.50611996650696,-1140.30004882812,11.1000003814697,-923.700012207031,1.75155287978682,-0.0653531317754846,0.0551967560053212,ST
7.96666666666667,-0.991721034049988,-0.575413525104523,9.59899806976318,0.0457319989800453,0.472563982009888,-2.9268479347229,-1130.70007324219,11.1000003814697,-930.900024414062,1.75928778685077,-0.0969198113628427,0.0593942987026552,ST
8.0,-0.558067381381989,-0.594554126262665,9.40280723571777,-0.198172003030777,0.0685980021953583,-1.99696397781372,-1133.10009765625,12.3000001907349,-916.500061035156,1.76411991519133,-0.0667015707585625,0.062881861280374,ST
8.03333333333333,0.0687864422798157,-1.03538548946381,9.31368446350098,-0.205793991684914,-0.411587983369827,-1.53964400291443,-1135.5,8.70000076293945,-914.100036621094,1.76918789024413,-0.0051269944087495,0.102522600638868,ST
8.06666666666667,-0.113049022853374,-1.01744115352631,8.96137809753418,-0.6250039935112,-1.02897000312805,-1.47104597091675,-1130.70007324219,14.7000007629395,-914.100036621094,1.77236057315446,-0.0093929665870145,0.111815187633266,ST
8.1,0.0992917343974113,-1.05871307849884,9.16953182220459,-1.14329993724823,-0.83841997385025,-0.87652999162674,-1135.5,14.1000003814697,-918.900024414062,1.77414780366492,0.0079946781712824,0.115910233378114,ST
8.13333333333333,0.0867307335138321,-1.18910825252533,9.48415470123291,-0.602137982845306,-0.449698001146317,-0.792688012123108,-1130.70007324219,15.3000001907349,-930.900024414062,1.77577981876447,0.0096115881160915,0.123780151344009,ST
8.16666666666667,-0.117236025631428,-1.4941611289978,9.3717041015625,0.182927995920181,0.0228659994900227,-0.78506600856781,-1133.10009765625,8.70000076293945,-928.500061035156,1.77755398241933,-0.007801937609864,0.150929531479301,ST
8.2,-0.454588651657104,-1.51509618759155,9.63309288024902,0.617381989955902,0.25152599811554,-0.830797970294952,-1128.30004882812,-0.300000011920929,-914.100036621094,1.77964165292887,-0.0389364492703404,0.154154816874472,ST
8.23333333333333,-0.79672646522522,-1.25669836997986,10.5075778961182,1.28049600124359,0.274392008781433,-0.160062000155449,-1130.70007324219,8.10000038146973,-923.700012207031,1.77865551443452,-0.0682079789179086,0.124357641337621,ST
8.26666666666667,-0.989328503608704,-1.16398620605469,9.91541576385498,1.95123195648193,0.236281991004944,0.67835795879364,-1133.10009765625,4.5,-914.100036621094,1.7768272730204,-0.0930547923181154,0.115574472981176,ST
8.3,-1.14065861701965,-1.35120499134064,10.0135116577148,1.81403601169586,0.274392008781433,1.30336201190948,-1128.30004882812,7.50000047683716,-911.700012207031,1.77557982661417,-0.109120722711399,0.12767070549723,ST
8.33333333333333,-0.932504892349243,-1.16219174861908,9.85620021820068,1.2423859834671,0.114329993724823,0.983237981796265,-1123.5,10.5,-911.700012207031,1.7724866424109,-0.0967723445014277,0.117287677273657,ST
8.36666666666667,-0.610703945159912,-1.45049667358398,9.88431262969971,0.983237981796265,-0.0304879993200302,0.853663980960846,-1125.90002441406,8.70000076293945,-911.700012207031,1.77237110646132,-0.0671771982247227,0.139429260370471,ST
8.4,-0.451597929000854,-1.30275535583496,8.86567497253418,1.41006994247437,-0.327746003866196,0.708845973014832,-1116.30004882812,5.70000028610229,-923.700012207031,1.77094801909295,-0.0530357167965777,0.142663015739522,ST
8.43333333333333,-0.675303399562836,-1.26267981529236,8.61086654663086,1.49391198158264,-0.236281991004944,1.08994603157043,-1135.5,10.5,-923.700012207031,1.76861454158422,-0.0724137540696837,0.142822697772527,ST
8.46666666666667,-1.17415463924408,-1.01803934574127,9.21499061584473,1.56251001358032,-0.266770005226135,1.47866797447205,-1130.70007324219,3.90000009536743,-921.300048828125,1.76255168775895,-0.116308946458481,0.113449308638583,ST
8.5,-1.18851006031036,-1.02402079105377,9.83466720581055,1.60824191570282,-0.640248000621796,2.24848985671997,-1116.30004882812,9.30000019073486,-914.100036621094,1.75600565353291,-0.11849023170752,0.102643475155891,ST
8.53333333333333,-0.656760990619659,-1.20166921615601,10.0852890014648,1.30336201190948,-1.59299790859222,3.27745985984802,-1140.30004882812,6.30000019073486,-928.500061035156,1.74943652674779,-0.0737312492539409,0.113154227799618,ST
8.56666666666667,-0.35709136724472,-1.10835897922516,9.57088565826416,1.49391198158264,-1.19665396213531,3.17837381362915,-1140.30004882812,5.70000028610229,-923.700012207031,1.74202686366357,-0.043274591801164,0.112536795401866,ST
8.6,-0.515001118183136,-0.979758203029633,9.93993949890137,1.40244793891907,-0.632625997066498,3.24697184562683,-1135.5,8.10000038146973,-930.900024414062,1.7334889105055,-0.0496229973448689,0.0985618042908204,ST
8.63333333333333,-0.476719945669174,-0.849961161613464,9.54516506195068,1.95123195648193,-0.724089980125427,3.24697184562683,-1125.90002441406,11.7000007629395,-926.100036621094,1.72512137411844,-0.0490799219094186,0.0875188479049037,ST
8.66666666666667,-0.82663357257843,-0.469542235136032,8.89498424530029,2.30184388160706,0.0304879993200302,2.80489587783813,-1149.90002441406,6.30000019073486,-911.700012207031,1.71608717603193,-0.0860139747995685,0.0545319890868489,ST
8.7,-1.26208162307739,-0.16568560898304,9.29514217376709,2.43903994560242,0.350611984729767,3.07166600227356,-1142.70007324219,2.70000004768372,-911.700012207031,1.70591291967481,-0.126296743702522,0.0208693494011478,ST
8.73333333333333,-0.91874760389328,-0.273351341485977,9.59301662445068,1.2500079870224,-1.50153398513794,3.67380380630493,-1133.10009765625,4.5,-916.500061035156,1.69744534851391,-0.098558787696932,0.0248205934476459,ST
8.76666666666667,-0.492271661758423,-0.110058307647705,9.0134162902832,0.518296003341675,-2.12653803825378,3.3613018989563,-1147.5,8.10000038146973,-923.700012207031,1.68859482785591,-0.0599732224528948,0.0135129709449358,ST
8.8,-0.37025049328804,-0.146545022726059,9.59660625457764,0.541162014007568,-1.06708002090454,3.04879999160767,-1147.5,2.10000014305115,-914.100036621094,1.68120614367375,-0.040907123375148,0.0139746500948307,ST
8.83333333333333,-0.533543527126312,-0.111254595220089,9.96506214141846,0.945127964019775,-0.78506600856781,2.84300589561462,-1145.10009765625,9.30000019073486,-914.100036621094,1.67456745390181,-0.049905029632015,0.0102256684716533,ST
8.86666666666667,-0.406737208366394,-0.123815596103668,9.71683216094971,1.00610399246216,-1.10518991947174,2.59910202026367,-1149.90002441406,11.7000007629395,-928.500061035156,1.6686844694743,-0.0419547408517129,0.0106707171218003,ST
8.9,-0.349913626909256,0.116039738059044,9.10194206237793,0.967993974685669,-0.800309956073761,2.47714996337891,-1140.30004882812,3.30000019073486,-916.500061035156,1.66226073299589,-0.0380091454597126,-0.0095173903188475,ST
8.93333333333333,-0.32239904999733,0.0083740018308162,9.38845252990723,0.884151995182037,-0.358233988285065,2.36281991004944,-1149.90002441406,2.70000004768372,-918.900024414062,1.65677970084016,-0.0344510695095078,-0.0038185646994512,ST
8.96666666666667,0.0508421510457993,-0.072973445057869,8.84294605255127,-0.152439996600151,-0.708845973014832,1.30336201190948,-1157.10009765625,7.50000047683716,-921.300048828125,1.65385366313991,-0.0008805001035786,0.0061569087050605,ST
9.0,0.084936298429966,-0.139965459704399,8.75023365020752,-0.663114011287689,-1.09756803512573,0.769822001457214,-1161.90002441406,4.5,-918.900024414062,1.65191236123425,0.0093759068304734,0.0151964038443966,ST
9.03333333333333,-0.285314202308655,-0.110656447708607,9.59182071685791,-0.358233988285065,-0.891773998737335,0.533540010452271,-1154.70007324219,7.50000047683716,-909.300048828125,1.65055770409603,-0.0214847776302513,0.0126943330162332,ST
9.06666666666667,-0.252416342496872,-0.28411790728569,9.99317455291748,-0.0990860015153885,-1.41006994247437,0.823175966739655,-1140.30004882812,11.7000007629395,-897.300048828125,1.64881840822554,-0.0225621372841368,0.025552430485489,ST
9.1,0.2613884806633,-0.440831363201141,9.88371467590332,-0.564027965068817,-2.30184388160706,0.846041977405548,-1164.30004882812,6.90000009536743,-935.700012207031,1.64643562095626,0.0220325305018206,0.0424178438734285,ST
9.13333333333333,0.556272983551025,-0.589170813560486,9.86995697021484,-0.823175966739655,-2.4923939704895,0.762199997901917,-1157.10009765625,8.10000038146973,-923.700012207031,1.64383792325414,0.0531797552297987,0.0575752170877428,ST
9.16666666666667,1.23396897315979,-1.1538177728653,9.93635082244873,-1.20427596569061,-2.02745199203491,0.967993974685669,-1169.10009765625,4.5,-899.700012207031,1.63751612620539,0.111411014204741,0.105673454541865,ST
9.2,1.37572884559631,-1.28959619998932,9.25028133392334,-0.891773998737335,-0.846041977405548,0.3125019967556,-1164.30004882812,11.7000007629395,-921.300048828125,1.6333793253899,0.140345535864868,0.133196159189521,ST
9.23333333333333,0.363072782754898,-0.919943869113922,9.86038684844971,-0.167683988809586,0.25152599811554,0.259148001670837,-1171.5,7.50000047683716,-899.700012207031,1.63606613510299,0.0536483976414735,0.100021507896127,ST
9.26666666666667,-0.403746515512466,-0.515599250793457,10.2778902053833,1.21189796924591,0.769822001457214,1.06708002090454,-1152.30004882812,8.10000038146973,-911.700012207031,1.63437273634967,-0.0216722563120546,0.0585143108840152,ST
9.3,-0.364867210388184,-0.099889874458313,9.29753398895264,1.41769194602966,0.800309956073761,1.38720393180847,-1176.30004882812,8.10000038146973,-906.900024414062,1.62983051570341,-0.0375047112500326,0.0166349158001693,ST
9.33333333333333,-0.425279647111893,-0.0161498598754406,10.3909397125244,0.716467976570129,0.922261953353882,2.40855193138123,-1164.30004882812,5.70000028610229,-904.500061035156,1.6236763482716,-0.041590748137103,0.0032634046378078,ST
9.36666666666667,-0.468944102525711,-0.287706762552261,10.1181869506836,0.205793991684914,-0.0533539988100529,2.30184388160706,-1161.90002441406,4.5,-918.900024414062,1.61925057361,-0.0453290062805833,0.0229291881777339,ST
9.4,-0.0526365824043751,-0.375035643577576,10.0284652709961,-0.213415995240211,-0.320124000310898,1.82165801525116,-1169.10009765625,6.90000009536743,-904.500061035156,1.61498575135393,-0.0115869297000178,0.0352105568280674,ST
9.43333333333333,-0.21712589263916,-0.0741697251796722,9.97044563293457,0.792688012123108,0.243903994560242,1.33385002613068,-1164.30004882812,9.90000057220459,-923.700012207031,1.61158608153506,-0.0200982204936514,0.0118972262017327,ST
9.46666666666667,-0.425279647111893,0.108862020075321,9.03554725646973,1.41006994247437,0.861285984516144,0.754577994346619,-1166.70007324219,4.5,-892.500061035156,1.60928870110463,-0.0428016086050123,-0.0092222435833558,ST
9.5,-0.69264954328537,0.214733332395554,9.62112998962402,0.92988395690918,0.907018005847931,0.731711983680725,-1159.5,12.3000001907349,-906.900024414062,1.6069229225424,-0.0679473152853556,-0.0213739648503336,ST
9.53333333333333,-0.693845868110657,0.489280939102173,9.18149471282959,0.655492007732391,0.0533539988100529,0.221037998795509,-1166.70007324219,8.70000076293945,-902.100036621094,1.6045679890763,-0.0740727123399361,-0.0485115162097709,ST
9.56666666666667,-0.725547432899475,0.686069965362549,9.56310939788818,1.02134799957275,0.320124000310898,0.632625997066498,-1154.70007324219,12.3000001907349,-906.900024414062,1.6016349132237,-0.075674224625067,-0.0690289917496413,ST
9.6,-0.413914948701859,0.553880393505096,9.74554347991943,0.602137982845306,-0.236281991004944,0.190549999475479,-1161.90002441406,8.70000076293945,-909.300048828125,1.60186266711112,-0.0476043889732365,-0.0597160777324463,ST
9.63333333333333,-0.179442897439003,0.355895072221756,9.07741737365723,-1.05945801734924,-1.07470202445984,-0.358233988285065,-1159.5,3.90000009536743,-906.900024414062,1.60336407549856,-0.0238917711616046,-0.0418281287437325,ST
9.66666666666667,-0.192602038383484,0.273949474096298,9.5391845703125,-1.36433792114258,-0.221037998795509,-0.564027965068817,-1142.70007324219,3.90000009536743,-906.900024414062,1.60488632689743,-0.0206462254645185,-0.0294355378040975,ST
9.7,-0.0855344459414482,-0.0783567279577255,9.86995697021484,-1.05945801734924,0.411587983369827,-0.731711983680725,-1164.30004882812,6.90000009536743,-914.100036621094,1.60702498237302,-0.0116638835632483,0.0018964858455875,ST
9.73333333333333,-0.352306216955185,-0.480906963348389,9.39024639129639,-0.78506600856781,0.731711983680725,-1.31860601902008,-1164.30004882812,2.10000014305115,-926.100036621094,1.61096590252621,-0.0332214516001908,0.0423683606682503,ST
9.76666666666667,-0.728538155555725,-0.52935653924942,9.55413722991943,-0.739333987236023,1.08994603157043,-1.49391198158264,-1147.5,10.5,-928.500061035156,1.61501990176717,-0.0687784505269257,0.0538808007874554,ST
9.8,-0.811680018901825,-0.598142981529236,9.48236083984375,-0.762199997901917,0.990859985351562,-1.30336201190948,-1145.10009765625,6.90000009536743,-918.900024414062,1.61895290896568,-0.0837849315610772,0.0627286000209781,ST
9.83333333333333,-1.04435765743256,-0.47851437330246,9.45963096618652,-0.541162014007568,1.02897000312805,-0.891773998737335,-1147.5,5.70000028610229,-918.900024414062,1.62017711840593,-0.105932191923437,0.0538890719963468,ST
9.86666666666667,-0.744687974452972,-0.307445496320724,10.1098127365112,-0.0228659994900227,0.198172003030777,-0.243903994560242,-1142.70007324219,-0.900000035762787,-923.700012207031,1.61899992656678,-0.0788849156672183,0.0341568649692442,ST
9.9,-0.0412718653678894,-0.70162171125412,8.85789966583252,0.0304879993200302,-0.388722002506256,-0.0533539988100529,-1161.90002441406,9.30000019073486,-914.100036621094,1.62083378600746,-0.0190871950307421,0.0699668807913265,ST
9.93333333333333,0.0257201474159956,-0.729734420776367,8.99188327789307,-0.548784017562866,-0.282013982534409,-0.708845973014832,-1154.70007324219,6.30000019073486,-921.300048828125,1.62268807104521,-0.0001132497420603,0.0800551849827654,ST
9.96666666666667,-0.358885794878006,-0.748875021934509,9.39742469787598,-0.525918006896973,-0.327746003866196,-0.556405961513519,-1140.30004882812,11.1000003814697,-921.300048828125,1.62389205273152,-0.029886601864673,0.0803780974308909,ST
10.0,-0.160900458693504,-0.788950562477112,9.25387001037598,-1.22714197635651,-0.708845973014832,-0.564027965068817,-1142.70007324219,9.30000019073486,-909.300048828125,1.6251496179449,-0.0186415576847169,0.0859151187635918,ST
10.0333333333333,0.0400755777955055,-0.834409415721893,9.29753398895264,-1.73781597614288,-0.990859985351562,-0.381099998950958,-1161.90002441406,11.1000003814697,-906.900024414062,1.62587304845382,0.0016614844982105,0.0913584375270147,ST
10.0666666666667,0.129198879003525,-0.582591235637665,9.65402793884277,-1.17378795146942,-1.36433792114258,-0.228659987449646,-1157.10009765625,9.30000019073486,-914.100036621094,1.62637939950556,0.0133965279690584,0.0671932463961314,ST
10.1,0.267968058586121,-0.849363029003143,9.47518253326416,-0.769822001457214,-0.861285984516144,-0.472563982009888,-1145.10009765625,12.3000001907349,-906.900024414062,1.62699588532361,0.026625780718289,0.0862616605043225,ST
10.1333333333333,-0.149535745382309,-0.320604622364044,10.003342628479,-0.724089980125427,-0.922261953353882,-1.12043392658234,-1161.90002441406,12.3000001907349,-911.700012207031,1.63011883131145,-0.0065362917720718,0.0421920054804361,ST
10.1666666666667,-0.235070183873177,-0.379820793867111,10.2126932144165,-0.419209986925125,-0.46494197845459,-1.08994603157043,-1164.30004882812,13.5000009536743,-916.500061035156,1.6326749278997,-0.0193299075940604,0.0386950583358747,ST
10.2,0.221911042928696,-0.640611112117767,10.8832111358643,-0.426831990480423,0.121951997280121,-2.01982998847961,-1147.5,11.7000007629395,-906.900024414062,1.63766620615467,0.0132321776630686,0.0558055274230267,ST
10.2333333333333,0.303856641054153,-0.646592557430267,9.82390022277832,-0.37347799539566,0.342989981174469,-2.76678586006165,-1157.10009765625,9.30000019073486,-906.900024414062,1.64449592537946,0.0276454583290749,0.0645053249123168,ST
10.2666666666667,-0.0974973067641258,-0.881662726402283,10.1193828582764,-0.807931959629059,0.640248000621796,-2.86587190628052,-1142.70007324219,5.70000028610229,-909.300048828125,1.65097366934532,-0.0026657184599878,0.083486476918808,ST
10.3,-0.0783567279577255,-1.1496307849884,9.75092697143555,-1.40244793891907,0.365855991840363,-3.24697184562683,-1157.10009765625,9.30000019073486,-923.700012207031,1.65862178259943,-0.006950860720689,0.112503023300176,ST
10.3333333333333,-0.0556272976100445,-1.35240125656128,9.14859676361084,-1.6920839548111,0.548784017562866,-3.26983785629272,-1157.10009765625,11.7000007629395,-906.900024414062,1.66642319288808,-0.0063614115996317,0.142238016887348,ST
10.3666666666667,-0.174059599637985,-1.75076448917389,9.06964206695557,-1.41769194602966,1.48628997802734,-2.79727387428284,-1149.90002441406,13.5000009536743,-921.300048828125,1.67378590579777,-0.0177105444588256,0.182944263978646,ST
10.4,-0.856540739536285,-2.12879085540771,9.76468372344971,-1.44817996025085,1.61586391925812,-2.33233189582825,-1135.5,12.9000005722046,-921.300048828125,1.68088012685404,-0.0733760704175212,0.210458148953088,ST
10.4333333333333,-0.872092425823212,-2.10606145858765,9.32923603057861,-1.50153398513794,1.17378795146942,-1.79879200458527,-1133.10009765625,8.70000076293945,-909.300048828125,1.68614755416018,-0.0884476234841663,0.222019073892359,ST
10.4666666666667,-1.22021162509918,-2.23944735527039,8.59172534942627,-0.754577994346619,1.09756803512573,-0.663114011287689,-1145.10009765625,14.1000003814697,-930.900024414062,1.69099626552556,-0.128143208477436,0.249499417827073,ST
10.5,-1.47083353996277,-2.57739806175232,8.86627292633057,-1.14329993724823,1.40244793891907,0.0304879993200302,-1125.90002441406,12.3000001907349,-930.900024414062,1.69544958229429,-0.15424224768356,0.278224320368437,ST
10.5333333333333,-2.09948182106018,-2.04206013679504,9.63010215759277,-0.602137982845306,1.50915598869324,0.327746003866196,-1121.10009765625,11.1000003814697,-928.500061035156,1.68555133478613,-0.201803687137724,0.223083299153792,ST
10.5666666666667,-1.71188521385193,-2.37044048309326,9.56610012054443,0.411587983369827,-0.0533539988100529,1.82927989959717,-1140.30004882812,20.1000003814697,-906.900024414062,1.68422974092853,-0.177535690646523,0.238513264115947,ST
10.6,-1.20765066146851,-2.50861167907715,9.01999568939209,0.907018005847931,-0.891773998737335,2.24086785316467,-1125.90002441406,17.1000003814697,-938.100036621094,1.68262252307794,-0.136142619277891,0.263970580438597,ST
10.6333333333333,-1.27703523635864,-1.87398195266724,9.48355674743652,1.59299790859222,-1.265251994133,3.01068997383118,-1137.90002441406,14.1000003814697,-918.900024414062,1.66708592491257,-0.131369909293811,0.203680860083655,ST
10.6666666666667,-0.877475738525391,-1.60900461673737,9.1928596496582,3.01831197738647,-1.93598794937134,4.2149658203125,-1135.5,11.1000003814697,-926.100036621094,1.65354832063234,-0.0988276542104434,0.173643513869088,ST
10.7,-0.768015563488007,-1.79801774024963,8.96078014373779,3.44514393806458,-1.6615959405899,4.42838191986084,-1142.70007324219,5.10000038146973,-930.900024414062,1.64489593675338,-0.085710610349034,0.187734683663314,ST
10.7333333333333,-1.1556122303009,-0.99889874458313,9.46441650390625,3.74240183830261,-0.731711983680725,4.10063600540161,-1128.30004882812,11.7000007629395,-911.700012207031,1.62905227290978,-0.113615311747664,0.116000091796365,ST
10.7666666666667,-0.97557121515274,-0.337352633476257,9.58882999420166,4.53508996963501,-1.22714197635651,4.37502813339233,-1130.70007324219,5.70000028610229,-906.900024414062,1.61147189617224,-0.102221192644149,0.0423816959402239,ST
10.8,-0.531749129295349,-0.0077758585102856,8.45415306091309,3.88721990585327,-2.38568592071533,4.16923379898071,-1135.5,7.50000047683716,-928.500061035156,1.59860386274092,-0.0665147775803442,0.002252490350906,ST
10.8333333333333,-0.741697311401367,0.253612607717514,9.84363842010498,2.38568592071533,-2.4923939704895,3.83386588096619,-1140.30004882812,6.30000019073486,-926.100036621094,1.58788975084454,-0.0699743831184833,-0.0245576164056468,ST
10.8666666666667,0.150732025504112,0.135180309414864,8.78911304473877,1.84452390670776,-3.16313004493713,3.02593398094177,-1152.30004882812,6.90000009536743,-914.100036621094,1.58075652000912,0.0072202546949967,-0.0196687926681685,ST
10.9,0.35410064458847,0.189013183116913,9.62292385101318,1.20427596569061,-4.06252574920654,2.27897787094116,-1159.5,11.7000007629395,-904.500061035156,1.57520649334344,0.0377884262385645,-0.021302357719762,ST
10.9333333333333,1.53902184963226,-0.458177506923676,9.98480033874512,-0.152439996600151,-4.11588001251221,0.914639949798584,-1166.70007324219,10.5,-909.300048828125,1.56773352932636,0.140665504441704,0.0355402709527134,ST
10.9666666666667,1.98404026031494,-0.671714544296265,9.09596061706543,-0.907018005847931,-3.52136397361755,-0.655492007732391,-1176.30004882812,6.30000019073486,-906.900024414062,1.56375371065957,0.204316468817311,0.0670923429441891,ST
11.0,1.63711726665497,0.0622068680822849,10.2952365875244,-0.83841997385025,-1.59299790859222,-0.807931959629059,-1176.30004882812,10.5,-909.300048828125,1.57708670895238,0.167937119645517,0.0071686670446203,ST
11.0333333333333,0.891831159591675,0.516197383403778,10.7468347549438,0.426831990480423,-0.731711983680725,0.106707997620106,-1176.30004882812,7.50000047683716,-902.100036621094,1.58273255701869,0.100949404687654,-0.037530269923948,ST
11.0666666666667,0.66034984588623,0.0945065915584564,9.0253791809082,0.190549999475479,1.34147191047668,0.640248000621796,-1171.5,9.90000057220459,-911.700012207031,1.5792391475432,0.0768138111715814,-0.0160978549493818,ST
11.1,-0.10527316480875,-0.0029907147400081,9.92079925537109,-0.754577994346619,1.97409796714783,-0.182927995920181,-1169.10009765625,7.50000047683716,-914.100036621094,1.5791165141038,0.0042716786424896,-0.0019519150307936,ST
11.1333333333333,-0.0167480036616325,-0.512010395526886,10.4328098297119,-1.89025592803955,0.3125019967556,-0.236281991004944,-1154.70007324219,9.30000019073486,-906.900024414062,1.57960813168036,-0.0008453143086838,0.0413918114680097,ST
11.1666666666667,-0.513206660747528,-0.105871304869652,8.87524509429932,-1.12043392658234,0.0762199983000755,-1.04421401023865,-1173.90002441406,14.7000007629395,-918.900024414062,1.58144026054899,-0.0463499643221791,0.0194897109038548,ST
11.2,-0.128002598881721,-0.569432079792023,9.78621673583984,-0.899396002292633,1.44817996025085,-0.426831990480423,-1159.5,13.5000009536743,-914.100036621094,1.58356336751695,-0.0217659534173907,0.0516117061639364,ST
11.2333333333333,-0.684873700141907,-0.43425178527832,9.93395805358887,-1.05945801734924,0.365855991840363,-0.541162014007568,-1173.90002441406,9.30000019073486,-914.100036621094,1.58455403917932,-0.0597660932457727,0.0468018772500974,ST
11.2666666666667,-0.533543527126312,-0.40853163599968,9.51406192779541,-1.49391198158264,-0.0304879993200302,-0.586893975734711,-1166.70007324219,8.10000038146973,-906.900024414062,1.58564199902164,-0.0566545925419882,0.0458257602103967,ST
11.3,-0.540721237659454,-0.901401460170746,9.00265026092529,-1.47104597091675,1.09756803512573,-0.640248000621796,-1159.5,9.30000019073486,-902.100036621094,1.58990039457009,-0.0606612628702651,0.092320385101005,ST
11.3333333333333,-0.644798099994659,-1.49117040634155,9.83227443695068,-2.11129403114319,0.777444005012512,-1.16616594791412,-1152.30004882812,7.50000047683716,-902.100036621094,1.59557112600439,-0.0648143559534875,0.141822877243623,ST
11.3666666666667,-0.427074074745178,-1.51330173015594,9.43809795379639,-1.71494996547699,-0.228659987449646,-1.55488801002502,-1169.10009765625,17.1000003814697,-918.900024414062,1.59971868958962,-0.0480733831179126,0.158030010643047,ST
11.4,-0.547898948192596,-1.46066510677338,9.12945652008057,-0.388722002506256,0.320124000310898,-1.44817996025085,-1166.70007324219,14.1000003814697,-916.500061035156,1.60313788432158,-0.0570714966813467,0.159178861154921,ST
11.4333333333333,-0.78177285194397,-1.46784281730652,9.34239482879639,0.403965979814529,1.08232402801514,-1.05183601379395,-1166.70007324219,12.9000005722046,-914.100036621094,1.6060170103024,-0.0795286083805175,0.155945174895168,ST
11.4666666666667,-0.662742435932159,-1.26866126060486,9.27360820770264,0.480185985565186,0.602137982845306,-0.739333987236023,-1154.70007324219,10.5,-914.100036621094,1.60685002869726,-0.0728857386574668,0.138702297278914,ST
11.5,-0.466551512479782,-1.1095552444458,9.22994422912598,0.609759986400604,0.236281991004944,-0.579271972179413,-1145.10009765625,2.70000004768372,-914.100036621094,1.60730745688616,-0.0549534684196804,0.122677772288605,ST
11.5333333333333,-0.214733332395554,-1.314120054245,9.44587421417236,0.6250039935112,-0.137196004390717,0.160062000155449,-1171.5,11.1000003814697,-911.700012207031,1.60744589023503,-0.028893304183405,0.13422248164776,ST
11.5666666666667,-0.400157660245895,-1.03658175468445,9.60677433013916,0.87652999162674,0.358233988285065,0.640248000621796,-1145.10009765625,11.1000003814697,-916.500061035156,1.60527604690069,-0.039781222074502,0.110970599541763,ST
11.6,-0.922934591770172,-0.891233026981354,9.85978889465332,1.84452390670776,1.77592599391937,1.07470202445984,-1152.30004882812,6.90000009536743,-911.700012207031,1.60198993477422,-0.0873363201645083,0.0906262991443704,ST
11.6333333333333,-0.774595141410828,-0.885849714279175,10.6756553649902,1.62348592281342,0.396344006061554,0.731711983680725,-1159.5,13.5000009536743,-911.700012207031,1.59985199667377,-0.0753881062161816,0.0816643145332409,ST
11.6666666666667,0.0598142966628075,-0.867307305335999,9.71085071563721,0.907018005847931,-0.792688012123108,0.236281991004944,-1154.70007324219,8.10000038146973,-914.100036621094,1.59942308033804,-0.0082629983784735,0.0863794813982388,ST
11.7,1.0856294631958,-0.745286166667938,8.548659324646,0.167683988809586,-1.42531394958496,-0.0076219998300075,-1159.5,14.7000007629395,-923.700012207031,1.59909857792516,0.105323624715223,0.0866529553357613,ST
11.7333333333333,0.803904175758362,-0.811081886291504,8.95180797576904,0.213415995240211,-0.777444005012512,-0.137196004390717,-1159.5,7.50000047683716,-923.700012207031,1.59894240604901,0.0930474176941058,0.0894188875083116,ST
11.7666666666667,0.293688207864761,-0.523973226547241,8.88541412353516,0.594515979290009,0.144817993044853,-0.853663980960846,-1157.10009765625,6.90000009536743,-914.100036621094,1.60257356303512,0.0449779946074155,0.0641425979719395,ST
11.8,-0.0167480036616325,-0.551487803459167,8.92848014831543,0.556405961513519,0.205793991684914,-1.02897000312805,-1164.30004882812,1.5,-921.300048828125,1.60529637488982,0.00530329480197,0.0612339228634733,ST
11.8333333333333,-0.33137121796608,-0.607115089893341,9.34000205993652,-0.495429992675781,-0.304879993200302,-1.56251001358032,-1145.10009765625,9.30000019073486,-916.500061035156,1.60887133002726,-0.0266216324399597,0.0648950508811586,ST
11.8666666666667,-0.52038437128067,-0.811680018901825,10.8939781188965,-1.47104597091675,-1.17378795146942,-1.34147191047668,-1152.30004882812,9.90000057220459,-914.100036621094,1.61197887659407,-0.0416059555317849,0.0745729153126405,ST
11.9,0.0269164331257343,-0.850559294223785,9.90524768829346,-1.71494996547699,-1.81403601169586,-1.265251994133,-1145.10009765625,15.3000001907349,-904.500061035156,1.61471272724879,-0.0035658504654656,0.0858405280048378,ST
11.9333333333333,0.072973445057869,-1.20226740837097,9.68154239654541,-1.61586391925812,-0.0533539988100529,-1.05945801734924,-1159.5,13.5000009536743,-921.300048828125,1.61710057405713,0.0054832823461804,0.118192741123582,ST
11.9666666666667,-0.204564899206161,-1.33326065540314,10.1893653869629,-1.48628997802734,0.480185985565186,-1.09756803512573,-1149.90002441406,11.1000003814697,-911.700012207031,1.61986837417631,-0.0155629121944067,0.129963482360918,ST
12.0,-0.334960073232651,-1.57730305194855,9.66957950592041,-1.16616594791412,0.320124000310898,-0.914639949798584,-1152.30004882812,13.5000009536743,-918.900024414062,1.62277344829429,-0.0311122109637755,0.157733004321946,ST
12.0333333333333,-0.305052906274796,-1.53782558441162,9.33102989196777,-0.914639949798584,0.221037998795509,-1.02897000312805,-1157.10009765625,9.30000019073486,-940.500061035156,1.62560542849803,-0.0321439615193894,0.163849780161861,ST
12.0666666666667,-0.546104550361633,-1.71128702163696,9.08160495758057,0.221037998795509,0.495429992675781,-0.434453994035721,-1149.90002441406,15.3000001907349,-909.300048828125,1.62766954460674,-0.0548161255892593,0.181964238327355,ST
12.1,-0.561058104038239,-1.86919677257538,9.341796875,0.274392008781433,0.0533539988100529,0.190549999475479,-1154.70007324219,9.30000019073486,-906.900024414062,1.6279723227994,-0.0582365801557837,0.194302782220121,ST
12.1333333333333,-0.83261501789093,-1.76811063289642,10.1720190048218,0.0152439996600151,-0.67835795879364,1.01372599601746,-1161.90002441406,11.7000007629395,-916.500061035156,1.62400936123048,-0.0758138499762764,0.175933975701029,ST
12.1666666666667,-0.161498606204987,-1.82493424415588,9.73896408081055,0.198172003030777,-1.2500079870224,1.74543797969818,-1157.10009765625,12.3000001907349,-906.900024414062,1.6199300653134,-0.0270209116380212,0.182979156380099,ST
12.2,0.126806303858757,-2.18800687789917,9.71563625335693,0.685979962348938,-0.800309956073761,2.0579400062561,-1154.70007324219,14.7000007629395,-906.900024414062,1.6152616362368,0.0052244678973252,0.212775966160851,ST
12.2333333333333,0.1722651720047,-1.81117689609528,9.35555458068848,1.40244793891907,0.160062000155449,0.899396002292633,-1157.10009765625,14.7000007629395,-909.300048828125,1.61346825998993,0.0150190342437781,0.193628912319297,ST
12.2666666666667,-0.0137572884559631,-1.73282015323639,8.38895511627197,1.71494996547699,0.716467976570129,1.37958192825317,-1159.5,7.50000047683716,-914.100036621094,1.61025855435811,-0.0004201394058848,0.19959588889823,ST
12.3,-0.222509190440178,-1.62096750736237,9.07203483581543,1.49391198158264,0.960371971130371,1.86738991737366,-1152.30004882812,15.9000005722046,-921.300048828125,1.60626614444899,-0.0211631996400414,0.179286587418406,ST
12.3333333333333,-0.394774347543716,-1.43315052986145,9.16414833068848,1.79879200458527,0.83841997385025,2.31708788871765,-1161.90002441406,11.7000007629395,-923.700012207031,1.60046754533208,-0.0404547634453298,0.156755101536416,ST
12.3666666666667,-1.40503787994385,-1.33086812496185,10.8186120986938,2.83538389205933,1.19665396213531,2.9116039276123,-1140.30004882812,6.90000009536743,-906.900024414062,1.59229250849744,-0.112728569788631,0.125076943856422,ST
12.4,-1.13467717170715,-1.00906717777252,10.2569561004639,2.86587190628052,0.388722002506256,3.29270386695862,-1157.10009765625,4.5,-921.300048828125,1.58272012033457,-0.111307317225766,0.0989982067453209,ST
12.4333333333333,-0.843381583690643,-0.61548912525177,9.72341251373291,2.85062789916992,-0.282013982534409,3.56709599494934,-1135.5,9.90000057220459,-916.500061035156,1.57183518406825,-0.0913700217050886,0.0659418423935052,ST
12.4666666666667,-0.500645637512207,-0.461766362190247,9.25985145568848,2.30184388160706,-0.952749967575073,2.30184388160706,-1145.10009765625,11.7000007629395,-906.900024414062,1.56559457321957,-0.0603347619092146,0.0496271895456508,ST
12.5,0.291295617818832,-0.57361912727356,9.14919471740723,2.05031800270081,-1.59299790859222,1.84452390670776,-1142.70007324219,6.30000019073486,-906.900024414062,1.56143273676736,0.0152661009878942,0.0571166561457444,ST
12.5333333333333,0.519786238670349,-0.702817976474762,9.85560131072998,1.51677799224854,-2.36281991004944,1.32622802257538,-1157.10009765625,2.10000014305115,-923.700012207031,1.55764655613513,0.0482133336170383,0.0663166467733313,ST
12.5666666666667,1.23815596103668,-0.610105812549591,8.72630786895752,0.868907988071442,-2.12653803825378,0.960371971130371,-1161.90002441406,5.70000028610229,-909.300048828125,1.554624319852,0.127035982298462,0.0681024047963065,ST
12.6,1.24413740634918,-0.732127010822296,8.87823581695557,0.510673999786377,-1.74543797969818,0.815553963184357,-1152.30004882812,14.1000003814697,-906.900024414062,1.550889594586,0.138741344141816,0.0788858485976817,ST
12.6333333333333,0.183031752705574,-0.206957474350929,10.7833213806152,1.00610399246216,-2.10367202758789,1.08232402801514,-1159.5,8.70000076293945,-916.500061035156,1.55219547503389,0.039211440205542,0.0272034614841366,ST
12.6666666666667,0.650779545307159,-0.214135184884071,10.0003519058228,1.37195992469788,-1.97409796714783,1.34909391403198,-1166.70007324219,9.90000057220459,-902.100036621094,1.54905238775058,0.062830928531943,0.0206789273607755,ST
12.7,0.868503570556641,-0.259594053030014,9.6342887878418,0.510673999786377,-0.830797970294952,0.510673999786377,-1173.90002441406,6.30000019073486,-906.900024414062,1.54742678614677,0.0855631845522914,0.0250214913477174,ST
12.7333333333333,-0.22968690097332,0.35410064458847,9.37828350067139,1.15092194080353,0.434453994035721,0.388722002506256,-1169.10009765625,5.10000038146973,-916.500061035156,1.54843232223106,-0.0077245711809937,-0.0295239141327209,ST
12.7666666666667,-1.12510693073273,0.314623206853867,8.89857292175293,2.01982998847961,2.14178204536438,0.792688012123108,-1169.10009765625,5.70000028610229,-904.500061035156,1.54627981085273,-0.104809704565144,-0.0370807643635814,ST
12.8,-1.56773269176483,0.412120521068573,8.94522857666016,1.2347639799118,2.19513607025146,0.807931959629059,-1164.30004882812,3.30000019073486,-918.900024414062,1.54340058320675,-0.162504298721478,-0.04613430426929,ST
12.8333333333333,-1.36914920806885,0.324791640043259,8.95719146728516,-0.350611984729767,1.6844619512558,0.457319974899292,-1159.5,5.70000028610229,-909.300048828125,1.54336343473832,-0.156009781658403,-0.0377399558349832,ST
12.8666666666667,-0.493467956781387,0.05742172524333,9.57327842712402,-2.30184388160706,-0.693601965904236,-0.144817993044853,-1169.10009765625,8.10000038146973,-911.700012207031,1.54645761318999,-0.0680495914915891,-0.0079421196408047,ST
12.9,-0.426475942134857,-0.091515876352787,9.56370830535889,-2.71343183517456,-0.769822001457214,-0.807931959629059,-1154.70007324219,5.70000028610229,-904.500061035156,1.54916099114564,-0.0473797417935771,0.0106352258097913,ST
12.9333333333333,0.154320880770683,-0.483897656202316,10.9448204040527,-2.62196803092957,-0.602137982845306,-0.83841997385025,-1164.30004882812,9.90000057220459,-921.300048828125,1.55160124942572,0.0025610930606316,0.0410895598487438,ST
12.9666666666667,0.525169551372528,-0.824241042137146,9.77545070648193,-2.21800184249878,-0.922261953353882,-1.57013201713562,-1157.10009765625,8.70000076293945,-916.500061035156,1.5543215520282,0.0446362080547667,0.0784540342940932,ST
13.0,0.613096535205841,-0.964804589748383,9.06784725189209,-2.32470989227295,-0.365855991840363,-2.01982998847961,-1157.10009765625,9.30000019073486,-921.300048828125,1.55780678684648,0.0633710165946997,0.103520788615106,ST
13.0333333333333,0.405540943145752,-1.02342259883881,8.52054691314697,-1.51677799224854,0.594515979290009,-2.00458598136902,-1152.30004882812,10.5,-921.300048828125,1.56190245792679,0.0499717488370404,0.118269536055188,ST
13.0666666666667,0.299669623374939,-1.00368392467499,8.75442028045654,-0.647870004177094,0.945127964019775,-1.45580196380615,-1159.5,9.90000057220459,-916.500061035156,1.56598893590138,0.0355586664760538,0.115692812687569,ST
13.1,-0.272753208875656,-0.797324597835541,9.35316181182861,0.167683988809586,1.32622802257538,-0.564027965068817,-1145.10009765625,8.10000038146973,-904.500061035156,1.56781296233326,-0.017789232225236,0.0909953200394256,ST
13.1333333333333,-0.36725977063179,-0.873288750648499,10.1074199676514,-0.236281991004944,1.2423859834671,-0.0762199983000755,-1145.10009765625,8.70000076293945,-921.300048828125,1.56813773988993,-0.0341933945781225,0.0874932763158058,ST
13.1666666666667,-0.409727931022644,-0.981552600860596,9.97762298583984,-0.800309956073761,1.37958192825317,0.129574000835419,-1157.10009765625,8.10000038146973,-928.500061035156,1.56842849156548,-0.041542383999489,0.0971862992550422,ST
13.2,-0.667527556419373,-1.45707631111145,10.266526222229,-1.22714197635651,1.80641400814056,0.0609759986400604,-1145.10009765625,12.3000001907349,-909.300048828125,1.57052398259994,-0.06221878658417,0.133866310521248,ST
13.2333333333333,-0.436046212911606,-2.04086375236511,10.1445045471191,-2.080806016922,1.2347639799118,-0.510673999786377,-1135.5,5.70000028610229,-921.300048828125,1.57511562415826,-0.0471540929418294,0.190748096592365,ST
13.2666666666667,-0.123217448592186,-1.69154834747314,9.19764423370361,-1.85214591026306,0.289635986089706,-1.44817996025085,-1145.10009765625,9.90000057220459,-914.100036621094,1.57822089825021,-0.0200473768517158,0.186306606956555,ST
13.3,-0.216527760028839,-1.9086742401123,9.11151218414307,-0.868907988071442,0.182927995920181,-0.922261953353882,-1133.10009765625,14.1000003814697,-921.300048828125,1.58099269961016,-0.0227458479647098,0.204618955840066,ST
13.3333333333333,-0.364269077777863,-2.04684519767761,9.06066989898682,-0.114329993724823,0.182927995920181,-0.67835795879364,-1133.10009765625,11.7000007629395,-916.500061035156,1.58301769829039,-0.0359282684914031,0.218824817195777,ST
13.3666666666667,-0.534141659736633,-2.02949905395508,9.32026386260986,0.25152599811554,-0.0609759986400604,0.0838419944047928,-1147.5,12.3000001907349,-906.900024414062,1.58265365841619,-0.0518498087569942,0.214939742012131,ST
13.4,-0.738108456134796,-2.27174711227417,9.72879505157471,0.297257989645004,-0.0152439996600151,0.480185985565186,-1142.70007324219,14.1000003814697,-926.100036621094,1.58228159303459,-0.0694626798393312,0.226024033220797,ST
13.4333333333333,-0.73451954126358,-2.38060903549194,10.0715312957764,-0.0304879993200302,-0.503051996231079,0.78506600856781,-1135.5,15.9000005722046,-918.900024414062,1.5805932223047,-0.0701412868517422,0.230840321953202,ST
13.4666666666667,-0.709397554397583,-2.21671795845032,9.83586311340332,0.861285984516144,-0.0228659994900227,1.12805593013763,-1121.10009765625,10.5,-921.300048828125,1.57758744540461,-0.0705428243524529,0.222206020510951,ST
13.5,-0.878073871135712,-2.1832218170166,9.54038047790527,1.74543797969818,1.02897000312805,1.05945801734924,-1128.30004882812,14.7000007629395,-916.500061035156,1.57602512410293,-0.0873884629449436,0.221884415159744,ST
13.5333333333333,-1.40683221817017,-1.82493424415588,10.0523910522461,1.95885396003723,0.945127964019775,1.41769194602966,-1145.10009765625,10.5,-923.700012207031,1.56953901121595,-0.129763432830445,0.184157785793625,ST
13.5666666666667,-1.01923561096191,-1.70829629898071,9.73836612701416,2.05031800270081,0.152439996600151,1.90549993515015,-1137.90002441406,14.7000007629395,-923.700012207031,1.56449926966993,-0.108846452747025,0.17260789467566,ST
13.6,-0.833213150501251,-1.35359752178192,9.25626277923584,2.62196803092957,0.114329993724823,2.41617393493652,-1137.90002441406,8.70000076293945,-909.300048828125,1.55688633624759,-0.0933193152665521,0.146354639046904,ST
13.6333333333333,-0.815867006778717,-1.1735565662384,8.82679557800293,2.73629784584045,0.175305992364883,2.67532205581665,-1130.70007324219,17.1000003814697,-921.300048828125,1.54963905775012,-0.0924843728749404,0.130431710675178,ST
13.6666666666667,-1.05452609062195,-0.903794050216675,8.36562728881836,2.27897787094116,0.0457319989800453,2.58385801315308,-1125.90002441406,5.70000028610229,-916.500061035156,1.54163273951567,-0.119427522785226,0.108019278687783,ST
13.7,-1.26626861095428,-0.852353751659393,9.02717399597168,1.78354799747467,-0.0609759986400604,2.80489587783813,-1145.10009765625,11.1000003814697,-906.900024414062,1.53397225377078,-0.135163866211497,0.0939436013506266,ST
13.7333333333333,-0.992917358875275,-0.87089616060257,9.2879638671875,1.35671591758728,-0.6250039935112,2.55336999893188,-1118.70007324219,15.3000001907349,-918.900024414062,1.52808078967708,-0.111362864420519,0.0912606505191143,ST
13.7666666666667,-0.961813926696777,-0.587974548339844,9.10493278503418,1.56251001358032,-0.693601965904236,2.60672402381897,-1135.5,7.50000047683716,-926.100036621094,1.51979585239647,-0.105617890955316,0.06729898163369,ST
13.8,-1.22499680519104,-0.561058104038239,9.61993312835693,1.64635193347931,-0.396344006061554,2.9420919418335,-1137.90002441406,16.5,-914.100036621094,1.51230966743003,-0.121947988751533,0.0573002901917938,ST
13.8333333333333,-1.1597992181778,-0.339147061109543,9.64744758605957,1.69970595836639,-0.807931959629059,2.97257995605469,-1133.10009765625,3.90000009536743,-916.500061035156,1.50342495483724,-0.119107219483925,0.0367260990271881,ST
13.8666666666667,-0.862522184848785,-0.35110992193222,9.43690204620361,1.84452390670776,-0.967993974685669,2.9116039276123,-1130.70007324219,6.90000009536743,-916.500061035156,1.49685371687775,-0.0955189777705359,0.0341020547086927,ST
13.9,-0.610105812549591,-0.381615221500397,9.30052471160889,1.6615959405899,-1.14329993724823,2.68294382095337,-1140.30004882812,3.90000009536743,-921.300048828125,1.49044616281545,-0.0686461471846457,0.0371749697873605,ST
13.9333333333333,-0.286510497331619,-0.279930919408798,9.98659515380859,0.884151995182037,-2.17227005958557,1.61586391925812,-1137.90002441406,7.50000047683716,-914.100036621094,1.48622712680854,-0.0337676565803343,0.0285267421588872,ST
13.9666666666667,0.32538977265358,-0.395970642566681,9.65342903137207,0.891773998737335,-2.79727387428284,1.50915598869324,-1140.30004882812,8.70000076293945,-921.300048828125,1.48212681373525,0.0270735140142524,0.0377432374631312,ST
14.0,0.438438802957535,-0.334361910820007,9.39144325256348,0.884151995182037,-2.78202986717224,1.6920839548111,-1154.70007324219,8.10000038146973,-916.500061035156,1.47803035739814,0.046474634353208,0.0348908612273936,ST
14.0333333333333,0.0520384386181831,-0.267968058586121,9.91601371765137,0.983237981796265,-2.15702605247498,1.80641400814056,-1147.5,3.30000019073486,-921.300048828125,1.47388380188136,0.0164811864088886,0.0273001406625281,ST
14.0666666666667,0.435448080301285,-0.053234726190567,9.95250129699707,0.548784017562866,-2.0731840133667,1.33385002613068,-1147.5,7.50000047683716,-909.300048828125,1.47121328266344,0.0410982666850166,0.0090730821660847,ST
14.1,1.03717994689941,0.168676316738129,8.63359546661377,0.25152599811554,-1.72257196903229,0.663114011287689,-1161.90002441406,7.50000047683716,-902.100036621094,1.47135444059177,0.106126380499573,-0.0140000919436293,NLR
14.1333333333333,0.137572884559631,0.340343356132507,9.63727951049805,0.0609759986400604,-0.823175966739655,0.282013982534409,-1154.70007324219,2.10000014305115,-914.100036621094,1.47193561772023,0.0339544631237034,-0.0310811007737186,NLR
14.1666666666667,-0.321800917387009,0.44322395324707,10.0458116531372,-0.106707997620106,-0.853663980960846,0.388722002506256,-1161.90002441406,11.7000007629395,-906.900024414062,1.47119811517082,-0.0174838058886719,-0.0413202606965274,NLR
14.2,-0.230883181095123,0.233873903751373,9.42852783203125,-0.411587983369827,-0.403965979814529,0.342989981174469,-1157.10009765625,6.90000009536743,-916.500061035156,1.47061874742004,-0.0227650694405954,-0.0268075915017216,NLR
14.2333333333333,-0.216527760028839,0.350511789321899,10.3442850112915,-0.846041977405548,-0.0914639979600906,0.541162014007568,-1161.90002441406,5.70000028610229,-911.700012207031,1.46915735898159,-0.0210926197781505,-0.0314144934117666,NLR
14.2666666666667,0.0735715851187706,0.169872596859932,10.5135593414307,-0.609759986400604,-0.87652999162674,-0.0076219998300075,-1164.30004882812,14.1000003814697,-914.100036621094,1.46933647410018,0.0035565517069236,-0.0178305385449879,NLR
14.3,0.068188302218914,0.0065795728005468,9.44049072265625,-0.0762199983000755,-0.0609759986400604,-0.853663980960846,-1157.10009765625,0.300000011920929,-916.500061035156,1.47141061219979,0.0066868055966811,-0.0034689628813501,NLR
14.3333333333333,-0.184228032827377,0.253612607717514,9.93156623840332,-0.289635986089706,0.121951997280121,-1.57013201713562,-1154.70007324219,8.10000038146973,-909.300048828125,1.47496135855199,-0.0136581320522196,-0.0206618609434479,NLR
14.3666666666667,-0.30624920129776,0.0855344459414482,9.04093074798584,-0.487807989120483,-0.0381099991500378,-1.63110792636871,-1154.70007324219,8.10000038146973,-914.100036621094,1.47890408400375,-0.0297651791207313,-0.0109840629719328,NLR
14.4,0.0538328662514687,-0.0843381583690643,8.7221212387085,-1.42531394958496,0.205793991684914,-1.83690190315247,-1159.5,9.30000019073486,-899.700012207031,1.48337000337777,-0.0013578678365518,0.0075174108968149,NLR
14.4333333333333,0.297875195741653,-0.183031752705574,9.03973484039307,-1.50153398513794,0.25152599811554,-1.90549993515015,-1147.5,12.3000001907349,-911.700012207031,1.48765894388902,0.0257094627112226,0.0197237906120291,NLR
14.4666666666667,0.311632484197617,-0.878672003746033,9.64445686340332,-1.60061991214752,0.487807989120483,-1.85214591026306,-1157.10009765625,9.90000057220459,-911.700012207031,1.4904250315447,0.0303508825945943,0.0786546163647126,NLR
14.5,-0.0604124404489994,-1.30754053592682,10.087082862854,-1.60824191570282,1.21189796924591,-2.25611186027527,-1152.30004882812,11.1000003814697,-918.900024414062,1.49562083802953,-0.0008255024189755,0.122202573674588,NLR
14.5333333333333,0.0550291538238525,-1.16338813304901,10.3197603225708,-1.52439999580383,1.21189796924591,-2.60672402381897,-1159.5,6.30000019073486,-906.900024414062,1.50192259462148,0.0028153724391666,0.11638277886885,NLR
14.5666666666667,0.249425619840622,-1.32369041442871,9.92438793182373,-1.02134799957275,1.01372599601746,-2.63721203804016,-1140.30004882812,5.70000028610229,-914.100036621094,1.50810240619116,0.0195109357093402,0.130692905096098,NLR
14.6,0.0418700091540813,-1.08024621009827,8.96197605133057,-0.320124000310898,1.17378795146942,-2.84300589561462,-1142.70007324219,10.5,-918.900024414062,1.51505447029532,0.0065088342774499,0.12252498738137,NLR
14.6333333333333,-0.209948182106018,-0.996506214141846,9.26463603973389,-0.0685980021953583,1.60824191570282,-2.33233189582825,-1152.30004882812,6.90000009536743,-911.700012207031,1.52125977952464,-0.0195902399627897,0.109875174419348,NLR
14.6666666666667,-0.314623206853867,-0.849363029003143,9.65402793884277,0.243903994560242,1.22714197635651,-1.97409796714783,-1147.5,8.70000076293945,-918.900024414062,1.52590065723958,-0.0316344288294148,0.0914406113995563,NLR
14.7,0.0239257179200649,-1.17116391658783,9.39323711395264,-0.144817993044853,0.152439996600151,-2.21037983894348,-1133.10009765625,9.30000019073486,-914.100036621094,1.5317752530852,-0.0034505596673213,0.118462931122934,NLR
14.7333333333333,1.08323693275452,-1.36795294284821,9.86277961730957,0.823175966739655,1.37195992469788,-4.83234786987305,-1137.90002441406,9.30000019073486,-916.500061035156,1.54320223971131,0.0872469121961683,0.132736084089059,NLR
14.7666666666667,0.336754500865936,-1.46425402164459,9.26224422454834,2.24086785316467,1.64635193347931,-7.67535400390625,-1145.10009765625,7.50000047683716,-928.500061035156,1.56193249903728,0.0432424387887956,0.149069394269352,NLR
14.8,0.712388277053833,-2.00198459625244,9.00922966003418,1.78354799747467,2.35519790649414,-9.16926574707031,-1123.5,4.5,-926.100036621094,1.58045127154967,0.0693389082430222,0.20126752494151,NLR
14.8333333333333,-0.327782362699509,-1.65805232524872,9.74255275726318,2.42379593849182,3.61282801628113,-12.3247737884521,-1137.90002441406,6.30000019073486,-916.500061035156,1.61052389510055,-0.0142927849702705,0.171610051135889,NLR
14.8666666666667,-1.81835460662842,-0.977963745594025,10.3478736877441,3.20123982429504,2.81251788139343,-13.3385000228882,-1116.30004882812,0.300000011920929,-911.700012207031,1.63730654712731,-0.14252845739473,0.107646653934476,NLR
14.9,-0.560459971427917,-2.16826820373535,9.23293495178223,2.61434602737427,1.53202199935913,-11.5930614471436,-1106.70007324219,0.900000035762787,-916.500061035156,1.67698873372261,-0.0734577087696815,0.206521753648486,NLR
14.9333333333333,-1.08981645107269,-1.34462535381317,9.70427131652832,3.68904781341553,1.82927989959717,-13.4528293609619,-1104.30004882812,0.300000011920929,-930.900024414062,1.70369954400436,-0.10267501870359,0.148277217542513,NLR
14.9666666666667,-0.542515695095062,-1.98643279075623,9.04152870178223,3.39178991317749,0.0685980021953583,-10.5259819030762,-1101.90002441406,0.900000035762787,-918.900024414062,1.7323797387627,-0.0649519704893695,0.198939708703884,NLR
15.0,-0.900803327560425,-1.37572884559631,10.2402076721191,5.02289772033691,0.868907988071442,-12.1342239379883,-1087.5,-5.70000028610229,-911.700012207031,1.75918971887316,-0.0817787227352961,0.13863676863444,NLR
15.0333333333333,-2.00557327270508,-0.354698777198792,9.93336009979248,5.97564792633057,-0.685979962348938,-12.6830081939697,-1097.10009765625,-8.10000038146973,-926.100036621094,1.77847890587459,-0.173085159911146,0.0510772346475591,NLR
15.0666666666667,-1.9188426733017,-0.0035888578277081,8.66290473937988,4.26832008361816,-3.13264203071594,-9.05493545532227,-1092.30004882812,-14.7000007629395,-902.100036621094,1.79235710108986,-0.204305996486153,0.0072492771292703,NLR
15.1,0.895420014858246,0.141161739826202,9.51047325134277,1.36433792114258,-0.990859985351562,1.61586391925812,-1092.30004882812,-13.5000009536743,-906.900024414062,1.77914903980241,0.095640850373874,-0.0169547983411198,NLR
15.1333333333333,-0.147741317749023,1.53842377662659,10.3843603134155,-0.335367977619171,-1.21189796924591,1.31098401546478,-1087.5,-20.1000003814697,-882.900024414062,-2.61351155367703,1.31112251237365,-2.32288168291742,NLR
15.1666666666667,-0.543711960315704,1.13647162914276,10.4202489852905,0.571649968624115,-0.754577994346619,1.21189796924591,-1094.70007324219,-20.7000007629395,-885.300048828125,1.69299673884334,0.0011192098311476,-0.111047870207393,NLR
15.2,-0.272753208875656,0.563450694084167,9.69470119476318,0.693601965904236,-0.746955990791321,2.85062789916992,-1097.10009765625,-20.7000007629395,-899.700012207031,1.68648882849614,-0.0217693310223264,-0.0680127026785453,NLR
15.2333333333333,-0.0364867225289345,1.24413740634918,9.66359806060791,1.02134799957275,-0.556405961513519,2.02745199203491,-1101.90002441406,-11.7000007629395,-890.100036621094,1.68101349791939,-0.005870950862863,-0.118820336039197,NLR
15.2666666666667,-0.0909177288413048,1.53842377662659,8.48764896392822,1.2576299905777,-0.922261953353882,1.52439999580383,-1092.30004882812,-23.1000003814697,-887.700012207031,1.67751439923667,-0.0080020929851984,-0.168878684908643,NLR
15.3,-0.434849947690964,1.63532292842865,9.53978252410889,0.403965979814529,-0.335367977619171,2.29422187805176,-1101.90002441406,-14.1000003814697,-899.700012207031,1.67181129505568,-0.0380296214520533,-0.170322365052216,NLR
15.3333333333333,0.531150937080383,1.1998747587204,8.57617378234863,0.0152439996600151,0.106707997620106,2.01220798492432,-1097.10009765625,-15.9000005722046,-899.700012207031,1.6621975203437,0.0602485840261127,-0.139274359309422,NLR
15.3666666666667,-0.0472532957792282,1.65984678268433,9.89926624298096,0.106707997620106,1.44817996025085,-0.167683988809586,-1109.10009765625,-20.7000007629395,-904.500061035156,1.66279133571952,0.0063735824711941,-0.160871314647133,NLR
15.4,-0.378026366233826,1.75734400749207,10.051194190979,0.853663980960846,0.807931959629059,-1.18903195858002,-1082.70007324219,-18.3000011444092,-897.300048828125,1.66521637351459,-0.0307006098652139,-0.172104640032585,NLR
15.4333333333333,-0.22968690097332,1.65924859046936,9.03076267242432,0.449698001146317,-0.129574000835419,-1.36433792114258,-1097.10009765625,-20.1000003814697,-890.100036621094,1.66834224781514,-0.0261898160836628,-0.180582418994945,NLR
15.4666666666667,-0.868503570556641,1.78545677661896,10.6493377685547,0.274392008781433,0.282013982534409,-1.72257196903229,-1089.90002441406,-13.5000009536743,-899.700012207031,1.67295800778616,-0.0714170974452714,-0.168970787532983,NLR
15.5,-0.398961365222931,1.87996339797974,9.94053840637207,-0.564027965068817,-0.861285984516144,-0.503051996231079,-1089.90002441406,-21.3000011444092,-887.700012207031,1.67361791212106,-0.0444181322286378,-0.182669191360196,NLR
15.5333333333333,0.726743698120117,1.67480027675629,9.16953182220459,-1.10518991947174,-0.655492007732391,0.365855991840363,-1082.70007324219,-18.3000011444092,-904.500061035156,1.67304819351047,0.0541460795492352,-0.179546300313142,NLR
15.5666666666667,0.69264954328537,1.69095015525818,8.86328220367432,-1.49391198158264,-0.46494197845459,1.83690190315247,-1082.70007324219,-16.5,-892.500061035156,1.66961770683343,0.0731915623574586,-0.184463561001976,NLR
15.6,0.424681514501572,1.34641981124878,8.45534896850586,-1.93598794937134,-0.685979962348938,3.58996200561523,-1099.5,-19.5,-902.100036621094,1.66022846260306,0.05584721449687,-0.159903227662632,NLR
15.6333333333333,-0.0675901547074318,0.903794050216675,9.29693603515625,-2.63721203804016,-0.137196004390717,6.83693361282349,-1085.10009765625,-15.3000001907349,-906.900024414062,1.64171872882457,0.0047288709713351,-0.103421199403819,NLR
15.6666666666667,1.2118376493454,-0.426475942134857,10.3819675445557,-1.97409796714783,0.891773998737335,7.77443981170654,-1104.30004882812,-10.5,-887.700012207031,1.59779006195524,0.112670144151809,0.0439178659168704,NLR
15.7,-0.745884299278259,0.62147057056427,9.62950325012207,2.5076379776001,0.228659987449646,0.160062000155449,-1109.10009765625,-15.3000001907349,-892.500061035156,1.60010943347435,-0.055066977855553,-0.0564158047489545,NLR
15.7333333333333,-0.332567483186722,0.840390861034393,8.99846267700195,2.21800184249878,-0.884151995182037,0.106707997620106,-1101.90002441406,-9.30000019073486,-899.700012207031,1.59872547056654,-0.0392311150843283,-0.0888219724737521,NLR
15.7666666666667,-0.258995920419693,1.07546103000641,9.3118896484375,1.92836594581604,-0.815553963184357,0.190549999475479,-1104.30004882812,-17.7000007629395,-897.300048828125,1.59781360644349,-0.0286515745162076,-0.112751983677961,NLR
15.8,-0.257799625396729,1.16817319393158,9.17252254486084,1.18140995502472,-0.92988395690918,1.16616594791412,-1106.70007324219,-18.9000015258789,-914.100036621094,1.59497198440594,-0.0264854373506672,-0.125923806763525,NLR
15.8333333333333,-0.0400755777955055,1.10417187213898,9.54695987701416,0.594515979290009,-1.00610399246216,2.67532205581665,-1106.70007324219,-20.7000007629395,-897.300048828125,1.58875751455831,-0.0059922449720612,-0.117860364365569,NLR
15.8666666666667,0.513804793357849,1.11015331745148,9.98599720001221,0.800309956073761,-0.106707997620106,4.19210004806519,-1104.30004882812,-21.9000015258789,-899.700012207031,1.57847989668042,0.0417547263560203,-0.11298122778466,NLR
15.9,0.821848452091217,0.938486337661743,9.21558856964111,1.27287399768829,0.609759986400604,4.1997218132019,-1113.90002441406,-12.9000005722046,-906.900024414062,1.568070606535,0.0788675098325115,-0.105187357431911,NLR
15.9333333333333,0.827829897403717,0.902597725391388,9.17431735992432,1.11281192302704,1.28049600124359,3.60520601272583,-1109.10009765625,-14.7000007629395,-892.500061035156,1.55894157155173,0.0861441334605142,-0.100618158845613,NLR
15.9666666666667,-0.415111213922501,1.62336003780365,9.62292385101318,1.95123195648193,1.6692179441452,0.282013982534409,-1111.5,-13.5000009536743,-887.700012207031,1.55953343710791,-0.0187141593798632,-0.156417086765873,NLR
16.0,-1.05332982540131,1.61917304992676,9.89687347412109,2.0655620098114,1.56251001358032,0.556405961513519,-1106.70007324219,-22.5,-902.100036621094,1.55738118898025,-0.0923104380871276,-0.164299801969396,NLR
16.0333333333333,-0.75246387720108,1.58627510070801,9.60378360748291,2.03507399559021,0.472563982009888,-0.274392008781433,-1111.5,-16.5,-902.100036621094,1.55811780415792,-0.0802903890464225,-0.166757413332195,NLR
16.0666666666667,-1.35060679912567,1.97805881500244,9.5924186706543,2.04269599914551,-0.129574000835419,-0.602137982845306,-1104.30004882812,-17.7000007629395,-894.900024414062,1.55672934813197,-0.125560482860485,-0.198697750863591,NLR
16.1,-0.465355217456818,2.25081205368042,9.76288986206055,1.13567793369293,-1.63110792636871,0.129574000835419,-1106.70007324219,-17.1000003814697,-892.500061035156,1.55524532990846,-0.0601139969373094,-0.222568398328142,NLR
16.1333333333333,0.161498606204987,2.17783856391907,9.03375339508057,0.724089980125427,-2.20275783538818,0.0457319989800453,-1109.10009765625,-27.9000015258789,-890.100036621094,1.55599783590744,0.0047608514039607,-0.234759299701085,NLR
16.1666666666667,0.587376415729523,1.92781484127045,9.12646579742432,-0.342989981174469,-2.72105383872986,-0.602137982845306,-1106.70007324219,-23.1000003814697,-892.500061035156,1.55812158481148,0.054699974511672,-0.213136763482799,NLR
16.2,-0.499449372291565,2.02650833129883,10.3233499526978,0.0609759986400604,-0.762199997901917,0.381099998950958,-1109.10009765625,-24.9000015258789,-892.500061035156,1.55644705906944,-0.0460053038340683,-0.193963261403271,NLR
16.2333333333333,-1.32129776477814,1.76392364501953,9.79698371887207,-1.73781597614288,-1.53202199935913,6.89790964126587,-1116.30004882812,-16.5,-897.300048828125,1.53284165803116,-0.123557028837844,-0.177178862243871,NLR
16.2666666666667,-1.05572235584259,1.7525589466095,9.70128059387207,-3.10215401649475,-1.94360995292664,11.3110475540161,-1130.70007324219,-15.9000005722046,-882.900024414062,1.50511976368071,-0.103839501835825,-0.175681420429842,NLR
16.3,-0.372643083333969,0.888242304325104,9.0433235168457,-4.11588001251221,-1.09756803512573,14.4665555953979,-1128.30004882812,-20.7000007629395,-887.700012207031,1.47495096612989,-0.0479567856660091,-0.10710494326866,NLR
16.3333333333333,-0.200377896428108,0.382213354110718,10.4896335601807,-3.62807202339172,-0.106707997620106,14.1159439086914,-1135.5,-11.7000007629395,-894.900024414062,1.44437244004707,-0.0234563094375071,-0.0461517299115342,NLR
16.3666666666667,0.511412262916565,0.458775669336319,10.1648416519165,-2.37806391716003,0.182927995920181,12.0046501159668,-1142.70007324219,-11.7000007629395,-902.100036621094,1.41415729349379,0.0383848840080992,-0.0414611543160449,NLR
16.4,1.16398620605469,0.162096738815308,8.89199352264404,-1.79117000102997,0.266770005226135,10.3506755828857,-1159.5,-6.90000009536743,-899.700012207031,1.38895903481796,0.111686183140308,-0.0191391866688093,NLR
16.4333333333333,0.608311414718628,0.333763778209686,9.31906795501709,-1.53202199935913,0.274392008781433,7.70584201812744,-1157.10009765625,-2.10000014305115,-894.900024414062,1.37253700582662,0.0744045581495572,-0.0293991327974332,NLR
16.4666666666667,1.18970632553101,0.0831418707966805,8.69161510467529,-2.52288198471069,-0.304879993200302,6.05186796188354,-1149.90002441406,-0.900000035762787,-897.300048828125,1.35723045303133,0.124177069020921,-0.0091330598310472,NLR
16.5,0.497056812047958,0.538328647613525,9.39981651306152,-1.63110792636871,0.411587983369827,4.1463680267334,-1159.5,-2.70000004768372,-904.500061035156,1.35121066626931,0.0659329245959083,-0.0453329123932705,NLR
16.5333333333333,0.234472051262856,0.0795530155301094,10.0535869598389,-1.18903195858002,0.564027965068817,3.25459384918213,-1147.5,2.10000014305115,-899.700012207031,1.34227372870321,0.0312242151747438,-0.0135885110241227,NLR
16.5666666666667,1.30036282539368,-0.535936117172241,9.85560131072998,-1.45580196380615,0.426831990480423,1.48628997802734,-1149.90002441406,-2.10000014305115,-904.500061035156,1.33512229433325,0.110228416142138,0.0427263081899728,NLR
16.6,0.502440094947815,0.0299071483314037,10.7426481246948,-1.2576299905777,-0.0457319989800453,-1.17378795146942,-1147.5,-1.5,-899.700012207031,1.34100806498755,0.059647968464398,0.0079930735248024,NLR
16.6333333333333,0.35709136724472,0.275145769119263,9.70247745513916,-1.17378795146942,-0.46494197845459,-0.990859985351562,-1154.70007324219,0.300000011920929,-911.700012207031,1.34482619814801,0.0420234301750525,-0.0194597095388064,NLR
16.6666666666667,0.305052906274796,0.238659039139748,9.72161769866943,-1.70732796192169,-0.205793991684914,-0.701223969459534,-1149.90002441406,7.50000047683716,-911.700012207031,1.34666388519926,0.0337753172080235,-0.0211765129741926,NLR
16.7,0.2613884806633,0.110058307647705,9.48834228515625,-2.080806016922,-0.632625997066498,-0.0838419944047928,-1154.70007324219,4.5,-911.700012207031,1.34669787900804,0.0296762511227624,-0.0106327671710301,NLR
16.7333333333333,1.43793570995331,-0.887644171714783,8.03904151916504,-3.353679895401,-1.32622802257538,0.0228659994900227,-1159.5,3.30000019073486,-916.500061035156,1.33825433681128,0.148252125422503,0.0899184626643459,NLR
16.7666666666667,1.36914920806885,-1.41520631313324,8.69281196594238,-3.13264203071594,-0.907018005847931,-0.846041977405548,-1157.10009765625,-7.50000047683716,-897.300048828125,1.33176987306657,0.154476417388869,0.151173673027307,NLR
16.8,0.939084470272064,-1.68556690216064,10.139121055603,-2.36281991004944,-0.708845973014832,-1.2500079870224,-1159.5,7.50000047683716,-906.900024414062,1.33323380295187,0.105140486282329,0.165128534321202,NLR
16.8333333333333,0.92472904920578,-1.63113594055176,9.71444034576416,-1.15092194080353,-0.365855991840363,-0.335367977619171,-1147.5,0.900000035762787,-906.900024414062,1.33386362329296,0.0965081854376202,0.167675674244765,ST
16.8666666666667,0.900803327560425,-1.87697267532349,9.52303409576416,-0.472563982009888,0.716467976570129,0.472563982009888,-1157.10009765625,2.70000004768372,-902.100036621094,1.33100044294262,0.0921199782953945,0.190519395456779,ST
16.9,0.383409649133682,-2.05103230476379,10.5297088623047,-0.518296003341675,1.09756803512573,0.609759986400604,-1154.70007324219,4.5,-902.100036621094,1.33003077870187,0.0454211244575671,0.192764850615425,ST
16.9333333333333,0.0466551519930363,-1.92960917949677,10.6511316299438,-0.289635986089706,0.411587983369827,1.11281192302704,-1166.70007324219,4.5,-916.500061035156,1.32800360107339,0.0117386373449008,0.182385566060117,ST
16.9666666666667,0.536534249782562,-1.72384798526764,9.86995697021484,0.358233988285065,-0.0304879993200302,2.31708788871765,-1147.5,3.30000019073486,-902.100036621094,1.32293984691844,0.0445582439532671,0.174435803407902,ST
17.0,0.607713282108307,-1.79741966724396,9.09536170959473,0.907018005847931,0.716467976570129,2.13416004180908,-1149.90002441406,7.50000047683716,-904.500061035156,1.31703747232448,0.0603539071964211,0.190476926969347,ST
17.0333333333333,0.177648469805717,-1.34821426868439,9.34418964385986,1.50915598869324,1.18903195858002,1.88263392448425,-1152.30004882812,6.90000009536743,-894.900024414062,1.31445822961429,0.0236309101665054,0.149089621860555,ST
17.0666666666667,0.150133892893791,-0.899607002735138,8.52353763580322,2.09605002403259,0.556405961513519,1.77592599391937,-1147.5,6.90000009536743,-906.900024414062,1.31125204825535,0.0176734215286866,0.111126706892565,ST
17.1,0.0041870009154081,-0.846372306346893,8.92548942565918,1.91312193870544,0.221037998795509,2.85824990272522,-1142.70007324219,6.30000019073486,-902.100036621094,1.30487124666857,0.0032258572171696,0.0952457440141616,ST
17.1333333333333,0.177648469805717,-0.789548695087433,9.46381855010986,1.84452390670776,-0.129574000835419,3.44514393806458,-1137.90002441406,2.10000014305115,-916.500061035156,1.29700934481514,0.0153515510980498,0.0831382649255951,ST
17.1666666666667,-0.37025049328804,-0.736912131309509,9.84961986541748,2.14940404891968,0.655492007732391,3.27745985984802,-1142.70007324219,0.300000011920929,-911.700012207031,1.28866034469005,-0.030481880098627,0.0727643662457072,ST
17.2,-0.70760315656662,-0.586180090904236,10.0051374435425,2.5152599811554,0.853663980960846,3.55947399139404,-1142.70007324219,5.10000038146973,-916.500061035156,1.27991874277352,-0.0644195228880904,0.0573972511317668,ST
17.2333333333333,-0.744687974452972,-0.540721237659454,8.73528003692627,2.59910202026367,0.602137982845306,3.87197589874268,-1142.70007324219,3.90000009536743,-918.900024414062,1.27075238209753,-0.0826485044968768,0.0568694156987575,ST
17.2666666666667,-0.82364284992218,-0.192602038383484,9.31966590881348,2.52288198471069,0.221037998795509,4.71039581298828,-1145.10009765625,8.70000076293945,-904.500061035156,1.25658996038001,-0.0877580835632764,0.0224725079269376,ST
17.3,-1.06529259681702,-0.126208171248436,9.96386528015137,2.85062789916992,-0.480185985565186,4.99240970611572,-1145.10009765625,5.70000028610229,-911.700012207031,1.2438614686253,-0.102567773886519,0.0096190562521077,ST
17.3333333333333,-0.482701390981674,0.516795516014099,10.1032333374023,3.39178991317749,-1.53964400291443,4.77899408340454,-1147.5,5.70000028610229,-904.500061035156,1.22928979847873,-0.0564193631050555,-0.0441105404245818,ST
17.3666666666667,0.349315494298935,0.717173397541046,9.69470119476318,2.84300589561462,-2.15702605247498,4.95429992675781,-1149.90002441406,1.5,-906.900024414062,1.21779517851865,0.0207538905362957,-0.0718386680368354,ST
17.4,0.747678697109222,0.667527556419373,9.21917724609375,1.6844619512558,-2.9268479347229,5.06100797653198,-1157.10009765625,3.90000009536743,-902.100036621094,1.20658758829523,0.0732277499121824,-0.0741538606667555,ST
17.4333333333333,1.63113594055176,0.61548912525177,8.50977993011475,0.0381099991500378,-2.9268479347229,4.15398979187012,-1161.90002441406,5.70000028610229,-906.900024414062,1.19730516064062,0.170047452245236,-0.0718658213010137,ST
17.4666666666667,1.0916109085083,0.273949474096298,9.78143215179443,-0.472563982009888,-2.4847719669342,3.7728898525238,-1164.30004882812,2.10000014305115,-906.900024414062,1.18284391028764,0.124845344898926,-0.0338705185262652,ST
