seconds,sensor_accX_m_s_,sensor_accY_m_s_,sensor_accZ_m_s_,sensor_gyroX___s_,sensor_gyroY___s_,sensor_gyroZ___s_,sensor_magX__T_,sensor_magY__T_,sensor_magZ__T_,sensor_yaw___,sensor_pitch___,sensor_roll___,label4
0.0,4.635009765625,-0.498851239681244,8.62582015991211,0.137196004390717,-0.365855991840363,0.297257989645004,-1337.10009765625,-11.1000003814697,-892.500061035156,-1.85041689051256,0.492362766515186,0.0576304701744144,ST
0.0333333333333333,4.73190927505493,-0.491075366735458,8.66768932342529,0.198172003030777,-0.388722002506256,0.25152599811554,-1346.70007324219,-10.5,-882.900024414062,-1.85137886356344,0.499365881453243,0.0565583584112586,ST
0.0666666666666667,4.72353506088257,-0.488682806491852,8.62522125244141,0.243903994560242,-0.304879993200302,0.213415995240211,-1344.30004882812,-10.5,-890.100036621094,-1.85258980811625,0.500775666537153,0.0564012323313146,ST
0.1,4.62843036651611,-0.441429525613785,8.52892017364502,0.114329993724823,-0.198172003030777,0.121951997280121,-1339.5,-11.7000007629395,-885.300048828125,-1.85114383826726,0.49718313263813,0.0518956762358484,ST
0.133333333333333,4.70020723342896,-0.51739364862442,8.6383810043335,0.0914639979600906,-0.152439996600151,0.282013982534409,-1341.90002441406,-11.1000003814697,-885.300048828125,-1.85612674644199,0.497767124111359,0.059585214874906,ST
0.166666666666667,4.68405771255493,-0.513206660747528,8.61266040802002,0.0990860015153885,-0.0228659994900227,0.25152599811554,-1337.10009765625,-9.90000057220459,-885.300048828125,-1.85721093228542,0.497408244339723,0.0595835174144179,ST
0.2,4.61467313766479,-0.500645637512207,8.59172534942627,0.0457319989800453,-0.106707997620106,0.228659987449646,-1337.10009765625,-11.1000003814697,-887.700012207031,-1.85757801319163,0.492653626628192,0.0584198520049721,ST
0.233333333333333,4.66013193130493,-0.57361912727356,8.58095932006836,0.0838419944047928,-0.167683988809586,0.259148001670837,-1344.30004882812,-11.7000007629395,-887.700012207031,-1.86251368331483,0.496613900121324,0.0663955490645535,ST
0.266666666666667,4.54648494720459,-0.53533798456192,8.62821197509766,0.152439996600151,-0.114329993724823,0.243903994560242,-1339.5,-11.1000003814697,-887.700012207031,-1.86171720110826,0.485085265286995,0.0621996245708991,ST
0.3,4.6170654296875,-0.552684128284454,8.65572738647461,0.0990860015153885,-0.25152599811554,0.228659987449646,-1346.70007324219,-9.90000057220459,-882.900024414062,-1.86352245006235,0.489341131663252,0.0637304160168034,ST
0.333333333333333,4.754638671875,-0.549693405628204,8.65153980255127,0.25152599811554,-0.442075997591019,0.274392008781433,-1341.90002441406,-9.30000019073486,-887.700012207031,-1.86497609791744,0.501763283715548,0.0633214613660831,ST
0.366666666666667,4.72114229202271,-0.503038227558136,8.54387378692627,0.3125019967556,-0.190549999475479,0.266770005226135,-1346.70007324219,-10.5,-887.700012207031,-1.86439566887836,0.504232117801033,0.0588214980004849,ST
0.4,4.59732675552368,-0.470140367746353,8.608473777771,0.144817993044853,-0.0609759986400604,0.25152599811554,-1344.30004882812,-12.3000001907349,-887.700012207031,-1.86365838951663,0.490840135888833,0.0548021141585436,ST
0.433333333333333,4.58297157287598,-0.503636360168457,8.536696434021,0.0990860015153885,-0.0609759986400604,0.274392008781433,-1346.70007324219,-11.1000003814697,-885.300048828125,-1.86670020582143,0.491977024840415,0.0587593141836774,ST
0.466666666666667,4.59014892578125,-0.521580696105957,8.55703353881836,0.190549999475479,-0.243903994560242,0.25152599811554,-1339.5,-12.9000005722046,-887.700012207031,-1.86895558126802,0.491982186413077,0.0606832463625091,ST
0.5,4.62603759765625,-0.548497080802917,8.68563365936279,0.0304879993200302,-0.3125019967556,0.274392008781433,-1344.30004882812,-10.5,-885.300048828125,-1.87128958370164,0.48922374172928,0.0631584997101832,ST
0.533333333333333,4.97415685653687,-0.678892254829407,8.97812557220459,0.106707997620106,-0.457319974899292,0.144817993044853,-1341.90002441406,-8.70000076293945,-892.500061035156,-1.87762573299528,0.504517597903984,0.0747047421040555,ST
0.566666666666667,4.87546348571777,-0.586778283119202,8.65752124786377,0.419209986925125,-0.0914639979600906,0.129574000835419,-1341.90002441406,-9.90000057220459,-890.100036621094,-1.87544040565572,0.511590048315443,0.0675378586115234,ST
0.6,4.57579374313354,-0.552085936069489,8.60727691650391,0.495429992675781,0.495429992675781,0.327746003866196,-1341.90002441406,-12.3000001907349,-894.900024414062,-1.87560359991421,0.488369827081129,0.063709657610078,ST
0.633333333333333,4.50461483001709,-0.453392386436462,8.64256763458252,0.487807989120483,0.274392008781433,0.403965979814529,-1341.90002441406,-11.7000007629395,-890.100036621094,-1.87281973479045,0.479835239469456,0.0524909097347678,ST
0.666666666666667,4.40771532058716,-0.404942780733109,8.50738716125488,0.503051996231079,0.236281991004944,0.304879993200302,-1339.5,-11.1000003814697,-890.100036621094,-1.87240437934891,0.477290915175563,0.0472855888735708,ST
0.7,4.23963737487793,-0.367857933044434,8.48346138000488,0.403965979814529,0.144817993044853,0.228659987449646,-1339.5,-10.5,-890.100036621094,-1.87203848378915,0.463682794274142,0.043093261099553,ST
0.733333333333333,4.18700075149536,-0.36725977063179,8.57796859741211,0.106707997620106,-0.259148001670837,0.221037998795509,-1339.5,-9.90000057220459,-897.300048828125,-1.87294563998519,0.454742529215363,0.042818056717044,ST
0.766666666666667,4.43343591690063,-0.525169551372528,8.67127895355225,-0.160062000155449,-0.503051996231079,0.152439996600151,-1341.90002441406,-12.3000001907349,-892.500061035156,-1.88090066587751,0.471661042042237,0.0598227590748079,ST
0.8,4.54349422454834,-0.540123105049133,8.80346870422363,-0.121951997280121,-0.83841997385025,0.0076219998300075,-1341.90002441406,-11.1000003814697,-887.700012207031,-1.88162365318722,0.476809067170409,0.0614380859288959,ST
0.833333333333333,4.77617168426514,-0.598741114139557,8.728102684021,0.0838419944047928,-0.708845973014832,0.198172003030777,-1344.30004882812,-12.3000001907349,-885.300048828125,-1.88579598694279,0.499465798238376,0.0681387364842902,ST
0.866666666666667,4.66730976104736,-0.528160214424133,8.72092437744141,0.152439996600151,-0.190549999475479,0.274392008781433,-1341.90002441406,-11.1000003814697,-887.700012207031,-1.88372279710583,0.491357802826103,0.0608627961719902,ST
0.9,4.65175771713257,-0.53234726190567,8.56600570678711,0.0990860015153885,0.0,0.274392008781433,-1344.30004882812,-8.70000076293945,-892.500061035156,-1.88549729361575,0.49636418461495,0.0620816038874218,ST
0.933333333333333,4.55485868453979,-0.525169551372528,8.63359546661377,0.0228659994900227,-0.0914639979600906,0.144817993044853,-1346.70007324219,-11.1000003814697,-887.700012207031,-1.88553056806584,0.485542837259004,0.0609263462135116,ST
0.966666666666667,4.65355253219604,-0.55567479133606,8.65453052520752,-0.0609759986400604,-0.335367977619171,-0.0076219998300075,-1339.5,-11.1000003814697,-892.500061035156,-1.8869492478511,0.492782504913681,0.0641066196113529,ST
1.0,4.66850566864014,-0.593357801437378,8.57796859741211,0.0381099991500378,-0.434453994035721,0.0381099991500378,-1344.30004882812,-10.5,-882.900024414062,-1.88951827853878,0.497900021699154,0.0688165083754372,ST
1.03333333333333,4.65474843978882,-0.580198705196381,8.6024923324585,0.0838419944047928,-0.228659987449646,0.114329993724823,-1337.10009765625,-11.1000003814697,-885.300048828125,-1.88946837698432,0.495565256160997,0.0674099557253869,ST
1.06666666666667,4.68944072723389,-0.585581958293915,8.69580268859863,0.198172003030777,-0.358233988285065,0.282013982534409,-1339.5,-11.1000003814697,-887.700012207031,-1.89082927033118,0.494300633095488,0.0671946991907392,ST
1.1,4.69661855697632,-0.619676113128662,8.63598823547363,0.365855991840363,-0.320124000310898,0.403965979814529,-1339.5,-11.7000007629395,-880.500061035156,-1.89491683224279,0.497338518125123,0.0711414801776226,ST
1.13333333333333,4.81744337081909,-0.588572680950165,8.61864185333252,0.381099998950958,-0.213415995240211,0.381099998950958,-1344.30004882812,-11.7000007629395,-890.100036621094,-1.89558751539516,0.508320429732757,0.0680991062606466,ST
1.16666666666667,4.80129384994507,-0.53234726190567,8.54746341705322,0.342989981174469,-0.0533539988100529,0.121951997280121,-1344.30004882812,-11.7000007629395,-892.500061035156,-1.89379666650515,0.510902617843675,0.0620727023601322,ST
1.2,4.67329120635986,-0.632237136363983,8.70896148681641,0.175305992364883,0.0,0.106707997620106,-1344.30004882812,-11.7000007629395,-890.100036621094,-1.89911942833832,0.492579212712149,0.0716522291953647,ST
1.23333333333333,4.85273408889771,-0.736912131309509,8.55942630767822,-0.0,-0.167683988809586,-0.0381099991500378,-1344.30004882812,-10.5,-890.100036621094,-1.90557095001002,0.513513663223705,0.0852248676241538,ST
1.26666666666667,4.50222206115723,-0.851157426834106,9.12467098236084,0.236281991004944,0.617381989955902,0.114329993724823,-1344.30004882812,-11.1000003814697,-890.100036621094,-1.90956712507903,0.458396881819657,0.0922941345431366,ST
1.3,3.82572245597839,-1.0455539226532,9.36332988739014,0.724089980125427,0.67835795879364,0.0685980021953583,-1346.70007324219,-12.9000005722046,-892.500061035156,-1.91757434683172,0.389015168657688,0.108902514473146,ST
1.33333333333333,3.16238188743591,-0.721958577632904,8.63598823547363,1.20427596569061,0.480185985565186,-0.190549999475479,-1339.5,-11.7000007629395,-887.700012207031,-1.90898865619521,0.351516824074817,0.0828131884379554,ST
1.36666666666667,2.56244444847107,-0.795530140399933,8.05997657775879,1.22714197635651,0.914639949798584,-0.152439996600151,-1346.70007324219,-13.5000009536743,-887.700012207031,-1.91379562065069,0.307147139676497,0.0954676911218061,ST
1.4,1.52227389812469,-0.577207982540131,8.43142318725586,1.05945801734924,1.02134799957275,-0.236281991004944,-1341.90002441406,-11.7000007629395,-894.900024414062,-1.90687219591498,0.184404186692448,0.0681056655847634,ST
1.43333333333333,1.61259341239929,-0.30624920129776,8.680251121521,1.88263392448425,0.426831990480423,-0.0609759986400604,-1332.30004882812,-13.5000009536743,-892.500061035156,-1.90172309448788,0.182912206618801,0.0337275278084778,ST
1.46666666666667,2.16408133506775,-0.0813474431633949,7.9218053817749,2.77440786361694,0.541162014007568,-0.175305992364883,-1337.10009765625,-13.5000009536743,-892.500061035156,-1.89778056725738,0.262071248168253,0.0066011752508136,ST
1.5,2.85074949264526,-0.01914057508111,8.50977993011475,2.38568592071533,-0.0457319989800453,-0.396344006061554,-1332.30004882812,-15.3000001907349,-892.500061035156,-1.89675588155715,0.319980585381831,-0.0016699672943971,ST
1.53333333333333,3.16656899452209,0.852951884269714,8.68742847442627,2.37806391716003,-2.27135586738586,-0.602137982845306,-1337.10009765625,-15.9000005722046,-894.900024414062,-1.86539925582623,0.350504930856313,-0.0980588201487504,ST
1.56666666666667,3.90647172927856,1.1556122303009,8.44757270812988,1.89787793159485,-2.82776188850403,1.00610399246216,-1344.30004882812,-14.7000007629395,-887.700012207031,-1.85649833482333,0.431037376086388,-0.136953003313177,ST
1.6,4.84854698181152,0.706406831741333,8.72929859161377,0.533540010452271,-2.9344699382782,1.37958192825317,-1344.30004882812,-16.5,-885.300048828125,-1.88516243695881,0.506128698618,-0.0841942399332076,ST
1.63333333333333,5.49274682998657,0.30923992395401,9.5565299987793,-0.731711983680725,-3.83386588096619,0.411587983369827,-1341.90002441406,-16.5,-887.700012207031,-1.90918855622462,0.526844446272367,-0.034062015250326,ST
1.66666666666667,5.32048177719116,0.245836764574051,9.35794639587402,-0.807931959629059,-3.40703392028809,-0.830797970294952,-1349.10009765625,-15.9000005722046,-873.300048828125,-1.90808984748758,0.522956172474059,-0.0262317509737468,ST
1.7,5.63390874862671,-0.200377896428108,9.87833118438721,-0.632625997066498,-2.13416004180908,-0.815553963184357,-1353.90002441406,-15.3000001907349,-873.300048828125,-1.92593854069788,0.522058428503572,0.0177705798402174,ST
1.73333333333333,5.65783452987671,-0.05742172524333,9.6701774597168,-0.327746003866196,-1.85214591026306,-1.47104597091675,-1353.90002441406,-16.5,-875.700012207031,-1.91418865434574,0.531983140350111,0.0057915827543597,ST
1.76666666666667,5.27681732177734,0.386998504400253,9.41357421875,0.518296003341675,-0.853663980960846,-0.815553963184357,-1349.10009765625,-16.5,-873.300048828125,-1.88890989894167,0.512887967426877,-0.0407202912749464,ST
1.8,4.98552179336548,0.57660984992981,9.08997917175293,0.144817993044853,-0.190549999475479,-0.0228659994900227,-1356.30004882812,-17.1000003814697,-875.700012207031,-1.8786107846739,0.501864526621718,-0.0622560722485787,ST
1.83333333333333,4.72293710708618,0.833213150501251,9.25985145568848,-0.579271972179413,0.746955990791321,0.663114011287689,-1353.90002441406,-17.1000003814697,-875.700012207031,-1.86874304260701,0.470832618431335,-0.0865458458674151,ST
1.86666666666667,4.97595119476318,0.955234348773956,9.64385890960693,-1.37195992469788,1.12805593013763,1.20427596569061,-1351.5,-16.5,-880.500061035156,-1.86722673904361,0.472491039539004,-0.0946432978093223,ST
1.9,5.26186370849609,1.18731379508972,9.59122276306152,-1.6920839548111,1.37958192825317,1.19665396213531,-1346.70007324219,-15.9000005722046,-878.100036621094,-1.85816521207989,0.495266303539612,-0.117726491290586,ST
1.93333333333333,5.75234079360962,1.1478363275528,9.62711143493652,-2.5000159740448,1.72257196903229,0.571649968624115,-1346.70007324219,-15.3000001907349,-885.300048828125,-1.85780999570632,0.530352793017957,-0.113768098103083,ST
1.96666666666667,6.04244041442871,1.287801861763,9.72700119018555,-2.69818782806396,2.80489587783813,-0.144817993044853,-1344.30004882812,-15.3000001907349,-885.300048828125,-1.8459374050164,0.54643993558285,-0.126161404228839,ST
2.0,7.11610698699951,0.0562254376709461,9.82689094543457,-3.22410583496094,3.03355598449707,-0.708845973014832,-1337.10009765625,-13.5000009536743,-894.900024414062,-1.90166228385734,0.617886593146973,-0.0074062593789734,ST
2.03333333333333,6.61426496505737,-0.590367138385773,9.6103630065918,-3.11739802360535,3.81862187385559,-1.08994603157043,-1337.10009765625,-14.1000003814697,-894.900024414062,-1.92941531247306,0.596773293549366,0.0608670781306609,ST
2.06666666666667,5.8462495803833,-1.02880585193634,8.57138919830322,-2.01220798492432,4.80948209762573,0.289635986089706,-1329.90002441406,-12.3000001907349,-899.700012207031,-1.95675027131001,0.587385126900342,0.119620379429066,ST
2.1,4.87546348571777,-1.22080981731415,8.33572006225586,-1.06708002090454,4.71039581298828,1.82165801525116,-1329.90002441406,-11.1000003814697,-902.100036621094,-1.97279043139206,0.520363707798197,0.146728967219162,ST
2.13333333333333,3.901686668396,-1.44630968570709,7.8177285194397,-0.541162014007568,4.61893177032471,2.9268479347229,-1325.10009765625,-12.9000005722046,-906.900024414062,-1.99642646368671,0.451828272879729,0.183357624264675,ST
2.16666666666667,3.44171476364136,-2.03428435325623,7.94094610214233,-0.891773998737335,3.95581793785095,3.04879999160767,-1313.10009765625,-8.70000076293945,-914.100036621094,-2.02984586709167,0.393371466833065,0.249627464410867,ST
2.2,2.9542281627655,-2.26038217544556,8.417067527771,-0.716467976570129,3.55947399139404,2.080806016922,-1320.30004882812,-11.1000003814697,-914.100036621094,-2.03786030295562,0.324337588088804,0.263396100082368,ST
2.23333333333333,2.49605059623718,-2.24782133102417,8.77057075500488,-0.510673999786377,3.55947399139404,1.41769194602966,-1308.30004882812,-8.70000076293945,-921.300048828125,-2.03604253650677,0.265095393216456,0.252510029997109,ST
2.26666666666667,1.88355219364166,-2.01992893218994,8.16465187072754,0.358233988285065,3.73477983474731,1.09756803512573,-1305.90002441406,-8.70000076293945,-923.700012207031,-2.03461812302411,0.216648666970576,0.242604430863356,ST
2.3,1.48638522624969,-1.78007352352142,7.82729911804199,0.129574000835419,3.60520601272583,0.777444005012512,-1296.30004882812,-10.5,-930.900024414062,-2.03089185596676,0.179085268805549,0.224532422341751,ST
2.33333333333333,1.18492126464844,-1.76811063289642,8.72451305389404,0.0076219998300075,2.35519790649414,-0.381099998950958,-1291.5,-8.70000076293945,-930.900024414062,-2.02384990432654,0.131513755683641,0.201225211610842,ST
2.36666666666667,0.906186580657959,-1.5001425743103,9.62950325012207,0.388722002506256,1.99696397781372,-1.15854394435883,-1291.5,-7.50000047683716,-933.300048828125,-2.01307097939433,0.0921537035507058,0.156486417195063,ST
2.4,0.960019469261169,-0.952243626117706,9.533203125,1.55488801002502,1.81403601169586,-1.2347639799118,-1291.5,-9.30000019073486,-933.300048828125,-2.00256189332618,0.096677592201613,0.10023445881873,ST
2.43333333333333,1.76093292236328,-1.07725548744202,8.65213775634766,1.65397393703461,1.18140995502472,-1.55488801002502,-1286.70007324219,-11.1000003814697,-933.300048828125,-1.99964137904391,0.191435670210211,0.119198402842001,ST
2.46666666666667,1.67001521587372,-1.03897428512573,9.42912578582764,0.975615978240967,0.830797970294952,-1.87501192092896,-1286.70007324219,-11.1000003814697,-938.100036621094,-1.99057782121482,0.17428467298324,0.10814338287769,ST
2.5,2.12460374832153,-0.648985147476196,9.30830097198486,1.53964400291443,-0.221037998795509,-1.62348592281342,-1279.5,-11.7000007629395,-930.900024414062,-1.97699159736488,0.222499321579699,0.0679651289326125,ST
2.53333333333333,2.35907578468323,-0.299669623374939,8.73348522186279,2.30184388160706,-0.541162014007568,-0.78506600856781,-1291.5,-12.9000005722046,-935.700012207031,-1.96757108116637,0.2626056222156,0.0318067187493371,ST
2.56666666666667,2.18441820144653,-0.39537250995636,8.60309028625488,2.37044191360474,0.152439996600151,0.182927995920181,-1281.90002441406,-14.1000003814697,-938.100036621094,-1.97305519723268,0.249008509745589,0.041261447040435,ST
2.6,1.63950991630554,-0.786558032035828,9.65163516998291,1.28049600124359,0.327746003866196,1.32622802257538,-1284.30004882812,-13.5000009536743,-926.100036621094,-1.98674508789609,0.171973572813252,0.0772212068767342,ST
2.63333333333333,2.09888362884521,-1.67599666118622,9.72819709777832,0.327746003866196,0.228659987449646,2.59148001670837,-1279.5,-12.3000001907349,-935.700012207031,-2.01359551806929,0.206265168687475,0.165185438163034,ST
2.66666666666667,2.34591674804688,-2.1210150718689,10.2473850250244,-0.594515979290009,0.213415995240211,3.08691000938416,-1289.10009765625,-12.9000005722046,-938.100036621094,-2.0341705773797,0.218539785647144,0.204466237902601,ST
2.7,1.99002170562744,-2.50322842597961,10.9322595596313,1.50153398513794,1.34909391403198,4.20734405517578,-1281.90002441406,-12.3000001907349,-935.700012207031,-2.05446397164471,0.174276263798934,0.222650738415303,ST
2.73333333333333,1.73999786376953,-1.83570075035095,9.5565299987793,2.43903994560242,0.548784017562866,4.33691787719727,-1281.90002441406,-12.3000001907349,-938.100036621094,-2.06778497724785,0.174531052069111,0.188559001907775,ST
2.76666666666667,1.3841028213501,-1.95832014083862,9.89089202880859,2.53050398826599,0.525918006896973,5.27442407608032,-1284.30004882812,-11.7000007629395,-938.100036621094,-2.09139989275219,0.135769383170309,0.192127506311867,ST
2.8,2.06478953361511,-0.227892473340034,9.33222675323486,4.35978412628174,-1.39482593536377,4.99240970611572,-1291.5,-10.5,-933.300048828125,-2.08687623113775,0.215193930183766,0.0282737791155343,ST
2.83333333333333,2.37941265106201,0.455784946680069,8.09048175811768,5.00765371322632,-1.32622802257538,6.47869968414307,-1286.70007324219,-12.9000005722046,-930.900024414062,-2.09623957973466,0.283982490352815,-0.0563222464061795,ST
2.86666666666667,2.16348314285278,0.854746282100677,9.39921855926514,3.7728898525238,-0.731711983680725,7.30949783325195,-1289.10009765625,-10.5,-935.700012207031,-2.11915663620246,0.231135186330566,-0.0919195044124263,ST
2.9,2.00856399536133,1.1496307849884,9.17132663726807,2.54574799537659,-0.411587983369827,7.14943599700928,-1293.90002441406,-10.5,-930.900024414062,-2.1445508629372,0.216852428225726,-0.124890543202029,ST
2.93333333333333,2.37283325195312,0.667527556419373,9.13005447387695,1.37958192825317,-0.617381989955902,5.68601179122925,-1301.10009765625,-11.7000007629395,-930.900024414062,-2.18149714218606,0.253814810128863,-0.0752145768853545,ST
2.96666666666667,2.19996976852417,0.597544848918915,9.5206413269043,0.792688012123108,-1.54726600646973,2.56861400604248,-1301.10009765625,-11.1000003814697,-933.300048828125,-2.19462492922356,0.23111293132971,-0.0637690130250573,ST
3.0,2.45477867126465,0.715977132320404,9.68094444274902,1.28811800479889,-2.16464805603027,1.87501192092896,-1298.70007324219,-9.30000019073486,-935.700012207031,-2.20001017507185,0.250442942733742,-0.0746153303906923,ST
3.03333333333333,2.8142626285553,0.581394970417023,9.36273193359375,1.05945801734924,-2.36281991004944,1.2347639799118,-1303.5,-11.1000003814697,-921.300048828125,-2.20818321410698,0.292971780638444,-0.0640097215233424,ST
3.06666666666667,2.64259552955627,0.523973226547241,9.29693603515625,0.228659987449646,-1.37195992469788,-0.182927995920181,-1305.90002441406,-9.90000057220459,-928.500061035156,-2.20932423352753,0.27974833108974,-0.0572637227888557,ST
3.1,2.71437287330627,0.32538977265358,9.59600734710693,-0.137196004390717,-1.39482593536377,-0.967993974685669,-1303.5,-9.90000057220459,-926.100036621094,-2.21116211130416,0.277997538257853,-0.0355616146169144,ST
3.13333333333333,2.54988360404968,0.246434897184372,9.24609375,-0.541162014007568,-1.47866797447205,-1.92836594581604,-1310.70007324219,-12.3000001907349,-923.700012207031,-2.20447703860895,0.271771078851686,-0.0270520927239615,ST
3.16666666666667,1.95652568340302,0.442027658224106,9.18568134307861,-1.99696397781372,-1.47104597091675,-1.06708002090454,-1305.90002441406,-9.30000019073486,-914.100036621094,-2.19410556520217,0.215734449776942,-0.0439893827401512,ST
3.2,2.75564455986023,-0.0412718653678894,9.95728588104248,-2.46952795982361,-1.46342396736145,0.25152599811554,-1305.90002441406,-8.70000076293945,-921.300048828125,-2.20444476720901,0.269452325101586,0.0056703309740204,ST
3.23333333333333,3.28380489349365,-0.455186814069748,10.4256315231323,-0.83841997385025,-1.18140995502472,0.0914639979600906,-1313.10009765625,-9.90000057220459,-918.900024414062,-2.21446146880312,0.304658699033171,0.0427509564299823,ST
3.26666666666667,2.65396046638489,-0.390587359666824,9.73537540435791,0.0914639979600906,-0.198172003030777,-0.403965979814529,-1310.70007324219,-9.30000019073486,-918.900024414062,-2.21223447562475,0.268636769614212,0.0399247621011815,ST
3.3,1.93439435958862,-0.0711790099740028,9.61873722076416,0.533540010452271,0.708845973014832,-0.137196004390717,-1310.70007324219,-8.10000038146973,-921.300048828125,-2.20478139712547,0.201557913208224,0.0084124398982471,ST
3.33333333333333,1.87577641010284,-0.319408357143402,9.00803279876709,-0.0304879993200302,1.09756803512573,0.541162014007568,-1313.10009765625,-9.90000057220459,-921.300048828125,-2.21193331841324,0.203134955541635,0.0340228202996988,ST
3.36666666666667,1.63771545886993,-0.500645637512207,9.35256385803223,-0.297257989645004,1.10518991947174,0.830797970294952,-1305.90002441406,-9.30000019073486,-918.900024414062,-2.21835330170453,0.173053289327302,0.0530204297065026,ST
3.4,1.36556041240692,-0.729734420776367,9.56430625915527,-0.602137982845306,0.3125019967556,1.40244793891907,-1315.5,-8.70000076293945,-926.100036621094,-2.22744574639931,0.142280163637025,0.076356911202863,ST
3.43333333333333,1.38888800144196,-0.666929423809052,9.50389385223389,0.510673999786377,-0.129574000835419,3.09453201293945,-1308.30004882812,-8.10000038146973,-923.700012207031,-2.23922953330528,0.144460276287742,0.070341013566179,ST
3.46666666666667,1.51748871803284,-0.857138872146606,9.81253528594971,0.899396002292633,-0.541162014007568,4.5655779838562,-1313.10009765625,-8.70000076293945,-923.700012207031,-2.26036174549627,0.15261212239396,0.0857832582707263,ST
3.5,2.03009724617004,-0.83261501789093,9.29334735870361,0.807931959629059,-0.541162014007568,4.72563982009888,-1308.30004882812,-6.90000009536743,-923.700012207031,-2.28045558715741,0.210688173925573,0.0893996291931908,ST
3.53333333333333,2.1592960357666,-0.760837852954865,9.57985782623291,0.922261953353882,-0.182927995920181,4.20734405517578,-1315.5,-6.30000019073486,-918.900024414062,-2.29578501370348,0.220131672580017,0.0798920690728113,ST
3.56666666666667,2.1730535030365,-0.627451956272125,9.33521747589111,0.92988395690918,-0.388722002506256,3.56709599494934,-1315.5,-5.10000038146973,-921.300048828125,-2.3080055954226,0.227948688449407,0.0677205153151895,ST
3.6,1.98045134544373,-0.678892254829407,9.61514854431152,0.792688012123108,-0.129574000835419,3.06404399871826,-1317.90002441406,-5.70000028610229,-928.500061035156,-2.32126199709428,0.204037841485085,0.0700837451997546,ST
3.63333333333333,1.86680424213409,-0.355895072221756,9.46321964263916,1.09756803512573,-0.274392008781433,2.85824990272522,-1315.5,-5.10000038146973,-921.300048828125,-2.3272414010409,0.195454891592376,0.0386961022730305,ST
3.66666666666667,1.7926344871521,-0.227892473340034,9.66060733795166,1.34909391403198,-0.525918006896973,2.55336999893188,-1320.30004882812,-3.90000009536743,-921.300048828125,-2.33547507500799,0.184909542593116,0.0230829468036551,ST
3.7,2.05043411254883,0.0053832866251468,9.4853515625,1.22714197635651,-0.632625997066498,2.02745199203491,-1315.5,-4.5,-918.900024414062,-2.34009799218168,0.212400466043784,-0.0005880663600907,ST
3.73333333333333,2.37702012062073,-0.120226740837097,9.16713905334473,1.01372599601746,-0.0838419944047928,0.87652999162674,-1320.30004882812,-5.10000038146973,-923.700012207031,-2.34745821131624,0.251790838247464,0.0111151721409441,ST
3.76666666666667,1.58149003982544,-0.239855334162712,10.0822982788086,1.17378795146942,0.25152599811554,-0.175305992364883,-1320.30004882812,-6.30000019073486,-921.300048828125,-2.34970288148089,0.160982210926435,0.0210547058159056,ST
3.8,0.938486337661743,0.139965459704399,10.1774024963379,3.04879999160767,0.0533539988100529,-0.282013982534409,-1310.70007324219,-6.90000009536743,-921.300048828125,-2.34520487466345,0.0960423340488411,-0.0167031654857253,ST
3.83333333333333,1.3960657119751,0.894223749637604,9.7838249206543,3.52898597717285,-0.685979962348938,-0.0152439996600151,-1317.90002441406,-6.30000019073486,-918.900024414062,-2.33778658788542,0.140083511571626,-0.0933500867999897,ST
3.86666666666667,1.66881883144379,1.64788389205933,9.47996807098389,2.98782396316528,-0.792688012123108,-0.800309956073761,-1305.90002441406,-8.70000076293945,-916.500061035156,-2.3238359642881,0.170903090952858,-0.172463848862268,ST
3.9,2.31481337547302,1.77588653564453,9.18328857421875,0.434453994035721,-1.02134799957275,-2.52288198471069,-1313.10009765625,-8.10000038146973,-918.900024414062,-2.30979568946208,0.239129100491397,-0.191621219866697,ST
3.93333333333333,2.53193926811218,1.97626435756683,9.40280723571777,-0.685979962348938,-1.63110792636871,-3.26221585273743,-1317.90002441406,-8.10000038146973,-911.700012207031,-2.29165994441199,0.258073424600197,-0.206600154246757,ST
3.96666666666667,3.43633127212524,1.47502052783966,8.5546407699585,-2.13416004180908,-0.868907988071442,-4.02441596984863,-1320.30004882812,-10.5,-916.500061035156,-2.28388416538517,0.369955989370649,-0.172010109484752,ST
4.0,3.67080330848694,0.91276615858078,9.31368446350098,-2.99544596672058,0.175305992364883,-4.48173570632935,-1320.30004882812,-8.70000076293945,-916.500061035156,-2.28849119245357,0.372540852347522,-0.0996657922402913,ST
4.03333333333333,3.901686668396,0.334960073232651,9.47518253326416,-3.26221585273743,0.6250039935112,-5.11436176300049,-1308.30004882812,-9.90000057220459,-916.500061035156,-2.28777714024221,0.387937372772966,-0.0372935446970722,ST
4.06666666666667,3.58586716651917,0.237462759017944,9.67914962768555,-2.88873791694641,1.64635193347931,-5.54881572723389,-1317.90002441406,-10.5,-916.500061035156,-2.26773702799211,0.353769522756719,-0.0239476828813005,ST
4.1,3.12948393821716,0.119628593325615,9.54337120056152,-2.4923939704895,2.77440786361694,-5.12960577011108,-1308.30004882812,-10.5,-928.500061035156,-2.24903833573775,0.314414785620674,-0.0119075515047407,ST
4.13333333333333,1.83151376247406,0.302062213420868,10.7288904190063,-2.05031800270081,3.37654590606689,-4.74088382720947,-1303.5,-10.5,-926.100036621094,-2.22559126197191,0.17211199754768,-0.0253693954815485,ST
4.16666666666667,1.85603761672974,0.264977335929871,10.5494480133057,-2.22562384605408,2.58385801315308,-4.24545383453369,-1296.30004882812,-12.3000001907349,-930.900024414062,-2.20735316085324,0.169567662320114,-0.0226367409368132,ST
4.2,2.19458651542664,0.350511789321899,10.1953468322754,-2.21800184249878,1.43293595314026,-4.2302098274231,-1286.70007324219,-11.1000003814697,-928.500061035156,-2.18741142705834,0.206780137665338,-0.0314051286585059,ST
4.23333333333333,2.47631192207336,0.911569893360138,9.19106483459473,-1.44817996025085,0.396344006061554,-3.49087595939636,-1279.5,-11.1000003814697,-933.300048828125,-2.15811887622214,0.257516762354643,-0.0937753552737656,ST
4.26666666666667,2.54150938987732,0.871494293212891,8.07253742218018,-1.57775402069092,0.92988395690918,-2.79727387428284,-1284.30004882812,-12.9000005722046,-930.900024414062,-2.14233128395011,0.298852439330516,-0.105509597100631,ST
4.3,1.8889354467392,0.928317904472351,8.27351379394531,-2.72105383872986,2.10367202758789,-2.32470989227295,-1279.5,-12.9000005722046,-935.700012207031,-2.1308764338049,0.223858408579811,-0.10774266541291,ST
4.33333333333333,1.8105788230896,0.116039738059044,9.53679180145264,-3.50611996650696,1.89025592803955,-1.52439999580383,-1281.90002441406,-12.9000005722046,-942.900024414062,-2.14115468902004,0.185836380484767,-0.0105171826623094,ST
4.36666666666667,2.01215291023254,-0.641209244728088,9.25387001037598,-3.88721990585327,1.63110792636871,-2.18751406669617,-1279.5,-9.30000019073486,-942.900024414062,-2.14411382718814,0.209914801401266,0.0713404953621018,ST
4.4,1.69693160057068,-1.02701151371002,9.8256950378418,-3.29270386695862,1.18140995502472,-3.08691000938416,-1277.10009765625,-9.30000019073486,-942.900024414062,-2.13447712206362,0.170424816976694,0.107259778152223,ST
4.43333333333333,1.41939330101013,-1.36974740028381,9.48295879364014,-2.32470989227295,0.693601965904236,-2.66007804870605,-1269.90002441406,-9.90000057220459,-950.100036621094,-2.12803960134665,0.147966330115303,0.144393114951471,ST
4.46666666666667,1.58507883548737,-1.47801125049591,8.94522857666016,-2.0579400062561,0.37347799539566,-2.27897787094116,-1272.30004882812,-8.70000076293945,-950.100036621094,-2.12082964841156,0.171556822635476,0.16530713620709,ST
4.5,1.65685606002808,-1.70889449119568,9.33461952209473,-1.60061991214752,-0.282013982534409,-1.63872992992401,-1267.5,-8.70000076293945,-947.700012207031,-2.11642309754201,0.173709071694538,0.182286823590441,ST
4.53333333333333,1.45468366146088,-1.88056147098541,9.72819709777832,-0.937505960464478,-0.335367977619171,-1.34147191047668,-1277.10009765625,-7.50000047683716,-950.100036621094,-2.11201440600294,0.148110713534278,0.191769696865493,ST
4.56666666666667,1.86441159248352,-1.83330821990967,9.76288986206055,-0.289635986089706,-0.800309956073761,-1.01372599601746,-1269.90002441406,-8.10000038146973,-947.700012207031,-2.10753189116075,0.184862182717191,0.186221113386796,ST
4.6,2.1772403717041,-1.85723388195038,9.29334735870361,-0.182927995920181,-1.15854394435883,-0.891773998737335,-1269.90002441406,-9.30000019073486,-947.700012207031,-2.10692318774784,0.225483597970815,0.196636788418741,ST
4.63333333333333,1.82074725627899,-1.722651720047,9.83825588226318,-0.0,-1.06708002090454,-0.754577994346619,-1269.90002441406,-9.90000057220459,-942.900024414062,-2.10025852076456,0.184996632215881,0.174562042072341,ST
4.66666666666667,1.86022460460663,-1.75375521183014,9.3717041015625,0.495429992675781,-0.884151995182037,-0.320124000310898,-1267.5,-8.10000038146973,-950.100036621094,-2.10169974121809,0.193741846645817,0.183498901892843,ST
4.7,2.04624700546265,-1.93020737171173,9.21379470825195,0.236281991004944,-0.594515979290009,-0.236281991004944,-1272.30004882812,-8.10000038146973,-942.900024414062,-2.10572682150481,0.213843067188307,0.204677349882063,ST
4.73333333333333,1.7166702747345,-1.81895279884338,9.186279296875,-0.236281991004944,-0.182927995920181,-0.670735955238342,-1274.70007324219,-9.30000019073486,-945.300048828125,-2.10123733339983,0.183412758331437,0.196122920891148,ST
4.76666666666667,1.27823150157928,-1.51928317546844,9.99317455291748,1.17378795146942,0.259148001670837,-0.274392008781433,-1272.30004882812,-8.10000038146973,-945.300048828125,-2.09360599935419,0.127975605321941,0.150822226138446,ST
4.8,1.62395811080933,-1.71188521385193,9.61694240570068,1.54726600646973,-0.297257989645004,0.594515979290009,-1274.70007324219,-9.30000019073486,-942.900024414062,-2.10017556999341,0.162835296244368,0.17224311197166,ST
4.83333333333333,1.56354570388794,-1.71427774429321,9.88610744476318,1.34147191047668,-0.0228659994900227,0.426831990480423,-1277.10009765625,-8.70000076293945,-947.700012207031,-2.10230379928367,0.155005852997218,0.169639259106109,ST
4.86666666666667,1.26806306838989,-1.45049667358398,9.13424110412598,1.28811800479889,0.518296003341675,0.403965979814529,-1267.5,-10.5,-942.900024414062,-2.10239811262293,0.136331472188242,0.156092822308017,ST
4.9,0.826035439968109,-1.16518247127533,9.24489784240723,1.265251994133,0.792688012123108,0.830797970294952,-1265.10009765625,-11.1000003814697,-952.500061035156,-2.10232953009296,0.0898608493484803,0.125270519806447,ST
4.93333333333333,1.00727272033691,-1.5563679933548,9.82210540771484,0.731711983680725,-0.0457319989800453,1.22714197635651,-1274.70007324219,-9.90000057220459,-954.900024414062,-2.11025750361637,0.100049747616504,0.15421055048453,ST
4.96666666666667,1.31651270389557,-1.47681498527527,9.64445686340332,0.922261953353882,-0.518296003341675,0.731711983680725,-1274.70007324219,-10.5,-945.300048828125,-2.11351100038616,0.132715355283772,0.150739507705298,ST
5.0,1.39187872409821,-1.16817319393158,9.63608360290527,1.27287399768829,-0.571649968624115,1.08232402801514,-1267.5,-11.7000007629395,-947.700012207031,-2.11480923200779,0.14261040201258,0.120452735074021,ST
5.03333333333333,2.1012761592865,-1.07605922222137,9.64206504821777,1.36433792114258,-0.609759986400604,1.63110792636871,-1277.10009765625,-10.5,-945.300048828125,-2.12113840433578,0.210523995815868,0.109907728977819,ST
5.06666666666667,2.22210121154785,-1.0634982585907,9.42852783203125,1.28049600124359,0.0990860015153885,1.45580196380615,-1269.90002441406,-10.5,-947.700012207031,-2.12807540349508,0.228438799020334,0.110613620727266,ST
5.1,1.86919677257538,-0.977963745594025,9.53081035614014,0.99848198890686,1.01372599601746,1.73019397258759,-1274.70007324219,-11.1000003814697,-942.900024414062,-2.13360021067956,0.192672195159537,0.101595010064906,ST
5.13333333333333,1.71308147907257,-1.06290006637573,9.31069374084473,0.708845973014832,1.32622802257538,1.81403601169586,-1269.90002441406,-9.90000057220459,-947.700012207031,-2.14267316622534,0.179038715593904,0.112271259407573,ST
5.16666666666667,1.35838270187378,-0.976767480373383,9.0911750793457,0.815553963184357,1.56251001358032,2.21800184249878,-1267.5,-12.9000005722046,-940.500061035156,-2.15061570444057,0.146251486461007,0.106482938299338,ST
5.2,0.934897482395172,-0.678294122219086,8.80765533447266,1.19665396213531,1.45580196380615,2.43141794204712,-1267.5,-9.90000057220459,-945.300048828125,-2.15669054473761,0.105214439889057,0.0771129115851645,ST
5.23333333333333,1.44092643260956,-0.816465139389038,9.06904411315918,1.02134799957275,0.419209986925125,2.30184388160706,-1265.10009765625,-11.1000003814697,-950.100036621094,-2.16885830238782,0.153867580691018,0.0881309305973285,ST
5.26666666666667,1.52466642856598,-1.08921837806702,9.42972373962402,0.792688012123108,-0.739333987236023,2.18751406669617,-1269.90002441406,-10.5,-945.300048828125,-2.18215625044154,0.159752108487642,0.112660308255965,ST
5.3,2.09290218353271,-0.88285905122757,9.5565299987793,1.15092194080353,-0.442075997591019,3.23172783851624,-1262.70007324219,-9.90000057220459,-947.700012207031,-2.19223791794959,0.211592056689296,0.0925946901332008,ST
5.33333333333333,2.02411580085754,-0.902597725391388,10.158860206604,1.28049600124359,-0.221037998795509,3.803377866745,-1265.10009765625,-10.5,-950.100036621094,-2.20737768755016,0.196677588075644,0.0880172731145498,ST
5.36666666666667,2.55825757980347,-0.78775429725647,9.47817325592041,1.36433792114258,0.556405961513519,4.09301376342773,-1272.30004882812,-8.70000076293945,-945.300048828125,-2.22326237843948,0.257279430747296,0.0826673959276231,ST
5.4,1.9529367685318,-0.954038023948669,9.74315071105957,0.815553963184357,1.31860601902008,3.45276594161987,-1267.5,-9.90000057220459,-947.700012207031,-2.24144064687797,0.196829469887285,0.0967462894594369,ST
5.43333333333333,1.79622340202332,-1.3320643901825,10.2970314025879,0.419209986925125,1.58537602424622,2.14178204536438,-1267.5,-9.90000057220459,-947.700012207031,-2.25489415010107,0.169853163405773,0.126591455049235,ST
5.46666666666667,1.82254159450531,-1.00069320201874,9.92020130157471,0.983237981796265,0.617381989955902,1.46342396736145,-1262.70007324219,-8.70000076293945,-954.900024414062,-2.25679476075065,0.178936823027408,0.100748936738675,ST
5.5,2.0671820640564,-0.55866551399231,9.53439903259277,1.20427596569061,-0.0228659994900227,1.81403601169586,-1265.10009765625,-11.1000003814697,-952.500061035156,-2.25715937148827,0.21113580838467,0.0594866760204396,ST
5.53333333333333,1.71427774429321,-0.581394970417023,9.5026969909668,1.15092194080353,-1.15092194080353,1.05945801734924,-1265.10009765625,-9.30000019073486,-947.700012207031,-2.26249942026092,0.181934115305728,0.0594718943885095,ST
5.56666666666667,1.314120054245,0.0885251611471176,9.01461315155029,1.57775402069092,-0.472563982009888,0.670735955238342,-1267.5,-9.30000019073486,-954.900024414062,-2.25512812987892,0.147800050072508,-0.0080595186245488,ST
5.6,0.881662726402283,0.135180309414864,9.36691856384277,1.18140995502472,0.78506600856781,1.62348592281342,-1265.10009765625,-9.90000057220459,-950.100036621094,-2.26128673435339,0.0958639425026053,-0.0157025218540989,ST
5.63333333333333,0.665733098983765,0.192003890872002,10.2940406799316,0.213415995240211,0.647870004177094,2.18751406669617,-1262.70007324219,-8.10000038146973,-947.700012207031,-2.27049424090638,0.0650970517790636,-0.0186055059372805,ST
5.66666666666667,1.0395724773407,-0.198583468794823,10.3353128433228,-0.0609759986400604,-0.807931959629059,1.19665396213531,-1262.70007324219,-10.5,-952.500061035156,-2.27823427388927,0.0994042696612566,0.0171964413886281,ST
5.7,0.988132178783417,-0.227294325828552,10.3759860992432,0.144817993044853,-0.564027965068817,0.419209986925125,-1265.10009765625,-9.30000019073486,-950.100036621094,-2.28043266573074,0.0961056034604261,0.0214482980174082,ST
5.73333333333333,1.05632042884827,-0.0783567279577255,9.8077507019043,-0.0457319989800453,-0.670735955238342,-0.0076219998300075,-1265.10009765625,-8.10000038146973,-957.300048828125,-2.27910705878105,0.107970321634917,0.008596239947732,ST
5.76666666666667,0.622666835784912,0.0598142966628075,8.75920581817627,-0.388722002506256,-0.221037998795509,-0.518296003341675,-1262.70007324219,-8.10000038146973,-950.100036621094,-2.27562763487567,0.0735693953928173,-0.0053277651012128,ST
5.8,0.183629885315895,-0.0645994395017624,8.92548942565918,-0.92988395690918,0.335367977619171,-0.274392008781433,-1265.10009765625,-9.30000019073486,-942.900024414062,-2.27493654359205,0.0226153832793778,0.0081516411389406,ST
5.83333333333333,0.458775669336319,-0.34811919927597,10.0906715393066,-1.02897000312805,0.129574000835419,0.518296003341675,-1267.5,-8.70000076293945,-950.100036621094,-2.277740298263,0.0437877967543656,0.0346085811956656,ST
5.86666666666667,0.952841758728027,-0.623264968395233,9.75511360168457,-0.670735955238342,-0.297257989645004,-0.0914639979600906,-1265.10009765625,-8.10000038146973,-950.100036621094,-2.27919595308375,0.0955741493047006,0.0637628867433044,ST
5.9,0.703416109085083,-0.839792728424072,9.83466720581055,-0.87652999162674,-0.152439996600151,-0.0152439996600151,-1265.10009765625,-8.70000076293945,-950.100036621094,-2.28070948213202,0.0728778744523815,0.0853250137948701,ST
5.93333333333333,0.74050098657608,-0.952243626117706,9.89926624298096,-0.746955990791321,-0.0304879993200302,0.129574000835419,-1265.10009765625,-6.30000019073486,-950.100036621094,-2.2818535979417,0.0742739699025421,0.0965701010019019,ST
5.96666666666667,1.20286548137665,-1.03299295902252,9.75690841674805,-0.708845973014832,-0.731711983680725,0.602137982845306,-1272.30004882812,-7.50000047683716,-945.300048828125,-2.28519960667543,0.12018614802644,0.106226115433073,ST
6.0,0.944467723369598,-1.21243584156036,9.16414833068848,-0.609759986400604,-0.0685980021953583,0.967993974685669,-1269.90002441406,-6.90000009536743,-952.500061035156,-2.29208898182861,0.102449484659989,0.131735305998877,ST
6.03333333333333,1.32069969177246,-1.6024249792099,9.57028770446777,-0.518296003341675,0.0457319989800453,2.4847719669342,-1262.70007324219,-8.70000076293945,-954.900024414062,-2.3061893713966,0.132931065227249,0.165599082907444,ST
6.06666666666667,1.56593835353851,-1.21303391456604,9.71384143829346,0.495429992675781,0.0152439996600151,1.76830399036407,-1265.10009765625,-5.70000028610229,-950.100036621094,-2.30779699587627,0.1566632598405,0.126382615437299,ST
6.1,1.39367318153381,-1.15501403808594,9.57866191864014,0.823175966739655,0.815553963184357,1.02134799957275,-1265.10009765625,-7.50000047683716,-945.300048828125,-2.31086996069192,0.142731013230848,0.119258763895613,ST
6.13333333333333,1.2297819852829,-0.495262384414673,9.40400409698486,0.990859985351562,0.503051996231079,0.0381099991500378,-1267.5,-7.50000047683716,-950.100036621094,-2.30255149652498,0.129530988025569,0.0535781860230859,ST
6.16666666666667,0.802707850933075,-0.44322395324707,9.12646579742432,0.594515979290009,1.05183601379395,-0.213415995240211,-1260.30004882812,-6.90000009536743,-952.500061035156,-2.30110726999992,0.088460139938399,0.0478157995631011,ST
6.2,0.328978627920151,-0.729734420776367,9.42374229431152,-0.167683988809586,1.52439999580383,-0.129574000835419,-1257.90002441406,-6.30000019073486,-952.500061035156,-2.3018314077921,0.0349177140776282,0.0761022022244228,ST
6.23333333333333,0.681284844875336,-0.837400138378143,9.87414455413818,-0.259148001670837,0.647870004177094,0.0838419944047928,-1257.90002441406,-7.50000047683716,-950.100036621094,-2.30233567530365,0.0660696818741176,0.0846659164708101,ST
6.26666666666667,0.950449168682098,-0.289501190185547,9.61694240570068,0.403965979814529,-0.190549999475479,-0.381099998950958,-1260.30004882812,-8.70000076293945,-957.300048828125,-2.2966808720644,0.0970467490848606,0.0323567684907052,ST
6.3,1.59345293045044,-0.794333875179291,9.54755783081055,0.342989981174469,-0.411587983369827,-0.129574000835419,-1250.70007324219,-7.50000047683716,-954.900024414062,-2.30251310043402,0.161401488214125,0.0793143186355273,ST
6.33333333333333,1.35479378700256,-1.06469452381134,9.78083419799805,-0.236281991004944,-0.815553963184357,-0.503051996231079,-1260.30004882812,-5.10000038146973,-952.500061035156,-2.30480838997509,0.139609150059184,0.107137249033462,ST
6.36666666666667,1.44451522827148,-0.999496877193451,9.72221565246582,0.182927995920181,0.137196004390717,0.0762199983000755,-1255.5,-8.70000076293945,-954.900024414062,-2.30449158286635,0.146068943206687,0.102445051933943,ST
6.4,1.53962004184723,-0.77878212928772,9.06665134429932,0.396344006061554,0.0076219998300075,0.144817993044853,-1257.90002441406,-9.30000019073486,-954.900024414062,-2.30277193765591,0.16626406962088,0.0860930801404569,ST
6.43333333333333,1.10118126869202,-0.948654770851135,9.18568134307861,-0.0914639979600906,-0.342989981174469,-0.586893975734711,-1260.30004882812,-5.70000028610229,-950.100036621094,-2.30279667899636,0.122226706180593,0.101930984883449,ST
6.46666666666667,1.18671560287476,-1.07486295700073,9.76408576965332,-0.396344006061554,-0.769822001457214,-0.533540010452271,-1257.90002441406,-6.30000019073486,-950.100036621094,-2.30175736519706,0.121697250993647,0.10973490613642,ST
6.5,2.00916218757629,-1.32129776477814,9.45245361328125,-0.510673999786377,-1.95123195648193,-0.327746003866196,-1262.70007324219,-6.30000019073486,-950.100036621094,-2.30568676412237,0.20551927345811,0.137909641298547,ST
6.53333333333333,1.71547400951385,-1.26686680316925,9.56789493560791,0.221037998795509,-1.85976791381836,-0.25152599811554,-1257.90002441406,-7.50000047683716,-957.300048828125,-2.30464818908273,0.180619033164856,0.131616557239897,ST
6.56666666666667,1.54919028282166,-1.47382426261902,9.46561241149902,0.442075997591019,-0.685979962348938,0.442075997591019,-1260.30004882812,-8.70000076293945,-954.900024414062,-2.310646683059,0.16256717041421,0.152506209880442,ST
6.6,1.41640257835388,-1.16039741039276,9.97283744812012,0.548784017562866,-0.663114011287689,0.739333987236023,-1265.10009765625,-6.30000019073486,-957.300048828125,-2.30890105161312,0.142444985554423,0.117346528643542,ST
6.63333333333333,1.19748222827911,-0.96958976984024,9.92618274688721,0.990859985351562,-0.556405961513519,1.33385002613068,-1265.10009765625,-8.10000038146973,-947.700012207031,-2.31247048721187,0.121442301322578,0.0971095556513531,ST
6.66666666666667,1.50732028484344,-0.762632310390472,9.09177303314209,0.823175966739655,-0.6250039935112,1.2423859834671,-1267.5,-8.10000038146973,-952.500061035156,-2.3165046578145,0.16251420755016,0.0833198167040011,ST
6.7,1.05332982540131,-0.753660142421722,8.97812557220459,0.571649968624115,-0.335367977619171,0.99848198890686,-1267.5,-8.10000038146973,-938.100036621094,-2.32125160041331,0.118832438942601,0.0829901317041929,ST
6.73333333333333,0.830820560455322,-1.07007777690887,8.99008846282959,-0.0457319989800453,0.282013982534409,0.594515979290009,-1269.90002441406,-6.90000009536743,-950.100036621094,-2.32710889353055,0.0924356626308364,0.116704742083408,ST
6.76666666666667,0.486888378858566,-1.14903259277344,9.70726203918457,-0.243903994560242,0.213415995240211,1.12043392658234,-1262.70007324219,-5.70000028610229,-947.700012207031,-2.33152901643125,0.0517926195308362,0.118257796041155,ST
6.8,0.745286166667938,-1.49535739421844,10.3221530914307,-0.0609759986400604,-0.297257989645004,1.70732796192169,-1269.90002441406,-6.90000009536743,-945.300048828125,-2.33996591146021,0.0702473026604533,0.142603591052302,ST
6.83333333333333,0.997702479362488,-1.41819703578949,10.1756086349487,0.236281991004944,-0.167683988809586,1.62348592281342,-1265.10009765625,-8.10000038146973,-945.300048828125,-2.34626713810894,0.0950985828208221,0.138587749553967,ST
6.86666666666667,1.73282015323639,-1.11194777488708,10.338303565979,0.617381989955902,-0.708845973014832,1.14329993724823,-1269.90002441406,-7.50000047683716,-945.300048828125,-2.34760370549269,0.161832589640723,0.108362874145125,ST
6.9,1.98344206809998,-1.00069320201874,9.6941032409668,0.602137982845306,-1.59299790859222,0.815553963184357,-1267.5,-7.50000047683716,-945.300048828125,-2.35087408858028,0.200877462400368,0.102525905622603,ST
6.93333333333333,1.55277919769287,-0.885849714279175,9.27719783782959,0.739333987236023,-0.37347799539566,0.487807989120483,-1272.30004882812,-5.70000028610229,-950.100036621094,-2.35202017846629,0.167803580288382,0.0945779604379059,ST
6.96666666666667,1.74897003173828,-0.891831159591675,9.05827713012695,0.518296003341675,-0.0228659994900227,0.632625997066498,-1267.5,-5.70000028610229,-947.700012207031,-2.35556023879107,0.188692688540657,0.0972995462007732,ST
7.0,1.19628596305847,-0.806894838809967,9.71444034576416,0.78506600856781,0.0609759986400604,0.762199997901917,-1267.5,-5.70000028610229,-950.100036621094,-2.35673475942305,0.125945956921868,0.0826220036108713,ST
7.03333333333333,1.53962004184723,-0.751865744590759,9.4787712097168,0.960371971130371,-0.167683988809586,1.07470202445984,-1272.30004882812,-6.30000019073486,-945.300048828125,-2.36098046777909,0.158564830692068,0.0780656946295745,ST
7.06666666666667,1.63950991630554,-0.862522184848785,9.38665771484375,1.04421401023865,-0.426831990480423,1.18140995502472,-1269.90002441406,-6.90000009536743,-950.100036621094,-2.36873464536919,0.17207396411386,0.0895765515168321,ST
7.1,1.77827906608582,-0.466551512479782,9.22575759887695,1.15854394435883,-0.891773998737335,1.07470202445984,-1272.30004882812,-6.90000009536743,-942.900024414062,-2.36753268248636,0.190773666822943,0.0506740096935057,ST
7.13333333333333,2.37462759017944,-0.599937379360199,9.30291748046875,0.762199997901917,-1.02897000312805,1.50915598869324,-1269.90002441406,-8.10000038146973,-945.300048828125,-2.377045561511,0.247398590331574,0.0629284678097093,ST
7.16666666666667,1.64309871196747,-0.762632310390472,9.99796009063721,0.0533539988100529,-0.327746003866196,1.59299790859222,-1274.70007324219,-6.90000009536743,-947.700012207031,-2.3861014559823,0.167927450786477,0.0757390818443314,ST
7.2,1.84228038787842,-1.0216281414032,10.3347139358521,-0.282013982534409,0.602137982845306,2.4923939704895,-1269.90002441406,-6.90000009536743,-947.700012207031,-2.39938783867648,0.17374034718404,0.0983045939477266,ST
7.23333333333333,1.69394087791443,-0.906784772872925,10.2731056213379,0.289635986089706,-0.0762199983000755,3.04117798805237,-1269.90002441406,-5.10000038146973,-950.100036621094,-2.41117465107696,0.162950250813789,0.0888479530521654,ST
7.26666666666667,1.97865700721741,-0.547898948192596,9.69230842590332,1.34147191047668,-0.564027965068817,2.77440786361694,-1274.70007324219,-5.10000038146973,-947.700012207031,-2.41758159051343,0.199399425003662,0.0571473230991876,ST
7.3,1.6544634103775,-0.297875195741653,9.34418964385986,1.57013201713562,-0.564027965068817,2.28659987449646,-1274.70007324219,-4.5,-942.900024414062,-2.42394170183806,0.177032273523376,0.0310560826432667,ST
7.33333333333333,1.50432956218719,0.0299071483314037,8.81124401092529,0.83841997385025,-0.655492007732391,1.10518991947174,-1274.70007324219,-5.10000038146973,-942.900024414062,-2.42315645962071,0.170653183044339,-0.002368943829174,ST
7.36666666666667,1.06290006637573,0.263182908296585,8.96317195892334,0.426831990480423,-0.3125019967556,0.685979962348938,-1274.70007324219,-5.70000028610229,-947.700012207031,-2.42233503410958,0.121720328013265,-0.0282856896653379,ST
7.4,0.802707850933075,-0.141759887337685,9.15158748626709,-0.0609759986400604,0.0381099991500378,0.564027965068817,-1269.90002441406,-4.5,-947.700012207031,-2.42910954243066,0.0890929101952561,0.0135380027864632,ST
7.43333333333333,0.530552804470062,-0.231481328606606,10.1851787567139,-0.205793991684914,-0.655492007732391,0.716467976570129,-1277.10009765625,-6.30000019073486,-950.100036621094,-2.43263754928307,0.0553274126673104,0.0225781673743812,ST
7.46666666666667,0.889438569545746,-0.294884473085403,10.3723974227905,0.182927995920181,-1.05945801734924,0.693601965904236,-1274.70007324219,-5.70000028610229,-940.500061035156,-2.43596202809457,0.0853828908989321,0.0278623825593338,ST
7.5,1.11194777488708,0.042468149214983,9.93694877624512,0.564027965068817,-1.15854394435883,0.891773998737335,-1272.30004882812,-6.30000019073486,-942.900024414062,-2.43676275166764,0.111755536901076,-0.0030878663063804,ST
7.53333333333333,1.08682572841644,0.108862020075321,9.32863807678223,0.0381099991500378,-0.746955990791321,0.160062000155449,-1284.30004882812,-4.5,-947.700012207031,-2.43647330854152,0.116945342489936,-0.0111822447005733,ST
7.56666666666667,0.785959839820862,-0.141759887337685,8.83995532989502,-0.952749967575073,0.0533539988100529,-0.983237981796265,-1277.10009765625,-5.70000028610229,-940.500061035156,-2.43493506003958,0.0903118979746616,0.0157982575013378,ST
7.6,1.0335910320282,-0.235070183873177,9.57985782623291,-1.2576299905777,-0.975615978240967,-0.800309956073761,-1279.5,-4.5,-947.700012207031,-2.43219814303121,0.108151633869046,0.0259960561598767,ST
7.63333333333333,1.89431881904602,-0.298473328351974,9.39802265167236,-1.01372599601746,-2.23324584960938,-1.09756803512573,-1279.5,-6.30000019073486,-940.500061035156,-2.42845972004796,0.197020351028588,0.0327481843443634,ST
7.66666666666667,2.49724698066711,-0.0939084440469742,9.03494930267334,-0.663114011287689,-2.05031800270081,-1.43293595314026,-1291.5,-3.90000009536743,-942.900024414062,-2.4176330488273,0.268650625284739,0.0122545650291546,ST
7.7,2.47212481498718,-0.0328978635370731,9.49193096160889,-0.541162014007568,-0.884151995182037,-1.57775402069092,-1284.30004882812,-5.10000038146973,-938.100036621094,-2.40821094747662,0.256882065889067,0.0040588339384916,ST
7.73333333333333,2.63721227645874,-0.28710862994194,10.1839818954468,-0.510673999786377,0.175305992364883,-1.64635193347931,-1286.70007324219,-5.70000028610229,-945.300048828125,-2.40701014969481,0.253291248560274,0.0268594317290942,ST
7.76666666666667,2.29507446289062,-0.266173630952835,10.0811014175415,-0.487807989120483,0.152439996600151,-1.97409796714783,-1289.10009765625,-4.5,-942.900024414062,-2.39870533290347,0.225394250020207,0.0264650687865333,ST
7.8,1.44930040836334,-0.360680222511292,10.0051374435425,-0.358233988285065,1.22714197635651,-1.48628997802734,-1281.90002441406,-3.30000019073486,-942.900024414062,-2.39409950611935,0.146784846423037,0.0356432367330692,ST
7.83333333333333,1.53662931919098,-0.39836323261261,9.76528167724609,-0.0990860015153885,1.35671591758728,0.815553963184357,-1286.70007324219,-5.70000028610229,-945.300048828125,-2.39784969803054,0.153117469854897,0.0408133417924576,ST
7.86666666666667,2.900395154953,-0.708201289176941,9.34060096740723,0.0914639979600906,0.457319974899292,1.52439999580383,-1279.5,-5.10000038146973,-942.900024414062,-2.41111869329036,0.290397474857107,0.073987564807691,ST
7.9,2.74607443809509,-0.602329969406128,9.62531661987305,0.3125019967556,0.434453994035721,-0.289635986089706,-1279.5,-5.70000028610229,-950.100036621094,-2.40702843746459,0.27750715874889,0.0625287024419564,ST
7.93333333333333,2.04265832901001,-0.223107323050499,9.44467735290527,0.243903994560242,1.31098401546478,-1.76830399036407,-1274.70007324219,-5.10000038146973,-945.300048828125,-2.39069968091785,0.214396019453033,0.0246252036002019,ST
7.96666666666667,1.47262799739838,-0.0239257179200649,8.83397388458252,-0.182927995920181,1.18140995502472,-1.72257196903229,-1272.30004882812,-6.30000019073486,-945.300048828125,-2.37974820077955,0.16624899559895,0.0038239580636615,ST
8.0,0.828428030014038,-0.452196091413498,9.10254001617432,-1.28811800479889,1.50915598869324,-1.265251994133,-1274.70007324219,-6.30000019073486,-947.700012207031,-2.37967986675888,0.0928553521244023,0.0487624469914209,ST
8.03333333333333,0.917551338672638,-0.927121579647064,10.0194931030273,-1.44817996025085,1.20427596569061,-1.30336201190948,-1267.5,-5.70000028610229,-952.500061035156,-2.37731766945508,0.0892482271281004,0.0920769474025932,ST
8.06666666666667,0.766221165657043,-0.705808699131012,10.378378868103,-0.670735955238342,0.167683988809586,-2.13416004180908,-1269.90002441406,-5.10000038146973,-947.700012207031,-2.36587800527831,0.0741980928470584,0.0698098389847011,ST
8.1,1.63293027877808,-0.529954671859741,9.44766807556152,-0.114329993724823,-1.34147191047668,-1.07470202445984,-1272.30004882812,-5.70000028610229,-952.500061035156,-2.3597475373079,0.169424061374962,0.0565136195280514,ST
8.13333333333333,1.29976463317871,-0.377428203821182,9.3118896484375,-0.106707997620106,-0.495429992675781,-0.746955990791321,-1274.70007324219,-4.5,-945.300048828125,-2.35447449277931,0.141308965069851,0.0414746293966872,ST
8.16666666666667,1.75196075439453,-0.916355013847351,9.25745868682861,-0.708845973014832,0.533540010452271,-1.02897000312805,-1269.90002441406,-6.30000019073486,-947.700012207031,-2.35856112308399,0.182721008018617,0.0960172236612719,ST
8.2,1.91944074630737,-1.19030451774597,9.69888782501221,-1.20427596569061,-0.457319974899292,-3.01831197738647,-1269.90002441406,-4.5,-947.700012207031,-2.35075880059915,0.194606701692233,0.12156529462916,ST
8.23333333333333,1.7806715965271,-1.23157632350922,9.4853515625,-0.754577994346619,-1.12043392658234,-3.68142580986023,-1272.30004882812,-6.90000009536743,-945.300048828125,-2.33765159920023,0.187287518194471,0.12880135887092,ST
8.26666666666667,1.88953363895416,-1.31053125858307,9.77844142913818,0.137196004390717,-1.28049600124359,-1.63872992992401,-1269.90002441406,-6.30000019073486,-950.100036621094,-2.33263881153031,0.191547316163826,0.132274512979873,ST
8.3,2.07735061645508,-1.27464270591736,9.2161865234375,0.289635986089706,-0.114329993724823,-0.914639949798584,-1269.90002441406,-6.30000019073486,-950.100036621094,-2.32990899848255,0.218833121204443,0.136396324605867,ST
8.33333333333333,1.24652993679047,-1.26866126060486,9.42673301696777,-0.129574000835419,1.6920839548111,-1.47104597091675,-1265.10009765625,-6.90000009536743,-947.700012207031,-2.32224134408094,0.132195122731488,0.133713766908635,ST
8.36666666666667,0.856540739536285,-1.60421943664551,9.79518890380859,0.0762199983000755,1.6615959405899,-0.6250039935112,-1267.5,-7.50000047683716,-950.100036621094,-2.3217005764891,0.0863504034222637,0.160348897323362,ST
8.4,0.452196091413498,-1.58747148513794,9.91661262512207,0.6250039935112,1.10518991947174,-0.457319974899292,-1262.70007324219,-6.90000009536743,-950.100036621094,-2.31916185306799,0.0458318300601639,0.15775578560011,ST
8.43333333333333,0.643601834774017,-1.42537474632263,9.85261058807373,0.99848198890686,0.365855991840363,0.297257989645004,-1262.70007324219,-6.30000019073486,-954.900024414062,-2.31958057066538,0.0628706296895468,0.142818565751343,ST
8.46666666666667,1.08024621009827,-1.29438138008118,9.70726203918457,1.17378795146942,-0.365855991840363,0.92988395690918,-1262.70007324219,-6.90000009536743,-954.900024414062,-2.3233164915056,0.108194083370328,0.131220424083153,ST
8.5,1.77648460865021,-0.977365612983704,9.74315071105957,1.41769194602966,-1.57013201713562,1.28811800479889,-1265.10009765625,-8.70000076293945,-950.100036621094,-2.32552746373501,0.177488079596588,0.099966226703773,ST
8.53333333333333,2.01035857200623,-0.83859646320343,9.234130859375,1.37958192825317,-1.33385002613068,1.52439999580383,-1265.10009765625,-7.50000047683716,-947.700012207031,-2.33107820792463,0.213277980515381,0.0894427022993527,ST
8.56666666666667,2.4577693939209,-0.60352623462677,8.85431003570557,0.769822001457214,-0.861285984516144,1.6844619512558,-1257.90002441406,-10.5,-954.900024414062,-2.33375755632326,0.267926200230304,0.0688656331701134,ST
8.6,2.03428435325623,-0.581394970417023,9.28258037567139,0.320124000310898,0.419209986925125,1.57775402069092,-1267.5,-7.50000047683716,-957.300048828125,-2.33870854358296,0.217670442146511,0.0629871961763945,ST
8.63333333333333,1.81596207618713,-0.683677434921265,9.84902191162109,0.0609759986400604,1.02134799957275,1.83690190315247,-1265.10009765625,-7.50000047683716,-947.700012207031,-2.34700010782202,0.182197401778662,0.069373550479668,ST
8.66666666666667,2.39317011833191,-0.842185318470001,9.72700119018555,0.0990860015153885,0.221037998795509,1.95123195648193,-1265.10009765625,-8.70000076293945,-950.100036621094,-2.35836798840652,0.236568773149827,0.086000445186636,ST
8.7,1.5563679933548,-0.958823204040527,9.5206413269043,0.609759986400604,0.891773998737335,1.56251001358032,-1267.5,-6.90000009536743,-952.500061035156,-2.36723252698434,0.164109679459517,0.0989420440532356,ST
8.73333333333333,0.623264968395233,-0.884653449058533,10.3418922424316,1.07470202445984,0.746955990791321,1.44817996025085,-1260.30004882812,-8.10000038146973,-952.500061035156,-2.37154248469116,0.0648742245245475,0.0845776551505144,ST
8.76666666666667,0.980954468250275,-0.257201462984085,10.0147075653076,1.53964400291443,-0.426831990480423,1.50915598869324,-1260.30004882812,-8.10000038146973,-952.500061035156,-2.37390518022594,0.0966299372758313,0.0262525625591579,ST
8.8,1.80579364299774,-0.009570287540555,9.0672492980957,1.82927989959717,-0.945127964019775,1.12805593013763,-1269.90002441406,-6.30000019073486,-950.100036621094,-2.37609208354099,0.193235477846282,-0.0003909374455322,ST
8.83333333333333,1.30275535583496,0.155517175793648,10.0284652709961,0.807931959629059,-1.39482593536377,0.716467976570129,-1262.70007324219,-8.10000038146973,-957.300048828125,-2.3768836319062,0.135356238321328,-0.0157571053280321,ST
8.86666666666667,1.63651919364929,-0.0651975870132446,8.82141208648682,-0.297257989645004,-0.518296003341675,-0.350611984729767,-1257.90002441406,-7.50000047683716,-947.700012207031,-2.37873218201741,0.181933360226752,0.0066365672626707,ST
8.9,1.17475283145905,-0.429466664791107,9.28317928314209,-0.87652999162674,-0.0381099991500378,-1.04421401023865,-1265.10009765625,-8.10000038146973,-947.700012207031,-2.37967428327503,0.128355245545487,0.0457265675855083,ST
8.93333333333333,0.769211888313293,-0.73751026391983,9.48953819274902,-0.746955990791321,-0.0685980021953583,-0.78506600856781,-1267.5,-8.10000038146973,-947.700012207031,-2.37953294862213,0.083740636165807,0.0767493004790477,ST
8.96666666666667,1.29378318786621,-1.07247030735016,9.71025276184082,-0.426831990480423,-0.617381989955902,-0.403965979814529,-1265.10009765625,-8.10000038146973,-957.300048828125,-2.38136418705767,0.129840087571146,0.108606958940273,ST
9.0,0.989926636219025,-0.92173832654953,9.05289363861084,0.114329993724823,0.6250039935112,-0.396344006061554,-1265.10009765625,-6.90000009536743,-952.500061035156,-2.37868953748483,0.108573525102265,0.101582390595447,ST
9.03333333333333,0.727341830730438,-0.685471832752228,9.40041446685791,0.388722002506256,1.33385002613068,-0.282013982534409,-1267.5,-8.10000038146973,-950.100036621094,-2.37468240870001,0.0767868252968733,0.07384215663139,ST
9.06666666666667,0.946860313415527,-0.827231705188751,10.1199808120728,0.533540010452271,0.541162014007568,-0.289635986089706,-1260.30004882812,-10.5,-952.500061035156,-2.37403773707072,0.0912478841965898,0.0802098888583646,ST
9.1,1.04495573043823,-0.791941285133362,10.0834941864014,0.6250039935112,-0.579271972179413,-0.548784017562866,-1260.30004882812,-6.90000009536743,-954.900024414062,-2.37183367623237,0.103467316092234,0.0773296491779693,ST
9.13333333333333,1.30574607849121,-0.586778283119202,9.94173431396484,0.67835795879364,-0.975615978240967,-0.6250039935112,-1265.10009765625,-8.70000076293945,-950.100036621094,-2.36776440646182,0.130399068042566,0.0588406472201684,ST
9.16666666666667,0.952243626117706,-0.390587359666824,9.32145977020264,0.914639949798584,0.175305992364883,-0.0990860015153885,-1260.30004882812,-9.90000057220459,-947.700012207031,-2.36568119741686,0.102691500080807,0.0410763743938945,ST
9.2,1.44272089004517,0.0023925718851387,9.85620021820068,0.716467976570129,0.25152599811554,-0.0762199983000755,-1257.90002441406,-7.50000047683716,-952.500061035156,-2.36083838706543,0.142353788593723,0.001083735981011,ST
9.23333333333333,1.57072341442108,-0.173461467027664,10.106822013855,0.472563982009888,-0.670735955238342,0.114329993724823,-1262.70007324219,-8.70000076293945,-954.900024414062,-2.36372971693828,0.154539767965707,0.0154411496831764,ST
9.26666666666667,1.89312255382538,-0.160900458693504,9.08040809631348,-0.541162014007568,-0.716467976570129,-0.891773998737335,-1260.30004882812,-7.50000047683716,-945.300048828125,-2.36032998922667,0.203619510207755,0.0181802484741205,ST
9.3,1.48459088802338,-0.821848452091217,8.96855545043945,-0.175305992364883,1.46342396736145,-0.37347799539566,-1265.10009765625,-10.5,-950.100036621094,-2.37096635036643,0.163002271611248,0.0879646227140648,ST
9.33333333333333,2.68386745452881,-1.49655365943909,10.8736410140991,0.792688012123108,3.01831197738647,0.67835795879364,-1253.10009765625,-6.90000009536743,-950.100036621094,-2.38196781139392,0.231302884225498,0.133358312791694,ST
9.36666666666667,2.14733338356018,-0.99590802192688,9.17790603637695,0.617381989955902,0.518296003341675,0.0381099991500378,-1260.30004882812,-9.90000057220459,-957.300048828125,-2.37680840263836,0.227858900853162,0.108599464974772,ST
9.4,1.55397546291351,-0.783567309379578,8.92010593414307,-0.205793991684914,0.282013982534409,0.762199997901917,-1250.70007324219,-8.70000076293945,-957.300048828125,-2.37570993776256,0.174655803518901,0.0894359050091153,ST
9.43333333333333,1.37513065338135,-1.29976463317871,9.07442665100098,-0.67835795879364,0.358233988285065,0.586893975734711,-1255.5,-8.70000076293945,-954.900024414062,-2.38574323986671,0.149604242662255,0.140648136020739,ST
9.46666666666667,0.209948182106018,-1.75913846492767,9.83107757568359,-0.724089980125427,0.92988395690918,-0.0381099991500378,-1245.90002441406,-7.50000047683716,-957.300048828125,-2.38781718858009,0.0245837221912668,0.176846806863882,ST
9.5,0.355296939611435,-1.84048593044281,10.8993616104126,0.0838419944047928,-0.274392008781433,0.198172003030777,-1250.70007324219,-10.5,-957.300048828125,-2.38860036712155,0.0321556099740357,0.16762600361189,ST
9.53333333333333,1.17834162712097,-0.807493031024933,8.85909557342529,0.78506600856781,-1.41006994247437,0.350611984729767,-1250.70007324219,-8.10000038146973,-957.300048828125,-2.38511036066621,0.127912179807793,0.0944105176560745,ST
9.56666666666667,0.856540739536285,-1.0975923538208,9.01640701293945,-0.0228659994900227,-0.129574000835419,0.78506600856781,-1253.10009765625,-8.70000076293945,-954.900024414062,-2.39133351551885,0.0957515891596743,0.120001961110376,ST
9.6,0.997702479362488,-1.34941053390503,9.97283744812012,-0.274392008781433,0.160062000155449,1.08232402801514,-1257.90002441406,-9.30000019073486,-959.700012207031,-2.39682755527364,0.0981370458075938,0.134231804631965,ST
9.63333333333333,1.96190893650055,-0.913364291191101,9.83227443695068,1.02134799957275,-1.37195992469788,1.13567793369293,-1253.10009765625,-7.50000047683716,-954.900024414062,-2.39723965267613,0.194370228006332,0.0929757437936884,ST
9.66666666666667,1.51389980316162,-0.708201289176941,9.00504207611084,1.47866797447205,-1.63872992992401,0.830797970294952,-1255.5,-8.10000038146973,-957.300048828125,-2.399266046833,0.170343147252866,0.077211380630281,ST
9.7,0.762034118175507,-0.697434723377228,8.488844871521,0.327746003866196,1.21951997280121,1.07470202445984,-1257.90002441406,-9.90000057220459,-950.100036621094,-2.4038599027735,0.0920182514282636,0.0813209811243651,ST
9.73333333333333,0.846372306346893,-1.0455539226532,9.57806301116943,-0.205793991684914,0.907018005847931,1.34147191047668,-1250.70007324219,-9.30000019073486,-954.900024414062,-2.41112876763936,0.0861823983577798,0.107583758735732,ST
9.76666666666667,0.616685390472412,-1.17594909667969,10.1325416564941,0.365855991840363,0.152439996600151,1.07470202445984,-1255.5,-9.30000019073486,-952.500061035156,-2.41597396272454,0.0614997033011679,0.114572048211005,ST
9.8,1.04794645309448,-0.859531462192535,9.85440540313721,0.823175966739655,-0.419209986925125,0.899396002292633,-1255.5,-8.70000076293945,-952.500061035156,-2.41811347324399,0.104171211566987,0.0870013789758844,ST
9.83333333333333,0.967795312404633,-0.77579140663147,9.76887130737305,0.472563982009888,-0.533540010452271,0.685979962348938,-1255.5,-7.50000047683716,-959.700012207031,-2.4205943153574,0.0995118890325397,0.07896515475671,ST
9.86666666666667,1.28899812698364,-0.888242304325104,10.4746799468994,0.518296003341675,-0.594515979290009,-0.0381099991500378,-1253.10009765625,-9.30000019073486,-952.500061035156,-2.42137594256652,0.121765019608183,0.0834354285986197,ST
9.9,3.03079032897949,-1.64250063896179,9.86158275604248,0.640248000621796,-1.41769194602966,0.731711983680725,-1255.5,-6.30000019073486,-950.100036621094,-2.44095148182891,0.286000265793819,0.15921494231956,ST
9.93333333333333,2.04026556015015,-0.842783451080322,9.01640701293945,1.34909391403198,-0.304879993200302,0.205793991684914,-1260.30004882812,-8.70000076293945,-942.900024414062,-2.42696736397712,0.226000531270534,0.0950233126473378,ST
9.96666666666667,1.41161739826202,-0.217724040150642,8.26334476470947,0.975615978240967,0.129574000835419,3.14026403427124,-1255.5,-8.10000038146973,-952.500061035156,-2.42719274167715,0.172198269033966,0.0298063546321997,ST
10.0,0.910373628139496,-0.37025049328804,8.84832859039307,0.434453994035721,1.21189796924591,4.80185985565186,-1262.70007324219,-6.90000009536743,-954.900024414062,-2.44799539155847,0.10437854606742,0.0412890129240522,ST
10.0333333333333,0.944467723369598,-0.257799625396729,9.66359806060791,0.442075997591019,0.6250039935112,4.02441596984863,-1250.70007324219,-8.10000038146973,-952.500061035156,-2.46283576063819,0.0965943595240054,0.0274776116439973,ST
10.0666666666667,0.680686712265015,-0.0394774377346039,10.0117168426514,0.579271972179413,0.350611984729767,2.62196803092957,-1255.5,-8.10000038146973,-952.500061035156,-2.471655243382,0.0690154072171584,0.0047347254936591,ST
10.1,0.382213354110718,0.224303618073463,10.4507541656494,0.731711983680725,-0.282013982534409,2.39330792427063,-1255.5,-7.50000047683716,-962.100036621094,-2.48004012578516,0.0390461143494196,-0.0209001236093926,ST
10.1333333333333,0.74947315454483,0.540123105049133,9.89268684387207,0.754577994346619,-1.18140995502472,1.53202199935913,-1255.5,-7.50000047683716,-954.900024414062,-2.48449276443794,0.0755844171077851,-0.0537795356606196,ST
10.1666666666667,1.12510693073273,0.623863101005554,9.08997917175293,0.289635986089706,-1.28811800479889,0.716467976570129,-1260.30004882812,-7.50000047683716,-950.100036621094,-2.48575651360667,0.122179248898286,-0.0679840833182432,ST
10.2,1.30096101760864,0.282323479652405,9.0732307434082,-0.411587983369827,-1.21189796924591,-0.495429992675781,-1260.30004882812,-7.50000047683716,-952.500061035156,-2.48798780672952,0.143083512808031,-0.0327966919245823,ST
10.2333333333333,1.1615936756134,0.214733332395554,9.31607723236084,-0.602137982845306,-0.914639949798584,-1.50915598869324,-1267.5,-6.30000019073486,-950.100036621094,-2.48286071148935,0.12660788530675,-0.0229744088632597,ST
10.2666666666667,1.19269704818726,0.061608724296093,9.4375,-0.739333987236023,-0.221037998795509,-1.43293595314026,-1262.70007324219,-7.50000047683716,-952.500061035156,-2.4782856775812,0.126097650776494,-0.0063208236401579,ST
10.3,1.49834811687469,-0.165087461471558,9.85261058807373,-0.922261953353882,-0.358233988285065,-1.28811800479889,-1257.90002441406,-6.90000009536743,-954.900024414062,-2.4757800558485,0.150012374177494,0.0165540719094191,ST
10.3333333333333,1.75674593448639,-0.376830071210861,9.66479396820068,-0.823175966739655,0.0685980021953583,-1.50153398513794,-1257.90002441406,-7.50000047683716,-950.100036621094,-2.4728366119473,0.177849405691838,0.0385237765398525,ST
10.3666666666667,0.82663357257843,-0.0077758585102856,10.1008405685425,-0.571649968624115,0.0,-1.56251001358032,-1255.5,-6.90000009536743,-952.500061035156,-2.46147905114947,0.0869374222285065,0.003485038781063,ST
10.4,1.11075150966644,-0.604124426841736,10.0368394851685,-1.46342396736145,0.403965979814529,-1.63872992992401,-1257.90002441406,-8.10000038146973,-964.500061035156,-2.45927425019299,0.108366983049156,0.0594733077817626,ST
10.4333333333333,1.82194352149963,-0.768613696098328,10.2031230926514,-1.60824191570282,-1.08232402801514,-1.29574000835419,-1262.70007324219,-8.10000038146973,-954.900024414062,-2.45553362891354,0.174840068819105,0.076748670726762,ST
10.4666666666667,1.01325416564941,-0.782370984554291,9.35675048828125,-0.792688012123108,0.724089980125427,-1.19665396213531,-1257.90002441406,-6.90000009536743,-947.700012207031,-2.45098946882137,0.110146632668471,0.0841185275826355,ST
10.5,1.62216377258301,-0.608311414718628,10.6290006637573,-1.04421401023865,0.78506600856781,-0.548784017562866,-1255.5,-6.90000009536743,-952.500061035156,-2.44497265861377,0.147494119844041,0.0603871958232471,ST
10.5333333333333,1.64190244674683,-0.803904175758362,8.25437259674072,-0.335367977619171,0.914639949798584,-0.472563982009888,-1255.5,-5.10000038146973,-957.300048828125,-2.44844069729895,0.191124089011489,0.0952201229659862,ST
10.5666666666667,0.656162858009338,-0.930710434913635,9.82689094543457,-0.990859985351562,1.63872992992401,-0.594515979290009,-1250.70007324219,-6.30000019073486,-959.700012207031,-2.44468440818006,0.0686638262355803,0.0960160466443559,ST
10.6,0.801511585712433,-1.1436493396759,9.79279708862305,-0.564027965068817,0.739333987236023,-0.198172003030777,-1248.30004882812,-5.10000038146973,-957.300048828125,-2.44486925942852,0.0791943292385245,0.115919086368445,ST
10.6333333333333,1.65087461471558,-0.708201289176941,10.099045753479,-0.289635986089706,-1.15854394435883,0.0457319989800453,-1250.70007324219,-5.10000038146973,-954.900024414062,-2.44025534409442,0.158542252279269,0.0733377956742733,ST
10.6666666666667,0.559861838817596,-0.797922730445862,9.14381122589111,0.259148001670837,0.746955990791321,-0.0762199983000755,-1255.5,-5.10000038146973,-959.700012207031,-2.4411732082712,0.0639919454953212,0.0859974011000326,ST
10.7,1.76033473014832,-0.651975810527802,9.15517616271973,-0.182927995920181,1.03659200668335,-1.19665396213531,-1248.30004882812,-5.70000028610229,-957.300048828125,-2.43391970885896,0.181758989623854,0.0717983489823381,ST
10.7333333333333,0.346324771642685,-1.06828331947327,10.19056224823,-1.06708002090454,0.304879993200302,-1.92836594581604,-1245.90002441406,-4.5,-962.100036621094,-2.42930939868394,0.0426030352962252,0.104033582570612,ST
10.7666666666667,0.960019469261169,-1.67539846897125,10.0266704559326,-1.74543797969818,-0.586893975734711,-2.40855193138123,-1238.70007324219,-6.30000019073486,-952.500061035156,-2.42334494610919,0.0929222555908611,0.164755652689878,ST
10.8,0.596946656703949,-1.81895279884338,8.69161510467529,-0.503051996231079,-1.45580196380615,-1.31098401546478,-1245.90002441406,-5.10000038146973,-957.300048828125,-2.42237689480351,0.071456334602465,0.20448908484924,ST
10.8333333333333,0.360082060098648,-1.78545677661896,9.01640701293945,0.221037998795509,0.83841997385025,0.358233988285065,-1245.90002441406,-6.30000019073486,-964.500061035156,-2.42276845827968,0.0389324447474636,0.195491788417558,ST
10.8666666666667,0.330773055553436,-1.87577641010284,10.163046836853,0.670735955238342,0.503051996231079,0.891773998737335,-1245.90002441406,-6.30000019073486,-957.300048828125,-2.42583641593388,0.0312031305834588,0.182008317121686,ST
10.9,0.91575688123703,-1.50672209262848,10.0763168334961,1.01372599601746,-0.830797970294952,0.160062000155449,-1245.90002441406,-7.50000047683716,-962.100036621094,-2.42531364122207,0.0874090421718318,0.148852310937855,ST
10.9333333333333,1.49775004386902,-1.18252861499786,9.66120529174805,1.51677799224854,-2.66770005226135,0.754577994346619,-1250.70007324219,-6.90000009536743,-959.700012207031,-2.42743544381494,0.153719095913568,0.120874647755019,ST
10.9666666666667,2.2412416934967,-1.09579789638519,9.20003700256348,1.50153398513794,-2.26373386383057,1.14329993724823,-1250.70007324219,-6.90000009536743,-964.500061035156,-2.43381553610078,0.236746919116926,0.116702296556698,ST
11.0,1.64429497718811,-1.12211620807648,9.2401123046875,1.2347639799118,0.358233988285065,1.21189796924591,-1257.90002441406,-5.10000038146973,-964.500061035156,-2.43984817158615,0.177787872263304,0.118940266376851,ST
11.0333333333333,0.544908225536346,-0.965402781963348,9.71384143829346,0.884151995182037,2.40855193138123,1.18140995502472,-1248.30004882812,-6.90000009536743,-959.700012207031,-2.44153014463047,0.0590534583407874,0.0989304073359627,ST
11.0666666666667,0.971982300281525,-1.02940404415131,10.2449932098389,0.868907988071442,0.846041977405548,1.78354799747467,-1245.90002441406,-8.10000038146973,-957.300048828125,-2.44924583482131,0.0908776365575947,0.098883608933666,ST
11.1,0.498253107070923,-1.10237753391266,8.17362403869629,1.07470202445984,1.06708002090454,0.731711983680725,-1250.70007324219,-5.70000028610229,-959.700012207031,-2.45433725660549,0.0603098777005117,0.130234636593086,ST
11.1333333333333,-0.29009935259819,-0.759641587734222,9.88610744476318,0.967993974685669,2.5076379776001,-0.0076219998300075,-1245.90002441406,-8.10000038146973,-952.500061035156,-2.45249874834402,-0.0279083490271132,0.0783589582898454,ST
11.1666666666667,0.625059425830841,-0.407933503389359,9.64864444732666,1.56251001358032,-0.708845973014832,1.37195992469788,-1243.5,-6.90000009536743,-962.100036621094,-2.4577672634605,0.0600708152304314,0.0419964073606016,ST
11.2,0.788352429866791,-0.10826388001442,10.7910976409912,1.87501192092896,-0.289635986089706,2.05031800270081,-1248.30004882812,-6.90000009536743,-966.900024414062,-2.46437175502335,0.0725703522724125,0.0091360325643363,ST
11.2333333333333,1.98224580287933,-0.344530344009399,11.3312206268311,1.73781597614288,-1.74543797969818,2.40092992782593,-1245.90002441406,-6.30000019073486,-962.100036621094,-2.47718949267138,0.169767589405967,0.0268511660647907,ST
11.2666666666667,3.07924008369446,-0.171667039394379,9.6342887878418,0.541162014007568,-0.853663980960846,-0.388722002506256,-1245.90002441406,-9.90000057220459,-959.700012207031,-2.47405576305354,0.302233360632421,0.0173103087101178,ST
11.3,1.36795294284821,0.0484495796263218,8.93745231628418,0.472563982009888,2.00458598136902,-1.42531394958496,-1243.5,-7.50000047683716,-957.300048828125,-2.463657043103,0.157726604099706,-0.0052946351050034,ST
11.3333333333333,0.675901532173157,0.0376830063760281,9.24489784240723,0.518296003341675,2.88111591339111,-0.503051996231079,-1245.90002441406,-8.70000076293945,-964.500061035156,-2.46194405744461,0.0733924388999407,-0.0050711114405137,ST
11.3666666666667,0.640012979507446,0.201574176549911,8.28487873077393,0.434453994035721,-0.228659987449646,0.975615978240967,-1241.10009765625,-8.70000076293945,-957.300048828125,-2.46457704900736,0.0772602279581416,-0.0237481386171766,ST
11.4,0.452794224023819,0.199181616306305,8.67546558380127,0.0685980021953583,0.297257989645004,-0.0228659994900227,-1243.5,-8.10000038146973,-959.700012207031,-2.46457128499873,0.0531664155381327,-0.023117281988178,ST
11.4333333333333,-0.0400755777955055,0.234472051262856,10.1522808074951,-0.236281991004944,-0.777444005012512,0.640248000621796,-1241.10009765625,-6.90000009536743,-964.500061035156,-2.46737603349613,-0.0003675016285744,-0.0226898889024336,ST
11.4666666666667,-0.257799625396729,-0.369652360677719,10.6020841598511,-0.144817993044853,0.67835795879364,0.0381099991500378,-1238.70007324219,-7.50000047683716,-959.700012207031,-2.46684046692844,-0.024112236402399,0.0319482507324186,ST
11.5,0.227892473340034,-0.645396292209625,11.7236022949219,-0.754577994346619,0.0152439996600151,0.190549999475479,-1243.5,-7.50000047683716,-962.100036621094,-2.46751536719643,0.0167272762282057,0.0548387351587365,ST
11.5333333333333,0.806894838809967,-0.636424124240875,9.1749153137207,-0.236281991004944,-0.754577994346619,-1.2423859834671,-1248.30004882812,-7.50000047683716,-964.500061035156,-2.46335716164884,0.084589005422908,0.0686229578713593,ST
11.5666666666667,0.35410064458847,-0.68965882062912,9.0971565246582,-0.381099998950958,0.777444005012512,-1.65397393703461,-1236.30004882812,-8.70000076293945,-959.700012207031,-2.45684526726691,0.0404996063435334,0.075731155507624,ST
11.6,0.214135184884071,-0.640611112117767,9.38127422332764,-0.320124000310898,2.17989206314087,-0.716467976570129,-1231.5,-6.90000009536743,-966.900024414062,-2.45299275982385,0.020230446341126,0.0690868111239145,ST
11.6333333333333,0.375633776187897,-0.659751713275909,10.0882797241211,-0.282013982534409,1.45580196380615,-0.0457319989800453,-1229.10009765625,-7.50000047683716,-969.300048828125,-2.45226078403523,0.0339034801582316,0.0659510747153744,ST
11.6666666666667,0.611900269985199,-0.638218522071838,10.0182962417603,0.853663980960846,-0.137196004390717,0.67835795879364,-1233.90002441406,-6.90000009536743,-964.500061035156,-2.45520638327189,0.0597130686668214,0.0623805530547858,ST
11.7,1.251913189888,-0.457579374313354,9.79339504241943,1.00610399246216,-1.37195992469788,0.990859985351562,-1243.5,-6.90000009536743,-966.900024414062,-2.45837786885091,0.12509151049699,0.0461958743526621,ST
11.7333333333333,1.05990934371948,-0.647788822650909,9.56191349029541,0.6250039935112,-0.632625997066498,0.663114011287689,-1233.90002441406,-8.10000038146973,-962.100036621094,-2.46374750684471,0.112021914626404,0.0654531673933967,ST
11.7666666666667,1.80818617343903,-0.363072782754898,9.5152587890625,-0.129574000835419,-1.22714197635651,0.388722002506256,-1238.70007324219,-8.70000076293945,-969.300048828125,-2.46174703534925,0.185956530662722,0.0398403979555215,ST
11.8,0.947458446025848,-0.507225215435028,8.17721271514893,0.297257989645004,0.144817993044853,-0.0533539988100529,-1231.5,-8.10000038146973,-964.500061035156,-2.46475956081643,0.119199112546992,0.0601224544149426,ST
11.8333333333333,0.30923992395401,-0.694444000720978,9.06964206695557,-0.198172003030777,1.70732796192169,-0.0228659994900227,-1236.30004882812,-8.10000038146973,-964.500061035156,-2.46534882073607,0.0363666780719529,0.0757500231045235,ST
11.8666666666667,-0.0645994395017624,-1.04615211486816,8.46013450622559,-0.221037998795509,1.28049600124359,0.259148001670837,-1226.70007324219,-8.10000038146973,-966.900024414062,-2.4665011986959,-0.0070435744605963,0.120529257489452,ST
11.9,-0.361278355121613,-0.967197179794312,9.81133937835693,-0.381099998950958,0.99848198890686,-0.640248000621796,-1224.30004882812,-8.10000038146973,-959.700012207031,-2.46398162616738,-0.0363558083957459,0.100276213084387,ST
11.9333333333333,0.174657747149467,-1.0856294631958,10.8664636611938,0.0914639979600906,-0.846041977405548,0.434453994035721,-1229.10009765625,-8.10000038146973,-964.500061035156,-2.46607148068994,0.0141277478093069,0.0994751685454015,ST
11.9666666666667,0.651975810527802,-1.38589727878571,10.7133388519287,0.304879993200302,-1.34147191047668,-1.03659200668335,-1229.10009765625,-9.30000019073486,-964.500061035156,-2.46359569700407,0.0598733849408453,0.126303112397644,ST
12.0,0.906784772872925,-1.17116391658783,10.7127408981323,0.510673999786377,-1.39482593536377,-0.663114011287689,-1236.30004882812,-9.30000019073486,-966.900024414062,-2.46050037001214,0.0848826882741969,0.109044832654607,ST
12.0333333333333,1.58567702770233,-0.780576586723328,8.11201477050781,0.807931959629059,-1.31098401546478,-1.32622802257538,-1233.90002441406,-8.70000076293945,-969.300048828125,-2.45433803681039,0.188015049941749,0.0950767398212777,ST
12.0666666666667,0.595750391483307,-0.595152258872986,8.47149848937988,0.358233988285065,0.0914639979600906,-0.259148001670837,-1238.70007324219,-9.30000019073486,-969.300048828125,-2.45014054317544,0.0751184021865983,0.0705863838473694,ST
12.1,1.08263874053955,-0.397765070199966,8.86208629608154,0.236281991004944,-0.731711983680725,0.731711983680725,-1241.10009765625,-9.90000057220459,-966.900024414062,-2.45095500232689,0.119773212316193,0.046176399837315,ST
12.1333333333333,0.872690618038177,-0.403148353099823,9.41177940368652,0.266770005226135,-0.708845973014832,0.92988395690918,-1231.5,-6.90000009536743,-962.100036621094,-2.45466448539633,0.0949721575288253,0.0427085546148762,ST
12.1666666666667,0.730332553386688,-0.778183996677399,9.72520637512207,-0.0,0.221037998795509,1.20427596569061,-1241.10009765625,-8.10000038146973,-962.100036621094,-2.4624176498598,0.0754476537183032,0.0777515860567927,ST
12.2,0.53234726190567,-1.1735565662384,10.3694067001343,-0.945127964019775,0.121951997280121,0.609759986400604,-1238.70007324219,-8.70000076293945,-966.900024414062,-2.46685260108969,0.0519997907484321,0.112405026919006,ST
12.2333333333333,-0.0149535741657019,-1.5180869102478,10.1313457489014,-0.472563982009888,0.67835795879364,0.533540010452271,-1233.90002441406,-10.5,-966.900024414062,-2.46965525711018,-0.0003505403588287,0.147931798509245,ST
12.2666666666667,0.425877809524536,-1.40982294082642,9.5391845703125,-0.0838419944047928,-0.396344006061554,0.396344006061554,-1233.90002441406,-7.50000047683716,-966.900024414062,-2.4714406223611,0.0419874554691411,0.146968605120468,ST
12.3,0.624461233615875,-1.42118775844574,9.83825588226318,0.541162014007568,-1.10518991947174,0.297257989645004,-1233.90002441406,-8.10000038146973,-964.500061035156,-2.47339911284568,0.0636836315686349,0.142740236281501,ST
12.3333333333333,0.483299523591995,-1.02641332149506,9.60258769989014,1.20427596569061,-1.05945801734924,0.907018005847931,-1236.30004882812,-6.90000009536743,-964.500061035156,-2.47572331655743,0.0523934940141005,0.10679784265978,ST
12.3666666666667,1.02222633361816,-0.79074501991272,10.1134014129639,1.15092194080353,-0.609759986400604,1.6692179441452,-1231.5,-8.10000038146973,-962.100036621094,-2.48084178597501,0.0982882797732672,0.0781495133067444,ST
12.4,1.84885990619659,-0.605320692062378,10.0697364807129,1.17378795146942,-1.12805593013763,2.23324584960938,-1238.70007324219,-7.50000047683716,-962.100036621094,-2.48820894172706,0.177842854093061,0.0598538415075421,ST
12.4333333333333,1.07904994487762,-0.56165623664856,9.20183181762695,1.14329993724823,-0.106707997620106,1.22714197635651,-1236.30004882812,-8.10000038146973,-959.700012207031,-2.49385317956036,0.119921347967021,0.0592810673686091,ST
12.4666666666667,1.11194777488708,-0.497056812047958,9.64684963226318,0.320124000310898,0.0152439996600151,1.37958192825317,-1243.5,-8.10000038146973,-959.700012207031,-2.4986266032849,0.114785827715416,0.0516898813989033,ST
12.5,1.13826608657837,-0.556272983551025,9.44707012176514,0.548784017562866,-0.731711983680725,1.21189796924591,-1241.10009765625,-8.10000038146973,-962.100036621094,-2.50460322746812,0.12049245400708,0.0577297423820591,ST
12.5333333333333,0.708799421787262,-0.528160214424133,9.2161865234375,0.891773998737335,0.0457319989800453,1.2347639799118,-1245.90002441406,-7.50000047683716,-959.700012207031,-2.50970485902266,0.0791031470816229,0.0559874760337163,ST
12.5666666666667,0.368456065654755,-0.33137121796608,9.48714542388916,1.03659200668335,0.381099998950958,1.6615959405899,-1238.70007324219,-10.5,-962.100036621094,-2.51527251962101,0.0405112198593381,0.0346176488682493,ST
12.6,0.660947978496552,-0.323595345020294,10.5655975341797,0.99848198890686,-0.708845973014832,2.03507399559021,-1243.5,-8.10000038146973,-959.700012207031,-2.52375702709676,0.0623162311918091,0.0293884107046128,ST
12.6333333333333,1.12749946117401,-0.149535745382309,10.0224838256836,1.45580196380615,-0.868907988071442,1.81403601169586,-1243.5,-6.30000019073486,-964.500061035156,-2.53122407533264,0.111463574537349,0.0133731722159449,ST
12.6666666666667,1.01325416564941,0.195592746138573,8.86866569519043,0.945127964019775,-0.160062000155449,-0.175305992364883,-1245.90002441406,-6.90000009536743,-959.700012207031,-2.52693049339833,0.1138956785416,-0.0221034285341508,ST
12.7,0.135778456926346,0.334960073232651,9.64266300201416,0.571649968624115,0.541162014007568,-0.0228659994900227,-1245.90002441406,-8.10000038146973,-962.100036621094,-2.52617590212581,0.0180737976517517,-0.0350588224685735,ST
12.7333333333333,0.135778456926346,0.309838056564331,9.77724456787109,0.221037998795509,0.152439996600151,0.403965979814529,-1238.70007324219,-8.10000038146973,-966.900024414062,-2.52788275176805,0.0139054453108794,-0.0322365676274953,ST
12.7666666666667,0.545506417751312,0.0496458671987057,9.31846904754639,-0.518296003341675,-0.144817993044853,-0.0838419944047928,-1241.10009765625,-8.70000076293945,-959.700012207031,-2.5283643075716,0.0560075144271192,-0.0061194974259655,ST
12.8,0.748875021934509,0.117236025631428,9.48953819274902,-1.48628997802734,-1.07470202445984,-1.05945801734924,-1233.90002441406,-8.70000076293945,-962.100036621094,-2.52296542831365,0.0795240915133322,-0.0097352031238018,ST
12.8333333333333,0.139367312192917,-0.47552365064621,9.47398662567139,-1.41769194602966,0.754577994346619,-1.20427596569061,-1238.70007324219,-7.50000047683716,-959.700012207031,-2.52034410730672,0.0167059040233085,0.0495189872679157,ST
12.8666666666667,0.674705266952515,-0.619676113128662,10.4926242828369,-1.44817996025085,0.37347799539566,-0.792688012123108,-1236.30004882812,-7.50000047683716,-962.100036621094,-2.5172441473576,0.0606952854109162,0.0607191416781244,ST
12.9,1.39187872409821,-0.448607236146927,9.46920108795166,-0.861285984516144,-1.6844619512558,-1.12043392658234,-1241.10009765625,-7.50000047683716,-959.700012207031,-2.5115685676055,0.143477042987963,0.0493535597647339,ST
12.9333333333333,1.15920102596283,-0.768613696098328,9.63249397277832,-0.632625997066498,0.121951997280121,-1.12043392658234,-1233.90002441406,-8.10000038146973,-962.100036621094,-2.51008693125106,0.120279796681353,0.079263144761896,ST
12.9666666666667,1.10058307647705,-0.681284844875336,9.95250129699707,-0.449698001146317,-0.342989981174469,-1.03659200668335,-1238.70007324219,-6.90000009536743,-962.100036621094,-2.50471828620223,0.111193407836924,0.0695572575779037,ST
13.0,1.08443319797516,-0.822446584701538,9.70128059387207,-0.129574000835419,-0.335367977619171,-0.716467976570129,-1243.5,-8.10000038146973,-954.900024414062,-2.50348144270714,0.111586315596732,0.083751322976806,ST
13.0333333333333,0.951047301292419,-1.0796480178833,9.5565299987793,0.0685980021953583,0.99848198890686,-0.0914639979600906,-1236.30004882812,-6.30000019073486,-964.500061035156,-2.50554883630668,0.0977490713329672,0.11061229495254,ST
13.0666666666667,1.2357634305954,-1.17475283145905,9.2760009765625,-0.342989981174469,0.586893975734711,-0.297257989645004,-1236.30004882812,-6.30000019073486,-964.500061035156,-2.50560728384017,0.12846983490919,0.125526968603694,ST
13.1,0.333763778209686,-1.48937594890594,9.90644359588623,-0.564027965068817,0.640248000621796,-0.556405961513519,-1236.30004882812,-8.10000038146973,-959.700012207031,-2.50464415099035,0.0370636152825217,0.148958093227382,ST
13.1333333333333,0.885251581668854,-1.11015331745148,9.27540302276611,-0.426831990480423,-1.00610399246216,-0.525918006896973,-1236.30004882812,-7.50000047683716,-959.700012207031,-2.50117683709325,0.092750723234464,0.121586221787844,ST
13.1666666666667,0.34811919927597,-1.10417187213898,8.90156364440918,-0.640248000621796,-0.442075997591019,-0.0762199983000755,-1233.90002441406,-7.50000047683716,-964.500061035156,-2.50110434121336,0.0419133872652702,0.124399703091177,ST
13.2,0.407335370779037,-1.1316864490509,9.4315185546875,-0.670735955238342,-0.335367977619171,-0.259148001670837,-1233.90002441406,-6.30000019073486,-966.900024414062,-2.49996370378862,0.0433951980056287,0.120805122316989,ST
13.2333333333333,0.361278355121613,-1.3559901714325,9.56909084320068,-0.259148001670837,-0.236281991004944,0.647870004177094,-1236.30004882812,-5.70000028610229,-957.300048828125,-2.5034168710287,0.0379691508653394,0.140025911251464,ST
13.2666666666667,1.11075150966644,-1.45707631111145,10.6714687347412,0.152439996600151,-1.38720393180847,1.89025592803955,-1241.10009765625,-7.50000047683716,-964.500061035156,-2.5119783859541,0.101440083914332,0.135979197927179,ST
13.3,1.15740668773651,-1.3721399307251,9.97283744812012,0.792688012123108,-0.945127964019775,1.74543797969818,-1238.70007324219,-5.10000038146973,-950.100036621094,-2.51974418759215,0.114827907785182,0.135728282526054,ST
13.3333333333333,0.37025049328804,-1.27045571804047,9.12766170501709,0.388722002506256,1.50153398513794,1.35671591758728,-1243.5,-5.10000038146973,-964.500061035156,-2.52457829439948,0.0419440243711078,0.137612089319041,ST
13.3666666666667,0.279332756996155,-1.16099548339844,10.0864849090576,0.190549999475479,1.16616594791412,1.2423859834671,-1231.5,-5.10000038146973,-959.700012207031,-2.52824408149078,0.026240067643682,0.115734072198506,ST
13.4,0.74050098657608,-1.09938681125641,9.62711143493652,0.571649968624115,-1.32622802257538,1.42531394958496,-1236.30004882812,-5.10000038146973,-962.100036621094,-2.53454777430915,0.0751348154907205,0.113064010888543,ST
13.4333333333333,1.07845175266266,-0.921140193939209,9.2640380859375,1.02134799957275,-1.08232402801514,1.40244793891907,-1243.5,-7.50000047683716,-959.700012207031,-2.53963072119955,0.114424530049612,0.0985482918993248,ST
13.4666666666667,0.854746282100677,-0.800315320491791,8.93027496337891,0.746955990791321,-0.327746003866196,0.739333987236023,-1245.90002441406,-5.10000038146973,-964.500061035156,-2.54199083067871,0.0966447344536334,0.088835430181349,ST
13.5,0.461168229579926,-0.899008870124817,10.3735933303833,0.609759986400604,0.396344006061554,1.19665396213531,-1233.90002441406,-5.70000028610229,-957.300048828125,-2.54658262513866,0.0466220976163942,0.085698004675322,ST
13.5333333333333,0.492869794368744,-0.77579140663147,9.75451564788818,0.960371971130371,0.442075997591019,1.28811800479889,-1243.5,-6.30000019073486,-962.100036621094,-2.55143945404756,0.0492109845824306,0.0782738669616417,ST
13.5666666666667,0.824839174747467,-0.607713282108307,9.46142578125,0.762199997901917,-0.442075997591019,1.16616594791412,-1243.5,-7.50000047683716,-962.100036621094,-2.55549715392067,0.0851002842235588,0.0639070768879616,ST
13.6,1.18970632553101,-0.538926839828491,9.90285491943359,0.670735955238342,-1.39482593536377,0.967993974685669,-1238.70007324219,-6.30000019073486,-957.300048828125,-2.55897453777665,0.119505876097735,0.0540436573897535,ST
13.6333333333333,1.11134958267212,-0.450401663780212,10.0380353927612,0.846041977405548,-1.14329993724823,0.792688012123108,-1243.5,-6.30000019073486,-962.100036621094,-2.56161265666504,0.112534874242349,0.044167825934074,ST
13.6666666666667,1.53184413909912,0.117834165692329,9.76827239990234,1.22714197635651,-1.08994603157043,1.59299790859222,-1241.10009765625,-5.70000028610229,-959.700012207031,-2.56160790633925,0.155007103859183,-0.0106085872221948,ST
13.7,1.65924859046936,0.390587359666824,9.41835880279541,1.41769194602966,-1.08994603157043,1.36433792114258,-1248.30004882812,-6.90000009536743,-962.100036621094,-2.5627749998945,0.174940344607554,-0.0415213646856212,ST
13.7333333333333,1.12749946117401,0.374437510967255,9.29095458984375,0.914639949798584,0.213415995240211,0.853663980960846,-1253.10009765625,-5.70000028610229,-954.900024414062,-2.56671672648055,0.123666987756872,-0.0416660005159471,ST
13.7666666666667,1.40085089206696,0.43425178527832,8.8937873840332,-0.213415995240211,-0.426831990480423,0.304879993200302,-1245.90002441406,-8.10000038146973,-959.700012207031,-2.56691051926835,0.15518653000556,-0.0480113028149128,ST
13.8,0.675901532173157,-0.101086162030697,9.49372482299805,-0.967993974685669,0.365855991840363,-1.13567793369293,-1245.90002441406,-6.30000019073486,-962.100036621094,-2.56811468542803,0.0741743140493248,0.0095363463767383,ST
13.8333333333333,0.457579374313354,-0.347521066665649,10.5787563323975,-1.06708002090454,0.792688012123108,-0.922261953353882,-1245.90002441406,-5.10000038146973,-959.700012207031,-2.56524803423309,0.0434537344124758,0.0333940260828921,ST
13.8666666666667,0.38939106464386,-0.43425178527832,10.2874612808228,-0.335367977619171,0.647870004177094,-1.07470202445984,-1245.90002441406,-5.70000028610229,-964.500061035156,-2.56085081899965,0.0370750551973838,0.042243026006098,ST
13.9,0.320006489753723,-0.662144243717194,11.015998840332,-0.327746003866196,0.830797970294952,-1.52439999580383,-1241.10009765625,-5.70000028610229,-962.100036621094,-2.55505745606925,0.0282602675163168,0.0594183467242553,ST
13.9333333333333,1.05093717575073,-0.474925518035889,9.43032169342041,-0.426831990480423,-0.350611984729767,-2.0655620098114,-1238.70007324219,-5.70000028610229,-966.900024414062,-2.54615385897839,0.10659082363897,0.0512626106068969,ST
13.9666666666667,0.87089616060257,-0.291893780231476,9.27181434631348,-0.731711983680725,-0.243903994560242,-1.91312193870544,-1248.30004882812,-5.70000028610229,-962.100036621094,-2.53570079396485,0.0947011704760185,0.033253697427014,ST
14.0,0.56464695930481,-0.719565987586975,8.89139556884766,-0.541162014007568,1.95885396003723,-2.31708788871765,-1248.30004882812,-6.90000009536743,-959.700012207031,-2.52929847733806,0.0621933119458322,0.078494800140521,ST
14.0333333333333,0.681284844875336,-0.480308800935745,10.3825654983521,-0.426831990480423,0.594515979290009,-1.27287399768829,-1241.10009765625,-5.70000028610229,-966.900024414062,-2.52205150873196,0.0643982472445078,0.0487466866544871,ST
14.0666666666667,1.13348090648651,-0.578404247760773,8.92190074920654,-0.0228659994900227,-0.586893975734711,-1.41769194602966,-1236.30004882812,-6.30000019073486,-964.500061035156,-2.51757521288188,0.124197791801792,0.0637232102622059,ST
14.1,0.560459971427917,-0.697434723377228,9.29514217376709,-0.533540010452271,0.457319974899292,-0.853663980960846,-1229.10009765625,-8.10000038146973,-959.700012207031,-2.51489509231264,0.0632990772349535,0.0749867725489631,ST
14.1333333333333,0.807493031024933,-0.92173832654953,10.2091045379639,-0.106707997620106,0.37347799539566,-0.556405961513519,-1229.10009765625,-5.10000038146973,-966.900024414062,-2.51350785413596,0.0771541689203828,0.0892311667260003,ST
14.1666666666667,0.619077980518341,-0.79672646522522,9.82150745391846,0.320124000310898,-1.02134799957275,0.190549999475479,-1231.5,-4.5,-969.300048828125,-2.51411676092508,0.0652607851389132,0.0809506114291056,ST
14.2,0.667527556419373,-1.16996765136719,8.87105846405029,0.175305992364883,0.282013982534409,-0.0990860015153885,-1231.5,-6.90000009536743,-966.900024414062,-2.51689230753334,0.0734727981886722,0.12778089177023,ST
14.2333333333333,0.242846041917801,-1.45528185367584,9.36392784118652,-1.50153398513794,-0.0685980021953583,-0.472563982009888,-1236.30004882812,-6.30000019073486,-966.900024414062,-2.51616717516515,0.0287522868788344,0.155018890921989,ST
14.2666666666667,0.352306216955185,-1.89192616939545,9.62711143493652,-1.28811800479889,0.0228659994900227,-1.02897000312805,-1231.5,-7.50000047683716,-962.100036621094,-2.51265965998431,0.0359000136255956,0.194610326503372,ST
14.3,1.6024249792099,-1.68855762481689,9.52243614196777,-0.205793991684914,-2.0579400062561,-0.46494197845459,-1229.10009765625,-5.10000038146973,-969.300048828125,-2.51046721141023,0.160673550531551,0.176896119530294,ST
14.3333333333333,1.02581524848938,-1.52885341644287,9.17431735992432,0.320124000310898,-1.70732796192169,-0.426831990480423,-1231.5,-5.70000028610229,-959.700012207031,-2.50848546155429,0.115518287020265,0.165210888660832,ST
14.3666666666667,1.41640257835388,-1.60661196708679,9.82808685302734,0.846041977405548,-1.17378795146942,0.739333987236023,-1238.70007324219,-6.90000009536743,-969.300048828125,-2.51244292301577,0.141883558448705,0.160979910799384,ST
14.4,1.41520631313324,-1.54919028282166,8.11201477050781,0.777444005012512,-0.632625997066498,0.266770005226135,-1236.30004882812,-7.50000047683716,-962.100036621094,-2.51845250915449,0.169304055452284,0.186150767960353,ST
14.4333333333333,-0.519786238670349,-1.59524726867676,9.17969989776611,0.365855991840363,1.97409796714783,0.914639949798584,-1233.90002441406,-6.30000019073486,-969.300048828125,-2.52000235706097,-0.0480843072108401,0.172176055848155,ST
14.4666666666667,0.053234726190567,-1.68137991428375,12.1560592651367,0.937505960464478,0.807931959629059,2.74391984939575,-1229.10009765625,-8.10000038146973,-969.300048828125,-2.53121599734805,-0.0007961272331687,0.137978233862685,ST
14.5,0.708799421787262,-1.25729656219482,9.95668792724609,2.46190595626831,-1.30336201190948,2.28659987449646,-1236.30004882812,-7.50000047683716,-964.500061035156,-2.54092752240416,0.0678369576696621,0.12255475500454,LD
14.5333333333333,0.301464051008224,-0.86790543794632,8.89857292175293,1.73781597614288,-0.510673999786377,1.82165801525116,-1241.10009765625,-6.90000009536743,-959.700012207031,-2.5473926520774,0.0363089869107331,0.0960384878790264,LD
14.5666666666667,-0.116637878119946,-1.43494498729706,10.9866905212402,0.701223969459534,0.365855991840363,1.20427596569061,-1236.30004882812,-6.90000009536743,-964.500061035156,-2.55249441437417,-0.0085181124520564,0.126670813290885,LD
14.6,0.987534046173096,-1.10716259479523,9.98599720001221,1.07470202445984,-1.82927989959717,1.17378795146942,-1233.90002441406,-7.50000047683716,-959.700012207031,-2.55756125699506,0.094275159303516,0.109831238934805,LD
14.6333333333333,2.31062626838684,-0.531749129295349,8.59471607208252,1.71494996547699,-2.43141794204712,1.34147191047668,-1241.10009765625,-8.70000076293945,-959.700012207031,-2.55670702629552,0.255769164767689,0.0625740981960006,LD
14.6666666666667,1.80519545078278,-0.383409649133682,8.57138919830322,1.6920839548111,-1.28811800479889,1.13567793369293,-1245.90002441406,-7.50000047683716,-957.300048828125,-2.55868082514576,0.212051922116441,0.0433151476096964,LD
14.7,0.343932211399078,-0.205761179327965,9.76528167724609,1.74543797969818,1.50153398513794,1.82165801525116,-1236.30004882812,-7.50000047683716,-962.100036621094,-2.56398684290067,0.0413555460093754,0.0194472778635071,LD
14.7333333333333,0.893027484416962,0.0023925718851387,9.5206413269043,1.50153398513794,-0.274392008781433,1.69970595836639,-1243.5,-7.50000047683716,-966.900024414062,-2.57053508320521,0.0916829734648155,-0.0016466317534169,LD
14.7666666666667,1.02521705627441,0.449205368757248,9.28497314453125,1.37958192825317,-2.52288198471069,0.891773998737335,-1245.90002441406,-7.50000047683716,-957.300048828125,-2.56968535278388,0.112939769804886,-0.0476281818051482,LD
14.8,0.727341830730438,0.348717361688614,9.31846904754639,1.32622802257538,-1.53964400291443,0.693601965904236,-1248.30004882812,-7.50000047683716,-959.700012207031,-2.57343659851986,0.0825393728033962,-0.0401051273311358,LD
14.8333333333333,0.851157426834106,0.540721237659454,9.72879505157471,0.411587983369827,-2.72867584228516,0.807931959629059,-1255.5,-8.70000076293945,-957.300048828125,-2.57497181785653,0.0913917693036434,-0.0551650480384615,LD
14.8666666666667,0.665733098983765,-0.122619308531284,9.71085071563721,-0.457319974899292,-4.93905591964722,0.198172003030777,-1260.30004882812,-8.70000076293945,-959.700012207031,-2.5807822549761,0.0779446057042112,0.0093018398203263,LD
14.9,0.202172324061394,-0.235668331384659,10.6254119873047,-0.685979962348938,-7.69821977615356,-0.899396002292633,-1257.90002441406,-8.70000076293945,-950.100036621094,-2.57831132015036,0.0352434098451122,0.0224703885444019,LD
14.9333333333333,0.148339450359344,-0.300865918397903,9.47996807098389,0.0762199983000755,-10.7775077819824,-1.86738991737366,-1272.30004882812,-8.70000076293945,-945.300048828125,-2.57230433307198,0.0345807876122083,0.030953512582286,LD
14.9666666666667,0.839194595813751,-0.222509190440178,9.46680927276611,0.259148001670837,-15.7851619720459,-2.46952795982361,-1293.90002441406,-9.30000019073486,-933.300048828125,-2.56278559076267,0.112457203524224,0.0230400909373327,LD
15.0,0.938486337661743,-0.0789548754692078,7.74595165252686,1.22714197635651,-20.7775707244873,-3.63569402694702,-1313.10009765625,-8.70000076293945,-914.100036621094,-2.54810028522443,0.154206527975897,0.0081278376893622,LD
15.0333333333333,1.15262150764465,-0.439635097980499,8.0886869430542,1.00610399246216,-23.7272853851318,-3.44514393806458,-1337.10009765625,-11.1000003814697,-904.500061035156,-2.54517660921931,0.181246724663449,0.0491987093237922,LD
15.0666666666667,3.74856209754944,0.0723752975463867,7.08500337600708,1.59299790859222,-27.622127532959,-3.46038794517517,-1370.70007324219,-12.9000005722046,-870.900024414062,-2.51489538371986,0.513183110608736,-0.0118630797167358,LD
15.1,6.26853847503662,-0.382811486721039,6.0932822227478,1.49391198158264,-29.0474414825439,-4.28356409072876,-1394.70007324219,-14.7000007629395,-837.300048828125,-2.54760291352058,0.832996299147196,0.0507728727619057,LD
15.1333333333333,9.7598991394043,0.196190893650055,3.99260425567627,1.05945801734924,-21.5702590942383,-4.45886993408203,-1406.70007324219,-14.7000007629395,-796.500061035156,-2.44123393582379,1.20204759275492,-0.0661644225060471,LD
15.1666666666667,11.2486763000488,-0.346922934055328,6.72193050384521,1.81403601169586,-18.4147510528564,-3.44514393806458,-1421.10009765625,-15.9000005722046,-770.100036621094,-2.53500846564038,1.07166361068847,0.0361480218314534,LD
15.2,11.0130081176758,0.819455862045288,3.86280727386475,2.88873791694641,-10.6708002090454,-1.76830399036407,-1425.90002441406,-18.3000011444092,-746.100036621094,-2.31463696016206,1.23439732160645,-0.210819934073374,LD
15.2333333333333,10.6983852386475,0.991721034049988,4.22827243804932,2.97257995605469,-6.22717380523682,0.92988395690918,-1425.90002441406,-19.5,-741.300048828125,-2.30181748718565,1.19780844652012,-0.23672413865073,LD
15.2666666666667,10.8592853546143,0.762034118175507,3.50631403923035,1.16616594791412,-3.55947399139404,1.71494996547699,-1428.30004882812,-17.1000003814697,-726.900024414062,-2.32981006017018,1.25470356463629,-0.213034471744207,LD
15.3,9.86756420135498,0.532945394515991,4.52614784240723,-0.114329993724823,-0.87652999162674,1.56251001358032,-1435.5,-17.7000007629395,-722.100036621094,-2.4220612309186,1.14700797646593,-0.116162966290941,LD
15.3333333333333,9.41058349609375,0.168676316738129,3.63910174369812,-0.213415995240211,1.265251994133,1.6844619512558,-1433.10009765625,-17.7000007629395,-729.300048828125,-2.49205889215863,1.19685396555121,-0.042513649966241,LD
15.3666666666667,8.64256763458252,0.134582161903381,4.89460372924805,0.137196004390717,2.34757590293884,1.6920839548111,-1430.70007324219,-17.7000007629395,-731.700012207031,-2.51329147933274,1.06015218932028,-0.0232642028019488,LD
15.4,8.93087291717529,0.346922934055328,4.8856315612793,1.06708002090454,1.64635193347931,1.98934197425842,-1433.10009765625,-18.3000011444092,-734.100036621094,-2.48594041940108,1.06615224633942,-0.0634903233746614,LD
15.4333333333333,8.81124401092529,0.333763778209686,4.77856397628784,1.27287399768829,0.724089980125427,2.080806016922,-1435.5,-15.3000001907349,-734.100036621094,-2.49369137005623,1.07154392515664,-0.0650699550895097,LD
15.4666666666667,8.72870063781738,0.192602038383484,5.12967395782471,0.815553963184357,1.59299790859222,1.64635193347931,-1433.10009765625,-13.5000009536743,-734.100036621094,-2.52623266656127,1.03823463805459,-0.0353297949930288,LD
15.5,8.64137172698975,0.395970642566681,5.44070863723755,0.449698001146317,1.19665396213531,0.716467976570129,-1435.5,-15.3000001907349,-736.5,-2.50043037777369,1.00730752624095,-0.0695521516693065,LD
15.5333333333333,8.05698585510254,0.497056812047958,5.65484380722046,0.853663980960846,1.53202199935913,0.87652999162674,-1430.70007324219,-15.3000001907349,-741.300048828125,-2.49212399296635,0.957686060934034,-0.0856925144451876,LD
15.5666666666667,8.25257873535156,0.700425446033478,5.49513959884644,0.685979962348938,2.00458598136902,1.28811800479889,-1430.70007324219,-15.9000005722046,-734.100036621094,-2.46822449484362,0.975304843814613,-0.121652924852202,LD
15.6,7.88232803344727,0.760239720344543,4.72413301467896,0.525918006896973,1.51677799224854,1.29574000835419,-1433.10009765625,-15.9000005722046,-746.100036621094,-2.44614251564339,1.02006963016611,-0.15392685844296,LD
15.6333333333333,8.1431188583374,0.420494496822357,5.80258512496948,0.0838419944047928,1.60824191570282,1.62348592281342,-1430.70007324219,-15.3000001907349,-743.700012207031,-2.51801116948818,0.952334203317293,-0.072906571842617,LD
15.6666666666667,8.64854907989502,0.336754500865936,5.75174283981323,-0.236281991004944,1.17378795146942,1.01372599601746,-1433.10009765625,-14.7000007629395,-746.100036621094,-2.53345232349863,0.979608507859571,-0.0562650681709061,LD
15.7,9.19525146484375,0.0436644367873669,6.38697052001953,-0.0152439996600151,1.53202199935913,-0.846041977405548,-1433.10009765625,-14.1000003814697,-753.300048828125,-2.56851673385298,0.962050998068953,-0.0114186839169991,LD
15.7333333333333,9.03913688659668,0.637620389461517,5.65125465393066,0.724089980125427,2.64483404159546,-2.62959003448486,-1437.90002441406,-15.3000001907349,-760.5,-2.48102343891981,1.00172928830415,-0.112965085505665,LD
15.7666666666667,8.39074993133545,1.56115317344666,5.13864612579346,1.09756803512573,2.64483404159546,-2.75916385650635,-1433.10009765625,-15.9000005722046,-758.100036621094,-2.33054667096272,0.996500537009155,-0.290618543031133,LD
15.8,7.62931346893311,1.47143173217773,5.45087671279907,-0.213415995240211,2.14940404891968,-1.11281192302704,-1423.5,-15.3000001907349,-760.5,-2.3490228608799,0.933630769726719,-0.265972290903213,LD
15.8333333333333,6.76140832901001,1.53842377662659,5.52863550186157,-1.02134799957275,2.72867584228516,-0.0304879993200302,-1423.5,-16.5,-767.700012207031,-2.34595145051142,0.866741371021379,-0.268101696221223,LD
15.8666666666667,7.53959226608276,1.42238402366638,5.36474418640137,-1.57013201713562,2.21800184249878,0.37347799539566,-1421.10009765625,-16.5,-762.900024414062,-2.35345591191527,0.928655378902613,-0.255156397845044,LD
15.9,8.30521488189697,1.04196500778198,6.76619338989258,-1.99696397781372,-1.07470202445984,0.442075997591019,-1421.10009765625,-17.1000003814697,-765.300048828125,-2.4267472031263,0.886267646863722,-0.154867488305061,LD
15.9333333333333,8.95599460601807,0.733921408653259,5.50411176681519,-1.37958192825317,-1.80641400814056,0.0304879993200302,-1425.90002441406,-15.9000005722046,-774.900024414062,-2.44004433266849,1.01085879342786,-0.132487168952634,LD
15.9666666666667,8.80526256561279,0.714780867099762,5.98083162307739,-1.28811800479889,-0.670735955238342,-0.609759986400604,-1423.5,-14.7000007629395,-762.900024414062,-2.44524560804282,0.97423952867486,-0.119294019579967,LD
16.0,7.41757106781006,0.521580696105957,6.86249446868896,-0.632625997066498,1.80641400814056,-0.442075997591019,-1423.5,-16.5,-767.700012207031,-2.47543901111197,0.829015989123223,-0.0776554257772787,LD
16.0333333333333,7.87515020370483,0.567039549350739,5.01542901992798,-0.884151995182037,1.48628997802734,-0.899396002292633,-1423.5,-17.1000003814697,-772.500061035156,-2.44472726309495,0.98881348792328,-0.110571944057933,LD
16.0666666666667,7.1585750579834,0.398961365222931,6.20034980773926,-0.861285984516144,1.87501192092896,-0.457319974899292,-1425.90002441406,-16.5,-772.500061035156,-2.47712368324504,0.860117957258875,-0.0656933111597959,LD
16.1,6.85112953186035,0.281725347042084,7.24889469146729,-0.457319974899292,2.08842802047729,0.243903994560242,-1425.90002441406,-15.9000005722046,-782.100036621094,-2.49611406744249,0.759687379519451,-0.0390766614729377,LD
16.1333333333333,7.60419178009033,0.460570096969604,6.08191776275635,-0.25152599811554,0.67835795879364,0.480185985565186,-1421.10009765625,-16.5,-779.700012207031,-2.47294079456528,0.885520662432087,-0.0715936398448134,LD
16.1666666666667,7.8356728553772,0.238659039139748,6.45695352554321,0.106707997620106,-0.449698001146317,0.846041977405548,-1421.10009765625,-16.5,-786.900024414062,-2.50168866559351,0.882301304531994,-0.0375596476237344,LD
16.2,7.67895936965942,0.376830071210861,5.98980379104614,-0.0076219998300075,-0.25152599811554,0.609759986400604,-1421.10009765625,-16.5,-779.700012207031,-2.48547117669877,0.906777336222926,-0.0604089281008916,LD
16.2333333333333,8.02887344360352,0.19798532128334,6.53291749954224,-0.205793991684914,0.0838419944047928,0.861285984516144,-1423.5,-14.7000007629395,-784.500061035156,-2.51115367375682,0.888406495730086,-0.0296303673277895,LD
16.2666666666667,7.09995698928833,0.28710862994194,6.75542688369751,0.358233988285065,0.0381099991500378,0.800309956073761,-1421.10009765625,-15.9000005722046,-782.100036621094,-2.50600340201712,0.813655760356834,-0.0410804721245188,LD
16.3,7.73518466949463,0.453990519046783,6.41029834747314,0.37347799539566,1.06708002090454,0.769822001457214,-1416.30004882812,-16.5,-786.900024414062,-2.48935319290627,0.872748119405237,-0.0681213260171507,LD
16.3333333333333,8.27112102508545,0.501841962337494,5.99458885192871,0.350611984729767,-0.106707997620106,0.388722002506256,-1421.10009765625,-14.7000007629395,-791.700012207031,-2.48028218614747,0.938815537070465,-0.0824455671749197,LD
16.3666666666667,7.57488250732422,0.464757084846497,6.1387414932251,0.182927995920181,-0.960371971130371,-0.426831990480423,-1411.5,-16.5,-777.300048828125,-2.48373948660018,0.892622568081888,-0.0772499406144304,LD
16.4,7.55634021759033,0.391783654689789,4.88144493103027,-0.647870004177094,-0.198172003030777,-0.579271972179413,-1416.30004882812,-15.9000005722046,-779.700012207031,-2.47769554578472,0.990377202986657,-0.0803329576061562,LD
16.4333333333333,7.97324562072754,0.201574176549911,6.2487998008728,-1.01372599601746,0.182927995920181,-0.495429992675781,-1416.30004882812,-16.5,-784.500061035156,-2.51091161996803,0.909642690753634,-0.0337550494824031,LD
16.4666666666667,8.34708499908447,-0.154320880770683,4.69960927963257,-0.495429992675781,-0.792688012123108,-0.289635986089706,-1416.30004882812,-17.1000003814697,-784.500061035156,-2.56005588251864,1.05013884816678,0.0277684261675439,LD
16.5,8.28727054595947,-0.291893780231476,6.5412917137146,-0.830797970294952,-0.182927995920181,-0.556405961513519,-1418.70007324219,-14.7000007629395,-782.100036621094,-2.56950644175637,0.910554720654226,0.0439589159250659,LD
16.5333333333333,8.94343376159668,0.138171032071114,5.64407730102539,-0.449698001146317,-1.20427596569061,-0.87652999162674,-1421.10009765625,-15.9000005722046,-786.900024414062,-2.51259168684978,1.00382537731544,-0.0212743188180307,LD
16.5666666666667,8.3518705368042,-0.261986613273621,5.88213777542114,-0.602137982845306,-0.907018005847931,-1.21951997280121,-1416.30004882812,-17.1000003814697,-782.100036621094,-2.55814128105983,0.960921531535945,0.0393402890889129,LD
16.6,7.65264129638672,-0.471336662769318,5.74576139450073,-0.914639949798584,0.967993974685669,-1.01372599601746,-1411.5,-15.3000001907349,-784.500061035156,-2.58433519548834,0.925665995977552,0.0787438206011464,LD
16.6333333333333,7.48037576675415,-0.469542235136032,7.2447075843811,-0.472563982009888,1.60061991214752,-0.594515979290009,-1411.5,-18.3000011444092,-784.500061035156,-2.57060822662158,0.805408308921166,0.0649755330542843,LD
16.6666666666667,7.35297155380249,-0.315819501876831,6.2009482383728,0.762199997901917,-0.564027965068817,0.198172003030777,-1413.90002441406,-17.1000003814697,-784.500061035156,-2.56313214715964,0.866568253559349,0.0509692358833077,LD
16.7,6.28887510299683,-0.51440292596817,6.77636194229126,0.731711983680725,2.03507399559021,0.807931959629059,-1416.30004882812,-18.3000011444092,-786.900024414062,-2.58480507751905,0.747910111517463,0.0747137915584752,LD
16.7333333333333,6.41149473190308,-0.812876284122467,8.14730548858643,1.36433792114258,1.54726600646973,1.59299790859222,-1413.90002441406,-19.5,-796.500061035156,-2.60774800416648,0.666636996020132,0.0977088678921147,LD
16.7666666666667,7.35057878494263,-0.578404247760773,6.63520002365112,1.81403601169586,-0.617381989955902,1.30336201190948,-1413.90002441406,-15.9000005722046,-786.900024414062,-2.60952404550945,0.82520448490382,0.0869821213649187,LD
16.8,9.14919471740723,-0.0358885787427425,5.77686500549316,2.65245604515076,-2.97257995605469,0.655492007732391,-1423.5,-20.1000003814697,-791.700012207031,-2.55833283094679,1.0025415201335,0.0089915992925393,LD
16.8333333333333,8.37220764160156,-0.236864611506462,5.72602272033691,2.40092992782593,-1.63872992992401,0.289635986089706,-1418.70007324219,-17.7000007629395,-779.700012207031,-2.59044772728176,0.974991492448877,0.0365858929278039,LD
16.8666666666667,7.11790132522583,-0.053234726190567,5.96228933334351,2.15702605247498,1.2576299905777,0.0609759986400604,-1416.30004882812,-17.1000003814697,-786.900024414062,-2.57389206573784,0.87697199090642,0.006823424403165,LD
16.9,8.50200462341309,0.748276829719543,5.03098058700562,2.42379593849182,1.34909391403198,0.304879993200302,-1416.30004882812,-17.7000007629395,-791.700012207031,-2.46402169168664,1.02044278342345,-0.138886003779332,LD
16.9333333333333,7.9253945350647,0.75246387720108,6.40670919418335,3.12502002716064,-0.861285984516144,1.31860601902008,-1416.30004882812,-17.7000007629395,-779.700012207031,-2.49308882513839,0.89583642927249,-0.120396742544186,LD
16.9666666666667,7.82191562652588,0.991122901439667,5.24272298812866,2.56861400604248,2.10367202758789,2.05031800270081,-1416.30004882812,-17.1000003814697,-782.100036621094,-2.45842116454402,0.964767778823813,-0.181042047280635,LD
17.0,7.52942371368408,1.14065861701965,6.17223739624023,1.92836594581604,1.44055795669556,2.03507399559021,-1416.30004882812,-18.3000011444092,-786.900024414062,-2.47002922962182,0.879552042861136,-0.181259364856484,LD
17.0333333333333,8.0946683883667,1.28421294689178,5.92699861526489,1.63872992992401,-0.160062000155449,1.2500079870224,-1416.30004882812,-18.3000011444092,-789.300048828125,-2.45493621942574,0.926607394100121,-0.212159844714521,LD
17.0666666666667,7.11311626434326,0.872690618038177,5.72721910476685,1.44817996025085,0.449698001146317,1.34909391403198,-1418.70007324219,-16.5,-786.900024414062,-2.50867475692924,0.889368899607828,-0.154241845908913,LD
17.1,7.76389598846436,0.91276615858078,6.12857294082642,0.175305992364883,1.32622802257538,0.92988395690918,-1413.90002441406,-17.7000007629395,-789.300048828125,-2.51827050768581,0.894827283298453,-0.146249595145711,LD
17.1333333333333,7.37151384353638,0.611900269985199,6.4874587059021,0.762199997901917,0.25152599811554,0.937505960464478,-1413.90002441406,-15.9000005722046,-782.100036621094,-2.56122337305732,0.849598060768953,-0.0964821922415733,LD
17.1666666666667,7.63529491424561,0.809287428855896,7.30930709838867,0.472563982009888,-0.632625997066498,0.777444005012512,-1418.70007324219,-15.9000005722046,-789.300048828125,-2.55536103068638,0.807821761898439,-0.109113618108427,LD
17.2,7.22795963287354,0.522776961326599,6.04363679885864,-0.0228659994900227,0.754577994346619,0.99848198890686,-1413.90002441406,-16.5,-791.700012207031,-2.57578194585625,0.867940824541905,-0.0855529141676206,LD
17.2333333333333,7.36912155151367,0.418101936578751,7.41398191452026,-0.884151995182037,0.396344006061554,0.472563982009888,-1411.5,-17.7000007629395,-794.100036621094,-2.59655676535205,0.786213755804982,-0.0557118683828592,LD
17.2666666666667,7.70288515090942,0.324791640043259,6.22188329696655,-0.990859985351562,-0.243903994560242,0.121951997280121,-1416.30004882812,-15.3000001907349,-791.700012207031,-2.59773381143219,0.884755480837524,-0.0505553262285546,LD
17.3,7.28119421005249,0.274547636508942,6.4276442527771,-1.33385002613068,-0.571649968624115,0.0152439996600151,-1416.30004882812,-14.7000007629395,-789.300048828125,-2.60092377384589,0.850346137042865,-0.0409912701464489,LD
17.3333333333333,7.27700757980347,0.103478737175465,5.93597078323364,-1.20427596569061,1.47104597091675,0.685979962348938,-1413.90002441406,-16.5,-791.700012207031,-2.61850599888219,0.881897375509185,-0.0155241005846324,LD
17.3666666666667,7.25846481323242,-0.084936298429966,7.67596864700317,-0.823175966739655,0.510673999786377,0.891773998737335,-1409.10009765625,-14.7000007629395,-796.500061035156,-2.6391042441554,0.764134677706388,0.0123722574809902,LD
17.4,8.48166751861572,0.10527316480875,6.04842185974121,-0.236281991004944,-0.228659987449646,0.37347799539566,-1411.5,-14.7000007629395,-789.300048828125,-2.61950049642184,0.940233494449029,-0.0139996267293373,LD
17.4333333333333,7.70647382736206,-0.116039738059044,6.1112265586853,0.0457319989800453,-0.78506600856781,0.388722002506256,-1416.30004882812,-15.3000001907349,-791.700012207031,-2.64598928376335,0.903968476818591,0.0178520022295417,LD
17.4666666666667,6.73688411712646,-0.381615221500397,6.57060050964355,-0.449698001146317,2.23324584960938,0.198172003030777,-1411.5,-15.3000001907349,-794.100036621094,-2.67441824585909,0.798600039102431,0.0571184755999483,LD
17.5,8.14610958099365,-0.0753660127520561,7.42175817489624,0.297257989645004,-0.739333987236023,0.411587983369827,-1406.70007324219,-15.3000001907349,-806.100036621094,-2.64447730809437,0.831292798327285,0.0130737294035434,LD
