seconds,sensor_accX_m_s_,sensor_accY_m_s_,sensor_accZ_m_s_,sensor_gyroX___s_,sensor_gyroY___s_,sensor_gyroZ___s_,sensor_magX__T_,sensor_magY__T_,sensor_magZ__T_,sensor_yaw___,sensor_pitch___,sensor_roll___,label1
0.0,3.93398642539978,-1.13946235179901,8.78911304473877,0.274392008781433,-0.0152439996600151,0.221037998795509,-1325.10009765625,-1.5,-875.700012207031,-2.3827205135169,0.42077260647643,0.129092515402858,ST
0.0333333333333333,3.96748232841492,-1.10118126869202,8.73528003692627,0.221037998795509,-0.3125019967556,0.228659987449646,-1334.70007324219,6.30000019073486,-894.900024414062,-2.38218969847268,0.422934179178054,0.126387585870457,ST
0.0666666666666667,4.02310943603516,-1.12151801586151,8.79150581359863,0.259148001670837,-0.221037998795509,0.243903994560242,-1325.10009765625,3.30000019073486,-885.300048828125,-2.38287244490661,0.425392575513745,0.126566285400225,ST
0.1,4.08053112030029,-1.09519982337952,8.80286979675293,0.228659987449646,-0.282013982534409,0.205793991684914,-1325.10009765625,0.900000035762787,-878.100036621094,-2.38254664542561,0.430034196127581,0.124320128503737,ST
0.133333333333333,4.17623424530029,-1.08622765541077,8.81902027130127,0.297257989645004,-0.365855991840363,0.221037998795509,-1329.90002441406,3.90000009536743,-878.100036621094,-2.38256858739467,0.436963783896019,0.12287152362424,ST
0.166666666666667,4.12718629837036,-1.07306849956512,8.75142955780029,0.243903994560242,-0.25152599811554,0.274392008781433,-1325.10009765625,3.90000009536743,-873.300048828125,-2.3829127277586,0.437812223060976,0.122142612385592,ST
0.2,4.14034557342529,-1.12929391860962,8.80885124206543,0.0838419944047928,-0.0762199983000755,0.198172003030777,-1322.70007324219,4.5,-875.700012207031,-2.38489107536763,0.436782545078373,0.125907812829448,ST
0.233333333333333,4.09488677978516,-1.13647162914276,8.81124401092529,0.0685980021953583,-0.0304879993200302,0.167683988809586,-1327.5,3.30000019073486,-866.100036621094,-2.3859101243045,0.433376121696229,0.127574566625218,ST
0.266666666666667,3.9938006401062,-1.15621042251587,8.78552436828613,0.106707997620106,-0.0533539988100529,0.190549999475479,-1325.10009765625,5.10000038146973,-880.500061035156,-2.38730057248403,0.426203926480989,0.129933547268149,ST
0.3,4.03806304931641,-1.15800476074219,8.79449653625488,0.0914639979600906,-0.129574000835419,0.221037998795509,-1346.70007324219,1.5,-892.500061035156,-2.38808666898098,0.427062529477771,0.130682164487877,ST
0.333333333333333,4.06318521499634,-1.18432307243347,8.82918834686279,0.198172003030777,-0.144817993044853,0.282013982534409,-1337.10009765625,8.10000038146973,-894.900024414062,-2.38950201218395,0.427824583852654,0.13253212476275,ST
0.366666666666667,4.10864400863647,-1.14305126667023,8.74724292755127,0.297257989645004,-0.144817993044853,0.266770005226135,-1334.70007324219,-1.5,-887.700012207031,-2.38932027801514,0.433584458068085,0.130517381481072,ST
0.4,4.07036304473877,-1.17594909667969,8.81124401092529,0.228659987449646,-0.0533539988100529,0.205793991684914,-1332.30004882812,-0.900000035762787,-892.500061035156,-2.39038220479619,0.430688281297955,0.131867471151825,ST
0.433333333333333,3.96209907531738,-1.19628596305847,8.82619762420654,0.221037998795509,0.0152439996600151,0.304879993200302,-1332.30004882812,6.30000019073486,-894.900024414062,-2.39179502221556,0.422133906778526,0.133760109189806,ST
0.466666666666667,4.17743062973022,-1.28062415122986,8.98649978637695,0.213415995240211,-0.25152599811554,0.419209986925125,-1341.90002441406,12.3000001907349,-894.900024414062,-2.3951645811449,0.429268382295374,0.139584559887522,ST
0.5,4.27612400054932,-1.35898077487946,8.89259147644043,0.419209986925125,-0.190549999475479,0.213415995240211,-1327.5,-3.30000019073486,-878.100036621094,-2.39947915405986,0.440148134871067,0.148069770469074,ST
0.533333333333333,4.20973014831543,-1.46724474430084,9.1689338684082,0.518296003341675,0.114329993724823,0.358233988285065,-1325.10009765625,7.50000047683716,-887.700012207031,-2.40349333582217,0.429423549987388,0.155321841141819,ST
0.566666666666667,4.42565965652466,-1.54919028282166,8.97274303436279,0.724089980125427,-0.0762199983000755,-0.0076219998300075,-1317.90002441406,-0.900000035762787,-873.300048828125,-2.40827490827389,0.445607568720349,0.165338406421426,ST
0.6,4.05600738525391,-1.44451522827148,8.93924713134766,1.16616594791412,0.396344006061554,-0.0381099991500378,-1337.10009765625,-1.5,-878.100036621094,-2.40682272697311,0.428018087770737,0.160261110605323,ST
0.633333333333333,3.42137789726257,-1.08204066753387,8.75860786437988,1.56251001358032,0.617381989955902,0.289635986089706,-1334.70007324219,3.30000019073486,-882.900024414062,-2.39707882364809,0.386606255852592,0.132150178600305,ST
0.666666666666667,3.84845185279846,-0.940280735492706,8.87703990936279,1.44817996025085,-0.152439996600151,0.182927995920181,-1325.10009765625,1.5,-887.700012207031,-2.3905904846801,0.401081019832965,0.111917809614176,ST
0.7,3.64807391166687,-0.688462555408478,8.68084907531738,1.48628997802734,-0.632625997066498,0.0457319989800453,-1334.70007324219,0.900000035762787,-878.100036621094,-2.38200308253751,0.398791919467658,0.0867552652086956,ST
0.733333333333333,3.72762703895569,-0.556871116161346,8.60009956359863,1.2423859834671,-0.0457319989800453,0.518296003341675,-1332.30004882812,0.300000011920929,-890.100036621094,-2.37693033355709,0.405785305451602,0.0691558739911972,ST
0.766666666666667,3.69951438903809,-0.561058104038239,8.91651725769043,0.830797970294952,-0.0914639979600906,0.434453994035721,-1339.5,-1.5,-904.500061035156,-2.3761564402693,0.396637144152173,0.0639460678565881,ST
0.8,3.54638957977295,-0.549693405628204,8.73169136047363,0.556405961513519,-0.205793991684914,0.46494197845459,-1332.30004882812,-0.300000011920929,-882.900024414062,-2.37683040463669,0.388791328094235,0.0627552359960722,ST
0.833333333333333,3.71446776390076,-0.519188106060028,8.71853160858154,0.297257989645004,-0.518296003341675,0.716467976570129,-1332.30004882812,-1.5,-861.300048828125,-2.37740020453249,0.3990554768268,0.0604001982285201,ST
0.866666666666667,4.18580436706543,-0.712388277053833,8.78791618347168,0.114329993724823,-1.12043392658234,0.632625997066498,-1327.5,6.90000009536743,-873.300048828125,-2.38488878582554,0.433056611207042,0.0756819066340775,ST
0.9,4.27373170852661,-0.806894838809967,8.84713268280029,-0.167683988809586,-0.884151995182037,0.388722002506256,-1339.5,3.90000009536743,-870.900024414062,-2.39021077693648,0.444822373750656,0.0868031686740278,ST
0.933333333333333,4.21511363983154,-0.760837852954865,8.86328220367432,0.182927995920181,-0.434453994035721,0.556405961513519,-1344.30004882812,-0.900000035762787,-880.500061035156,-2.39096947359183,0.443662210251494,0.0861040690818206,ST
0.966666666666667,4.20434713363647,-0.748875021934509,8.84414196014404,0.335367977619171,-0.304879993200302,0.609759986400604,-1341.90002441406,-1.5,-890.100036621094,-2.39169953411145,0.443070545991364,0.0849213331144005,ST
1.0,4.12180328369141,-0.750669419765472,8.82380485534668,0.175305992364883,-0.198172003030777,0.411587983369827,-1334.70007324219,1.5,-873.300048828125,-2.39249352046422,0.438059965981777,0.0849159991970383,ST
1.03333333333333,4.13017702102661,-0.74349170923233,8.74604606628418,0.129574000835419,-0.335367977619171,0.213415995240211,-1337.10009765625,-5.70000028610229,-873.300048828125,-2.39292426517043,0.439662527349711,0.0848183848207044,ST
1.06666666666667,4.07574605941772,-0.787156164646149,8.74185943603516,0.0381099991500378,-0.297257989645004,0.106707997620106,-1325.10009765625,3.30000019073486,-866.100036621094,-2.39465036272248,0.436562733087159,0.0883350054536382,ST
1.1,4.15470123291016,-0.882260859012604,8.80945014953613,-0.0609759986400604,-0.480185985565186,0.121951997280121,-1332.30004882812,0.300000011920929,-868.500061035156,-2.39841033611929,0.438717456713893,0.0966856671671288,ST
1.13333333333333,4.22887086868286,-1.01385235786438,8.86447906494141,-0.0914639979600906,-0.472563982009888,0.129574000835419,-1339.5,5.10000038146973,-875.700012207031,-2.40414082150002,0.44218762587098,0.10958982596686,ST
1.16666666666667,4.26475954055786,-1.07187223434448,8.76997184753418,-0.0381099991500378,-0.274392008781433,0.0762199983000755,-1329.90002441406,3.90000009536743,-868.500061035156,-2.40808852314221,0.447985683480711,0.118417591684669,ST
1.2,4.44360399246216,-1.22679126262665,8.93206882476807,0.0533539988100529,-0.282013982534409,0.152439996600151,-1341.90002441406,-2.70000004768372,-870.900024414062,-2.41428444625613,0.45566644306444,0.131782605466216,ST
1.23333333333333,4.39934158325195,-1.29019439220428,8.94343376159668,0.190549999475479,-0.160062000155449,0.0685980021953583,-1339.5,9.30000019073486,-880.500061035156,-2.41816645590901,0.453990585994437,0.139934835229775,ST
1.26666666666667,4.18221569061279,-1.26208162307739,9.18328857421875,0.388722002506256,0.274392008781433,0.160062000155449,-1334.70007324219,3.90000009536743,-892.500061035156,-2.41745915250649,0.432544326805118,0.137172227968131,ST
1.3,3.89510703086853,-1.09340536594391,8.79509449005127,0.800309956073761,0.289635986089706,0.3125019967556,-1339.5,3.90000009536743,-870.900024414062,-2.41421189116163,0.419239867693401,0.126891211837466,ST
1.33333333333333,3.33823585510254,-0.897812604904175,9.53499698638916,0.914639949798584,0.327746003866196,-0.0381099991500378,-1349.10009765625,0.900000035762787,-870.900024414062,-2.40525976127436,0.359160892904316,0.101962297039943,ST
1.36666666666667,3.06667900085449,-0.806894838809967,8.87285327911377,0.67835795879364,0.320124000310898,-0.403965979814529,-1344.30004882812,-2.10000014305115,-878.100036621094,-2.40190565809967,0.33948406442399,0.0930367331570758,ST
1.4,2.83579587936401,-0.964206457138062,8.94283580780029,-0.0990860015153885,0.129574000835419,-0.769822001457214,-1332.30004882812,3.90000009536743,-887.700012207031,-2.40375642049288,0.31560390813572,0.10291883673955,ST
1.43333333333333,2.35249638557434,-0.867307305335999,8.54566860198975,-0.106707997620106,0.533540010452271,-1.11281192302704,-1329.90002441406,-2.10000014305115,-870.900024414062,-2.40133120891451,0.28133658704962,0.101369172288074,ST
1.46666666666667,2.32617807388306,-0.899008870124817,8.94044303894043,0.434453994035721,1.30336201190948,-0.655492007732391,-1329.90002441406,-2.70000004768372,-882.900024414062,-2.39980256494662,0.260243236410934,0.0997695695848539,ST
1.5,2.83878660202026,-0.720762252807617,8.93864822387695,0.762199997901917,0.746955990791321,-1.05945801734924,-1332.30004882812,-2.10000014305115,-875.700012207031,-2.39413242743282,0.292462063264861,0.0847210533730023,ST
1.53333333333333,2.60012745857239,-0.232079476118088,8.89318943023682,0.99848198890686,0.632625997066498,-1.20427596569061,-1332.30004882812,2.10000014305115,-882.900024414062,-2.37983620310619,0.285980533207539,0.0404284364829875,ST
1.56666666666667,3.07983827590942,-0.0233275759965181,9.15756893157959,0.724089980125427,-0.0457319989800453,-0.632625997066498,-1327.5,4.5,-894.900024414062,-2.3710398393537,0.312987956299827,0.0129189986258648,ST
1.6,3.33644151687622,0.0023925718851387,9.46022891998291,0.236281991004944,-0.525918006896973,-0.411587983369827,-1329.90002441406,3.90000009536743,-899.700012207031,-2.36744546636361,0.331869879103656,0.0032768756487364,ST
1.63333333333333,3.50392150878906,-0.221911042928696,9.88670539855957,-0.167683988809586,0.0152439996600151,-0.282013982534409,-1334.70007324219,0.900000035762787,-894.900024414062,-2.37131740924722,0.337915200423416,0.0167473859512936,ST
1.66666666666667,3.56014704704285,-0.141759887337685,10.0822982788086,-0.198172003030777,0.868907988071442,0.274392008781433,-1337.10009765625,-3.90000009536743,-882.900024414062,-2.37112266733435,0.337895543920221,0.0152220745055334,ST
1.7,3.36036729812622,-0.180639177560806,9.79100227355957,-0.342989981174469,1.18140995502472,0.800309956073761,-1325.10009765625,7.50000047683716,-887.700012207031,-2.37318830413022,0.331309014201375,0.0182272562289591,ST
1.73333333333333,3.09838056564331,-0.218322187662125,9.51824951171875,-0.594515979290009,1.61586391925812,0.83841997385025,-1329.90002441406,0.900000035762787,-904.500061035156,-2.37556496115116,0.317650935215307,0.0225755509663975,ST
1.76666666666667,2.50203204154968,-0.288903057575226,9.34119892120361,-0.800309956073761,2.37806391716003,0.304879993200302,-1315.5,6.90000009536743,-892.500061035156,-2.37758224277336,0.27554411417476,0.0294915252912575,ST
1.8,2.47750806808472,-0.422288924455643,9.14560604095459,-1.12805593013763,1.70732796192169,-0.449698001146317,-1329.90002441406,-0.900000035762787,-892.500061035156,-2.37964811979906,0.265611907702988,0.0423451257319503,ST
1.83333333333333,2.43922710418701,-0.1722651720047,9.33880615234375,-0.716467976570129,1.12805593013763,-0.899396002292633,-1310.70007324219,-2.10000014305115,-894.900024414062,-2.37358433436833,0.25718075417491,0.0261864596444684,ST
1.86666666666667,2.69822287559509,-0.269762486219406,9.1749153137207,-0.83841997385025,0.541162014007568,-1.14329993724823,-1315.5,2.10000014305115,-887.700012207031,-2.3718634255973,0.277720724689741,0.0292162592508928,ST
1.9,2.44939541816711,-0.178246602416039,9.43690204620361,-0.632625997066498,0.388722002506256,-1.16616594791412,-1313.10009765625,5.10000038146973,-899.700012207031,-2.36778856683339,0.260634113353283,0.0223527449738437,ST
1.93333333333333,2.50861167907715,-0.267968058586121,9.78502082824707,-0.823175966739655,0.144817993044853,0.0228659994900227,-1308.30004882812,-2.70000004768372,-906.900024414062,-2.36860969534349,0.253634794470706,0.0268798285311294,ST
1.96666666666667,2.71796154975891,-0.463560789823532,10.0864849090576,-0.739333987236023,0.449698001146317,0.411587983369827,-1315.5,0.900000035762787,-902.100036621094,-2.37258723647901,0.259591426657596,0.0412142546113259,ST
2.0,2.4517879486084,-0.739902853965759,9.79100227355957,-0.685979962348938,0.945127964019775,0.746955990791321,-1317.90002441406,3.30000019073486,-890.100036621094,-2.37973010583866,0.248010632569361,0.0662137987168944,ST
2.03333333333333,1.54560148715973,-0.821848452091217,9.43690204620361,-0.175305992364883,0.78506600856781,0.899396002292633,-1317.90002441406,2.10000014305115,-897.300048828125,-2.38457416631375,0.183302963572071,0.0819767191971942,ST
2.06666666666667,2.27952289581299,-1.17654716968536,9.36273193359375,0.0838419944047928,-0.0838419944047928,1.60824191570282,-1298.70007324219,3.30000019073486,-916.500061035156,-2.39340594853792,0.220807110297774,0.112237703717081,ST
2.1,3.31909537315369,-1.63711726665497,8.78313159942627,-0.663114011287689,-1.80641400814056,1.19665396213531,-1327.5,0.300000011920929,-897.300048828125,-2.40906357398991,0.317119608396515,0.163172253500013,ST
2.13333333333333,3.30174922943115,-2.09828543663025,9.05947303771973,-0.106707997620106,-2.080806016922,1.2423859834671,-1327.5,2.10000014305115,-892.500061035156,-2.42667019939757,0.336652575976914,0.209756840398725,ST
2.16666666666667,3.06727719306946,-2.19817543029785,9.68513107299805,0.67835795879364,-0.533540010452271,1.92836594581604,-1320.30004882812,1.5,-899.700012207031,-2.43363071259666,0.309894605466967,0.219516746948972,ST
2.2,2.57799625396729,-2.14613699913025,9.23054218292236,0.0762199983000755,0.777444005012512,1.76068198680878,-1310.70007324219,-3.90000009536743,-921.300048828125,-2.43817153341501,0.277539194930761,0.226262355689014,ST
2.23333333333333,2.66293239593506,-2.04505085945129,10.3484716415405,0.381099998950958,0.830797970294952,1.19665396213531,-1322.70007324219,5.70000028610229,-899.700012207031,-2.4340747301605,0.253868345213264,0.203080040861061,ST
2.26666666666667,3.18451309204102,-2.09649109840393,9.84782600402832,0.419209986925125,0.777444005012512,0.289635986089706,-1315.5,0.900000035762787,-914.100036621094,-2.43563227215426,0.290222448827203,0.207339464905952,ST
2.3,3.62833523750305,-1.69633340835571,10.3323221206665,0.899396002292633,1.76830399036407,-0.960371971130371,-1303.5,-2.10000014305115,-897.300048828125,-2.42370236210254,0.31977252306082,0.173471260859567,ST
2.33333333333333,4.56024217605591,-1.1538177728653,9.48236083984375,1.06708002090454,5.42686367034912,-0.327746003866196,-1305.90002441406,3.30000019073486,-906.900024414062,-2.40842503045267,0.404216614023652,0.134221517169431,ST
2.36666666666667,3.74676752090454,-1.62276184558868,10.0159044265747,0.129574000835419,7.20278978347778,-0.426831990480423,-1291.5,3.30000019073486,-914.100036621094,-2.41293048219813,0.357907611499888,0.15287564190427,ST
2.4,2.61866998672485,-1.29557764530182,9.89687347412109,0.259148001670837,7.5762677192688,-0.259148001670837,-1279.5,-1.5,-911.700012207031,-2.40529784125745,0.275001514834078,0.135407037322551,ST
2.43333333333333,2.07077097892761,-1.00129127502441,10.3706026077271,0.937505960464478,6.86742162704468,1.08232402801514,-1269.90002441406,-5.10000038146973,-921.300048828125,-2.39895393352067,0.207963485013692,0.105272093080683,ST
2.46666666666667,1.44630968570709,-0.745286166667938,9.01102352142334,-0.182927995920181,6.41010189056396,0.861285984516144,-1265.10009765625,2.10000014305115,-921.300048828125,-2.39633136436256,0.164780433937584,0.0893092180733153,ST
2.5,-1.4421226978302,0.0137572884559631,9.19106483459473,0.213415995240211,7.40096187591553,1.27287399768829,-1262.70007324219,-3.30000019073486,-950.100036621094,-2.39518632803891,-0.0838590658296507,0.0214823600692653,ST
2.53333333333333,-1.76392364501953,-0.605918824672699,9.63309288024902,-0.175305992364883,6.32626008987427,3.00306797027588,-1250.70007324219,-0.300000011920929,-938.100036621094,-2.39654384539768,-0.159423868539277,0.050056035960577,ST
2.56666666666667,-1.66343557834625,-1.18791198730469,7.64905214309692,-0.46494197845459,5.8536958694458,2.34757590293884,-1238.70007324219,8.10000038146973,-945.300048828125,-2.38674727776366,-0.203522644597958,0.122703863765822,ST
2.6,-3.35857272148132,-0.849961161613464,8.60309028625488,-0.632625997066498,6.3567476272583,2.31708788871765,-1245.90002441406,4.5,-940.500061035156,-2.39394717207983,-0.328112315584136,0.106465134566747,ST
2.63333333333333,-2.71018576622009,-1.69693160057068,8.14790344238281,-0.67835795879364,4.32167387008667,3.55185198783875,-1214.70007324219,2.10000014305115,-945.300048828125,-2.37701500683944,-0.325021534089405,0.17535786997527,ST
2.66666666666667,-2.36206650733948,-1.90209460258484,9.14141941070557,-0.182927995920181,2.0579400062561,3.26221585273743,-1212.30004882812,6.30000019073486,-954.900024414062,-2.37581830094815,-0.274272332610275,0.195551263165616,ST
2.7,-1.75495147705078,-1.6263507604599,8.0773229598999,-0.175305992364883,0.419209986925125,2.30946588516235,-1224.30004882812,-0.300000011920929,-954.900024414062,-2.37910593976265,-0.230292236846436,0.197319455557911,ST
2.73333333333333,-2.66173624992371,-1.07007777690887,8.76219654083252,0.655492007732391,0.602137982845306,2.21037983894348,-1226.70007324219,-4.5,-954.900024414062,-2.39658108230044,-0.27703872270284,0.141162579762995,ST
2.76666666666667,-1.5503865480423,-1.1998747587204,9.2401123046875,-0.320124000310898,-0.381099998950958,2.17227005958557,-1209.90002441406,8.70000076293945,-962.100036621094,-2.40289767144063,-0.19421777278683,0.132047832978978,ST
2.8,-2.0970892906189,-1.55816245079041,9.31727313995361,-0.503051996231079,-0.0685980021953583,2.00458598136902,-1212.30004882812,4.5,-954.900024414062,-2.40172329588847,-0.212095742723393,0.156534000510702,ST
2.83333333333333,-0.985141456127167,-1.20884692668915,10.0930643081665,0.37347799539566,-1.80641400814056,0.967993974685669,-1205.10009765625,7.50000047683716,-952.500061035156,-2.40825861171079,-0.129388042013553,0.129672246809318,ST
2.86666666666667,-1.07845175266266,-1.02581524848938,10.2952365875244,1.21189796924591,-2.19513607025146,0.46494197845459,-1226.70007324219,0.300000011920929,-947.700012207031,-2.41196270781681,-0.108953852789963,0.106849141009978,ST
2.9,-0.512608528137207,-0.995309889316559,9.47219181060791,1.21951997280121,-1.22714197635651,0.899396002292633,-1231.5,8.10000038146973,-950.100036621094,-2.41385789720088,-0.0682386634659267,0.103696663795858,ST
2.93333333333333,-0.244640469551086,-0.299071490764618,9.81732082366943,1.60824191570282,-1.04421401023865,0.25152599811554,-1224.30004882812,6.30000019073486,-964.500061035156,-2.41707589021899,-0.0367185666658457,0.0504969661418758,ST
2.96666666666667,0.110058307647705,-0.18482618033886,9.42194843292236,1.50915598869324,-2.11129403114319,-0.0533539988100529,-1226.70007324219,-0.300000011920929,-962.100036621094,-2.41750998796034,0.0010568735273298,0.0261882672829438,ST
3.0,0.739304721355438,-0.155517175793648,9.21977615356445,0.846041977405548,-1.49391198158264,-0.967993974685669,-1229.10009765625,2.70000004768372,-950.100036621094,-2.4156539192207,0.0591753890035915,0.0184663676460912,ST
3.03333333333333,1.70351123809814,-0.178246602416039,9.11629676818848,0.198172003030777,-2.22562384605408,-1.28049600124359,-1238.70007324219,3.90000009536743,-957.300048828125,-2.41340309436311,0.154615275364372,0.0188175320394443,ST
3.06666666666667,0.848764896392822,-0.372044920921326,10.5883264541626,0.0762199983000755,0.388722002506256,-0.990859985351562,-1231.5,4.5,-942.900024414062,-2.41307856129675,0.100005583706937,0.0304146643657469,ST
3.1,1.42657101154327,-0.361876487731934,10.4669036865234,0.182927995920181,0.236281991004944,-0.983237981796265,-1233.90002441406,9.30000019073486,-962.100036621094,-2.41165163222417,0.124954130036494,0.0329950072215263,ST
3.13333333333333,0.860727727413177,-0.908579170703888,9.93216419219971,-0.67835795879364,0.533540010452271,-2.0579400062561,-1224.30004882812,6.30000019073486,-952.500061035156,-2.41245069497069,0.0962853200335423,0.0758449255503269,ST
3.16666666666667,0.712388277053833,-0.906784772872925,10.0248765945435,-0.0228659994900227,1.53202199935913,-2.34757590293884,-1233.90002441406,-1.5,-947.700012207031,-2.40882739988452,0.076003891893781,0.0860346201475104,ST
3.2,0.556871116161346,-0.868503570556641,9.58344650268555,0.182927995920181,1.31860601902008,-2.54574799537659,-1219.5,-0.900000035762787,-945.300048828125,-2.40445863580177,0.0619459174950131,0.0886292458435702,ST
3.23333333333333,-0.229088753461838,-1.01504862308502,9.10553073883057,-0.411587983369827,1.03659200668335,-2.22562384605408,-1226.70007324219,2.70000004768372,-945.300048828125,-2.40093644740697,0.0001881855048968,0.104720655889307,ST
3.26666666666667,-0.400755792856216,-1.01445043087006,9.10074520111084,-0.510673999786377,0.746955990791321,-1.89025592803955,-1233.90002441406,0.900000035762787,-950.100036621094,-2.39748417706909,-0.0311818561292215,0.109786002756881,ST
3.3,-1.16637873649597,-1.251913189888,9.88072395324707,0.205793991684914,0.457319974899292,-0.990859985351562,-1217.10009765625,-3.90000009536743,-957.300048828125,-2.39499189530162,-0.0912750289806827,0.120967037102452,ST
3.33333333333333,-1.22140789031982,-0.893027484416962,10.1654396057129,1.08994603157043,-0.160062000155449,-1.00610399246216,-1214.70007324219,-2.70000004768372,-947.700012207031,-2.39558272267197,-0.110436155659037,0.0964715998232763,ST
3.36666666666667,-0.87388688325882,-0.293090045452118,9.1270637512207,1.34909391403198,-0.419209986925125,-0.46494197845459,-1229.10009765625,-2.10000014305115,-957.300048828125,-2.399535461173,-0.0992139428250538,0.0489785049244445,ST
3.4,-0.979160070419312,-0.0675901547074318,9.18568134307861,0.541162014007568,-0.769822001457214,-0.213415995240211,-1224.30004882812,0.300000011920929,-947.700012207031,-2.40212604133619,-0.103167031891489,0.0192510188933152,ST
3.43333333333333,-1.02402079105377,-0.300865918397903,9.52901554107666,-0.0076219998300075,-0.769822001457214,-0.0457319989800453,-1219.5,-3.90000009536743,-942.900024414062,-2.40114748657626,-0.104973284252776,0.0281937664365979,ST
3.46666666666667,-0.516795516014099,-0.457579374313354,9.69230842590332,-0.396344006061554,-1.70732796192169,-0.282013982534409,-1217.10009765625,-3.30000019073486,-945.300048828125,-2.39956139149689,-0.0645773441006717,0.0427516766999301,ST
3.5,-0.389989227056503,-0.525169551372528,9.29633808135986,-0.0838419944047928,-2.22562384605408,0.442075997591019,-1229.10009765625,-0.900000035762787,-940.500061035156,-2.39997850085355,-0.0460075519425325,0.0523870990226713,ST
3.53333333333333,-0.501841962337494,-0.598741114139557,10.1522808074951,-0.0152439996600151,-1.70732796192169,0.945127964019775,-1229.10009765625,3.30000019073486,-950.100036621094,-2.40161033410756,-0.0463022538078896,0.0569917340312892,ST
3.56666666666667,0.315221339464188,-0.51440292596817,10.1175880432129,0.213415995240211,-1.6844619512558,0.922261953353882,-1243.5,-0.300000011920929,-945.300048828125,-2.40359274731678,0.0128972837038201,0.0521416939394021,ST
3.6,-0.0974973067641258,-0.573020994663239,9.60378360748291,-0.182927995920181,-1.04421401023865,0.579271972179413,-1233.90002441406,-0.300000011920929,-938.100036621094,-2.40471781986715,-0.0019716057798465,0.057580819780188,ST
3.63333333333333,-0.673509001731873,-0.808091163635254,9.40579795837402,-0.594515979290009,-0.106707997620106,0.297257989645004,-1229.10009765625,4.5,-947.700012207031,-2.40473353356024,-0.0502683924600518,0.0779437244907829,ST
3.66666666666667,-0.992917358875275,-0.981552600860596,9.62651252746582,-0.487807989120483,-0.0762199983000755,0.434453994035721,-1226.70007324219,0.900000035762787,-954.900024414062,-2.40437516489798,-0.0872522719304037,0.0953571647906821,ST
3.7,-0.805100440979004,-0.986337780952454,9.66957950592041,0.152439996600151,-1.14329993724823,0.602137982845306,-1236.30004882812,2.10000014305115,-957.300048828125,-2.40531416321549,-0.0824621660517651,0.0997286799721141,ST
3.73333333333333,-0.696836590766907,-1.15740668773651,9.1629524230957,0.0609759986400604,-1.34909391403198,0.891773998737335,-1236.30004882812,-0.300000011920929,-954.900024414062,-2.40566140231747,-0.0759487754879844,0.117679597124673,ST
3.76666666666667,-0.273949474096298,-1.13288283348083,9.66599082946777,0.205793991684914,-1.51677799224854,0.6250039935112,-1233.90002441406,4.5,-945.300048828125,-2.40720070213486,-0.0388306659933021,0.116621830681168,ST
3.8,-0.215929612517357,-1.18551933765411,9.46142578125,0.647870004177094,-1.18903195858002,0.304879993200302,-1241.10009765625,0.300000011920929,-942.900024414062,-2.40777295926146,-0.0261146264803022,0.121429573857117,ST
3.83333333333333,-0.293090045452118,-0.988730311393738,9.3836669921875,0.967993974685669,-1.05183601379395,0.0609759986400604,-1229.10009765625,-1.5,-942.900024414062,-2.4083879712518,-0.0283009635279727,0.108740877597303,ST
3.86666666666667,-0.293090045452118,-1.05033910274506,10.6182336807251,0.617381989955902,-0.967993974685669,0.480185985565186,-1241.10009765625,0.900000035762787,-940.500061035156,-2.40967449765291,-0.026506157611586,0.100441640054617,ST
3.9,0.232079476118088,-0.885849714279175,10.5267181396484,0.853663980960846,-1.64635193347931,1.08994603157043,-1245.90002441406,-2.70000004768372,-935.700012207031,-2.41209799522304,0.0112366937197797,0.0871776401545776,ST
3.93333333333333,0.690257012844086,-0.860129594802856,9.7060661315918,0.564027965068817,-0.564027965068817,0.6250039935112,-1245.90002441406,-0.300000011920929,-940.500061035156,-2.41329256885842,0.0534407634524885,0.0873677358975968,ST
3.96666666666667,0.492869794368744,-0.802109718322754,9.70726203918457,0.0152439996600151,0.297257989645004,0.129574000835419,-1248.30004882812,2.70000004768372,-945.300048828125,-2.41329658184392,0.0509606957798633,0.0837825816603399,ST
4.0,0.07656230032444,-0.824839174747467,9.72580432891846,-0.25152599811554,0.25152599811554,0.289635986089706,-1243.5,-6.30000019073486,-947.700012207031,-2.41381550663173,0.0187975382043749,0.0847291750872998,ST
4.03333333333333,0.616685390472412,-0.839194595813751,8.91113376617432,-0.304879993200302,-0.228659987449646,0.304879993200302,-1231.5,-0.900000035762787,-945.300048828125,-2.41460404155553,0.0539943459907444,0.0915250699820599,ST
4.06666666666667,0.705210566520691,-0.90977543592453,9.34000205993652,-0.442075997591019,-0.205793991684914,-0.266770005226135,-1241.10009765625,-2.10000014305115,-945.300048828125,-2.41440435163352,0.068968240120994,0.0959431956965343,ST
4.1,0.540123105049133,-1.04495573043823,8.97872447967529,-0.426831990480423,0.198172003030777,-0.205793991684914,-1231.5,4.5,-954.900024414062,-2.41491417599629,0.0622642625244435,0.110374979399652,ST
4.13333333333333,0.105871304869652,-0.961813926696777,9.45604228973389,-0.37347799539566,0.274392008781433,-0.274392008781433,-1238.70007324219,0.900000035762787,-947.700012207031,-2.41410259077195,0.026224432080159,0.104517504989549,ST
4.16666666666667,0.41750380396843,-1.29557764530182,9.78860950469971,-0.487807989120483,0.198172003030777,0.0,-1248.30004882812,0.900000035762787,-945.300048828125,-2.41465707048515,0.0371976126900954,0.124038028284924,ST
4.2,0.413914948701859,-1.35120499134064,9.95010852813721,-0.297257989645004,0.0914639979600906,-0.129574000835419,-1243.5,-0.900000035762787,-954.900024414062,-2.41469758294859,0.0400540185240887,0.132481384692771,ST
4.23333333333333,0.471934795379639,-1.30335354804993,9.72460842132568,0.144817993044853,-0.198172003030777,0.457319974899292,-1233.90002441406,2.10000014305115,-947.700012207031,-2.41560352695777,0.0460353427477244,0.13286922176406,ST
4.26666666666667,0.249425619840622,-1.04675018787384,10.1409158706665,0.525918006896973,-0.205793991684914,0.800309956073761,-1236.30004882812,8.70000076293945,-942.900024414062,-2.41622182616951,0.0310862652626938,0.111277186540472,ST
4.3,1.11673295497894,-0.654966533184052,9.56071758270264,1.2576299905777,-1.2576299905777,0.960371971130371,-1231.5,3.30000019073486,-942.900024414062,-2.41627911217611,0.091880899250004,0.079936897659251,ST
4.33333333333333,1.50492775440216,-0.515599250793457,9.99855804443359,1.28049600124359,-1.19665396213531,0.342989981174469,-1226.70007324219,2.70000004768372,-962.100036621094,-2.41485630926612,0.133392104904554,0.0586145984682982,ST
4.36666666666667,1.53244233131409,-0.268566191196442,9.84543323516846,1.00610399246216,-1.15092194080353,-0.0685980021953583,-1248.30004882812,1.5,-945.300048828125,-2.41181766242346,0.149473282495176,0.0354879433648481,ST
4.4,1.30813872814178,-0.172863319516182,9.34060096740723,0.495429992675781,-1.00610399246216,-0.198172003030777,-1233.90002441406,3.90000009536743,-940.500061035156,-2.40982952448732,0.14347320851927,0.0229706281270912,ST
4.43333333333333,1.18970632553101,-0.339745193719864,9.48654747009277,-0.0609759986400604,0.160062000155449,-0.83841997385025,-1245.90002441406,3.30000019073486,-945.300048828125,-2.40958868754286,0.130167684397641,0.0318808146455441,ST
4.46666666666667,0.676499724388123,-0.78177285194397,9.78860950469971,-0.952749967575073,-0.274392008781433,-1.56251001358032,-1241.10009765625,3.90000009536743,-938.100036621094,-2.41043389415042,0.0861316086085544,0.06761578897496,ST
4.5,0.503636360168457,-1.28361487388611,10.1893653869629,-1.50153398513794,-0.655492007732391,-2.19513607025146,-1245.90002441406,3.30000019073486,-938.100036621094,-2.40959182685263,0.060773709872331,0.110428634363734,ST
4.53333333333333,0.750669419765472,-1.47023546695709,9.68871974945068,-1.12805593013763,-0.945127964019775,-2.05031800270081,-1241.10009765625,2.70000004768372,-938.100036621094,-2.40811446837562,0.0732095222565052,0.139726061644049,ST
4.56666666666667,0.875083148479462,-1.58866775035858,9.07502555847168,-0.381099998950958,-0.182927995920181,-1.34147191047668,-1224.30004882812,-0.300000011920929,-940.500061035156,-2.40774843753659,0.0887160324161688,0.163525707820149,ST
4.6,0.302062213420868,-1.51509618759155,9.19943904876709,-0.106707997620106,0.221037998795509,-1.44817996025085,-1231.5,-2.70000004768372,-945.300048828125,-2.4051974290566,0.0493578808022598,0.163337192463519,ST
4.63333333333333,0.346324771642685,-1.43733751773834,8.61146450042725,-0.0762199983000755,-0.0304879993200302,-0.503051996231079,-1224.30004882812,-0.900000035762787,-950.100036621094,-2.40441219529047,0.0427048881944543,0.164835327674492,ST
4.66666666666667,-0.113647162914276,-1.39367318153381,9.43450927734375,-0.0609759986400604,0.175305992364883,-0.396344006061554,-1241.10009765625,2.10000014305115,-942.900024414062,-2.4032966225514,0.0016033955609948,0.151283689897632,ST
4.7,-0.0346922911703587,-1.3201014995575,9.60976505279541,0.274392008781433,-0.182927995920181,0.0381099991500378,-1229.10009765625,-2.10000014305115,-933.300048828125,-2.40341653086621,-0.0019317096562895,0.140224625570095,ST
4.73333333333333,0.328978627920151,-1.57132160663605,10.0565776824951,-0.0685980021953583,-0.518296003341675,-0.0457319989800453,-1238.70007324219,2.10000014305115,-940.500061035156,-2.40358601309526,0.0235617782059898,0.151027217800889,ST
4.76666666666667,0.685471832752228,-1.57491040229797,9.46561241149902,-0.0609759986400604,-1.2347639799118,-0.0457319989800453,-1236.30004882812,0.300000011920929,-947.700012207031,-2.40428796735623,0.0603723660674687,0.161329465916083,ST
4.8,0.683677434921265,-1.72564244270325,10.3682098388672,0.0533539988100529,-0.518296003341675,0.586893975734711,-1231.5,0.900000035762787,-947.700012207031,-2.40566805803023,0.0642224141876524,0.163921715647058,ST
4.83333333333333,1.4600670337677,-1.73162388801575,9.49312686920166,0.342989981174469,-0.594515979290009,0.800309956073761,-1241.10009765625,4.5,-945.300048828125,-2.40838251921515,0.125994163870709,0.175342662818964,ST
4.86666666666667,0.632835268974304,-1.70171678066254,9.91421985626221,0.46494197845459,0.564027965068817,1.05183601379395,-1233.90002441406,-2.10000014305115,-950.100036621094,-2.40964527376733,0.0809438627338233,0.171154310873416,ST
4.9,0.340343356132507,-1.4421226978302,9.45484638214111,0.937505960464478,0.83841997385025,1.51677799224854,-1241.10009765625,0.900000035762787,-940.500061035156,-2.41131859319488,0.0460922950167915,0.155449880817494,ST
4.93333333333333,0.235070183873177,-1.09819054603577,10.0978498458862,1.44817996025085,0.274392008781433,1.49391198158264,-1245.90002441406,2.70000004768372,-945.300048828125,-2.41277246213735,0.0285588024144081,0.11888470201405,ST
4.96666666666667,0.916953146457672,-0.95463615655899,9.0193977355957,1.22714197635651,-0.830797970294952,1.47866797447205,-1248.30004882812,4.5,-940.500061035156,-2.41513428347705,0.0817526005541021,0.107729560725577,ST
5.0,0.91874760389328,-0.760239720344543,8.70955944061279,0.67835795879364,0.243903994560242,1.18903195858002,-1253.10009765625,0.900000035762787,-933.300048828125,-2.41591326575739,0.097661267666569,0.0923071654262283,ST
5.03333333333333,0.599937379360199,-1.04196500778198,9.29095458984375,0.182927995920181,0.899396002292633,1.44817996025085,-1229.10009765625,5.70000028610229,-945.300048828125,-2.4194170585381,0.072924159489894,0.105781478839812,ST
5.06666666666667,0.189611315727234,-0.974973022937775,9.80715179443359,0.533540010452271,0.602137982845306,1.80641400814056,-1248.30004882812,-0.900000035762787,-933.300048828125,-2.42217964954798,0.0344383249101048,0.10056461998831,ST
5.1,0.980356335639954,-1.08323693275452,9.40878868103027,0.937505960464478,0.670735955238342,2.02745199203491,-1233.90002441406,4.5,-947.700012207031,-2.42613694924754,0.0813889803594733,0.109381140435441,ST
5.13333333333333,0.579002380371094,-1.24952065944672,10.0529890060425,0.632625997066498,-0.0381099991500378,1.36433792114258,-1229.10009765625,-2.10000014305115,-959.700012207031,-2.42923989104168,0.0642622272960208,0.118718327175816,ST
5.16666666666667,0.32239904999733,-1.1837249994278,10.2970314025879,0.731711983680725,-0.46494197845459,1.30336201190948,-1231.5,3.30000019073486,-950.100036621094,-2.43157351443002,0.0406002801702286,0.114788931835657,ST
5.2,0.837400138378143,-1.11493849754333,10.0338487625122,0.777444005012512,-0.891773998737335,1.81403601169586,-1248.30004882812,6.90000009536743,-945.300048828125,-2.43472309741372,0.0709060141301631,0.11109472089387,ST
5.23333333333333,1.25550210475922,-1.10835897922516,9.67914962768555,0.967993974685669,-0.914639949798584,1.78354799747467,-1238.70007324219,4.5,-950.100036621094,-2.43840524115156,0.113327683760904,0.112211458282265,ST
5.26666666666667,1.29737210273743,-1.0335910320282,9.39204120635986,1.08994603157043,-0.693601965904236,1.49391198158264,-1248.30004882812,2.10000014305115,-938.100036621094,-2.44103744611943,0.13045522651454,0.109242921205748,ST
5.3,1.3721399307251,-0.647788822650909,9.46920108795166,1.31860601902008,-0.647870004177094,1.52439999580383,-1260.30004882812,10.5,-933.300048828125,-2.4400057795678,0.140270140766637,0.0792901557723416,ST
5.33333333333333,1.18073427677155,-0.383409649133682,9.96027660369873,1.36433792114258,-0.640248000621796,1.6692179441452,-1253.10009765625,5.10000038146973,-940.500061035156,-2.43927965371532,0.125312902074526,0.0493395721066924,ST
5.36666666666667,0.704014301300049,-0.180639177560806,9.92079925537109,0.87652999162674,-0.6250039935112,1.2576299905777,-1250.70007324219,0.300000011920929,-950.100036621094,-2.43936993226088,0.0852355036870811,0.024987524997604,ST
5.4,0.750669419765472,0.10826388001442,9.65043830871582,0.830797970294952,-0.67835795879364,0.586893975734711,-1250.70007324219,-2.10000014305115,-947.700012207031,-2.43833810196923,0.0807475142726617,-0.0012862610675735,ST
5.43333333333333,0.992917358875275,-0.227294325828552,9.88790130615234,0.213415995240211,-0.952749967575073,-0.503051996231079,-1255.5,-1.5,-952.500061035156,-2.43897790699064,0.0954223637002875,0.0153588166821466,ST
5.46666666666667,0.767417430877686,-0.274547636508942,9.69709396362305,-0.304879993200302,-1.88263392448425,-1.00610399246216,-1248.30004882812,5.70000028610229,-935.700012207031,-2.43807044705427,0.0860485909103826,0.0248581379584692,ST
5.5,1.10417187213898,-0.589170813560486,9.13543796539307,-0.167683988809586,-0.663114011287689,-0.487807989120483,-1250.70007324219,0.300000011920929,-947.700012207031,-2.44006944321631,0.112021253264742,0.0541584096573597,DLR
5.53333333333333,0.78775429725647,-0.678892254829407,9.14022254943848,-0.297257989645004,0.213415995240211,-0.777444005012512,-1245.90002441406,-0.900000035762787,-947.700012207031,-2.44012149807361,0.0934480481629611,0.0684053838963771,DLR
5.56666666666667,0.0628050118684769,-0.633433401584625,9.63967227935791,-0.274392008781433,0.0838419944047928,-0.640248000621796,-1241.10009765625,-0.900000035762787,-938.100036621094,-2.43887370378793,0.0326303474075128,0.0667474049203163,DLR
5.6,0.0592161528766155,-1.11434030532837,9.41835880279541,-0.297257989645004,0.884151995182037,-0.0838419944047928,-1236.30004882812,-2.10000014305115,-938.100036621094,-2.43941657718569,0.0131285294491105,0.102780372425407,DLR
5.63333333333333,-0.219518467783928,-0.820053994655609,10.2575540542603,-0.0990860015153885,0.518296003341675,-0.137196004390717,-1229.10009765625,-0.300000011920929,-942.900024414062,-2.43908176093094,-0.0115783527861795,0.0868212939118814,DLR
5.66666666666667,0.257799625396729,-0.945065915584564,9.89687347412109,0.419209986925125,-0.0838419944047928,0.0381099991500378,-1238.70007324219,5.10000038146973,-926.100036621094,-2.43916820005228,0.0147410754320234,0.0921720872816432,DLR
5.7,0.389989227056503,-0.60651695728302,9.20302772521973,0.495429992675781,-0.411587983369827,-0.0457319989800453,-1245.90002441406,-5.10000038146973,-942.900024414062,-2.4386758393845,0.0352296971766883,0.0724285213290387,DLR
5.73333333333333,0.429466664791107,-0.455186814069748,9.31727313995361,0.0990860015153885,-0.213415995240211,0.274392008781433,-1241.10009765625,0.300000011920929,-945.300048828125,-2.43853309289381,0.0432977088450586,0.0551921447974784,DLR
5.76666666666667,0.74050098657608,-0.460570096969604,9.0672492980957,-0.0076219998300075,-0.0609759986400604,0.731711983680725,-1243.5,-5.10000038146973,-942.900024414062,-2.43962664504143,0.0699516841357431,0.0521520963457029,DLR
5.8,1.10656452178955,-0.428868502378464,9.49013614654541,-0.213415995240211,-0.274392008781433,0.182927995920181,-1248.30004882812,3.30000019073486,-935.700012207031,-2.4395381524056,0.102442667624711,0.0475538001544863,DLR
5.83333333333333,0.788950562477112,-0.23925718665123,8.86986255645752,-0.137196004390717,-0.106707997620106,0.495429992675781,-1255.5,2.70000004768372,-940.500061035156,-2.43899122461274,0.0929322825784925,0.03338016289688,DLR
5.86666666666667,0.431859225034714,-0.769810020923615,9.81612396240234,-0.960371971130371,0.92988395690918,1.28811800479889,-1253.10009765625,11.7000007629395,-930.900024414062,-2.44355379648096,0.0567423470720462,0.0666869066879272,DLR
5.9,1.7304276227951,-1.31830716133118,10.3329200744629,-1.53964400291443,-0.525918006896973,0.731711983680725,-1250.70007324219,-2.70000004768372,-957.300048828125,-2.44880479845181,0.132699820836653,0.110562613788793,DLR
5.93333333333333,2.96798539161682,-1.40025269985199,10.1696271896362,-0.663114011287689,-1.69970595836639,-0.548784017562866,-1257.90002441406,3.30000019073486,-942.900024414062,-2.45174798823967,0.246429509452831,0.130877109212612,DLR
5.96666666666667,3.28500127792358,-1.00248765945435,9.24370193481445,0.983237981796265,-0.472563982009888,-2.35519790649414,-1262.70007324219,0.900000035762787,-938.100036621094,-2.44348069023937,0.312505948069821,0.113039392788654,DLR
6.0,3.71386981010437,-1.41999137401581,9.69051456451416,1.89787793159485,2.77440786361694,-6.85979986190796,-1248.30004882812,1.5,-950.100036621094,-2.43796648249693,0.346366995616934,0.130902140888389,DLR
6.03333333333333,5.94793367385864,-2.71556901931763,9.13184833526611,2.55336999893188,6.02900171279907,-14.2455177307129,-1238.70007324219,-2.10000014305115,-938.100036621094,-2.45425431453571,0.491189842920397,0.225189801278844,DLR
6.06666666666667,1.33266258239746,-1.23396897315979,9.05349159240723,6.12808799743652,10.343053817749,-29.580982208252,-1219.5,-5.70000028610229,-945.300048828125,-2.37790973826507,0.24431186875825,0.139589070379634,DLR
6.1,-1.58448076248169,-0.862522184848785,9.11928749084473,6.81406784057617,10.9528141021729,-26.8141956329346,-1200.30004882812,-13.5000009536743,-947.700012207031,-2.32717905822263,-0.0532352255619933,0.0971069913230057,DLR
6.13333333333333,-2.81904792785645,0.256005197763443,8.31478500366211,5.67076778411865,6.46345567703247,-26.3721199035645,-1173.90002441406,-15.3000001907349,-942.900024414062,-2.29244140904253,-0.254257233491441,0.0065159346047037,DLR
6.16666666666667,-2.97277045249939,0.254210770130157,9.21499061584473,3.87959790229797,2.72105383872986,-22.6525840759277,-1149.90002441406,-21.3000011444092,-942.900024414062,-2.25845043221303,-0.298137221604436,-0.0140454426248092,DLR
6.2,-2.34711313247681,0.212340757250786,10.0027446746826,1.36433792114258,0.480185985565186,-20.4650688171387,-1135.5,-14.7000007629395,-947.700012207031,-2.2237006781638,-0.251651003637715,-0.0138072247062294,DLR
6.23333333333333,-1.02641332149506,0.436046212911606,11.3826608657837,0.350611984729767,-1.39482593536377,-14.4818000793457,-1130.70007324219,-22.5,-950.100036621094,-2.20178366779365,-0.137253176118362,-0.0280905332101568,DLR
6.26666666666667,0.225499898195267,0.367857933044434,9.7898063659668,0.282013982534409,-1.79879200458527,-13.0183753967285,-1121.10009765625,-21.3000011444092,-959.700012207031,-2.1796881295252,-0.0235456533970911,-0.0338688621698424,DLR
6.3,-1.02282452583313,0.550291538238525,9.23173904418945,-0.160062000155449,-0.0381099991500378,-9.45127964019775,-1113.90002441406,-21.9000015258789,-942.900024414062,-2.16289514857058,-0.0879597534288305,-0.051836599169096,DLR
6.33333333333333,-0.509617805480957,0.26437920331955,8.72511196136475,-1.02134799957275,-0.160062000155449,-7.61437797546387,-1116.30004882812,-23.7000007629395,-952.500061035156,-2.14775540658123,-0.0666471039649803,-0.034163572496763,DLR
6.36666666666667,-0.645396292209625,0.236864611506462,9.64684963226318,-0.0914639979600906,-0.160062000155449,-3.52898597717285,-1099.5,-23.7000007629395,-947.700012207031,-2.14061948747262,-0.0666771701145733,-0.0266455167524733,DLR
6.4,-0.559861838817596,-0.179442897439003,9.03494930267334,-0.548784017562866,-0.190549999475479,-3.7728898525238,-1109.10009765625,-14.1000003814697,-945.300048828125,-2.13199551245405,-0.0631397533552443,0.0068504426517053,DLR
6.43333333333333,0.497056812047958,-0.174059599637985,9.60497951507568,0.144817993044853,-1.31098401546478,-2.33233189582825,-1104.30004882812,-16.5,-940.500061035156,-2.12780865366596,0.0187429182901011,0.0146074236979095,DLR
6.46666666666667,-0.304454773664474,0.01914057508111,10.4675016403198,0.800309956073761,-0.320124000310898,-3.66618180274963,-1089.90002441406,-18.9000015258789,-942.900024414062,-2.12126642744329,-0.0149020753882295,0.0019018712116547,DLR
6.5,-0.997702479362488,0.32239904999733,10.5267181396484,1.18140995502472,0.190549999475479,-3.49849796295166,-1092.30004882812,-24.3000011444092,-938.100036621094,-2.11617281988464,-0.0708034506017056,-0.0220432428295386,DLR
6.53333333333333,-0.590367138385773,0.091515876352787,9.85560131072998,-0.426831990480423,0.205793991684914,-2.75916385650635,-1099.5,-20.7000007629395,-947.700012207031,-2.11082306809535,-0.0634354972427552,-0.0123727937853797,DLR
6.56666666666667,-0.496458679437637,0.275145769119263,11.1541700363159,-0.525918006896973,-0.586893975734711,-2.81251788139343,-1097.10009765625,-16.5,-954.900024414062,-2.1061672418504,-0.0489912029452799,-0.0204285333918146,DLR
6.6,0.474925518035889,0.410924226045609,9.40041446685791,-0.121951997280121,-0.0990860015153885,-2.40092992782593,-1089.90002441406,-21.9000015258789,-952.500061035156,-2.101983057947,0.0231291690094083,-0.0371133123558715,DLR
6.63333333333333,-0.543711960315704,0.0029907147400081,9.37648963928223,-0.442075997591019,1.02897000312805,-2.86587190628052,-1085.10009765625,-15.3000001907349,-954.900024414062,-2.09692278260958,-0.0348727505115,-0.0108374429626057,DLR
6.66666666666667,-0.343334078788757,0.0119628589600325,9.20123291015625,-0.548784017562866,0.609759986400604,-2.10367202758789,-1089.90002441406,-17.7000007629395,-950.100036621094,-2.09306322473227,-0.0373296157869399,-0.0034048263235613,DLR
6.7,-0.576011657714844,0.009570287540555,9.24489784240723,-0.0381099991500378,0.518296003341675,-1.85214591026306,-1080.30004882812,-21.9000015258789,-947.700012207031,-2.08958936637894,-0.0560520656710899,-0.0015251065259476,DLR
6.73333333333333,-0.034094151109457,0.0699827298521996,9.15398025512695,0.236281991004944,-0.0076219998300075,-0.960371971130371,-1080.30004882812,-26.1000003814697,-942.900024414062,-2.08808544921325,-0.0194609264810399,-0.0060513689477189,DLR
6.76666666666667,-0.676499724388123,0.080151155591011,10.0176982879639,-0.617381989955902,-0.320124000310898,-0.602137982845306,-1082.70007324219,-18.3000011444092,-957.300048828125,-2.08709846646144,-0.0526103477413162,-0.0066308443958304,DLR
6.8,-0.0101684303954244,0.068188302218914,9.29693603515625,-0.792688012123108,-0.78506600856781,0.884151995182037,-1070.70007324219,-12.9000005722046,-945.300048828125,-2.08865187927726,-0.0156309420396668,-0.0061891542255588,DLR
6.83333333333333,0.0622068680822849,-0.23925718665123,9.61754035949707,-0.807931959629059,-0.327746003866196,0.350611984729767,-1080.30004882812,-15.3000001907349,-940.500061035156,-2.08913490073063,0.0008070608154664,0.0173601782225774,DLR
6.86666666666667,0.297277063131332,-0.434849947690964,9.44407939910889,-0.830797970294952,-1.21189796924591,0.777444005012512,-1092.30004882812,-18.3000011444092,-947.700012207031,-2.09087833135532,0.0245248643911516,0.039204008618744,DLR
6.9,-0.607713282108307,-0.229088753461838,9.2108039855957,-0.586893975734711,-0.792688012123108,0.525918006896973,-1087.5,-21.9000015258789,-950.100036621094,-2.09189757644512,-0.0376953967810718,0.0299065740323649,DLR
6.93333333333333,-0.194396466016769,-0.254210770130157,9.80475997924805,0.472563982009888,-0.731711983680725,1.47866797447205,-1080.30004882812,-14.1000003814697,-947.700012207031,-2.09480315761916,-0.0236167802558345,0.0263010564063718,DLR
6.96666666666667,-0.171068891882896,0.213537037372589,9.5924186706543,1.56251001358032,-0.823175966739655,1.33385002613068,-1092.30004882812,-21.9000015258789,-959.700012207031,-2.09782186879238,-0.0185803620254286,-0.0095857891653224,DLR
7.0,-0.0418700091540813,0.312828779220581,9.93276214599609,1.32622802257538,-0.731711983680725,0.0228659994900227,-1075.5,-23.1000003814697,-969.300048828125,-2.09803224718418,-0.0074346486073717,-0.0268378560806673,DLR
7.03333333333333,-0.135180309414864,0.457579374313354,9.64266300201416,1.53964400291443,-0.167683988809586,-0.899396002292633,-1094.70007324219,-15.3000001907349,-957.300048828125,-2.09651197464548,-0.0120287973443018,-0.0437043294527791,DLR
7.06666666666667,-0.653770267963409,0.668723821640015,10.0254745483398,1.34909391403198,-0.0990860015153885,-1.03659200668335,-1085.10009765625,-23.7000007629395,-950.100036621094,-2.0950635995799,-0.0510384762143173,-0.0622822012752095,DLR
7.1,-0.117834165692329,0.704014301300049,10.035044670105,1.02134799957275,-0.525918006896973,-0.37347799539566,-1092.30004882812,-20.7000007629395,-954.900024414062,-2.09453800891554,-0.0229335061131438,-0.0689388651401221,DLR
7.13333333333333,-0.310436189174652,0.37025049328804,9.70845890045166,-0.0,0.266770005226135,-1.12805593013763,-1082.70007324219,-18.3000011444092,-947.700012207031,-2.09205285544018,-0.0296403212354412,-0.0473524762866886,DLR
7.16666666666667,0.0753660127520561,0.0358885787427425,10.0643539428711,-0.0990860015153885,-0.0381099991500378,-1.72257196903229,-1092.30004882812,-17.1000003814697,-954.900024414062,-2.08856611610516,-0.0036993607152006,-0.0165803562987649,DLR
7.2,-0.1722651720047,0.0071777156554162,9.67197227478027,-0.3125019967556,0.190549999475479,-1.84452390670776,-1082.70007324219,-18.9000015258789,-952.500061035156,-2.08518674437472,-0.0140139586087047,-0.0048841679844572,DLR
7.23333333333333,-0.419896364212036,-0.415709376335144,10.1116065979004,-0.609759986400604,0.137196004390717,-1.35671591758728,-1089.90002441406,-16.5,-959.700012207031,-2.08208381353143,-0.0333607770231646,0.0280376308762665,DLR
7.26666666666667,-0.218920320272446,-0.713584542274475,8.56361293792725,-1.12043392658234,-0.121951997280121,0.282013982534409,-1087.5,-21.3000011444092,-942.900024414062,-2.08141778916261,-0.0276155529329407,0.0686726037652648,DLR
7.3,0.0257201474159956,-0.328978627920151,9.14560604095459,-0.754577994346619,-0.403965979814529,0.769822001457214,-1085.10009765625,-20.7000007629395,-940.500061035156,-2.0832670769687,-0.0050912793590669,0.045884069284117,DLR
7.33333333333333,-0.364269077777863,0.291295617818832,10.2533664703369,0.297257989645004,-0.701223969459534,0.823175966739655,-1082.70007324219,-22.5,-952.500061035156,-2.08551109918152,-0.0255172311274819,-0.0064033199328959,DLR
7.36666666666667,0.334960073232651,0.0071777156554162,8.86806774139404,-0.205793991684914,-1.17378795146942,1.34147191047668,-1085.10009765625,-18.3000011444092,-950.100036621094,-2.08802497844943,0.0226702793144714,-0.0020084834222244,DLR
7.4,0.480906963348389,0.119628593325615,10.2683200836182,-0.182927995920181,-1.74543797969818,0.846041977405548,-1094.70007324219,-21.9000015258789,-942.900024414062,-2.08932989389802,0.0423851917768102,-0.0087323810776085,DLR
7.43333333333333,0.525169551372528,0.0011962859425693,9.79459095001221,-0.0152439996600151,-0.87652999162674,1.6615959405899,-1087.5,-13.5000009536743,-947.700012207031,-2.09247382556391,0.051283521841664,-0.0025992962301107,DLR
7.46666666666667,0.515001118183136,0.130395174026489,10.1175880432129,0.0152439996600151,-0.815553963184357,2.01220798492432,-1094.70007324219,-16.5,-971.700012207031,-2.09557305892661,0.0519947364057858,-0.0096840094231043,DLR
7.5,0.174657747149467,-0.0358885787427425,9.86277961730957,-0.525918006896973,-0.213415995240211,1.76830399036407,-1085.10009765625,-19.5,-959.700012207031,-2.09918133340886,0.0274071504914745,0.0007309965445535,DLR
7.53333333333333,0.935495615005493,0.312230616807938,9.57148361206055,-0.236281991004944,-0.815553963184357,1.76830399036407,-1080.30004882812,-9.30000019073486,-945.300048828125,-2.10111862058665,0.0792041709320096,-0.022985057429909,DLR
7.56666666666667,1.26088535785675,0.186620607972145,8.95479869842529,-0.304879993200302,-0.205793991684914,1.22714197635651,-1101.90002441406,-24.3000011444092,-952.500061035156,-2.10337277609353,0.121881416382632,-0.0209653775139986,DLR
7.6,0.705210566520691,0.0945065915584564,10.2683200836182,0.160062000155449,-0.327746003866196,0.731711983680725,-1104.30004882812,-18.3000011444092,-954.900024414062,-2.10548864794575,0.0850249236422017,-0.0128386253844206,DLR
7.63333333333333,0.742295444011688,-0.351708054542542,10.3454809188843,-0.221037998795509,0.160062000155449,-0.160062000155449,-1097.10009765625,-18.3000011444092,-947.700012207031,-2.10782694106649,0.0754562562329489,0.0201599188678072,DLR
7.66666666666667,0.563450694084167,-0.28710862994194,9.47039794921875,0.388722002506256,-0.137196004390717,0.259148001670837,-1099.5,-12.9000005722046,-952.500061035156,-2.10879065369367,0.064389562393055,0.0268053102575729,DLR
7.7,-0.0059814294800162,-0.525169551372528,9.94891166687012,0.182927995920181,0.846041977405548,0.403965979814529,-1101.90002441406,-13.5000009536743,-950.100036621094,-2.11018933716458,0.0179156547802706,0.0447382384171838,DLR
7.73333333333333,0.0711790099740028,0.288903057575226,9.68513107299805,0.800309956073761,0.472563982009888,0.777444005012512,-1097.10009765625,-15.9000005722046,-966.900024414062,-2.11088926119772,0.0095079020570154,-0.0112764116791199,DLR
7.76666666666667,0.123217448592186,-0.0053832866251468,8.83576774597168,-0.121951997280121,0.685979962348938,0.403965979814529,-1099.5,-14.1000003814697,-947.700012207031,-2.11170732469405,0.0118191893574535,-0.0026512240730429,DLR
7.8,-0.365465342998505,-0.149535745382309,9.37110614776611,-0.518296003341675,0.510673999786377,0.160062000155449,-1089.90002441406,-18.3000011444092,-952.500061035156,-2.11189897502351,-0.0243155003102399,0.0109848399990779,DLR
7.83333333333333,-0.45638307929039,-0.539524972438812,9.77066516876221,-0.564027965068817,-0.0762199983000755,0.830797970294952,-1092.30004882812,-17.1000003814697,-954.900024414062,-2.11235527059658,-0.0398407483906859,0.0425163308734209,DLR
7.86666666666667,-0.07656230032444,-0.705210566520691,9.29813289642334,-0.0,-0.3125019967556,1.22714197635651,-1089.90002441406,-15.3000001907349,-950.100036621094,-2.11383661202599,-0.0174340680372252,0.0656795429390959,DLR
7.9,-0.26437920331955,-0.69564026594162,9.97762298583984,-0.0685980021953583,-0.663114011287689,1.2576299905777,-1092.30004882812,-16.5,-966.900024414062,-2.11622700336003,-0.0233257742793343,0.0686307627748258,DLR
7.93333333333333,-0.142956167459488,-0.0675901547074318,10.6146450042725,1.00610399246216,-1.13567793369293,1.6615959405899,-1099.5,-13.5000009536743,-959.700012207031,-2.12001793943878,-0.0151434501654385,0.0238408247949069,DLR
7.96666666666667,0.395970642566681,0.300267785787582,9.52363204956055,0.846041977405548,-1.13567793369293,1.60824191570282,-1089.90002441406,-24.9000015258789,-957.300048828125,-2.12266564510565,0.0266357240774369,-0.016607575033725,DLR
8.0,-0.0065795728005468,-0.130395174026489,9.49492168426514,-0.861285984516144,-0.228659987449646,1.87501192092896,-1097.10009765625,-17.1000003814697,-969.300048828125,-2.12625747583204,0.007820713768991,0.0056917778342857,DLR
8.03333333333333,-0.29009935259819,-0.361876487731934,10.4549407958984,-0.899396002292633,-0.0457319989800453,2.72105383872986,-1109.10009765625,-13.5000009536743,-957.300048828125,-2.13086445385662,-0.0170277366713646,0.0269732316857744,DLR
8.06666666666667,0.272155046463013,-0.183031752705574,10.018895149231,-0.266770005226135,-0.106707997620106,2.52288198471069,-1099.5,-19.5,-954.900024414062,-2.13523669162244,0.0139131304340613,0.0212149586478885,DLR
8.1,0.449803501367569,-0.0472532957792282,10.0769147872925,0.0990860015153885,-0.564027965068817,1.17378795146942,-1113.90002441406,-17.1000003814697,-940.500061035156,-2.13699323350228,0.0360402624559985,0.0095818901535363,DLR
8.13333333333333,0.480308800935745,0.433055520057678,8.82799243927002,0.365855991840363,0.274392008781433,0.434453994035721,-1111.5,-14.1000003814697,-950.100036621094,-2.13598477603231,0.0491747734730407,-0.0340811556706568,DLR
8.16666666666667,0.105871304869652,0.113647162914276,9.29693603515625,-0.327746003866196,0.602137982845306,-1.00610399246216,-1106.70007324219,-16.5,-954.900024414062,-2.13481195937322,0.0219869809482442,-0.0184354521912365,DLR
8.2,-0.256603330373764,0.187816888093948,10.210898399353,0.327746003866196,0.396344006061554,-1.73019397258759,-1113.90002441406,-15.3000001907349,-959.700012207031,-2.13174714334294,-0.0121112634356413,-0.0188190491407519,DLR
8.23333333333333,-0.506028950214386,0.51739364862442,10.8993616104126,0.975615978240967,0.358233988285065,-1.94360995292664,-1097.10009765625,-16.5,-954.900024414062,-2.12888351379322,-0.0365594942955391,-0.0399523287711436,DLR
8.26666666666667,-0.186022460460663,0.736313998699188,9.83705902099609,0.830797970294952,-0.0228659994900227,-1.78354799747467,-1101.90002441406,-21.3000011444092,-945.300048828125,-2.12627791102582,-0.0235985795717049,-0.0666074841037911,DLR
8.3,-0.316417634487152,0.0807493031024933,9.0193977355957,-0.457319974899292,1.14329993724823,-1.85214591026306,-1099.5,-14.7000007629395,-947.700012207031,-2.12168215305122,-0.0336447458188902,-0.0234125285547986,DLR
8.33333333333333,-0.372044920921326,0.39238178730011,9.74853420257568,0.144817993044853,0.236281991004944,-1.00610399246216,-1089.90002441406,-20.7000007629395,-947.700012207031,-2.12036863697984,-0.0370969933455227,-0.0353043165408504,DLR
8.36666666666667,-1.05033910274506,-0.263182908296585,8.608473777771,-0.83841997385025,0.746955990791321,0.106707997620106,-1104.30004882812,-16.5,-947.700012207031,-2.11751731430922,-0.0969277151155593,0.0116343307717858,DLR
8.4,-0.939084470272064,-0.522776961326599,9.84064769744873,-1.04421401023865,0.403965979814529,-0.0228659994900227,-1085.10009765625,-14.1000003814697,-938.100036621094,-2.11471916733295,-0.0960961849198326,0.0418900519613143,DLR
8.43333333333333,-0.224303618073463,-0.534141659736633,9.36392784118652,-0.221037998795509,-0.769822001457214,0.434453994035721,-1104.30004882812,-20.7000007629395,-957.300048828125,-2.11479698120334,-0.0447243891871827,0.0526932507152054,DLR
8.46666666666667,-0.831418752670288,-1.11912548542023,9.35914325714111,-0.777444005012512,-0.586893975734711,0.3125019967556,-1094.70007324219,-23.7000007629395,-950.100036621094,-2.11263022104752,-0.074858737242418,0.100824077932602,DLR
8.5,-0.592759668827057,-0.558067381381989,10.5279140472412,0.503051996231079,-1.46342396736145,0.213415995240211,-1113.90002441406,-18.9000015258789,-964.500061035156,-2.11545470963099,-0.0600441732850658,0.0667095773757341,DLR
8.53333333333333,-0.394176214933395,-0.0334960073232651,9.89866828918457,0.525918006896973,-1.2423859834671,0.144817993044853,-1101.90002441406,-12.3000001907349,-950.100036621094,-2.11810416790712,-0.0444045783546647,0.0217766337071916,DLR
8.56666666666667,0.278136491775513,0.473131090402603,9.50808048248291,0.556405961513519,-1.44817996025085,0.457319974899292,-1094.70007324219,-13.5000009536743,-952.500061035156,-2.11978977525031,0.0098138928556901,-0.0298338726615016,DLR
8.6,-0.113049022853374,-0.156713455915451,9.70367336273193,-0.137196004390717,0.0228659994900227,0.0228659994900227,-1099.5,-15.3000001907349,-966.900024414062,-2.11989912472169,-0.0057818033104181,0.0036888841385587,DLR
8.63333333333333,-0.0400755777955055,-0.168078169226646,9.93156623840332,-0.0228659994900227,0.0762199983000755,-0.823175966739655,-1087.5,-15.3000001907349,-947.700012207031,-2.11829567174677,-0.0045808604650469,0.0134884572641625,DLR
8.66666666666667,-0.275743901729584,0.596348524093628,9.96087455749512,0.846041977405548,-0.0533539988100529,-1.60061991214752,-1104.30004882812,-15.3000001907349,-959.700012207031,-2.11617157909679,-0.0206673026914168,-0.0387429039066645,DLR
8.7,-0.275743901729584,0.724351167678833,9.42254638671875,0.320124000310898,0.129574000835419,-1.75305998325348,-1099.5,-12.3000001907349,-964.500061035156,-2.11378413966973,-0.0268905413063243,-0.0656382057664659,DLR
8.73333333333333,-0.279930919408798,0.107067592442036,8.80885124206543,-0.503051996231079,0.0457319989800453,-1.37195992469788,-1101.90002441406,-17.7000007629395,-959.700012207031,-2.10998649533783,-0.0306926015745742,-0.0248181030259961,DLR
8.76666666666667,-0.702817976474762,-0.35110992193222,9.65881252288818,-0.708845973014832,0.327746003866196,-1.53202199935913,-1092.30004882812,-12.9000005722046,-957.300048828125,-2.10515126211278,-0.061513541039018,0.0204966221051879,DLR
8.8,-0.560459971427917,-0.0071777156554162,10.3777809143066,0.106707997620106,-0.533540010452271,-2.12653803825378,-1094.70007324219,-17.1000003814697,-964.500061035156,-2.10219796980207,-0.0554319472609663,0.006402528925563,DLR
8.83333333333333,0.0963010191917419,0.1214230209589,9.79459095001221,0.282013982534409,-1.27287399768829,-2.23324584960938,-1089.90002441406,-14.1000003814697,-952.500061035156,-2.09875207959716,-0.0082510585300611,-0.007009305680332,DLR
8.86666666666667,0.723752975463867,0.0412718653678894,10.075119972229,0.0228659994900227,-0.6250039935112,-2.75916385650635,-1087.5,-15.9000005722046,-964.500061035156,-2.09387257316213,0.0494702888815336,-0.0050498608922137,DLR
8.9,0.296080768108368,0.370848655700684,9.17730808258057,0.495429992675781,0.289635986089706,-1.95123195648193,-1085.10009765625,-15.3000001907349,-966.900024414062,-2.08921385794767,0.0365491778198475,-0.0314216246218363,DLR
8.93333333333333,0.0466551519930363,-0.385204076766968,10.7049646377563,-0.503051996231079,0.800309956073761,-2.21800184249878,-1080.30004882812,-13.5000009536743,-959.700012207031,-2.08634595222218,0.0121861160753075,0.0180354398154655,DLR
8.96666666666667,0.581394970417023,-0.099889874458313,9.24729061126709,0.114329993724823,0.121951997280121,-1.57775402069092,-1097.10009765625,-14.1000003814697,-954.900024414062,-2.08346547267775,0.0474466495709648,0.0127797803515818,DLR
9.0,0.386400371789932,-1.08682572841644,7.54019021987915,-0.967993974685669,0.525918006896973,-0.556405961513519,-1082.70007324219,-9.30000019073486,-952.500061035156,-2.08683697355847,0.0492167856438103,0.104977416812343,DLR
9.03333333333333,0.585581958293915,-0.818857729434967,9.16594314575195,0.221037998795509,-0.0304879993200302,0.739333987236023,-1085.10009765625,-12.3000001907349,-954.900024414062,-2.08754524332904,0.0593767945483851,0.0934445936073301,DLR
9.06666666666667,0.150133892893791,-0.846372306346893,9.57148361206055,0.46494197845459,0.571649968624115,1.05183601379395,-1080.30004882812,-12.3000001907349,-957.300048828125,-2.08921785835128,0.0268045363165272,0.0891025287518758,DLR
9.1,0.282323479652405,-0.208751901984215,9.49970626831055,0.731711983680725,0.160062000155449,1.32622802257538,-1077.90002441406,-23.7000007629395,-962.100036621094,-2.090330800676,0.0286535467072559,0.0386893855801023,DLR
9.13333333333333,-0.285314202308655,-0.575413525104523,9.52542686462402,-0.243903994560242,0.419209986925125,1.98934197425842,-1089.90002441406,-9.90000057220459,-957.300048828125,-2.09414440320081,-0.0151857922130093,0.054978503887857,DLR
9.16666666666667,-0.147741317749023,-0.107067592442036,10.3969211578369,0.739333987236023,-0.304879993200302,3.42989993095398,-1077.90002441406,-15.9000005722046,-959.700012207031,-2.10110266405756,-0.014230615703267,0.0210060794414884,DLR
9.2,-0.034094151109457,-0.494066089391708,10.3556489944458,-0.0152439996600151,0.0381099991500378,2.78965187072754,-1094.70007324219,-9.90000057220459,-954.900024414062,-2.10600932914619,-0.0064577284402859,0.0403301884654251,DLR
9.23333333333333,-0.0634031519293785,-0.498851239681244,9.84782600402832,-0.282013982534409,-0.327746003866196,1.96647596359253,-1077.90002441406,-7.50000047683716,-957.300048828125,-2.10948625144778,-0.0061400284097398,0.0479904793330646,DLR
9.26666666666667,0.608909547328949,0.468944102525711,8.34349632263184,1.05945801734924,-0.792688012123108,1.78354799747467,-1092.30004882812,-8.70000076293945,-947.700012207031,-2.11100242584619,0.0499555380848482,-0.0259113255709214,DLR
9.3,0.0556272976100445,0.253612607717514,8.22207355499268,0.518296003341675,0.655492007732391,1.21951997280121,-1094.70007324219,-11.7000007629395,-954.900024414062,-2.11322491852044,0.0172915947688473,-0.0301648943824081,DLR
9.33333333333333,-0.776987731456757,-0.380418926477432,9.64744758605957,-0.731711983680725,1.51677799224854,0.586893975734711,-1104.30004882812,-11.1000003814697,-962.100036621094,-2.11340176915046,-0.0527602683560882,0.0192638019385257,DLR
9.36666666666667,-0.192602038383484,-0.34811919927597,10.9089317321777,-0.160062000155449,0.533540010452271,-0.381099998950958,-1085.10009765625,-8.70000076293945,-959.700012207031,-2.11226518587829,-0.0271122765384435,0.0289738205678186,DLR
9.4,-0.562852561473846,-0.506627082824707,10.0799055099487,-0.121951997280121,0.937505960464478,-1.47866797447205,-1089.90002441406,-17.1000003814697,-952.500061035156,-2.10881804343435,-0.04934983010829,0.0448811842598798,DLR
9.43333333333333,0.188415035605431,-0.482103228569031,10.4842500686646,0.0914639979600906,0.0152439996600151,-1.57775402069092,-1080.30004882812,-9.30000019073486,-957.300048828125,-2.10590583709828,-0.0004640532021565,0.0455903125099404,DLR
9.46666666666667,-0.604722559452057,-0.0592161528766155,9.39802265167236,0.289635986089706,0.87652999162674,-2.39330792427063,-1094.70007324219,-12.9000005722046,-954.900024414062,-2.10235619215517,-0.0460504063337093,0.0178679927120011,DLR
9.5,-0.332567483186722,-0.0592161528766155,8.15567970275879,0.160062000155449,0.37347799539566,-0.274392008781433,-1063.5,-15.9000005722046,-962.100036621094,-2.10218942356993,-0.0427367949325642,0.0101258405161827,DLR
9.53333333333333,-0.999496877193451,-0.392979919910431,8.92788219451904,-0.167683988809586,-0.114329993724823,0.564027965068817,-1068.30004882812,-10.5,-971.700012207031,-2.10159923028993,-0.0905996389462838,0.0339128776784658,DLR
9.56666666666667,-1.78784930706024,-0.472532957792282,10.2713108062744,0.846041977405548,-1.16616594791412,2.09605002403259,-1075.5,-11.7000007629395,-942.900024414062,-2.10427026190349,-0.146264530589241,0.0409653343956832,DLR
9.6,-0.259594053030014,-0.446812808513641,9.94951057434082,1.17378795146942,-3.42227792739868,8.6281042098999,-1063.5,-13.5000009536743,-947.700012207031,-2.12040546708163,-0.0537364649072344,0.041335836636185,DLR
9.63333333333333,-1.99420869350433,0.0305052921175957,9.78262805938721,0.487807989120483,-3.46038794517517,13.5061836242676,-1099.5,-9.90000057220459,-945.300048828125,-2.14950408661542,-0.158136657706112,0.006206841117557,DLR
9.66666666666667,-2.9081711769104,0.342137783765793,9.21199989318848,-0.907018005847931,-4.77137184143066,20.312629699707,-1104.30004882812,-14.1000003814697,-942.900024414062,-2.19353076829629,-0.258417904349689,-0.0292169886925427,DLR
9.7,-2.575603723526,-0.677097856998444,8.41048812866211,-2.36281991004944,-5.0686297416687,29.7029342651367,-1123.5,-15.3000001907349,-954.900024414062,-2.22570516888139,-0.279375988459375,0.0396793420147758,DLR
9.73333333333333,2.01574182510376,-1.70710003376007,9.42792987823486,-1.94360995292664,-3.14788603782654,28.7730503082275,-1154.70007324219,-11.1000003814697,-952.500061035156,-2.26492293684037,0.0556535367372918,0.135464521191302,DLR
9.76666666666667,1.76571810245514,-0.924130916595459,9.3896484375,-1.18140995502472,-3.3613018989563,21.737943649292,-1173.90002441406,-10.5,-954.900024414062,-2.30033675343079,0.146716672622274,0.113872400567387,DLR
9.8,1.04017066955566,-0.887046039104462,9.13065242767334,-1.48628997802734,-2.64483404159546,19.0168895721436,-1176.30004882812,-13.5000009536743,-935.700012207031,-2.33182725989675,0.12375999097237,0.106926493106285,DLR
9.83333333333333,1.27165198326111,-1.33326065540314,12.8349523544312,-1.89025592803955,-0.960371971130371,15.2363777160645,-1202.70007324219,-6.30000019073486,-962.100036621094,-2.35781099526065,0.105082552447538,0.108956558674319,DLR
9.86666666666667,1.58208811283112,-0.820053994655609,9.29633808135986,-1.05183601379395,-2.9420919418335,12.7973375320435,-1190.70007324219,-5.70000028610229,-959.700012207031,-2.37848422269106,0.150959273851566,0.0977221813262473,DLR
9.9,1.99839568138123,-1.19568777084351,9.37708759307861,-3.01831197738647,0.716467976570129,9.87049007415771,-1185.90002441406,-5.70000028610229,-950.100036621094,-2.39860117392656,0.18884092947657,0.123736086398034,DLR
9.93333333333333,0.815268874168396,-1.10835897922516,10.8820152282715,-2.36281991004944,1.11281192302704,8.73481178283691,-1185.90002441406,-3.90000009536743,-952.500061035156,-2.41250233826548,0.100349131300649,0.111663642980473,DLR
9.96666666666667,1.29318511486053,-1.07665729522705,9.33641338348389,-1.38720393180847,0.205793991684914,6.92077589035034,-1197.90002441406,8.10000038146973,-959.700012207031,-2.42454683353567,0.124569220736922,0.116509450836365,DLR
10.0,-0.833213150501251,-0.501243829727173,8.79150581359863,-0.228659987449646,0.0609759986400604,6.15095376968384,-1202.70007324219,5.70000028610229,-954.900024414062,-2.43309126887512,-0.0287389789666165,0.0756567621064098,DLR
10.0333333333333,-0.788950562477112,-1.17535090446472,8.82081413269043,-1.36433792114258,2.17227005958557,6.3719916343689,-1190.70007324219,-3.90000009536743,-957.300048828125,-2.44197183793079,-0.074708034000378,0.117356829484241,DLR
10.0666666666667,-0.939682602882385,-1.01145970821381,9.07502555847168,-1.42531394958496,2.17989206314087,4.83234786987305,-1200.30004882812,-1.5,-952.500061035156,-2.45027889187725,-0.0974904099669236,0.114173402178373,DLR
10.1,-1.94635725021362,-1.24712812900543,10.0834941864014,-0.762199997901917,1.14329993724823,4.01679372787476,-1200.30004882812,2.70000004768372,-957.300048828125,-2.456394992103,-0.164822777353109,0.120804819049987,DLR
10.1333333333333,-0.166283741593361,-1.11194777488708,9.38067626953125,-0.884151995182037,-0.647870004177094,4.22258806228638,-1190.70007324219,5.10000038146973,-964.500061035156,-2.46406429963587,-0.0618445798320642,0.119415836950319,DLR
10.1666666666667,0.23925718665123,-0.558067381381989,10.1606550216675,0.655492007732391,-2.34757590293884,2.65245604515076,-1197.90002441406,3.30000019073486,-950.100036621094,-2.47040110766078,0.0003491550095143,0.0734226549412952,DLR
10.2,0.756650865077972,-0.391185492277145,8.41347885131836,0.602137982845306,-1.65397393703461,4.20734405517578,-1209.90002441406,2.10000014305115,-954.900024414062,-2.47724048095917,0.0644091893651335,0.0540698133447011,DLR
10.2333333333333,0.636424124240875,-0.761435985565186,9.71563625335693,-0.190549999475479,0.182927995920181,4.08539199829102,-1197.90002441406,10.5,-962.100036621094,-2.48535083530036,0.0644365423481695,0.0714982828185074,DLR
10.2666666666667,0.231481328606606,-1.06888151168823,10.0661478042603,0.533540010452271,1.6692179441452,1.00610399246216,-1202.70007324219,8.70000076293945,-959.700012207031,-2.4880361987455,0.0332521122192784,0.0948854056000613,DLR
10.3,-0.0592161528766155,-1.01923561096191,9.98719310760498,0.266770005226135,1.05945801734924,-1.57775402069092,-1193.10009765625,8.10000038146973,-964.500061035156,-2.48524009346775,0.0047784982951148,0.0992937951104162,DLR
10.3333333333333,0.221312895417213,-0.802109718322754,9.60497951507568,0.0076219998300075,-1.40244793891907,-3.75002384185791,-1197.90002441406,5.10000038146973,-962.100036621094,-2.47887957884742,0.0196245535136391,0.0880560208002069,DLR
10.3666666666667,0.24882747232914,-0.809885561466217,8.75142955780029,0.282013982534409,-0.510673999786377,-2.94971394538879,-1202.70007324219,5.10000038146973,-947.700012207031,-2.47380093318163,0.0267702262996933,0.0906308896676456,DLR
10.4,0.580198705196381,-1.00129127502441,9.05050086975098,-0.0228659994900227,-0.358233988285065,-2.23324584960938,-1195.5,3.30000019073486,-945.300048828125,-2.47056231174738,0.0532491602206838,0.104217680893647,DLR
10.4333333333333,-1.11852741241455,-1.33146619796753,9.63488674163818,-0.137196004390717,1.54726600646973,-2.00458598136902,-1200.30004882812,5.10000038146973,-957.300048828125,-2.4666731402947,-0.0654024936774114,0.127547017538875,DLR
10.4666666666667,-0.48150509595871,-1.58627510070801,10.1606550216675,-0.236281991004944,0.922261953353882,-2.30184388160706,-1197.90002441406,3.30000019073486,-942.900024414062,-2.46138707610933,-0.0531193805650716,0.147122244467564,DLR
10.5,-0.345128506422043,-1.5121054649353,9.95908069610596,0.579271972179413,-0.853663980960846,-2.77440786361694,-1193.10009765625,4.5,-954.900024414062,-2.4564520333265,-0.0378409320503125,0.149120928298784,DLR
10.5333333333333,-1.96310520172119,-1.08323693275452,7.05210542678833,0.442075997591019,1.27287399768829,-2.16464805603027,-1197.90002441406,8.10000038146973,-947.700012207031,-2.4521024981868,-0.19968109184186,0.151430108917739,ST
10.5666666666667,-0.973776757717133,-1.26626861095428,8.96197605133057,0.0533539988100529,0.685979962348938,-0.358233988285065,-1183.5,8.10000038146973,-957.300048828125,-2.45258120453218,-0.131139812651591,0.143171522911416,ST
10.6,-1.64489316940308,-1.5001425743103,10.7408533096313,0.899396002292633,1.2423859834671,-0.731711983680725,-1185.90002441406,2.10000014305115,-959.700012207031,-2.45125632781116,-0.146895096829267,0.138931734541748,ST
10.6333333333333,-0.334361910820007,-1.54859220981598,11.8587827682495,0.777444005012512,-1.20427596569061,-0.411587983369827,-1193.10009765625,3.30000019073486,-962.100036621094,-2.45142849258829,-0.0590771551983971,0.131441362525327,ST
10.6666666666667,0.982748925685883,-1.09878861904144,10.2934427261353,1.09756803512573,-1.97409796714783,-1.2576299905777,-1190.70007324219,6.90000009536743,-969.300048828125,-2.44974103575415,0.0508837945364408,0.112670944289286,ST
10.7,0.727341830730438,-0.963010191917419,9.93395805358887,1.2500079870224,0.907018005847931,0.945127964019775,-1202.70007324219,2.10000014305115,-962.100036621094,-2.45064952735993,0.0654771206087528,0.0995290259336059,ST
10.7333333333333,-0.292491912841797,-0.809287428855896,8.60368824005127,1.15092194080353,2.69818782806396,1.27287399768829,-1188.30004882812,6.90000009536743,-964.500061035156,-2.45229610140821,-0.0073413500463881,0.0941632997967038,ST
10.7666666666667,0.559263706207275,-1.03717994689941,8.2621488571167,0.586893975734711,1.75305998325348,-0.0304879993200302,-1185.90002441406,8.70000076293945,-962.100036621094,-2.45231059318057,0.0425430363683215,0.114904767374441,ST
10.8,-1.00607645511627,-0.922336459159851,8.63897895812988,0.640248000621796,0.266770005226135,0.0,-1183.5,4.5,-954.900024414062,-2.45234986089917,-0.0720945406135005,0.107983395615882,ST
10.8333333333333,-1.02282452583313,-0.904392182826996,8.52772426605225,0.777444005012512,1.01372599601746,0.739333987236023,-1173.90002441406,0.900000035762787,-966.900024414062,-2.45354796401278,-0.106009433906642,0.105348139131537,ST
10.8666666666667,-0.910373628139496,-0.899607002735138,10.175009727478,0.92988395690918,0.449698001146317,1.06708002090454,-1181.10009765625,2.10000014305115,-969.300048828125,-2.45667678594203,-0.0940896679559831,0.0913515716993654,ST
10.9,-1.19030451774597,-0.762632310390472,10.6577110290527,0.899396002292633,0.434453994035721,0.602137982845306,-1173.90002441406,1.5,-954.900024414062,-2.4590007772053,-0.106467272402032,0.0762673766280753,ST
10.9333333333333,-0.739304721355438,-0.855942606925964,10.3586397171021,0.457319974899292,-0.670735955238342,0.670735955238342,-1181.10009765625,-0.300000011920929,-962.100036621094,-2.45985016246386,-0.0804392870053103,0.0800241339650417,ST
10.9666666666667,-0.873288750648499,-0.655564725399017,8.88302135467529,0.701223969459534,-0.701223969459534,0.716467976570129,-1183.5,-2.10000014305115,-952.500061035156,-2.46153309804265,-0.0917439627387788,0.074644329496206,ST
11.0,-0.909177303314209,-0.389989227056503,9.75451564788818,0.967993974685669,-0.685979962348938,0.769822001457214,-1185.90002441406,5.70000028610229,-971.700012207031,-2.46527711345146,-0.0917593880214599,0.0481697407100835,ST
11.0333333333333,-0.568235814571381,-0.276940196752548,8.84593677520752,0.556405961513519,-0.823175966739655,0.830797970294952,-1185.90002441406,-3.30000019073486,-974.100036621094,-2.46783038310866,-0.0707138054308093,0.035133992688131,ST
11.0666666666667,-0.194396466016769,-0.479710668325424,9.16594314575195,-0.0381099991500378,-0.495429992675781,0.663114011287689,-1190.70007324219,6.30000019073486,-964.500061035156,-2.46837391374902,-0.0355134147677509,0.0471423001717823,ST
11.1,-0.51440292596817,-0.733323276042938,9.84603118896484,-0.0381099991500378,-0.769822001457214,0.144817993044853,-1178.70007324219,1.5,-954.900024414062,-2.46792180845647,-0.0461532067869085,0.0661922730395952,ST
11.1333333333333,-0.96958976984024,-1.03538548946381,9.89866828918457,-0.0762199983000755,-0.266770005226135,0.0076219998300075,-1193.10009765625,4.5,-966.900024414062,-2.46616378662746,-0.0834100708794308,0.0943146879876317,ST
11.1666666666667,-0.817661464214325,-0.937888205051422,10.3089942932129,0.0304879993200302,-1.12805593013763,-1.01372599601746,-1188.30004882812,3.30000019073486,-959.700012207031,-2.46480105692667,-0.0787185146839273,0.0918587484059275,ST
11.2,0.361876487731934,-0.849363029003143,10.2922458648682,0.175305992364883,-2.45428395271301,-1.2423859834671,-1176.30004882812,-0.900000035762787,-959.700012207031,-2.46328190090621,0.0038909020374232,0.0850652390415219,ST
11.2333333333333,-0.105871304869652,-0.382213354110718,8.75621509552002,0.670735955238342,-1.18140995502472,-0.617381989955902,-1190.70007324219,2.70000004768372,-954.900024414062,-2.46239403124751,-0.0057851593397198,0.0552727368922966,ST
11.2666666666667,-0.0968991592526436,-0.643601834774017,8.82260894775391,-0.0914639979600906,1.37958192825317,-0.0457319989800453,-1190.70007324219,5.10000038146973,-962.100036621094,-2.46206797280979,-0.0110759278573428,0.0676553413572886,ST
11.3,-0.544908225536346,-0.537730515003204,8.52951908111572,-0.266770005226135,1.31860601902008,-0.907018005847931,-1195.5,3.30000019073486,-962.100036621094,-2.46045403035294,-0.0493805252716509,0.0647442003625041,ST
11.3333333333333,-1.82014906406403,-1.03060030937195,9.34060096740723,-0.693601965904236,1.56251001358032,-1.2576299905777,-1183.5,6.30000019073486,-964.500061035156,-2.45464025718409,-0.154052022772644,0.0983994416253012,ST
11.3666666666667,-1.60541570186615,-1.31950342655182,10.1648416519165,-0.602137982845306,1.19665396213531,-1.05945801734924,-1171.5,-6.30000019073486,-964.500061035156,-2.44919319559371,-0.156334129508232,0.121246891587071,ST
11.4,-0.225499898195267,-1.26267981529236,11.5052804946899,-0.518296003341675,-1.57013201713562,-1.57013201713562,-1183.5,-0.900000035762787,-964.500061035156,-2.44774542605901,-0.0585865655807881,0.113755622093573,ST
11.4333333333333,-0.86192399263382,-1.26626861095428,9.83885383605957,-0.190549999475479,-0.967993974685669,-0.685979962348938,-1181.10009765625,-4.5,-959.700012207031,-2.44592409199878,-0.0782811281986738,0.124732844213644,ST
11.4666666666667,0.518589973449707,-1.26447427272797,10.1002426147461,-0.426831990480423,-0.411587983369827,0.37347799539566,-1176.30004882812,-2.10000014305115,-966.900024414062,-2.44668948657161,0.014139056832957,0.125170714608047,ST
11.5,0.69564026594162,-1.33744764328003,9.35854530334473,-0.259148001670837,-0.37347799539566,-0.129574000835419,-1181.10009765625,-2.10000014305115,-954.900024414062,-2.44695901145802,0.0560780799612295,0.137213235474836,ST
11.5333333333333,0.0478514358401299,-1.09998488426208,8.85670280456543,0.457319974899292,-0.487807989120483,0.525918006896973,-1190.70007324219,5.70000028610229,-954.900024414062,-2.44766832598387,0.0198226225365714,0.126765426087292,ST
11.5666666666667,0.847568571567535,-1.13946235179901,8.31777572631836,0.121951997280121,-0.0990860015153885,0.83841997385025,-1171.5,0.900000035762787,-954.900024414062,-2.44960623770132,0.0794010225594419,0.133590483409112,ST
11.6,0.0047851437702775,-1.29856836795807,8.84174919128418,-0.0076219998300075,0.0914639979600906,1.00610399246216,-1188.30004882812,7.50000047683716,-952.500061035156,-2.45191279814695,0.0209485382276164,0.142708119746975,ST
11.6333333333333,-0.744687974452972,-2.01394748687744,9.28078651428223,-0.137196004390717,1.93598794937134,0.87652999162674,-1190.70007324219,2.10000014305115,-962.100036621094,-2.45212450458353,-0.0508311672052214,0.192435544231692,ST
11.6666666666667,-0.709397554397583,-2.61448287963867,10.7779378890991,-1.45580196380615,0.274392008781433,-0.0685980021953583,-1190.70007324219,0.900000035762787,-964.500061035156,-2.45018328904789,-0.0602687541552796,0.226056338009229,ST
11.7,-1.35838270187378,-2.74128913879395,10.4202489852905,-0.129574000835419,-0.922261953353882,-0.541162014007568,-1183.5,0.900000035762787,-966.900024414062,-2.44785860853665,-0.104542785735779,0.248025038701856,ST
11.7333333333333,-1.80579364299774,-1.93259990215302,9.72879505157471,1.2500079870224,-0.129574000835419,0.152439996600151,-1197.90002441406,7.50000047683716,-959.700012207031,-2.45280720345975,-0.157276685554202,0.210344617830846,ST
11.7666666666667,-0.715977132320404,-1.33924210071564,9.70726203918457,1.28049600124359,-1.31098401546478,1.14329993724823,-1181.10009765625,6.30000019073486,-957.300048828125,-2.46159807533736,-0.0970477780978325,0.157285568257793,ST
11.8,0.114245310425758,-0.648985147476196,8.45355415344238,1.47104597091675,-1.73781597614288,1.44055795669556,-1183.5,2.10000014305115,-954.900024414062,-2.46785079304596,-0.0149842837045018,0.096847996507087,ST
11.8333333333333,-0.0376830063760281,-1.03299295902252,9.93395805358887,0.78506600856781,-0.541162014007568,1.15854394435883,-1193.10009765625,5.10000038146973,-959.700012207031,-2.46987840285451,-0.0066280297600875,0.100605439473025,ST
11.8666666666667,0.0478514358401299,-1.04854464530945,10.0906715393066,0.533540010452271,-0.853663980960846,0.739333987236023,-1190.70007324219,2.10000014305115,-957.300048828125,-2.47129257127448,0.0022493926534615,0.102005166877649,ST
11.9,-0.295482635498047,-1.14544379711151,9.6043815612793,0.46494197845459,0.190549999475479,0.952749967575073,-1188.30004882812,0.300000011920929,-959.700012207031,-2.47282764981558,-0.0214710112941582,0.113310389905531,ST
11.9333333333333,-0.436644375324249,-1.33625137805939,10.0793075561523,0.419209986925125,0.868907988071442,1.34909391403198,-1185.90002441406,4.5,-950.100036621094,-2.47457745381204,-0.0377154846661633,0.125682491118037,ST
11.9666666666667,-0.44023323059082,-1.36376595497131,8.72092437744141,0.106707997620106,1.42531394958496,0.495429992675781,-1183.5,6.30000019073486,-976.500061035156,-2.4742126597627,-0.0479955114343656,0.146118034360351,ST
12.0,-1.5802937746048,-1.35419571399689,9.74494552612305,0.0076219998300075,1.21951997280121,0.304879993200302,-1181.10009765625,-0.900000035762787,-954.900024414062,-2.47491923030893,-0.127250738634403,0.14055100576594,ST
12.0333333333333,-0.724351167678833,-1.52945160865784,10.4316129684448,0.403965979814529,0.846041977405548,0.952749967575073,-1190.70007324219,9.90000057220459,-974.100036621094,-2.47594251476278,-0.0874310604102167,0.143488086522126,ST
12.0666666666667,-0.198583468794823,-1.16817319393158,10.2892551422119,0.792688012123108,-0.266770005226135,0.952749967575073,-1176.30004882812,2.70000004768372,-971.700012207031,-2.47895735661898,-0.0395431387240924,0.121164816180044,ST
12.1,-0.337950766086578,-0.904392182826996,9.18568134307861,0.525918006896973,0.0533539988100529,0.350611984729767,-1176.30004882812,3.30000019073486,-969.300048828125,-2.48015922329307,-0.0375979491928215,0.104407611281408,ST
12.1333333333333,-0.382811486721039,-0.927121579647064,9.38845252990723,0.0457319989800453,0.160062000155449,0.541162014007568,-1176.30004882812,0.900000035762787,-966.900024414062,-2.48122226282184,-0.0399274583340526,0.100149062801333,ST
12.1666666666667,-0.382213354110718,-0.999496877193451,9.72759914398193,0.0228659994900227,-0.0914639979600906,0.609759986400604,-1178.70007324219,5.70000028610229,-954.900024414062,-2.4823174654036,-0.0392538787907027,0.101741127626329,ST
12.2,0.102880589663982,-0.668723821640015,8.35725402832031,0.769822001457214,-0.807931959629059,0.716467976570129,-1185.90002441406,2.70000004768372,-957.300048828125,-2.48407090519435,-0.0009476720730081,0.0848747779024947,ST
12.2333333333333,-0.504832684993744,-0.607713282108307,9.20003700256348,0.571649968624115,-0.213415995240211,1.02134799957275,-1169.10009765625,0.300000011920929,-969.300048828125,-2.48624270511659,-0.0397591090002983,0.0704169158435352,ST
12.2666666666667,0.0328978635370731,-0.278734624385834,9.91302299499512,0.762199997901917,-0.724089980125427,1.48628997802734,-1190.70007324219,-2.10000014305115,-974.100036621094,-2.4897519214047,-0.0077045313746406,0.0387272604023242,ST
12.3,-0.339745193719864,-0.653770267963409,9.32504844665527,0.381099998950958,-0.457319974899292,0.92988395690918,-1178.70007324219,0.900000035762787,-947.700012207031,-2.49101075807672,-0.0272168966460618,0.0600965732654656,ST
12.3333333333333,-1.0335910320282,-0.821250319480896,10.1235694885254,-0.937505960464478,-0.609759986400604,-0.190549999475479,-1181.10009765625,7.50000047683716,-959.700012207031,-2.48989455020043,-0.0820261292818798,0.0769554746656049,ST
12.3666666666667,-0.626255691051483,-1.05093717575073,10.0936622619629,-0.846041977405548,-0.541162014007568,-0.0762199983000755,-1178.70007324219,1.5,-969.300048828125,-2.48848026468023,-0.067107715655534,0.0967311882450616,ST
12.4,-0.877475738525391,-1.13348090648651,8.91352653503418,-0.442075997591019,0.37347799539566,-0.243903994560242,-1185.90002441406,-5.10000038146973,-964.500061035156,-2.48624679168995,-0.0898666366686499,0.11926953158081,ST
12.4333333333333,-0.760837852954865,-0.959421336650848,8.74963569641113,-0.259148001670837,-0.289635986089706,-0.144817993044853,-1193.10009765625,6.90000009536743,-954.900024414062,-2.48670107773522,-0.0868400090873841,0.11231713789852,ST
12.4666666666667,-1.10118126869202,-1.15740668773651,9.40520000457764,0.0152439996600151,-0.640248000621796,0.0152439996600151,-1183.5,-0.300000011920929,-969.300048828125,-2.48615344384938,-0.10696001409479,0.119628248322119,ST
12.5,-1.0796480178833,-1.01624488830566,9.85859203338623,0.25152599811554,-0.6250039935112,0.335367977619171,-1193.10009765625,2.10000014305115,-971.700012207031,-2.48810461456233,-0.107334404053937,0.107446578941499,ST
12.5333333333333,-0.638218522071838,-0.810483753681183,10.4549407958984,0.121951997280121,-1.93598794937134,-0.297257989645004,-1188.30004882812,3.90000009536743,-959.700012207031,-2.48988763190465,-0.0698731686583796,0.0847305443664723,ST
12.5666666666667,0.0077758585102856,-1.15262150764465,11.1745071411133,-0.449698001146317,-0.335367977619171,0.434453994035721,-1178.70007324219,3.30000019073486,-969.300048828125,-2.49017220468391,-0.0183315656799107,0.0983886108033513,ST
12.6,0.61249840259552,-0.218920320272446,9.63608360290527,0.0762199983000755,-3.10215401649475,-0.647870004177094,-1193.10009765625,4.5,-959.700012207031,-2.4888197963632,0.0426911160322469,0.045459497713242,ST
12.6333333333333,-0.084936298429966,-0.723154842853546,8.5546407699585,0.205793991684914,0.259148001670837,0.609759986400604,-1195.5,4.5,-957.300048828125,-2.4905059683405,0.005580518419934,0.0724081590846322,ST
12.6666666666667,0.116637878119946,-0.600535571575165,9.06904411315918,-0.937505960464478,0.769822001457214,0.342989981174469,-1195.5,3.30000019073486,-974.100036621094,-2.49096604927677,0.0096845740423358,0.0691595316515582,ST
12.7,-0.936691880226135,-0.848166704177856,8.47269535064697,-1.00610399246216,0.907018005847931,-0.121951997280121,-1185.90002441406,12.9000005722046,-952.500061035156,-2.48994299012632,-0.0747011330831194,0.0917674471216633,ST
12.7333333333333,-0.298473328351974,-1.44930040836334,10.3670139312744,-1.21189796924591,0.0304879993200302,-0.670735955238342,-1181.10009765625,2.70000004768372,-962.100036621094,-2.48671963978648,-0.0405798873941202,0.128175432755972,ST
12.7666666666667,0.967197179794312,-1.4540855884552,10.0876808166504,-0.87652999162674,-1.64635193347931,-1.43293595314026,-1190.70007324219,0.300000011920929,-957.300048828125,-2.48462178242888,0.0597139103559803,0.140170092724589,ST
12.8,0.867307305335999,-1.83629894256592,10.2025241851807,-0.579271972179413,-1.6768399477005,-1.85976791381836,-1188.30004882812,-0.300000011920929,-971.700012207031,-2.48364794778093,0.0790688712097509,0.16774935933975,ST
12.8333333333333,-0.870298027992249,-2.04146194458008,8.5187520980835,-0.160062000155449,1.89025592803955,-1.50915598869324,-1197.90002441406,2.70000004768372,-954.900024414062,-2.48123087096981,-0.0470072024059307,0.215071001646542,ST
12.8666666666667,-0.513804793357849,-2.22030663490295,10.5817470550537,-1.2576299905777,1.2347639799118,-0.945127964019775,-1185.90002441406,5.70000028610229,-964.500061035156,-2.4794878286419,-0.0485714128013942,0.210907954411081,ST
12.9,-0.694444000720978,-2.10845398902893,8.51097679138184,-0.282013982534409,-0.609759986400604,-1.03659200668335,-1188.30004882812,7.50000047683716,-954.900024414062,-2.47637462025163,-0.0703340117467401,0.235287100855153,ST
12.9333333333333,-0.225499898195267,-2.12639832496643,7.87634658813477,-0.182927995920181,-0.617381989955902,-1.19665396213531,-1197.90002441406,1.5,-959.700012207031,-2.47353691290033,-0.0393997425302043,0.255456930463128,ST
12.9666666666667,-0.760239720344543,-2.05820989608765,9.55593204498291,0.419209986925125,-1.02897000312805,-0.800309956073761,-1190.70007324219,3.30000019073486,-959.700012207031,-2.47418384217676,-0.0646839909297543,0.224731033286853,ST
13.0,-0.908579170703888,-2.01155471801758,10.2928438186646,1.53202199935913,-0.571649968624115,0.716467976570129,-1188.30004882812,2.70000004768372,-945.300048828125,-2.47714698539862,-0.0793908260074785,0.20061788759487,ST
13.0333333333333,-0.732127010822296,-1.9989937543869,11.3742866516113,1.41006994247437,-1.22714197635651,1.21951997280121,-1190.70007324219,-2.70000004768372,-966.900024414062,-2.48111929948508,-0.0664928205845915,0.179370851014807,ST
13.0666666666667,0.430064797401428,-1.59345293045044,9.45424747467041,0.861285984516144,-2.5076379776001,1.34909391403198,-1190.70007324219,6.30000019073486,-950.100036621094,-2.48455342246166,0.0170495832899249,0.169308137333347,ST
13.1,-0.349315494298935,-1.47502052783966,9.1330451965332,0.990859985351562,-0.990859985351562,2.0655620098114,-1190.70007324219,-0.300000011920929,-962.100036621094,-2.48860364146845,-0.0218723515765519,0.161391723498008,ST
13.1333333333333,0.05742172524333,-1.51689052581787,9.33402061462402,1.05183601379395,0.701223969459534,2.13416004180908,-1195.5,1.5,-954.900024414062,-2.49245917087647,-0.0022696538552492,0.159773690682266,ST
13.1666666666667,0.0663938671350479,-1.43135607242584,8.61385726928711,1.28049600124359,0.152439996600151,1.79117000102997,-1197.90002441406,2.10000014305115,-966.900024414062,-2.49547452142437,0.0040997212175451,0.161633190739164,ST
13.2,-0.40853163599968,-1.41101932525635,9.80894660949707,1.07470202445984,0.190549999475479,1.56251001358032,-1190.70007324219,3.30000019073486,-959.700012207031,-2.49824454331126,-0.0280926789006635,0.147191636613497,ST
13.2333333333333,-0.222509190440178,-1.48937594890594,10.2880592346191,1.05945801734924,0.25152599811554,1.89787793159485,-1202.70007324219,2.70000004768372,-954.900024414062,-2.501763712221,-0.0238294635326973,0.143240959683299,ST
13.2666666666667,0.116637878119946,-0.794932007789612,9.40280723571777,1.21951997280121,-1.00610399246216,1.37958192825317,-1205.10009765625,2.10000014305115,-957.300048828125,-2.5047744181894,0.0024933413182103,0.100566868898957,ST
13.3,0.470140367746353,-0.937888205051422,9.53200626373291,0.541162014007568,-0.952749967575073,2.04269599914551,-1202.70007324219,0.300000011920929,-959.700012207031,-2.50842003184103,0.0359484195041415,0.0982251225800871,ST
13.3333333333333,0.871494293212891,-0.74648243188858,10.194748878479,0.960371971130371,-0.685979962348938,1.37958192825317,-1200.30004882812,-5.10000038146973,-959.700012207031,-2.50998661616181,0.0709685961889849,0.079600431495995,ST
13.3666666666667,-0.0478514358401299,-0.369652360677719,9.4375,1.40244793891907,0.586893975734711,0.945127964019775,-1197.90002441406,4.5,-957.300048828125,-2.51034448456905,0.0170445654618529,0.0496492436485548,ST
13.4,0.301464051008224,0.0598142966628075,9.14201736450195,1.06708002090454,0.0762199983000755,1.19665396213531,-1202.70007324219,-0.300000011920929,-964.500061035156,-2.51153190948367,0.0280500896742106,0.009104286276644,ST
13.4333333333333,-0.174657747149467,-0.139367312192917,9.39323711395264,0.533540010452271,0.434453994035721,1.28049600124359,-1202.70007324219,0.300000011920929,-966.900024414062,-2.51378767608878,-0.0051026583207656,0.0124766197846874,ST
13.4666666666667,-1.12630319595337,-0.236864611506462,10.2713108062744,0.0685980021953583,0.396344006061554,1.09756803512573,-1195.5,-11.1000003814697,-957.300048828125,-2.51536635040821,-0.0783353666740348,0.0197168268794321,ST
13.5,-0.340343356132507,-0.23925718665123,10.0284652709961,-0.236281991004944,-0.579271972179413,0.510673999786377,-1200.30004882812,1.5,-957.300048828125,-2.51617392602988,-0.0448320469911335,0.0230367069830725,ST
13.5333333333333,0.0448607243597507,-0.507823407649994,9.52243614196777,-0.899396002292633,-1.01372599601746,-0.663114011287689,-1200.30004882812,0.900000035762787,-954.900024414062,-2.51446279534213,-0.0075949480974191,0.0461366915530168,ST
13.5666666666667,-0.814670741558075,-0.829026162624359,9.40699481964111,-1.37958192825317,0.228659987449646,-0.960371971130371,-1202.70007324219,6.90000009536743,-971.700012207031,-2.5116872786716,-0.0636836409566021,0.0776181659750279,ST
13.6,-0.683677434921265,-1.16039741039276,10.4956150054932,-1.37958192825317,0.663114011287689,-0.449698001146317,-1202.70007324219,6.30000019073486,-964.500061035156,-2.50939402121492,-0.0651255898431388,0.102062901757198,ST
13.6333333333333,-0.439635097980499,-1.09938681125641,9.44886493682861,-0.541162014007568,-0.388722002506256,-0.853663980960846,-1190.70007324219,4.5,-954.900024414062,-2.50725364950723,-0.0502941699249215,0.113160342603558,ST
13.6666666666667,-0.504832684993744,-1.07007777690887,9.11091327667236,-0.304879993200302,0.228659987449646,-0.907018005847931,-1214.70007324219,-6.30000019073486,-959.700012207031,-2.50552193094136,-0.0537183986242795,0.116216519907383,ST
13.7,-0.343932211399078,-0.854746282100677,9.13065242767334,-0.236281991004944,-0.746955990791321,-0.594515979290009,-1193.10009765625,8.70000076293945,-957.300048828125,-2.50540844928161,-0.0413854493510935,0.100536294305636,ST
13.7333333333333,-0.831418752670288,-0.832016885280609,8.79090690612793,-0.175305992364883,0.632625997066498,-0.670735955238342,-1200.30004882812,1.5,-962.100036621094,-2.5043460082696,-0.0801711220829208,0.09635303386177,ST
13.7666666666667,0.43425178527832,-1.31950342655182,11.5262145996094,-0.823175966739655,-0.350611984729767,-0.762199997901917,-1197.90002441406,2.10000014305115,-959.700012207031,-2.50264123042305,0.0025082884174619,0.109753122712868,ST
13.8,1.41879510879517,-0.625059425830841,10.0320539474487,0.236281991004944,-3.07928800582886,-1.81403601169586,-1207.5,1.5,-945.300048828125,-2.49828417032619,0.102690357687458,0.076319089544531,ST
13.8333333333333,0.614890992641449,-0.778183996677399,8.89019870758057,0.182927995920181,0.556405961513519,-1.22714197635651,-1209.90002441406,0.900000035762787,-957.300048828125,-2.49679596125056,0.0784339790365953,0.0836508973292965,ST
13.8666666666667,0.422887086868286,-1.04675018787384,9.52841758728027,-0.609759986400604,0.724089980125427,-0.243903994560242,-1209.90002441406,-5.10000038146973,-959.700012207031,-2.49742816661235,0.0535762822621434,0.102398438655013,ST
13.9,0.903195858001709,-1.21303391456604,9.05947303771973,-0.533540010452271,-0.556405961513519,-0.518296003341675,-1197.90002441406,5.10000038146973,-954.900024414062,-2.49814025371639,0.0869360621431169,0.125284134029157,ST
13.9333333333333,-0.536534249782562,-1.41221559047699,8.21728801727295,0.0076219998300075,1.44055795669556,-0.3125019967556,-1197.90002441406,4.5,-950.100036621094,-2.49830940797742,-0.0202654031393453,0.15668808733902,ST
13.9666666666667,-0.409727931022644,-1.57012534141541,8.67905426025391,-0.602137982845306,0.0304879993200302,-0.0381099991500378,-1188.30004882812,0.300000011920929,-964.500061035156,-2.49778528567241,-0.0385802282735448,0.173004640390429,ST
14.0,-1.41939330101013,-2.28670048713684,9.94352912902832,-0.160062000155449,1.46342396736145,0.67835795879364,-1185.90002441406,6.30000019073486,-954.900024414062,-2.49572451587369,-0.110098806723465,0.210156523150829,ST
14.0333333333333,0.177648469805717,-2.38120722770691,11.1158885955811,-0.503051996231079,-1.29574000835419,-0.586893975734711,-1178.70007324219,5.10000038146973,-952.500061035156,-2.49516093052671,-0.018843913782113,0.211516652034286,ST
14.0666666666667,-0.0317015759646893,-2.40333843231201,9.69709396362305,0.114329993724823,-2.39330792427063,-0.663114011287689,-1195.5,3.90000009536743,-952.500061035156,-2.49468619705867,-0.0048621169487389,0.233356258544649,ST
14.1,-0.426475942134857,-2.25739169120789,9.22695350646973,0.335367977619171,-0.792688012123108,0.0914639979600906,-1188.30004882812,-0.900000035762787,-952.500061035156,-2.4950835089192,-0.0324260212828258,0.237628641605888,ST
14.1333333333333,0.635227859020233,-1.72683870792389,9.12467098236084,1.50153398513794,-0.594515979290009,1.80641400814056,-1200.30004882812,3.30000019073486,-959.700012207031,-2.49824204244928,0.0382325539039102,0.200541402694311,ST
14.1666666666667,0.441429525613785,-1.00248765945435,7.63110780715942,2.08842802047729,-1.22714197635651,1.79117000102997,-1197.90002441406,0.300000011920929,-966.900024414062,-2.49949028985105,0.0526950026130933,0.149244300381752,ST
14.2,0.0370848625898361,-0.963010191917419,9.30471229553223,1.6615959405899,0.0381099991500378,1.88263392448425,-1197.90002441406,-3.90000009536743,-952.500061035156,-2.50159626570178,0.0182909934533163,0.115053460545682,ST
14.2333333333333,0.732725143432617,-0.884055316448212,9.25745868682861,1.53964400291443,-0.975615978240967,1.49391198158264,-1197.90002441406,0.300000011920929,-952.500061035156,-2.50381597360272,0.0614663459907044,0.0994037186470549,ST
14.2666666666667,-0.282921612262726,-0.970187902450562,9.4434814453125,1.15854394435883,0.945127964019775,1.47104597091675,-1193.10009765625,-0.300000011920929,-952.500061035156,-2.50626869686386,-0.0036294665337622,0.100130734324238,ST
14.3,-0.771006286144257,-1.12869584560394,10.4447727203369,0.647870004177094,1.44055795669556,1.6844619512558,-1190.70007324219,4.5,-952.500061035156,-2.50875398790965,-0.0542524482730503,0.104542987709111,ST
14.3333333333333,-0.43724250793457,-0.974374890327454,9.0732307434082,0.358233988285065,-1.22714197635651,1.07470202445984,-1200.30004882812,0.300000011920929,-966.900024414062,-2.51090876105693,-0.0481234695928336,0.105801657864947,ST
14.3666666666667,-0.410326063632965,-0.989926636219025,8.40929222106934,0.228659987449646,0.243903994560242,0.685979962348938,-1195.5,-1.5,-942.900024414062,-2.51165108825805,-0.0487205033908546,0.113438931877547,ST
14.4,-0.0023925718851387,-0.869699895381927,10.0260725021362,0.144817993044853,-0.442075997591019,0.83841997385025,-1193.10009765625,2.10000014305115,-947.700012207031,-2.51381399465284,-0.0137401170694058,0.0940561126309174,ST
14.4333333333333,-1.18252861499786,-1.01504862308502,9.72221565246582,-0.182927995920181,0.899396002292633,0.396344006061554,-1195.5,-1.5,-957.300048828125,-2.51400310490487,-0.093570652161989,0.101637454362696,ST
14.4666666666667,0.36725977063179,-0.950449168682098,10.7372646331787,0.0381099991500378,-1.53964400291443,0.739333987236023,-1205.10009765625,-2.10000014305115,-959.700012207031,-2.51607295765576,0.0007864717283097,0.0919084699102701,ST
14.5,1.04316139221191,-0.74648243188858,10.1235694885254,0.0685980021953583,-3.30032587051392,0.160062000155449,-1207.5,4.5,-954.900024414062,-2.51635321854675,0.0758051311183549,0.079100034630605,ST
14.5333333333333,1.28481113910675,-0.422288924455643,9.54636192321777,0.442075997591019,-1.85976791381836,-0.106707997620106,-1197.90002441406,9.90000057220459,-954.900024414062,-2.5139399445911,0.120135531105552,0.0532858915787995,ST
14.5666666666667,1.56653642654419,-0.378624498844147,8.57079029083252,-0.0228659994900227,-0.487807989120483,0.403965979814529,-1205.10009765625,4.5,-959.700012207031,-2.51378323202089,0.162982346192465,0.0470213637791517,ST
14.6,0.0861325860023499,-0.613694667816162,9.16833591461182,-0.320124000310898,1.12805593013763,0.274392008781433,-1197.90002441406,9.30000019073486,-940.500061035156,-2.51563901749268,0.0543488385917617,0.0613366454989851,ST
14.6333333333333,0.455186814069748,-0.439635097980499,8.58933353424072,-0.213415995240211,0.724089980125427,0.571649968624115,-1202.70007324219,4.5,-954.900024414062,-2.51616622339512,0.0523972385999439,0.0545012587312136,ST
14.6666666666667,-0.506028950214386,-0.834409415721893,9.82150745391846,-0.205793991684914,1.99696397781372,0.632625997066498,-1205.10009765625,4.5,-957.300048828125,-2.51735024647578,-0.0225260613123037,0.0759102907980338,ST
14.7,-0.330773055553436,-0.942075192928314,10.3275365829468,-0.449698001146317,1.2423859834671,0.160062000155449,-1197.90002441406,3.90000009536743,-957.300048828125,-2.51717623664504,-0.030750392459342,0.0871956260611604,ST
14.7333333333333,-0.970187902450562,-1.43554317951202,9.98719310760498,-0.724089980125427,1.55488801002502,-0.632625997066498,-1197.90002441406,5.10000038146973,-954.900024414062,-2.51371427216289,-0.0780702916045778,0.126931491883772,ST
14.7666666666667,-0.845774173736572,-1.2818204164505,10.1738138198853,-0.6250039935112,0.3125019967556,-1.22714197635651,-1197.90002441406,4.5,-954.900024414062,-2.51159086211458,-0.0812725278543744,0.126694118491034,ST
14.8,-0.77579140663147,-1.314120054245,8.98291110992432,-0.274392008781433,0.160062000155449,-1.43293595314026,-1190.70007324219,-1.5,-957.300048828125,-2.50803548975567,-0.0840142714462896,0.140156764345084,ST
14.8333333333333,-0.43724250793457,-1.04675018787384,8.71195220947266,-0.175305992364883,-1.29574000835419,-1.19665396213531,-1195.5,4.5,-971.700012207031,-2.50727842938062,-0.0578349155583005,0.125795981177587,ST
14.8666666666667,-0.83261501789093,-1.23636150360107,8.93924713134766,0.0304879993200302,0.274392008781433,-0.685979962348938,-1197.90002441406,9.30000019073486,-959.700012207031,-2.50547140825701,-0.0819472243757306,0.133956076670873,ST
14.9,-0.343932211399078,-0.967795312404633,10.030858039856,0.503051996231079,-0.403965979814529,0.25152599811554,-1190.70007324219,11.7000007629395,-971.700012207031,-2.50768669857772,-0.0480568617804669,0.106898767112653,ST
14.9333333333333,1.00188946723938,-0.914560616016388,9.78860950469971,0.846041977405548,-1.01372599601746,0.457319974899292,-1197.90002441406,4.5,-964.500061035156,-2.50859466711357,0.057612348349639,0.0963504758205823,ST
14.9666666666667,0.321800917387009,-0.919345736503601,9.39802265167236,0.320124000310898,-0.579271972179413,-0.25152599811554,-1200.30004882812,-0.900000035762787,-942.900024414062,-2.50830763244218,0.0418815453005,0.0967623715768541,ST
15.0,-0.16568560898304,-1.35359752178192,10.7910976409912,-0.449698001146317,0.289635986089706,0.144817993044853,-1202.70007324219,-0.900000035762787,-950.100036621094,-2.50892254080857,0.0015931178154934,0.11691449212472,ST
15.0333333333333,0.238659039139748,-1.29079258441925,9.28856182098389,-0.160062000155449,-0.617381989955902,0.350611984729767,-1200.30004882812,-1.5,-964.500061035156,-2.50980656652842,0.0189633208298359,0.131914935262864,ST
15.0666666666667,-0.203966751694679,-1.46186137199402,7.69989442825317,-0.0762199983000755,0.67835795879364,0.449698001146317,-1207.5,6.90000009536743,-947.700012207031,-2.51051173989134,-0.0133673465874698,0.170950964338365,ST
15.1,-0.585581958293915,-1.58089184761047,9.19644832611084,-0.121951997280121,0.884151995182037,1.28811800479889,-1195.5,2.10000014305115,-957.300048828125,-2.51252099340252,-0.0498422823868334,0.170560365068294,ST
15.1333333333333,0.16568560898304,-1.61079907417297,10.0404281616211,0.411587983369827,-1.05183601379395,1.10518991947174,-1202.70007324219,2.10000014305115,-966.900024414062,-2.51497437420907,-0.001663906999753,0.161848296067125,ST
15.1666666666667,0.263781040906906,-1.5623494386673,9.35734844207764,0.716467976570129,-0.884151995182037,0.388722002506256,-1190.70007324219,1.5,-962.100036621094,-2.51590849760168,0.0199238180598307,0.163493932929451,ST
15.2,-0.28112718462944,-1.48160016536713,9.84244251251221,0.221037998795509,-1.18903195858002,0.403965979814529,-1202.70007324219,0.300000011920929,-966.900024414062,-2.51691970127967,-0.0130035148098409,0.153196284068675,ST
15.2333333333333,0.314025074243546,-1.67480027675629,10.4190521240234,0.114329993724823,-1.79117000102997,1.01372599601746,-1214.70007324219,-7.50000047683716,-966.900024414062,-2.51927763421524,0.0200452539012107,0.157552354008569,ST
15.2666666666667,0.266173630952835,-1.45887064933777,8.9536018371582,0.815553963184357,-0.685979962348938,1.34909391403198,-1202.70007324219,3.90000009536743,-952.500061035156,-2.52184093613539,0.0271056722607626,0.159371334204161,ST
15.3,0.308641761541367,-0.892429292201996,8.89677810668945,0.899396002292633,-1.21951997280121,1.19665396213531,-1202.70007324219,-1.5,-959.700012207031,-2.5229389982618,0.0335729665591717,0.116804625506846,ST
15.3333333333333,-0.535936117172241,-1.04435765743256,10.2994241714478,1.13567793369293,1.07470202445984,1.90549993515015,-1209.90002441406,2.10000014305115,-957.300048828125,-2.52607918099234,-0.028755487630832,0.104198348829774,ST
15.3666666666667,0.35110992193222,-0.750071287155151,9.70068264007568,0.884151995182037,0.83841997385025,1.64635193347931,-1200.30004882812,5.70000028610229,-964.500061035156,-2.52889042403035,0.0153582434963298,0.0842279079717701,ST
15.4,0.233275756239891,-0.954038023948669,11.1404132843018,-0.0304879993200302,0.533540010452271,1.06708002090454,-1209.90002441406,4.5,-959.700012207031,-2.53066365587062,0.0184462648996488,0.0851261456661539,ST
15.4333333333333,-0.163293033838272,-0.858933329582214,9.95489311218262,0.121951997280121,-0.121951997280121,0.0685980021953583,-1219.5,5.70000028610229,-971.700012207031,-2.53080465002196,-0.0057345136637082,0.085639627269548,ST
15.4666666666667,-0.192602038383484,-1.00906717777252,10.0027446746826,0.0076219998300075,2.60672402381897,0.586893975734711,-1195.5,1.5,-950.100036621094,-2.5313411307439,-0.0192664184093033,0.0967973440468492,ST
15.5,-0.243444189429283,-1.03598368167877,9.7658805847168,0.259148001670837,1.63872992992401,0.533540010452271,-1190.70007324219,-2.10000014305115,-969.300048828125,-2.53183711665328,-0.0251791359551395,0.102686657801415,ST
15.5333333333333,-0.0705808699131012,-0.874485015869141,9.79459095001221,0.472563982009888,1.49391198158264,0.46494197845459,-1190.70007324219,-2.70000004768372,-959.700012207031,-2.53264271462748,-0.0136836201958882,0.0918309074050493,ST
15.5666666666667,-0.117236025631428,-0.555076658725739,9.18867206573486,0.304879993200302,2.24848985671997,0.647870004177094,-1197.90002441406,-5.10000038146973,-942.900024414062,-2.53379268552195,-0.0158600426921254,0.0690038282661923,ST
15.6,-0.777585864067078,-0.471336662769318,9.3477783203125,0.106707997620106,1.2423859834671,0.967993974685669,-1183.5,2.10000014305115,-950.100036621094,-2.53590854451267,-0.0652198735212556,0.0555814065089781,ST
15.6333333333333,-1.05033910274506,-0.750071287155151,8.59352016448975,-0.0533539988100529,2.11891603469849,0.990859985351562,-1171.5,-7.50000047683716,-964.500061035156,-2.53549413541461,-0.108557078580054,0.0783555908200502,ST
15.6666666666667,-1.09340536594391,-0.672910869121552,9.89807033538818,-0.282013982534409,0.617381989955902,0.396344006061554,-1166.70007324219,2.10000014305115,-962.100036621094,-2.53691322534152,-0.110193542669418,0.0713280658594057,ST
15.7,-1.52586269378662,-0.61548912525177,8.75741100311279,-0.0990860015153885,-0.586893975734711,-0.556405961513519,-1188.30004882812,0.300000011920929,-952.500061035156,-2.53613396699337,-0.152698368237386,0.0707335551295717,ST
15.7333333333333,-0.640611112117767,-0.409727931022644,10.0482034683228,0.137196004390717,-1.73019397258759,0.274392008781433,-1195.5,8.70000076293945,-957.300048828125,-2.53941578372765,-0.085946511951139,0.0487303894214324,ST
15.7666666666667,-0.422887086868286,-0.312230616807938,9.48116397857666,0.884151995182037,-1.44055795669556,0.137196004390717,-1193.10009765625,-5.10000038146973,-957.300048828125,-2.54050638943123,-0.0552540133788371,0.0365751788561217,ST
15.8,0.05742172524333,-0.159106031060219,10.5476531982422,0.365855991840363,-0.762199997901917,0.0990860015153885,-1185.90002441406,5.70000028610229,-964.500061035156,-2.54121334346044,-0.0118956089221622,0.0210972367533961,ST
15.8333333333333,-0.306847333908081,-0.502440094947815,9.281982421875,-0.457319974899292,-0.0990860015153885,-0.830797970294952,-1185.90002441406,2.10000014305115,-974.100036621094,-2.53923532343759,-0.0270424423160914,0.0456165225430756,ST
15.8666666666667,-0.116637878119946,-0.937290012836456,10.1672344207764,-1.58537602424622,-0.952749967575073,-1.71494996547699,-1188.30004882812,7.50000047683716,-962.100036621094,-2.53543538496939,-0.0141531390175231,0.0818730589255211,ST
15.9,-0.679490387439728,-1.32847559452057,8.71673774719238,-1.06708002090454,0.472563982009888,-1.84452390670776,-1178.70007324219,-2.10000014305115,-957.300048828125,-2.53043541864204,-0.058354815024258,0.131709002906238,ST
15.9333333333333,-1.38111209869385,-1.3440272808075,9.66240119934082,-0.777444005012512,1.35671591758728,-0.983237981796265,-1176.30004882812,3.90000009536743,-959.700012207031,-2.52806291514654,-0.117339924241605,0.137347196514821,ST
15.9666666666667,-1.1538177728653,-1.21423017978668,9.49312686920166,-0.213415995240211,-0.0762199983000755,-0.617381989955902,-1181.10009765625,2.70000004768372,-947.700012207031,-2.52782251828723,-0.119087370365841,0.130239123319657,ST
16.0,-1.43195426464081,-0.977365612983704,9.42493915557861,0.228659987449646,-0.586893975734711,0.190549999475479,-1178.70007324219,1.5,-962.100036621094,-2.530870086657,-0.141175510465638,0.110077581590092,ST
16.0333333333333,-0.509617805480957,-1.1615936756134,10.2384128570557,-0.167683988809586,-1.00610399246216,0.137196004390717,-1185.90002441406,9.30000019073486,-974.100036621094,-2.53108839378368,-0.0758384142473443,0.112308251908516,ST
16.0666666666667,-0.102282449603081,-0.932504892349243,9.95908069610596,0.350611984729767,-1.92074394226074,0.0381099991500378,-1200.30004882812,6.90000009536743,-950.100036621094,-2.53218098290994,-0.027639617615775,0.0986242420561377,ST
16.1,-0.0394774377346039,-1.1436493396759,10.0356426239014,-0.3125019967556,-0.442075997591019,0.213415995240211,-1188.30004882812,5.10000038146973,-954.900024414062,-2.53243198331214,-0.0105382167871449,0.109382038784477,ST
16.1333333333333,0.754856407642365,-0.854148149490356,9.60198879241943,-0.121951997280121,-1.31860601902008,0.167683988809586,-1190.70007324219,3.90000009536743,-959.700012207031,-2.5326485184907,0.0530345063459615,0.0951358214833264,ST
16.1666666666667,0.403148353099823,-1.04435765743256,8.61983871459961,0.0152439996600151,0.594515979290009,0.0914639979600906,-1181.10009765625,-0.300000011920929,-952.500061035156,-2.53363053273553,0.0474643724289089,0.113568058140208,ST
16.2,-0.602329969406128,-1.14664006233215,8.17481994628906,-0.0457319989800453,1.92074394226074,-0.182927995920181,-1183.5,2.10000014305115,-957.300048828125,-2.53299241027027,-0.0388570129719013,0.131667621865502,ST
16.2333333333333,-0.270958751440048,-1.57610678672791,10.1134014129639,-0.37347799539566,0.548784017562866,0.335367977619171,-1178.70007324219,11.7000007629395,-969.300048828125,-2.53288305595068,-0.030916275748479,0.148149452327092,ST
16.2666666666667,-0.102282449603081,-1.71367967128754,9.97762298583984,0.259148001670837,-1.02897000312805,-0.647870004177094,-1190.70007324219,9.90000057220459,-964.500061035156,-2.53157769226545,-0.0138465568947702,0.164283450449333,ST
16.3,0.107067592442036,-1.89790761470795,9.78262805938721,0.0076219998300075,-0.846041977405548,-1.12043392658234,-1185.90002441406,3.90000009536743,-964.500061035156,-2.52983139034346,0.0046003166987544,0.183400737642016,ST
16.3333333333333,-1.07845175266266,-1.80100846290588,8.89259147644043,0.381099998950958,-0.175305992364883,-0.289635986089706,-1200.30004882812,0.300000011920929,-959.700012207031,-2.52895421772104,-0.0809552543680858,0.194461137342314,ST
16.3666666666667,-1.7304276227951,-1.84945809841156,10.0380353927612,0.426831990480423,1.86738991737366,0.6250039935112,-1190.70007324219,7.50000047683716,-969.300048828125,-2.53041100884318,-0.146486337314437,0.185065447935353,ST
16.4,-0.07656230032444,-1.22320234775543,9.377685546875,1.20427596569061,-2.17227005958557,1.02897000312805,-1178.70007324219,-0.300000011920929,-957.300048828125,-2.53647551784995,-0.0474013581654523,0.144757473188737,ST
16.4333333333333,-0.869101762771606,-1.13647162914276,8.41946029663086,1.22714197635651,-0.518296003341675,0.762199997901917,-1185.90002441406,-0.300000011920929,-959.700012207031,-2.53836028967498,-0.0850333680511266,0.135810131437881,ST
16.4666666666667,-0.939084470272064,-1.14245307445526,9.77903938293457,0.541162014007568,-0.0838419944047928,1.19665396213531,-1185.90002441406,1.5,-957.300048828125,-2.54178447648073,-0.0924219686959068,0.120842585175853,ST
16.5,-0.363072782754898,-1.14604198932648,11.0303544998169,0.525918006896973,-1.48628997802734,1.64635193347931,-1207.5,-2.70000004768372,-962.100036621094,-2.54584670298695,-0.0482935692314934,0.107701260978668,ST
16.5333333333333,-0.0053832866251468,-1.03598368167877,8.78791618347168,0.899396002292633,-1.34909391403198,1.12805593013763,-1193.10009765625,1.5,-957.300048828125,-2.54781336611973,-0.0134722302224416,0.113309851885425,ST
16.5666666666667,-0.028710862621665,-0.916355013847351,9.56131553649902,0.342989981174469,-0.205793991684914,1.64635193347931,-1197.90002441406,6.90000009536743,-962.100036621094,-2.5507988593394,-0.0061060009551173,0.100453484086974,ST
16.6,-0.672910869121552,-0.954038023948669,9.19943904876709,0.670735955238342,0.381099998950958,1.48628997802734,-1200.30004882812,1.5,-954.900024414062,-2.55322224728317,-0.0532472865985915,0.101604244927481,ST
16.6333333333333,0.329576790332794,-1.00188946723938,10.0846900939941,0.289635986089706,0.388722002506256,1.2347639799118,-1193.10009765625,0.300000011920929,-957.300048828125,-2.55543771017098,0.0082884159593106,0.0993557285680601,ST
16.6666666666667,-1.22679126262665,-1.05871307849884,9.09476375579834,0.236281991004944,0.708845973014832,0.266770005226135,-1181.10009765625,3.30000019073486,-969.300048828125,-2.55528813115602,-0.0913907450821016,0.110617787398657,ST
16.7,-0.753660142421722,-0.983347058296204,11.3868474960327,0.160062000155449,0.236281991004944,1.2500079870224,-1193.10009765625,9.90000057220459,-950.100036621094,-2.55880355652364,-0.0739757351782123,0.0931802188124084,ST
16.7333333333333,0.241649761795998,-0.47851437330246,9.37888145446777,1.2500079870224,-1.38720393180847,0.92988395690918,-1205.10009765625,3.30000019073486,-954.900024414062,-2.561902066204,0.0024799816000294,0.0598811476185316,ST
16.7666666666667,0.702219843864441,-0.224303618073463,9.73238468170166,0.640248000621796,-2.12653803825378,0.640248000621796,-1202.70007324219,6.90000009536743,-983.700012207031,-2.56248120236325,0.0546178424410793,0.0329032455798393,ST
16.8,-0.388194799423218,-0.136376604437828,9.24729061126709,0.190549999475479,1.265251994133,-0.0152439996600151,-1197.90002441406,1.5,-954.900024414062,-2.5621481057674,-0.0182257204173716,0.0192705432257724,ST
16.8333333333333,-0.444420218467712,0.0185424312949181,10.2414035797119,0.167683988809586,-0.365855991840363,0.426831990480423,-1200.30004882812,6.30000019073486,-959.700012207031,-2.56338301822946,-0.0363113300514145,0.0034895478262305,ST
16.8666666666667,-0.313426911830902,-0.329576790332794,8.51037788391113,-0.426831990480423,-0.0152439996600151,-0.640248000621796,-1197.90002441406,5.10000038146973,-962.100036621094,-2.56138687614659,-0.0366159702476485,0.0286634677887216,ST
16.9,-0.60352623462677,-0.599339246749878,9.99975395202637,-0.967993974685669,-0.83841997385025,-1.03659200668335,-1200.30004882812,2.70000004768372,-959.700012207031,-2.55870491079714,-0.0520176133385329,0.0517073571547941,ST
16.9333333333333,-0.372643083333969,-0.634629666805267,9.62172794342041,-0.594515979290009,-0.259148001670837,-0.724089980125427,-1195.5,2.10000014305115,-964.500061035156,-2.55689699562434,-0.0417503813282322,0.0629619800819602,ST
16.9666666666667,-1.28361487388611,-1.0515353679657,9.42434024810791,-0.6250039935112,0.792688012123108,-1.16616594791412,-1190.70007324219,0.900000035762787,-966.900024414062,-2.55189924849833,-0.111081390529029,0.0993406076950455,ST
17.0,-0.431261092424393,-1.15800476074219,10.6481409072876,-0.975615978240967,-0.6250039935112,-1.28811800479889,-1205.10009765625,-0.300000011920929,-969.300048828125,-2.5493018104248,-0.0606369264636398,0.106963086617298,ST
17.0333333333333,-0.209350034594536,-0.942075192928314,9.92737865447998,0.144817993044853,-0.846041977405548,-1.64635193347931,-1195.5,-1.5,-954.900024414062,-2.54701658978163,-0.0316808995548795,0.0982371439801958,ST
17.0666666666667,0.373839348554611,-0.714780867099762,9.55294132232666,-0.25152599811554,-1.35671591758728,-1.20427596569061,-1197.90002441406,-0.900000035762787,-957.300048828125,-2.545071140191,0.0223487247907867,0.0812039142417691,ST
17.1,-0.283519774675369,-0.619077980518341,8.87823581695557,0.0838419944047928,0.182927995920181,-0.861285984516144,-1188.30004882812,3.30000019073486,-952.500061035156,-2.54340683698546,-0.017784157237442,0.0725539982902771,ST
17.1333333333333,0.0562254376709461,-1.01803934574127,10.0410261154175,-0.487807989120483,1.18140995502472,-0.442075997591019,-1195.5,-0.300000011920929,-947.700012207031,-2.54218962470318,-0.0020213202061198,0.0942097056491254,ST
17.1666666666667,-0.157909750938416,-0.930112302303314,8.04801368713379,-0.182927995920181,-0.0685980021953583,-1.79879200458527,-1200.30004882812,0.900000035762787,-957.300048828125,-2.53879837080388,-0.0143717144027883,0.109585856165654,ST
17.2,0.0430662930011749,-1.36197149753571,9.64445686340332,-0.396344006061554,-0.442075997591019,-0.815553963184357,-1188.30004882812,3.30000019073486,-962.100036621094,-2.53721248733505,0.0001866547852916,0.132758679108244,ST
17.2333333333333,-0.340941488742828,-1.48877787590027,9.48953819274902,0.0304879993200302,-0.198172003030777,-1.06708002090454,-1205.10009765625,-1.5,-947.700012207031,-2.53524112831906,-0.0243244149662464,0.148720951801368,ST
17.2666666666667,0.128600731492043,-1.79682147502899,10.1163921356201,-0.274392008781433,-1.63110792636871,-0.701223969459534,-1202.70007324219,3.30000019073486,-957.300048828125,-2.53428918897982,0.0035317238043253,0.167987605418357,ST
17.3,0.187816888093948,-1.99779748916626,9.26344013214111,0.0228659994900227,-0.190549999475479,-0.868907988071442,-1190.70007324219,2.10000014305115,-957.300048828125,-2.53309644526592,0.0157860769053071,0.200167530424901,ST
17.3333333333333,-0.0783567279577255,-1.97865700721741,9.55114650726318,0.480185985565186,-0.503051996231079,-0.503051996231079,-1202.70007324219,10.5,-962.100036621094,-2.53244381592979,-0.0001434314736792,0.20245239805396,ST
17.3666666666667,0.818259596824646,-1.68855762481689,9.38306903839111,0.952749967575073,-1.76068198680878,0.320124000310898,-1197.90002441406,8.70000076293945,-964.500061035156,-2.53305715841984,0.0618537223596007,0.184318249536208,ST
