seconds,sensor_accX_m_s_,sensor_accY_m_s_,sensor_accZ_m_s_,sensor_gyroX___s_,sensor_gyroY___s_,sensor_gyroZ___s_,sensor_magX__T_,sensor_magY__T_,sensor_magZ__T_,sensor_yaw___,sensor_pitch___,sensor_roll___,label3
0.0,2.04146194458008,-1.99361050128937,9.25626277923584,0.137196004390717,0.0152439996600151,0.297257989645004,-1284.30004882812,2.10000014305115,-928.500061035156,-0.844737004331908,0.213050442501247,0.212340250827314,ST
0.0333333333333333,2.05402302742004,-1.97207736968994,9.19525146484375,0.106707997620106,0.0457319989800453,0.37347799539566,-1286.70007324219,2.10000014305115,-933.300048828125,-0.845686526044218,0.214630245903012,0.21133625568452,ST
0.0666666666666667,2.03548049926758,-1.99480676651001,9.22695350646973,0.0381099991500378,-0.0685980021953583,0.304879993200302,-1284.30004882812,2.10000014305115,-933.300048828125,-0.846888497510557,0.212678379025488,0.212747847132237,ST
0.1,2.03667688369751,-2.04265832901001,9.27420711517334,0.0381099991500378,-0.0685980021953583,0.243903994560242,-1289.10009765625,3.90000009536743,-933.300048828125,-0.84836475217423,0.211479290950422,0.216269061680129,ST
0.133333333333333,2.03488230705261,-2.10606145858765,9.32205867767334,-0.0076219998300075,-0.0533539988100529,0.0152439996600151,-1284.30004882812,1.5,-940.500061035156,-0.849551515772033,0.210045729244261,0.221577011269251,ST
0.166666666666667,2.04564905166626,-2.04863977432251,9.19704627990723,0.304879993200302,-0.152439996600151,0.167683988809586,-1279.5,0.900000035762787,-935.700012207031,-0.84980344550234,0.213525273929612,0.21904609299048,ST
0.2,2.01454544067383,-2.00258255004883,9.24250507354736,0.655492007732391,-0.243903994560242,0.289635986089706,-1291.5,2.10000014305115,-930.900024414062,-0.849925590746806,0.210643529409748,0.213257053399496,ST
0.233333333333333,2.02112507820129,-1.92243146896362,9.36153602600098,0.945127964019775,-0.365855991840363,0.449698001146317,-1289.10009765625,2.70000004768372,-935.700012207031,-0.849749607108655,0.209117499558739,0.202723189943957,ST
0.266666666666667,2.04684519767761,-1.71786665916443,9.34000205993652,1.27287399768829,-0.586893975734711,0.670735955238342,-1281.90002441406,2.10000014305115,-930.900024414062,-0.848607863562981,0.212583101392674,0.18281074507607,ST
0.3,2.15630531311035,-1.61737859249115,9.25745868682861,1.38720393180847,-0.609759986400604,0.846041977405548,-1289.10009765625,2.70000004768372,-930.900024414062,-0.849969454404315,0.224615717307723,0.172406285554319,ST
0.333333333333333,2.26576566696167,-1.50253510475159,9.24310302734375,1.21189796924591,-0.655492007732391,0.769822001457214,-1286.70007324219,0.900000035762787,-933.300048828125,-0.850698001872926,0.236588873381315,0.161025801764966,ST
0.366666666666667,2.35010361671448,-1.4941611289978,9.19704627990723,0.891773998737335,-0.541162014007568,0.792688012123108,-1289.10009765625,2.10000014305115,-933.300048828125,-0.853594255164721,0.246377739828492,0.160019008715492,ST
0.4,2.31840205192566,-1.47262799739838,9.13005447387695,0.495429992675781,-0.419209986925125,0.708845973014832,-1293.90002441406,0.300000011920929,-926.100036621094,-0.856023618759015,0.246182415661926,0.159467751708881,ST
0.433333333333333,2.28610253334045,-1.57550859451294,9.27001953125,0.0076219998300075,-0.198172003030777,0.503051996231079,-1286.70007324219,2.10000014305115,-930.900024414062,-0.859530099345261,0.239564825598239,0.167508527631705,ST
0.466666666666667,2.26576566696167,-1.6783891916275,9.24908447265625,-0.175305992364883,0.0533539988100529,0.320124000310898,-1293.90002441406,1.5,-930.900024414062,-0.862856784113479,0.236740766272554,0.178389729059164,ST
0.5,2.18860507011414,-1.76990509033203,9.2347297668457,-0.297257989645004,0.205793991684914,0.0685980021953583,-1291.5,2.70000004768372,-930.900024414062,-0.865041451876812,0.229453203460256,0.188341019433194,ST
0.533333333333333,1.91704821586609,-1.7866530418396,9.20721435546875,-0.327746003866196,0.221037998795509,-0.190549999475479,-1286.70007324219,1.5,-930.900024414062,-0.864907058684116,0.205105418983438,0.191640507021088,ST
0.566666666666667,1.87039303779602,-1.93379616737366,9.17969989776611,-0.335367977619171,0.25152599811554,-0.190549999475479,-1286.70007324219,2.70000004768372,-930.900024414062,-0.866898852607831,0.197607733746848,0.205902571117122,ST
0.6,1.86142086982727,-1.96549785137177,9.39742469787598,-0.411587983369827,0.0381099991500378,-0.495429992675781,-1286.70007324219,2.10000014305115,-935.700012207031,-0.865416018757055,0.192427075396856,0.206618575949185,ST
0.633333333333333,1.96071267127991,-2.01753616333008,9.39742469787598,-0.0533539988100529,-0.708845973014832,-0.205793991684914,-1286.70007324219,1.5,-933.300048828125,-0.866080896575243,0.201517539951398,0.211063759147883,ST
0.666666666666667,2.03009724617004,-1.95951640605927,9.27958965301514,0.205793991684914,-0.914639949798584,0.0609759986400604,-1286.70007324219,2.70000004768372,-935.700012207031,-0.86633594807552,0.210937098411006,0.208275669863533,ST
0.7,2.13836121559143,-2.00796604156494,9.12885761260986,0.381099998950958,-0.663114011287689,0.46494197845459,-1284.30004882812,2.70000004768372,-928.500061035156,-0.869698524804161,0.223846906243172,0.215021084192053,ST
0.733333333333333,2.06179881095886,-1.98224580287933,9.2466926574707,0.442075997591019,-0.403965979814529,0.350611984729767,-1286.70007324219,2.70000004768372,-930.900024414062,-0.870338552638404,0.216388885133415,0.211171035034617,ST
0.766666666666667,2.15690350532532,-2.08572459220886,9.23652362823486,0.442075997591019,-0.358233988285065,0.0762199983000755,-1284.30004882812,2.10000014305115,-928.500061035156,-0.872966772839792,0.223444533179325,0.219995396958411,ST
0.8,1.80758810043335,-1.91345942020416,9.44288349151611,0.708845973014832,-0.403965979814529,0.198172003030777,-1293.90002441406,1.5,-935.700012207031,-0.870388508605686,0.189784785569345,0.200875345842803,ST
0.833333333333333,1.9708811044693,-1.8685986995697,9.23772048950195,0.762199997901917,-0.6250039935112,0.716467976570129,-1289.10009765625,0.900000035762787,-935.700012207031,-0.872758982012353,0.204646426267578,0.198863912938772,ST
0.866666666666667,2.30285048484802,-1.83211195468903,9.34897422790527,0.769822001457214,-0.609759986400604,1.01372599601746,-1296.30004882812,0.300000011920929,-933.300048828125,-0.875295245709389,0.23371147100824,0.193407468937726,ST
0.9,2.1012761592865,-1.46963727474213,9.29215145111084,0.914639949798584,-0.525918006896973,0.716467976570129,-1291.5,0.900000035762787,-930.900024414062,-0.87072667122998,0.222254542088561,0.160669659249077,ST
0.933333333333333,2.2113344669342,-1.24533367156982,9.32504844665527,1.09756803512573,-0.457319974899292,1.05183601379395,-1286.70007324219,-0.300000011920929,-935.700012207031,-0.869068755437057,0.230496939841363,0.134214795067593,ST
0.966666666666667,2.35967397689819,-1.24353921413422,9.14441013336182,0.663114011287689,-1.06708002090454,0.83841997385025,-1289.10009765625,-0.300000011920929,-930.900024414062,-0.872387791454204,0.249286231200976,0.134399771944314,ST
1.0,2.06000447273254,-1.34761607646942,9.12467098236084,-0.121951997280121,-0.449698001146317,0.472563982009888,-1286.70007324219,-0.300000011920929,-928.500061035156,-0.876434024243002,0.224012990257935,0.145482290717849,ST
1.03333333333333,2.19697904586792,-1.47920751571655,9.38127422332764,-0.533540010452271,-0.525918006896973,-0.0457319989800453,-1293.90002441406,-0.300000011920929,-928.500061035156,-0.878480483081366,0.227679380487096,0.155733125673731,ST
1.06666666666667,2.0791449546814,-1.58806955814362,9.16713905334473,-0.548784017562866,-0.739333987236023,-0.472563982009888,-1289.10009765625,0.300000011920929,-928.500061035156,-0.880364732224206,0.22214067364692,0.170113676556681,ST
1.1,1.67599666118622,-1.51928317546844,9.43391132354736,-0.198172003030777,-0.830797970294952,-0.182927995920181,-1296.30004882812,0.900000035762787,-921.300048828125,-0.878373745378649,0.18146189889983,0.161354116331205,ST
1.13333333333333,1.63592100143433,-1.61020088195801,9.1802978515625,-0.0990860015153885,-1.08232402801514,0.663114011287689,-1296.30004882812,1.5,-928.500061035156,-0.882642917948963,0.176234247096179,0.172351495706312,ST
1.16666666666667,1.57730305194855,-1.734614610672,9.36572265625,-0.304879993200302,-1.2347639799118,1.29574000835419,-1293.90002441406,0.300000011920929,-926.100036621094,-0.88846976803287,0.167229295281658,0.18252614141605,ST
1.2,1.60900461673737,-1.87637448310852,9.27301025390625,-0.259148001670837,-1.54726600646973,2.23324584960938,-1298.70007324219,2.10000014305115,-930.900024414062,-0.898300079619374,0.169961332737761,0.19855103577887,ST
1.23333333333333,1.56653642654419,-2.02052688598633,9.15338230133057,-0.487807989120483,-1.2576299905777,2.24848985671997,-1293.90002441406,2.10000014305115,-930.900024414062,-0.907989738666576,0.167324738171285,0.216097228514189,ST
1.26666666666667,1.50552582740784,-2.07017278671265,9.0911750793457,-0.457319974899292,-0.922261953353882,2.66007804870605,-1301.10009765625,2.10000014305115,-923.700012207031,-0.917049507000557,0.161538326651431,0.224226112017305,ST
1.3,1.31890523433685,-2.167072057724,9.11868953704834,-0.46494197845459,-1.22714197635651,2.62196803092957,-1305.90002441406,3.90000009536743,-928.500061035156,-0.926305586358296,0.143634230069249,0.233435250895371,ST
1.33333333333333,1.37632691860199,-2.19279217720032,8.88003063201904,-0.320124000310898,-1.74543797969818,2.82013988494873,-1301.10009765625,3.90000009536743,-921.300048828125,-0.936700177272736,0.150197843042843,0.24221646483681,ST
1.36666666666667,1.54679775238037,-2.37044048309326,9.0074348449707,-0.152439996600151,-1.85214591026306,3.15550804138184,-1305.90002441406,5.70000028610229,-923.700012207031,-0.948841509344208,0.164140618012618,0.256375589173044,ST
1.4,1.63651919364929,-2.28430795669556,8.80406665802002,0.190549999475479,-2.86587190628052,2.74391984939575,-1308.30004882812,6.30000019073486,-918.900024414062,-0.958254353798177,0.179284440058169,0.254821168360272,ST
1.43333333333333,2.16348314285278,-2.50263023376465,8.78372955322266,0.304879993200302,-3.7728898525238,2.34757590293884,-1315.5,5.10000038146973,-914.100036621094,-0.971733446061737,0.229925218682936,0.275090505931898,ST
1.46666666666667,2.16288495063782,-2.42726421356201,9.09057712554932,0.960371971130371,-4.30642986297607,1.63110792636871,-1322.70007324219,6.90000009536743,-911.700012207031,-0.977485622399399,0.23216499289259,0.262063834709141,ST
1.5,2.18082928657532,-2.47092866897583,8.76279449462891,1.08994603157043,-4.26832008361816,1.09756803512573,-1322.70007324219,6.90000009536743,-909.300048828125,-0.986734769581655,0.240476572253344,0.272279784686101,ST
1.53333333333333,2.27653217315674,-2.33335566520691,8.97334098815918,1.38720393180847,-4.32929611206055,0.434453994035721,-1325.10009765625,5.10000038146973,-906.900024414062,-0.987918048111513,0.246884772943295,0.255292609025552,ST
1.56666666666667,2.60670709609985,-2.25739169120789,8.64077377319336,1.82927989959717,-5.0838737487793,-0.228659987449646,-1334.70007324219,5.10000038146973,-897.300048828125,-0.991825325182855,0.286938619733411,0.253170324448299,ST
1.6,3.2646644115448,-2.27354145050049,8.58215522766113,1.6768399477005,-5.29728984832764,-0.640248000621796,-1339.5,5.10000038146973,-887.700012207031,-0.996569559228583,0.353564712911295,0.256106134356339,ST
1.63333333333333,3.85622763633728,-1.75435328483582,8.83696460723877,2.18751406669617,-5.03051996231079,-1.43293595314026,-1344.30004882812,5.70000028610229,-890.100036621094,-0.977243268865325,0.406634034166244,0.199441374935983,ST
1.66666666666667,4.06438159942627,-1.38589727878571,8.60069751739502,3.55947399139404,-3.99392795562744,-1.48628997802734,-1346.70007324219,3.30000019073486,-887.700012207031,-0.962972532183497,0.43883396766569,0.159228987014752,ST
1.7,4.54588651657104,-1.12331247329712,7.95350694656372,3.49087595939636,-2.82013988494873,-2.24086785316467,-1346.70007324219,3.30000019073486,-887.700012207031,-0.95245021994492,0.509379682208506,0.136145334888334,ST
1.73333333333333,3.23535537719727,-0.177648469805717,8.11620235443115,3.01831197738647,0.243903994560242,-3.73477983474731,-1353.90002441406,1.5,-880.500061035156,-0.899603767694312,0.396951618388721,0.0293692006798994,ST
1.76666666666667,3.97884702682495,-0.177050322294235,7.72860527038574,1.90549993515015,2.71343183517456,-3.50611996650696,-1351.5,-0.300000011920929,-885.300048828125,-0.88797787644907,0.460732813105046,0.0183032301044117,ST
1.8,3.51050114631653,-0.267968058586121,8.78911304473877,1.00610399246216,3.46800994873047,-4.96954393386841,-1346.70007324219,-2.70000004768372,-887.700012207031,-0.878284271330654,0.385669670108044,0.0241269934483093,ST
1.83333333333333,3.9716694355011,-0.267968058586121,8.95659255981445,0.724089980125427,2.69818782806396,-6.48632192611694,-1344.30004882812,-4.5,-892.500061035156,-0.861572661085172,0.409124868879139,0.0237800564797937,ST
1.86666666666667,3.36754488945007,-0.133385881781578,9.19345760345459,0.541162014007568,1.6768399477005,-6.13570976257324,-1337.10009765625,-3.90000009536743,-894.900024414062,-0.839411406006635,0.354810387825178,0.0109706530640606,ST
1.9,3.42676115036011,0.307445496320724,9.72460842132568,0.213415995240211,0.731711983680725,-4.85521411895752,-1341.90002441406,-5.70000028610229,-902.100036621094,-0.812930670137747,0.339595072503227,-0.0288240937972579,ST
1.93333333333333,3.86400365829468,0.20097604393959,9.41656494140625,-0.37347799539566,0.198172003030777,-3.30794787406921,-1332.30004882812,-6.90000009536743,-894.900024414062,-0.804669874968774,0.383530649887818,-0.0236098507029582,ST
1.96666666666667,4.49145555496216,0.0083740018308162,9.59959697723389,-0.952749967575073,0.144817993044853,-2.12653803825378,-1332.30004882812,-8.10000038146973,-902.100036621094,-0.805725177900269,0.430072047873005,-0.0040140194011057,ST
2.0,4.43463182449341,-0.0550291538238525,9.79997444152832,-1.21189796924591,-0.152439996600151,-1.03659200668335,-1339.5,-7.50000047683716,-897.300048828125,-0.805483493627456,0.425866874890954,0.0054362225506721,ST
2.03333333333333,4.87067842483521,-0.139965459704399,10.2288427352905,-1.18903195858002,-1.39482593536377,-0.129574000835419,-1337.10009765625,-7.50000047683716,-894.900024414062,-0.807440509341148,0.44437366377163,0.0144723927630236,ST
2.06666666666667,4.85871553421021,0.0221312902867794,9.87294769287109,-0.701223969459534,-1.21189796924591,0.693601965904236,-1337.10009765625,-5.70000028610229,-892.500061035156,-0.802771141498844,0.457409651195155,0.0016004939134708,ST
2.1,4.57639169692993,0.0657957270741463,10.0517930984497,-1.02897000312805,-0.396344006061554,0.46494197845459,-1341.90002441406,-6.90000009536743,-899.700012207031,-0.800477370235155,0.431902806805761,-0.0035869846925002,ST
2.13333333333333,4.18640279769897,-0.0592161528766155,9.97523021697998,-1.18140995502472,0.952749967575073,-0.594515979290009,-1334.70007324219,-5.70000028610229,-899.700012207031,-0.801341107497256,0.399886993723604,0.0062660212309511,ST
2.16666666666667,4.32876062393188,-0.404942780733109,10.6906089782715,-1.90549993515015,1.51677799224854,-1.98171997070312,-1332.30004882812,-6.90000009536743,-902.100036621094,-0.804623583978633,0.383881782132899,0.0361652640817795,ST
2.2,4.02550220489502,-0.810483753681183,10.8425378799438,-1.76830399036407,1.64635193347931,-2.53812599182129,-1332.30004882812,-6.30000019073486,-904.500061035156,-0.807774697465574,0.355445875328407,0.0717228730045344,ST
2.23333333333333,3.68635511398315,-0.544908225536346,10.3939304351807,-1.30336201190948,2.23324584960938,-1.88263392448425,-1337.10009765625,-7.50000047683716,-902.100036621094,-0.795625728860879,0.339232791678404,0.0558604677350119,ST
2.26666666666667,3.40642428398132,-0.540123105049133,9.72341251373291,-0.403965979814529,3.20123982429504,-0.137196004390717,-1325.10009765625,-7.50000047683716,-906.900024414062,-0.794425185848912,0.332046510442392,0.0559862793538661,ST
2.3,3.3747227191925,-0.853550016880035,8.29863548278809,-0.632625997066498,2.83538389205933,0.731711983680725,-1322.70007324219,-5.10000038146973,-911.700012207031,-0.809429018166439,0.372996944912267,0.0973015026649171,ST
2.33333333333333,3.69114017486572,-1.56952714920044,7.46661853790283,-0.518296003341675,2.23324584960938,1.21189796924591,-1322.70007324219,-8.10000038146973,-909.300048828125,-0.848879536687633,0.43668892862299,0.193076834701275,ST
2.36666666666667,3.25808477401733,-2.91774129867554,8.88840484619141,0.198172003030777,2.9420919418335,1.07470202445984,-1315.5,-7.50000047683716,-918.900024414062,-0.892119362480291,0.341488973249245,0.304041992332491,ST
2.4,1.52347016334534,-2.73231720924377,9.44647216796875,0.952749967575073,3.25459384918213,0.807931959629059,-1308.30004882812,-4.5,-914.100036621094,-0.886974829318104,0.172162734892172,0.282749229273398,ST
2.43333333333333,0.86491471529007,-2.27952289581299,8.4415922164917,0.67835795879364,3.11739802360535,1.29574000835419,-1310.70007324219,-6.30000019073486,-926.100036621094,-0.886008880450957,0.10347574460632,0.265341601855886,ST
2.46666666666667,0.413316786289215,-2.52117252349854,9.51705265045166,-1.08232402801514,2.46190595626831,1.98171997070312,-1313.10009765625,-6.30000019073486,-926.100036621094,-0.889157579197753,0.045905454058669,0.261569293376298,ST
2.5,0.837400138378143,-2.51877999305725,9.74853420257568,-1.06708002090454,0.655492007732391,1.62348592281342,-1303.5,-5.70000028610229,-921.300048828125,-0.892862387513472,0.0770614472737635,0.255661594399696,ST
2.53333333333333,2.00497531890869,-2.4697322845459,9.77066516876221,1.07470202445984,-0.777444005012512,1.76068198680878,-1305.90002441406,-6.90000009536743,-926.100036621094,-0.897811485952016,0.181889400447285,0.247435625478536,ST
2.56666666666667,2.05940628051758,-1.68137991428375,9.53081035614014,2.31708788871765,-0.37347799539566,1.2576299905777,-1308.30004882812,-5.70000028610229,-928.500061035156,-0.890083690523622,0.206929910209082,0.179276612197625,ST
2.6,1.71607220172882,-1.1597992181778,8.79210376739502,1.87501192092896,0.37347799539566,0.525918006896973,-1301.10009765625,-6.30000019073486,-923.700012207031,-0.883656316055137,0.19262704688043,0.134940798893451,ST
2.63333333333333,1.64369690418243,-0.499449372291565,9.39383506774902,1.73019397258759,-0.0381099991500378,0.983237981796265,-1301.10009765625,-6.90000009536743,-923.700012207031,-0.873945289927176,0.175646737628304,0.0617840382820762,ST
2.66666666666667,2.32677626609802,-0.0968991592526436,9.64266300201416,1.73019397258759,-0.952749967575073,0.792688012123108,-1305.90002441406,-6.30000019073486,-921.300048828125,-0.867821249157972,0.229931877485564,0.0147752617061196,ST
2.7,2.83759021759033,-0.187816888093948,9.98599720001221,1.12805593013763,-0.152439996600151,0.67835795879364,-1305.90002441406,-4.5,-926.100036621094,-0.871306402317709,0.271990360933458,0.0168902141726033,ST
2.73333333333333,2.80050539970398,0.125011876225471,9.80117034912109,1.01372599601746,0.358233988285065,-0.243903994560242,-1308.30004882812,-7.50000047683716,-921.300048828125,-0.864028858586792,0.276912456732681,-0.0103796892194877,ST
2.76666666666667,2.30045795440674,-0.274547636508942,9.09476375579834,-0.0152439996600151,1.2576299905777,-0.823175966739655,-1303.5,-7.50000047683716,-928.500061035156,-0.870783628861312,0.249427573415992,0.024816834815942,ST
2.8,2.24961566925049,-0.650779545307159,8.82201099395752,-0.556405961513519,1.29574000835419,-1.02134799957275,-1301.10009765625,-7.50000047683716,-926.100036621094,-0.877849387130427,0.247254335133913,0.0674575826870925,ST
2.83333333333333,2.34890747070312,-0.687864422798157,8.37998294830322,0.0228659994900227,1.52439999580383,-0.518296003341675,-1296.30004882812,-8.10000038146973,-926.100036621094,-0.879210812788369,0.266785661842909,0.0796432988068828,ST
2.86666666666667,1.92841291427612,-1.17834162712097,8.72451305389404,-0.46494197845459,1.57013201713562,-0.449698001146317,-1296.30004882812,-9.30000019073486,-923.700012207031,-0.888802390086105,0.219287670222053,0.128460586313337,ST
2.9,1.7244461774826,-1.06290006637573,9.93096733093262,-0.0838419944047928,0.327746003866196,-0.548784017562866,-1296.30004882812,-8.10000038146973,-928.500061035156,-0.883115763521311,0.175748917274973,0.108904966818161,ST
2.93333333333333,1.83689701557159,-1.08204066753387,10.1660375595093,0.472563982009888,-0.0762199983000755,-0.510673999786377,-1293.90002441406,-9.30000019073486,-928.500061035156,-0.881353501020006,0.177700223652402,0.105576149183771,ST
2.96666666666667,3.03258490562439,-0.727341830730438,9.64445686340332,0.92988395690918,-1.27287399768829,-0.685979962348938,-1298.70007324219,-7.50000047683716,-928.500061035156,-0.873643740294552,0.292307316309296,0.0769168121447092,ST
3.0,3.6833643913269,-0.39537250995636,8.81004810333252,0.884151995182037,-0.670735955238342,-1.05183601379395,-1301.10009765625,-7.50000047683716,-926.100036621094,-0.861628186028218,0.384734621076113,0.0467185914409524,ST
3.03333333333333,2.67788600921631,-0.736313998699188,9.67556095123291,0.3125019967556,0.884151995182037,-1.38720393180847,-1293.90002441406,-8.70000076293945,-926.100036621094,-0.865900545796467,0.281440017174607,0.071483630177917,ST
3.06666666666667,2.22150301933289,-1.00428199768066,9.60797023773193,-0.960371971130371,0.967993974685669,-1.19665396213531,-1296.30004882812,-7.50000047683716,-928.500061035156,-0.86908599884948,0.232237425118074,0.10075513937758,ST
3.1,1.61259341239929,-1.05871307849884,10.3071994781494,-0.0076219998300075,1.44817996025085,0.365855991840363,-1293.90002441406,-9.90000057220459,-928.500061035156,-0.870047966211365,0.16044901494281,0.102253298664562,ST
3.13333333333333,1.54679775238037,-1.25968909263611,8.5546407699585,0.884151995182037,2.33233189582825,0.442075997591019,-1296.30004882812,-8.10000038146973,-928.500061035156,-0.877233560540109,0.171558696239735,0.140114192214422,ST
3.16666666666667,1.4881796836853,-0.830820560455322,8.73288726806641,1.2576299905777,1.82165801525116,0.868907988071442,-1286.70007324219,-9.90000057220459,-930.900024414062,-0.872821815078762,0.165663022600337,0.0992315445500493,ST
3.2,1.23337078094482,-0.622666835784912,10.1720190048218,1.96647596359253,-0.0914639979600906,2.41617393493652,-1279.5,-11.1000003814697,-935.700012207031,-0.875361113727677,0.126433992980806,0.0637821992675733,ST
3.23333333333333,1.62336003780365,-0.358287632465363,9.55892276763916,1.89787793159485,-1.32622802257538,2.99544596672058,-1284.30004882812,-9.90000057220459,-933.300048828125,-0.88126718193751,0.164274457488166,0.0388960238495458,ST
3.26666666666667,2.1712589263916,-0.0005981429712846,9.13125038146973,1.69970595836639,-0.975615978240967,3.353679895401,-1289.10009765625,-10.5,-933.300048828125,-0.885435418831685,0.226859629335113,0.003137240739959,ST
3.3,1.47860944271088,-0.480906963348389,9.497314453125,0.121951997280121,0.25152599811554,3.42989993095398,-1291.5,-8.70000076293945,-933.300048828125,-0.903300275692857,0.163524646667061,0.0449898239909159,ST
3.33333333333333,1.35658824443817,-0.638816714286804,9.67974758148193,-0.487807989120483,0.274392008781433,3.49087595939636,-1291.5,-10.5,-930.900024414062,-0.915941454619107,0.141536934372093,0.0645904769530299,ST
3.36666666666667,1.4660484790802,-0.753660142421722,9.50209903717041,-0.548784017562866,-0.335367977619171,3.84910988807678,-1284.30004882812,-8.70000076293945,-933.300048828125,-0.928794400503944,0.151178436412568,0.0788823111864849,ST
3.4,1.78366231918335,-0.939084470272064,9.36213397979736,-0.274392008781433,-0.899396002292633,3.68142580986023,-1286.70007324219,-7.50000047683716,-938.100036621094,-0.943632771056413,0.184306132009768,0.0991658339313895,ST
3.43333333333333,1.95054423809052,-0.729734420776367,9.67257022857666,0.335367977619171,-1.01372599601746,3.16313004493713,-1298.70007324219,-6.30000019073486,-930.900024414062,-0.949622385297814,0.197958178719537,0.0785479522898827,ST
3.46666666666667,2.32498168945312,-0.71059387922287,9.4907341003418,0.914639949798584,-0.868907988071442,2.27135586738586,-1289.10009765625,-6.30000019073486,-930.900024414062,-0.956120953777256,0.235435330289225,0.0746387941913766,ST
3.5,2.17963290214539,-0.282921612262726,9.71982288360596,0.945127964019775,-0.457319974899292,1.28049600124359,-1293.90002441406,-6.30000019073486,-928.500061035156,-0.95121082001045,0.223154811696327,0.0342511188327335,ST
3.53333333333333,2.21791410446167,-0.233873903751373,9.62112998962402,0.922261953353882,-0.708845973014832,0.472563982009888,-1298.70007324219,-6.30000019073486,-930.900024414062,-0.951102719602356,0.22722839941711,0.0241115981059401,ST
3.56666666666667,2.04385447502136,-0.141161739826202,9.23951435089111,0.449698001146317,-0.922261953353882,-0.503051996231079,-1289.10009765625,-6.90000009536743,-935.700012207031,-0.948036686662731,0.220222295381381,0.0154362266510462,ST
3.6,1.61678040027618,0.139965459704399,9.32026386260986,0.754577994346619,-0.510673999786377,-0.350611984729767,-1298.70007324219,-6.30000019073486,-928.500061035156,-0.941993660222641,0.179061508139759,-0.0121839668543408,ST
3.63333333333333,1.79024195671082,-0.186620607972145,9.74913215637207,0.396344006061554,-0.579271972179413,-0.350611984729767,-1298.70007324219,-6.30000019073486,-926.100036621094,-0.945951046393765,0.182125903149932,0.0142144643876282,ST
3.66666666666667,1.7364090681076,-0.245238617062569,9.96506214141846,-0.289635986089706,-0.861285984516144,-1.75305998325348,-1301.10009765625,-6.90000009536743,-930.900024414062,-0.94220111620262,0.174973991302682,0.0233720046785476,ST
3.7,1.28600740432739,-0.448607236146927,9.77664661407471,-0.106707997620106,0.350611984729767,-2.03507399559021,-1296.30004882812,-7.50000047683716,-926.100036621094,-0.939302939382625,0.136224759410705,0.0425455561545201,ST
3.73333333333333,0.78775429725647,-0.349913626909256,9.69769191741943,-0.106707997620106,0.609759986400604,-1.70732796192169,-1296.30004882812,-7.50000047683716,-928.500061035156,-0.933677835761953,0.0876312064484948,0.0368370482823119,ST
3.76666666666667,0.827231705188751,-0.300267785787582,9.83107757568359,0.0838419944047928,0.25152599811554,-0.388722002506256,-1291.5,-8.10000038146973,-926.100036621094,-0.932076617638091,0.0840502188207431,0.0312064353735816,ST
3.8,1.26507234573364,-0.41152235865593,9.45424747467041,-0.205793991684914,-0.480185985565186,-0.327746003866196,-1308.30004882812,-6.90000009536743,-933.300048828125,-0.932259914480052,0.127527403317906,0.0422094153302956,ST
3.83333333333333,1.53304040431976,-0.430662930011749,9.61335372924805,-0.731711983680725,-0.3125019967556,-0.586893975734711,-1296.30004882812,-8.10000038146973,-930.900024414062,-0.930776910354926,0.154380466184288,0.0453973185768306,ST
3.86666666666667,1.07486295700073,-0.253612607717514,9.75032901763916,-0.792688012123108,-0.304879993200302,-0.739333987236023,-1293.90002441406,-7.50000047683716,-930.900024414062,-0.926272740515057,0.116281312481596,0.0296642764129656,ST
3.9,0.872092425823212,-0.180041030049324,9.17969989776611,-0.823175966739655,-1.09756803512573,-1.03659200668335,-1296.30004882812,-8.10000038146973,-928.500061035156,-0.922312528538371,0.0993072595000555,0.0220483190309192,ST
3.93333333333333,1.66463184356689,-0.332567483186722,9.22157001495361,-2.26373386383057,-2.0731840133667,-0.266770005226135,-1298.70007324219,-6.30000019073486,-930.900024414062,-0.922897756540707,0.17172422691559,0.0376864098543172,ST
3.96666666666667,2.66592311859131,-0.723154842853546,9.90704250335693,-2.05031800270081,-0.342989981174469,-1.265251994133,-1296.30004882812,-5.70000028610229,-930.900024414062,-0.924881192959757,0.253130384962546,0.0717329781128069,ST
4.0,2.11024832725525,-0.924130916595459,9.7539176940918,-0.884151995182037,0.87652999162674,-1.44055795669556,-1301.10009765625,-5.10000038146973,-928.500061035156,-0.924741558317851,0.21613846408953,0.0924611950146788,ST
4.03333333333333,1.58747148513794,-0.722556710243225,9.45305156707764,-0.609759986400604,0.937505960464478,-1.47866797447205,-1291.5,-5.10000038146973,-918.900024414062,-0.917411154529824,0.171456148475048,0.0789391179569551,ST
4.06666666666667,1.87278568744659,-0.642405569553375,10.0410261154175,-0.571649968624115,0.92988395690918,-0.724089980125427,-1296.30004882812,-8.10000038146973,-923.700012207031,-0.912716134945408,0.181008112077858,0.0665756829900831,ST
4.1,2.29746723175049,-1.01325416564941,10.5195407867432,-0.259148001670837,0.945127964019775,0.388722002506256,-1296.30004882812,-5.70000028610229,-935.700012207031,-0.91846357744715,0.208133854204483,0.0925035911467494,ST
4.13333333333333,1.68736135959625,-0.942673325538635,9.78023529052734,0.198172003030777,0.0685980021953583,-1.44055795669556,-1293.90002441406,-6.90000009536743,-935.700012207031,-0.914490215967065,0.173953589131224,0.0950101747289128,ST
4.16666666666667,1.3559901714325,-0.20755560696125,9.56191349029541,0.792688012123108,1.92074394226074,0.0152439996600151,-1286.70007324219,-7.50000047683716,-938.100036621094,-0.904096884604144,0.141444373645736,0.0282872660948733,ST
4.2,1.78007352352142,-0.334960073232651,8.84593677520752,0.457319974899292,1.28049600124359,0.0914639979600906,-1284.30004882812,-6.30000019073486,-935.700012207031,-0.905704273381737,0.188799805245769,0.0358615878678997,ST
4.23333333333333,1.55756425857544,-0.361278355121613,9.30889892578125,-1.31098401546478,1.6844619512558,-0.647870004177094,-1289.10009765625,-7.50000047683716,-940.500061035156,-0.903568873492374,0.165561994786714,0.0403271775140681,ST
4.26666666666667,1.61259341239929,-0.711790144443512,8.58694076538086,-1.34909391403198,1.43293595314026,-0.655492007732391,-1286.70007324219,-6.30000019073486,-940.500061035156,-0.907411667470265,0.180314727566616,0.078790694742638,ST
4.3,1.53962004184723,-0.397166937589645,9.18867206573486,-1.44055795669556,1.08232402801514,-0.724089980125427,-1279.5,-5.10000038146973,-940.500061035156,-0.899483085292565,0.166258437785736,0.0499616825631478,ST
4.33333333333333,1.53483486175537,-0.52935653924942,8.62462329864502,-0.937505960464478,0.411587983369827,-0.548784017562866,-1281.90002441406,-6.30000019073486,-942.900024414062,-0.899278677456194,0.17393385052813,0.0610325383702181,ST
4.36666666666667,1.59943425655365,-0.874485015869141,9.10612869262695,-1.65397393703461,0.388722002506256,-0.152439996600151,-1277.10009765625,-5.10000038146973,-947.700012207031,-0.90359328276548,0.17260657365469,0.094536274158771,ST
4.4,1.89132809638977,-0.492869794368744,10.7480306625366,-0.914639949798584,0.213415995240211,0.0076219998300075,-1279.5,-5.10000038146973,-945.300048828125,-0.896003260566662,0.173532220278629,0.0533198759217132,ST
4.43333333333333,1.63412654399872,-0.836203873157501,9.37409687042236,-1.08232402801514,-0.0228659994900227,-0.533540010452271,-1281.90002441406,-6.30000019073486,-942.900024414062,-0.899523863299465,0.172247202338543,0.0856487856248662,ST
4.46666666666667,1.61797678470612,-1.33924210071564,9.71444034576416,-2.24086785316467,0.640248000621796,-1.11281192302704,-1279.5,-3.90000009536743,-945.300048828125,-0.903052836222393,0.163968062543537,0.133151039191512,ST
4.5,1.25968909263611,-1.63472473621368,9.46501445770264,-1.34147191047668,0.87652999162674,-0.396344006061554,-1269.90002441406,-3.90000009536743,-952.500061035156,-0.906096307341818,0.1327707305805,0.168945057631414,ST
4.53333333333333,1.19628596305847,-1.60601389408112,9.34837627410889,-0.342989981174469,0.121951997280121,0.617381989955902,-1277.10009765625,-5.70000028610229,-947.700012207031,-0.907862297694162,0.126105490839011,0.170606196912739,ST
4.56666666666667,1.39307498931885,-1.56414389610291,9.25566387176514,-0.0762199983000755,-1.15092194080353,0.800309956073761,-1274.70007324219,-3.30000019073486,-945.300048828125,-0.910305516795232,0.145974180833952,0.168170183505901,ST
4.6,1.93319809436798,-1.83091568946838,9.01700496673584,-0.121951997280121,-1.6768399477005,0.78506600856781,-1272.30004882812,-4.5,-947.700012207031,-0.918185192110893,0.201099618512232,0.196430412906349,ST
4.63333333333333,2.11742615699768,-1.99779748916626,9.14381122589111,-0.792688012123108,-1.48628997802734,-0.25152599811554,-1279.5,-5.10000038146973,-942.900024414062,-0.921511813269268,0.221875109205161,0.213791641996961,ST
4.66666666666667,2.06179881095886,-2.19398832321167,9.56310939788818,-0.967993974685669,-0.967993974685669,-1.2423859834671,-1274.70007324219,-2.70000004768372,-942.900024414062,-0.920445274745008,0.210834721785132,0.225202975268794,ST
4.7,1.73521280288696,-2.13656663894653,9.83287239074707,-0.320124000310898,-1.04421401023865,-2.18751406669617,-1284.30004882812,-3.90000009536743,-945.300048828125,-0.912607254006269,0.177714106216972,0.215197428022301,ST
4.73333333333333,1.41999137401581,-1.70949256420135,9.86696624755859,0.640248000621796,-1.2347639799118,-1.34147191047668,-1284.30004882812,-3.30000019073486,-938.100036621094,-0.903508908220931,0.148056804908426,0.176180414478531,ST
4.76666666666667,2.00318074226379,-1.58089184761047,9.21499061584473,1.2347639799118,-1.69970595836639,0.480185985565186,-1281.90002441406,-3.90000009536743,-942.900024414062,-0.905069709940647,0.204950896084151,0.169113996992415,ST
4.8,2.143146276474,-1.70769822597504,9.1749153137207,0.899396002292633,-0.937505960464478,0.937505960464478,-1286.70007324219,-4.5,-942.900024414062,-0.911212529862565,0.224067298630569,0.1810070984902,ST
4.83333333333333,2.20894193649292,-1.8506543636322,9.24848651885986,0.365855991840363,-0.632625997066498,0.541162014007568,-1286.70007324219,-3.30000019073486,-938.100036621094,-0.916410552386444,0.230031470319081,0.19494179316444,ST
4.86666666666667,2.22628808021545,-2.01514363288879,9.38486289978027,0.495429992675781,-0.792688012123108,0.922261953353882,-1284.30004882812,-3.30000019073486,-940.500061035156,-0.922891087569109,0.229083499523962,0.208901450767392,ST
4.9,2.39735698699951,-1.97147917747498,9.05708122253418,0.708845973014832,-0.152439996600151,0.693601965904236,-1284.30004882812,-4.5,-938.100036621094,-0.926372295672077,0.250088237249159,0.212833441669382,ST
4.93333333333333,2.29268193244934,-2.1252019405365,9.29633808135986,0.442075997591019,0.480185985565186,0.259148001670837,-1284.30004882812,-4.5,-942.900024414062,-0.929433023775624,0.23706176531223,0.222527995965653,ST
4.96666666666667,1.81356954574585,-2.07017278671265,9.76169300079346,0.564027965068817,0.891773998737335,0.213415995240211,-1284.30004882812,-5.10000038146973,-938.100036621094,-0.927178998913359,0.186129368817587,0.209938943329062,ST
5.0,1.87517821788788,-2.01813435554504,9.87115383148193,1.28049600124359,1.30336201190948,1.01372599601746,-1284.30004882812,-4.5,-935.700012207031,-0.928551717969314,0.181893255060527,0.20068840621275,ST
5.03333333333333,1.54081630706787,-1.87458002567291,9.76109504699707,1.56251001358032,1.6692179441452,1.35671591758728,-1284.30004882812,-4.5,-940.500061035156,-0.930493467986826,0.153858747210761,0.188728298814094,ST
5.06666666666667,1.20824885368347,-1.32309222221375,9.68871974945068,1.83690190315247,1.78354799747467,1.52439999580383,-1279.5,-5.10000038146973,-947.700012207031,-0.92798405939947,0.124124389457185,0.140323874522608,ST
5.1,1.66523003578186,-1.11314404010773,8.95001316070557,1.95885396003723,0.830797970294952,1.89025592803955,-1279.5,-3.90000009536743,-950.100036621094,-0.931363908710776,0.173073618709157,0.12347296997079,ST
5.13333333333333,1.12570512294769,-0.738108456134796,9.61813926696777,1.79879200458527,1.28811800479889,1.52439999580383,-1277.10009765625,-4.5,-945.300048828125,-0.929749575126234,0.121728018542184,0.0804464816980039,ST
5.16666666666667,1.94815170764923,-0.915158748626709,9.43331241607666,1.35671591758728,0.449698001146317,1.65397393703461,-1274.70007324219,-5.10000038146973,-945.300048828125,-0.936878062743618,0.190870363277644,0.0928532634464151,ST
5.2,1.74717557430267,-0.733323276042938,9.42493915557861,1.17378795146942,0.266770005226135,1.57775402069092,-1277.10009765625,-6.30000019073486,-945.300048828125,-0.939195658345646,0.183259084036908,0.078367033962709,ST
5.23333333333333,1.55995690822601,-0.708799421787262,9.28437519073486,1.40244793891907,0.571649968624115,1.42531394958496,-1272.30004882812,-4.5,-942.900024414062,-0.943566649020977,0.166790178249173,0.0746126716150546,ST
5.26666666666667,1.25610029697418,-0.551487803459167,9.81791877746582,1.42531394958496,1.02897000312805,1.6692179441452,-1269.90002441406,-7.50000047683716,-947.700012207031,-0.946473543920939,0.129564216463593,0.0562143486931504,ST
5.3,1.74956822395325,-0.593357801437378,9.1390266418457,1.2423859834671,0.381099998950958,1.45580196380615,-1272.30004882812,-6.30000019073486,-950.100036621094,-0.952172029852502,0.180621537280609,0.0622144528100395,ST
5.33333333333333,1.48937594890594,-0.181237325072289,9.19046688079834,1.02134799957275,0.266770005226135,1.32622802257538,-1269.90002441406,-6.30000019073486,-945.300048828125,-0.950030524554014,0.162488597398989,0.0233992571030422,ST
5.36666666666667,1.71068894863129,-0.512608528137207,9.88670539855957,0.442075997591019,0.175305992364883,1.32622802257538,-1272.30004882812,-4.5,-942.900024414062,-0.958319740759362,0.169756304614886,0.0481613463415529,ST
5.4,1.93259990215302,-0.779380261898041,9.39981651306152,-0.0381099991500378,0.762199997901917,0.350611984729767,-1267.5,-6.90000009536743,-947.700012207031,-0.964616611564375,0.196556708587384,0.0781679546941057,ST
5.43333333333333,1.59524726867676,-0.810483753681183,9.99197864532471,0.221037998795509,1.41006994247437,0.640248000621796,-1269.90002441406,-5.10000038146973,-947.700012207031,-0.966612368220553,0.160839151917475,0.08036515863734,ST
5.46666666666667,0.927121579647064,-0.742893576622009,10.4651098251343,1.02134799957275,1.86738991737366,0.815553963184357,-1267.5,-8.10000038146973,-947.700012207031,-0.967787347989078,0.0936136911869386,0.0704987553720786,ST
5.5,1.0575168132782,-0.474925518035889,9.16833591461182,0.983237981796265,0.632625997066498,0.739333987236023,-1260.30004882812,-8.70000076293945,-950.100036621094,-0.968386724513005,0.111201825137547,0.0525340618205504,ST
5.53333333333333,0.680088579654694,-0.460570096969604,9.84244251251221,0.510673999786377,0.289635986089706,0.221037998795509,-1265.10009765625,-6.90000009536743,-950.100036621094,-0.968597688811575,0.0737512461055868,0.0467268855556656,ST
5.56666666666667,1.08383500576019,-0.280529052019119,9.32205867767334,0.655492007732391,-1.265251994133,0.228659987449646,-1260.30004882812,-8.10000038146973,-952.500061035156,-0.968148455637587,0.111926359635725,0.0313915441743395,ST
5.6,1.32069969177246,-0.112450875341892,8.96496677398682,0.426831990480423,-1.43293595314026,0.282013982534409,-1265.10009765625,-5.70000028610229,-952.500061035156,-0.967076569672051,0.145091701188106,0.0138166078322064,ST
5.63333333333333,1.39845824241638,-0.247631192207336,9.38067626953125,-0.0533539988100529,-1.04421401023865,0.297257989645004,-1269.90002441406,-8.10000038146973,-952.500061035156,-0.969576318351627,0.149120948247749,0.0248462943385651,ST
5.66666666666667,1.15621042251587,-0.381017059087753,9.96386528015137,-0.114329993724823,-0.777444005012512,0.457319974899292,-1267.5,-6.30000019073486,-947.700012207031,-0.972502284937272,0.121138599517592,0.0366879021838792,ST
5.7,1.43673944473267,-0.468345940113068,9.94293022155762,-0.0914639979600906,-0.92988395690918,0.388722002506256,-1267.5,-7.50000047683716,-945.300048828125,-0.974892934026288,0.141726112539194,0.0458900568362166,ST
5.73333333333333,1.47442245483398,-0.616087257862091,9.96865081787109,-0.67835795879364,-0.541162014007568,-0.37347799539566,-1269.90002441406,-5.70000028610229,-950.100036621094,-0.975707897449327,0.146872505045726,0.0608548708610001,ST
5.76666666666667,1.72683870792389,-0.574815392494202,9.93874359130859,-1.34147191047668,-0.243903994560242,-1.21189796924591,-1265.10009765625,-4.5,-945.300048828125,-0.971302131860995,0.169351542059872,0.0598948633621724,ST
5.8,0.830222427845001,-0.721360445022583,10.2928438186646,0.106707997620106,0.228659987449646,-0.205793991684914,-1269.90002441406,-6.90000009536743,-947.700012207031,-0.971806097416915,0.090297721334614,0.0686050971483168,ST
5.83333333333333,0.772202551364899,-0.635227859020233,9.4727897644043,1.05183601379395,0.381099998950958,0.541162014007568,-1267.5,-6.30000019073486,-947.700012207031,-0.973287793523401,0.0817627621624731,0.0656576326843717,ST
5.86666666666667,0.742295444011688,-0.0556272976100445,8.94403171539307,1.08994603157043,-0.266770005226135,0.221037998795509,-1269.90002441406,-7.50000047683716,-938.100036621094,-0.969769273459807,0.0831241044689257,0.0104353087370645,ST
5.9,0.74050098657608,-0.169872596859932,9.18269062042236,0.426831990480423,-0.182927995920181,0.167683988809586,-1267.5,-6.90000009536743,-947.700012207031,-0.970879270318463,0.0810864368700028,0.0167855038418145,ST
5.93333333333333,1.09699416160583,-0.394176214933395,9.7000846862793,-0.503051996231079,-0.0685980021953583,-0.137196004390717,-1267.5,-6.30000019073486,-950.100036621094,-0.972381556482747,0.108696918352,0.0383664946125016,ST
5.96666666666667,1.61558413505554,-0.404942780733109,9.26643085479736,-0.762199997901917,-0.769822001457214,-0.708845973014832,-1267.5,-6.90000009536743,-947.700012207031,-0.970732021168128,0.166844148512595,0.0441192502235931,ST
6.0,0.775193274021149,-0.625059425830841,9.60378360748291,-0.701223969459534,0.937505960464478,-0.815553963184357,-1269.90002441406,-8.70000076293945,-950.100036621094,-0.97038646289911,0.0898517161177051,0.0633230578830427,ST
6.03333333333333,0.668723821640015,-0.730332553386688,9.84902191162109,-0.655492007732391,1.64635193347931,-0.274392008781433,-1262.70007324219,-6.30000019073486,-950.100036621094,-0.969902573163966,0.0679168698814596,0.0736368026938913,ST
6.06666666666667,0.462962657213211,-0.739902853965759,9.69350528717041,-0.746955990791321,1.62348592281342,-0.434453994035721,-1260.30004882812,-8.10000038146973,-952.500061035156,-0.968272803734641,0.0474978248816238,0.0769946902769548,ST
6.1,0.456981241703033,-0.751267552375793,9.74554347991943,-0.510673999786377,1.12805593013763,-0.975615978240967,-1260.30004882812,-4.5,-947.700012207031,-0.965185484613649,0.0452397890008542,0.0776417937190441,ST
6.13333333333333,0.303856641054153,-0.800913453102112,9.77425384521484,-0.571649968624115,-0.487807989120483,-1.17378795146942,-1250.70007324219,-5.70000028610229,-952.500061035156,-0.961742527533836,0.0334108878379414,0.0821442625957207,ST
6.16666666666667,0.808689296245575,-0.581993103027344,9.44467735290527,-0.571649968624115,-1.60061991214752,-1.2500079870224,-1255.5,-5.70000028610229,-950.100036621094,-0.957182215719344,0.0818369518803571,0.0646973041101958,ST
6.2,1.55576992034912,-0.804502308368683,9.70427131652832,-0.602137982845306,-1.84452390670776,-0.945127964019775,-1257.90002441406,-5.10000038146973,-952.500061035156,-0.956563509254125,0.150965283280962,0.0810002036300345,ST
6.23333333333333,2.37343120574951,-0.439635097980499,9.3956298828125,-0.282013982534409,-1.79879200458527,-1.14329993724823,-1267.5,-3.90000009536743,-945.300048828125,-0.947830316020793,0.236982789809786,0.0515437085915518,ST
6.26666666666667,2.00916218757629,-0.543113827705383,9.3597412109375,-0.442075997591019,-0.396344006061554,-0.640248000621796,-1265.10009765625,-6.30000019073486,-947.700012207031,-0.947161212295988,0.215250694249301,0.0575577732054521,ST
6.3,1.89910387992859,-0.744089841842651,10.2120952606201,-0.83841997385025,0.411587983369827,-0.160062000155449,-1262.70007324219,-5.10000038146973,-954.900024414062,-0.949022913515575,0.187089616970345,0.0719053196380495,ST
6.33333333333333,2.21791410446167,-0.707004964351654,9.40220928192139,-0.3125019967556,0.0304879993200302,0.236281991004944,-1262.70007324219,-6.90000009536743,-950.100036621094,-0.95016457950056,0.225018284664143,0.0751734347234456,ST
6.36666666666667,2.35130000114441,-0.765024840831757,8.65991401672363,0.0152439996600151,0.175305992364883,0.442075997591019,-1260.30004882812,-4.5,-950.100036621094,-0.95421382283071,0.259272564364,0.0867390079852579,ST
6.4,1.87278568744659,-1.47023546695709,8.54566860198975,0.320124000310898,0.693601965904236,1.15854394435883,-1260.30004882812,-5.10000038146973,-947.700012207031,-0.975018187435307,0.216895353737595,0.16061516281709,ST
6.43333333333333,1.15441596508026,-1.93798327445984,9.66120529174805,0.0457319989800453,1.13567793369293,1.12805593013763,-1260.30004882812,-6.30000019073486,-950.100036621094,-0.983204449186387,0.128202571829826,0.193114140589368,ST
6.46666666666667,1.0634982585907,-1.95353496074677,9.43989276885986,0.297257989645004,1.38720393180847,0.868907988071442,-1260.30004882812,-6.30000019073486,-950.100036621094,-0.986044467670861,0.110041135674498,0.202238606834491,ST
6.5,0.971384167671204,-1.87757074832916,9.62172794342041,-0.693601965904236,0.510673999786377,0.518296003341675,-1257.90002441406,-3.90000009536743,-954.900024414062,-0.986259099715045,0.0993800317440355,0.195111011375538,ST
6.53333333333333,0.910373628139496,-1.76212918758392,9.25446796417236,-0.571649968624115,0.114329993724823,0.114329993724823,-1257.90002441406,-6.90000009536743,-952.500061035156,-0.98585464861925,0.0965451043402346,0.189971134237969,ST
6.56666666666667,0.852951884269714,-1.92243146896362,9.24489784240723,-0.114329993724823,0.419209986925125,-0.0152439996600151,-1250.70007324219,-3.90000009536743,-950.100036621094,-0.986782347221868,0.0902071883761432,0.203439537148953,ST
6.6,0.698032855987549,-1.51330173015594,9.58703517913818,0.426831990480423,0.182927995920181,0.0228659994900227,-1253.10009765625,-5.70000028610229,-962.100036621094,-0.983472747679708,0.0740150909600939,0.162229333834583,ST
6.63333333333333,0.768015563488007,-1.38828980922699,9.80535793304443,0.99848198890686,-0.320124000310898,-0.0228659994900227,-1255.5,-5.10000038146973,-954.900024414062,-0.982214590838994,0.0775351488384663,0.141413912972441,ST
6.66666666666667,0.673509001731873,-1.24413740634918,9.72161769866943,1.18903195858002,-0.167683988809586,-0.304879993200302,-1255.5,-6.30000019073486,-947.700012207031,-0.980625985201793,0.0701274994742337,0.12736502627114,ST
6.7,0.661546111106873,-1.18432307243347,10.4824552536011,0.823175966739655,-0.663114011287689,0.350611984729767,-1250.70007324219,-4.5,-959.700012207031,-0.981097920489948,0.0645121959143894,0.113150396005137,ST
6.73333333333333,1.37632691860199,-1.0975923538208,9.84842395782471,0.807931959629059,-0.967993974685669,0.87652999162674,-1253.10009765625,-5.70000028610229,-957.300048828125,-0.984122394776871,0.131453108938216,0.110143581836499,ST
6.76666666666667,1.22559499740601,-0.914560616016388,9.62352180480957,1.05183601379395,0.426831990480423,0.640248000621796,-1260.30004882812,-3.90000009536743,-959.700012207031,-0.984436441597378,0.125925651337063,0.0948812695548807,ST
6.8,1.24712812900543,-0.977963745594025,9.5026969909668,0.685979962348938,0.846041977405548,-0.556405961513519,-1257.90002441406,-6.90000009536743,-950.100036621094,-0.983482718314106,0.128151257156131,0.10047768572294,ST
6.83333333333333,1.06589078903198,-1.1597992181778,9.03255653381348,0.495429992675781,0.83841997385025,-0.754577994346619,-1248.30004882812,-6.30000019073486,-950.100036621094,-0.983890751673372,0.116612214630034,0.123852857779579,ST
6.86666666666667,0.395970642566681,-0.988730311393738,9.70486927032471,0.823175966739655,1.12805593013763,-0.350611984729767,-1245.90002441406,-6.90000009536743,-957.300048828125,-0.981008641745664,0.0492051439140521,0.103240290426957,ST
6.9,0.675901532173157,-1.12989211082458,9.29574012756348,1.03659200668335,0.693601965904236,0.365855991840363,-1255.5,-6.30000019073486,-950.100036621094,-0.982817223459752,0.0678671355802875,0.117021659221534,ST
6.93333333333333,0.471934795379639,-0.90977543592453,9.57327842712402,1.2423859834671,0.320124000310898,1.00610399246216,-1245.90002441406,-9.30000019073486,-950.100036621094,-0.984555499099468,0.0509473661889263,0.0959578606128101,ST
6.96666666666667,0.814072608947754,-1.03478729724884,10.2898530960083,1.11281192302704,-0.92988395690918,2.0655620098114,-1245.90002441406,-8.70000076293945,-952.500061035156,-0.99107056016096,0.0759177733783245,0.09819638607017,ST
7.0,0.971982300281525,-1.04914271831512,9.76647853851318,0.92988395690918,-1.71494996547699,2.5152599811554,-1253.10009765625,-10.5,-952.500061035156,-0.999801274710834,0.0979924564377872,0.104867186398007,ST
7.03333333333333,1.78426051139832,-0.792539417743683,10.2031230926514,0.640248000621796,-0.548784017562866,2.54574799537659,-1250.70007324219,-8.70000076293945,-952.500061035156,-1.00506512786252,0.165716544119489,0.0798826781049574,ST
7.06666666666667,1.99420869350433,-0.917551338672638,9.39503192901611,0.632625997066498,-0.274392008781433,1.81403601169586,-1250.70007324219,-7.50000047683716,-947.700012207031,-1.01327180402861,0.202619035162753,0.0945607744659172,ST
7.1,1.39845824241638,-0.800913453102112,9.26762676239014,0.487807989120483,0.6250039935112,1.36433792114258,-1253.10009765625,-6.90000009536743,-954.900024414062,-1.01606371655411,0.154270445146414,0.0867476953394744,ST
7.13333333333333,1.03000223636627,-0.863718450069427,9.39084434509277,0.571649968624115,1.20427596569061,1.6768399477005,-1248.30004882812,-8.10000038146973,-957.300048828125,-1.02123935495746,0.112895751542492,0.0904753196284132,ST
7.16666666666667,0.592161536216736,-0.620274245738983,8.93505954742432,0.571649968624115,0.685979962348938,1.94360995292664,-1253.10009765625,-8.10000038146973,-952.500061035156,-1.02504531486589,0.0710985673437464,0.0715253874202297,ST
7.2,0.483299523591995,-0.439635097980499,9.62292385101318,0.83841997385025,-0.701223969459534,2.61434602737427,-1253.10009765625,-5.10000038146973,-950.100036621094,-1.03201359339548,0.0532626774277966,0.0473604942114152,ST
7.23333333333333,0.808091163635254,-0.204564899206161,10.820405960083,1.70732796192169,-1.36433792114258,2.72105383872986,-1255.5,-7.50000047683716,-954.900024414062,-1.0385662978519,0.073607873616295,0.0204622895866444,ST
7.26666666666667,1.44750595092773,0.625059425830841,9.82808685302734,2.33233189582825,-0.87652999162674,1.96647596359253,-1255.5,-7.50000047683716,-947.700012207031,-1.0369603695768,0.138347264058136,-0.0560909943003027,ST
7.3,1.46545028686523,0.570030272006989,9.06425857543945,0.525918006896973,-0.87652999162674,0.198172003030777,-1260.30004882812,-7.50000047683716,-947.700012207031,-1.03662956714798,0.158393515053602,-0.0626569703990972,ST
7.33333333333333,0.99590802192688,-0.465355217456818,9.78920745849609,-1.89025592803955,-0.358233988285065,-1.28811800479889,-1262.70007324219,-8.10000038146973,-959.700012207031,-1.04532408782852,0.109085460622657,0.0364156168254175,ST
7.36666666666667,0.999496877193451,-0.614292860031128,9.96147346496582,-1.63110792636871,-0.670735955238342,-1.12805593013763,-1255.5,-6.90000009536743,-957.300048828125,-1.04415553434612,0.102094893891785,0.0607568267030816,ST
7.4,1.13407909870148,-1.01205790042877,9.52363204956055,-0.792688012123108,-0.602137982845306,-0.548784017562866,-1253.10009765625,-8.10000038146973,-959.700012207031,-1.04686364106228,0.116729284848933,0.100878660231769,ST
7.43333333333333,0.748875021934509,-0.869699895381927,9.45125675201416,-0.228659987449646,0.0685980021953583,-0.503051996231079,-1255.5,-6.30000019073486,-964.500061035156,-1.04437330483694,0.082476102213366,0.0929500696108895,ST
7.46666666666667,0.797922730445862,-0.645994424819946,9.39682579040527,-0.129574000835419,0.152439996600151,-0.83841997385025,-1257.90002441406,-6.90000009536743,-952.500061035156,-1.04016548331024,0.0841086643668238,0.0720078818708657,ST
7.5,0.253612607717514,-0.850559294223785,9.47219181060791,-0.0304879993200302,0.708845973014832,-0.594515979290009,-1255.5,-5.70000028610229,-947.700012207031,-1.03902982277162,0.0318103049293232,0.0876792151318826,ST
7.53333333333333,0.14056359231472,-0.817661464214325,9.91242504119873,-0.297257989645004,0.594515979290009,-0.6250039935112,-1260.30004882812,-6.90000009536743,-954.900024414062,-1.03685131255667,0.0153496732202383,0.083364764785377,ST
7.56666666666667,0.231481328606606,-0.596946656703949,9.70128059387207,0.106707997620106,0.114329993724823,-0.152439996600151,-1255.5,-7.50000047683716,-957.300048828125,-1.03601495814349,0.0225943871294003,0.0640311723554138,ST
7.6,0.852951884269714,-0.816465139389038,9.53619384765625,-0.289635986089706,-0.388722002506256,-0.3125019967556,-1257.90002441406,-5.70000028610229,-957.300048828125,-1.03610101595099,0.0824025791147709,0.0835231198608841,ST
7.63333333333333,0.907981038093567,-0.632835268974304,9.18927001953125,-0.198172003030777,-0.152439996600151,-0.243903994560242,-1250.70007324219,-6.90000009536743,-954.900024414062,-1.03416523011641,0.0968214889091605,0.0706202790321833,ST
7.66666666666667,0.763230443000793,-0.70760315656662,10.2120952606201,-0.0609759986400604,0.967993974685669,0.129574000835419,-1248.30004882812,-5.70000028610229,-954.900024414062,-1.0342444001268,0.0751121263024938,0.0694262307598328,ST
7.7,0.992319166660309,-0.843381583690643,9.97283744812012,-0.0152439996600151,0.952749967575073,-0.106707997620106,-1253.10009765625,-6.30000019073486,-959.700012207031,-1.03481332109842,0.094622186008112,0.0826270020475156,ST
7.73333333333333,0.571824669837952,-0.865512907505035,10.139121055603,0.0990860015153885,1.21189796924591,-0.205793991684914,-1241.10009765625,-5.70000028610229,-954.900024414062,-1.03403472837548,0.0584127244037095,0.0847000407777882,ST
7.76666666666667,1.15441596508026,-0.565843224525452,9.30650615692139,0.304879993200302,-0.350611984729767,-0.426831990480423,-1248.30004882812,-6.30000019073486,-959.700012207031,-1.03094945155769,0.116821368379512,0.0627750073370425,ST
7.8,1.16458439826965,-0.461766362190247,9.210205078125,0.342989981174469,-0.815553963184357,-0.289635986089706,-1253.10009765625,-6.90000009536743,-954.900024414062,-1.02891224394999,0.125881715714971,0.050990214090008,ST
7.83333333333333,1.17236018180847,-0.307445496320724,9.78920745849609,0.952749967575073,-0.754577994346619,-0.236281991004944,-1253.10009765625,-6.30000019073486,-954.900024414062,-1.0263920290155,0.121199412894771,0.032561895687176,ST
7.86666666666667,1.60780835151672,-0.722556710243225,9.53200626373291,0.167683988809586,-0.396344006061554,-0.274392008781433,-1248.30004882812,-8.10000038146973,-957.300048828125,-1.03093648428336,0.16113172340225,0.069484207580697,ST
7.9,1.53184413909912,-0.420494496822357,9.45364952087402,0.129574000835419,0.0914639979600906,0.144817993044853,-1253.10009765625,-8.10000038146973,-954.900024414062,-1.02789944592994,0.160429249880941,0.0476679608147062,ST
7.93333333333333,1.11134958267212,-0.466551512479782,9.30889892578125,0.160062000155449,0.46494197845459,0.0914639979600906,-1248.30004882812,-6.30000019073486,-959.700012207031,-1.02842314801276,0.123604573478139,0.0495243714899904,ST
7.96666666666667,0.852951884269714,-0.894223749637604,9.65761661529541,-0.769822001457214,0.548784017562866,-0.518296003341675,-1245.90002441406,-7.50000047683716,-957.300048828125,-1.03069562293503,0.0918111893430735,0.0876428457965993,ST
8.0,1.07785367965698,-1.27344644069672,9.57148361206055,-1.32622802257538,-0.0762199983000755,-1.30336201190948,-1245.90002441406,-6.90000009536743,-957.300048828125,-1.03066918113484,0.108912121813265,0.12802785552415,ST
8.03333333333333,0.644199967384338,-1.46664655208588,9.3896484375,-1.51677799224854,-0.190549999475479,-1.54726600646973,-1243.5,-6.30000019073486,-952.500061035156,-1.02828029366565,0.0738815309921914,0.153425225051519,ST
8.06666666666667,0.551487803459167,-1.46545028686523,9.1922607421875,-0.830797970294952,0.0,-0.907018005847931,-1248.30004882812,-6.30000019073486,-952.500061035156,-1.02573923835307,0.0611029757990855,0.158744255227498,ST
8.1,0.580796837806702,-1.73880159854889,10.182785987854,-0.37347799539566,0.693601965904236,0.0609759986400604,-1245.90002441406,-5.10000038146973,-959.700012207031,-1.02608136513795,0.0557836651660952,0.168284943699087,ST
8.13333333333333,0.631639003753662,-1.50193703174591,9.79518890380859,-0.182927995920181,1.57775402069092,-0.449698001146317,-1248.30004882812,-6.30000019073486,-964.500061035156,-1.023180252137,0.0603981169885124,0.154386916338989,ST
8.16666666666667,0.569432079792023,-1.3440272808075,9.64266300201416,0.0076219998300075,0.87652999162674,-0.129574000835419,-1241.10009765625,-7.50000047683716,-962.100036621094,-1.02154200843228,0.0573116944950784,0.140162625364174,ST
8.2,0.453990519046783,-1.47382426261902,9.47219181060791,0.0609759986400604,0.221037998795509,0.114329993724823,-1241.10009765625,-6.30000019073486,-959.700012207031,-1.02242699308429,0.0483176572346058,0.15235517331478,ST
8.23333333333333,0.476121813058853,-1.40384149551392,9.87833118438721,0.6250039935112,-0.907018005847931,0.571649968624115,-1241.10009765625,-7.50000047683716,-959.700012207031,-1.02400809978161,0.0490001240512837,0.141786127594901,ST
8.26666666666667,0.650181412696838,-1.23875403404236,9.64565372467041,1.34909391403198,-1.6615959405899,1.27287399768829,-1241.10009765625,-6.90000009536743,-959.700012207031,-1.02768858357181,0.0665966025390521,0.127730227688349,ST
8.3,0.407335370779037,-1.20286548137665,9.29095458984375,1.34909391403198,-0.579271972179413,1.6920839548111,-1241.10009765625,-6.90000009536743,-964.500061035156,-1.03288352614654,0.0471227507614881,0.126713146424216,ST
8.33333333333333,0.455784946680069,-1.00248765945435,10.0398302078247,1.02134799957275,-0.617381989955902,2.09605002403259,-1241.10009765625,-7.50000047683716,-959.700012207031,-1.0380514329521,0.045998983968648,0.101802039658576,ST
8.36666666666667,0.769810020923615,-1.20346367359161,9.60497951507568,0.655492007732391,-1.00610399246216,1.78354799747467,-1241.10009765625,-8.10000038146973,-964.500061035156,-1.0447426762492,0.0760480652482824,0.120759854915087,ST
8.4,0.582591235637665,-1.0975923538208,9.22695350646973,0.411587983369827,-0.510673999786377,1.08994603157043,-1245.90002441406,-6.30000019073486,-966.900024414062,-1.04792908748907,0.0650007102673884,0.118212756085808,ST
8.43333333333333,0.70461243391037,-0.995309889316559,10.2378149032593,0.800309956073761,-1.02897000312805,1.63110792636871,-1250.70007324219,-6.30000019073486,-957.300048828125,-1.05175590693991,0.0692293987315194,0.0987614086468264,ST
8.46666666666667,1.7866530418396,-0.854746282100677,9.47219181060791,1.07470202445984,-2.59910202026367,1.75305998325348,-1248.30004882812,-5.10000038146973,-957.300048828125,-1.05677184217041,0.173584832866147,0.090017605064383,ST
8.5,2.08273386955261,-0.731528878211975,9.00683689117432,1.05945801734924,-2.00458598136902,1.22714197635651,-1253.10009765625,-5.70000028610229,-952.500061035156,-1.05955994326055,0.222228845690942,0.0811108837831502,ST
8.53333333333333,1.33146619796753,-0.854148149490356,9.45305156707764,0.525918006896973,0.205793991684914,1.12043392658234,-1250.70007324219,-6.90000009536743,-957.300048828125,-1.06429894745966,0.150107521041657,0.0883922877012661,ST
8.56666666666667,1.20765066146851,-0.541917502880096,9.81552600860596,0.518296003341675,0.6250039935112,1.45580196380615,-1255.5,-5.10000038146973,-954.900024414062,-1.06459069070477,0.124637671578321,0.0587946444176832,ST
8.6,1.7065018415451,-0.433653652667999,10.1762065887451,0.868907988071442,0.0,2.0655620098114,-1245.90002441406,-6.90000009536743,-952.500061035156,-1.06872158938502,0.160264251165751,0.0439548054014527,ST
8.63333333333333,1.7065018415451,-0.267968058586121,9.42015361785889,0.564027965068817,0.266770005226135,0.541162014007568,-1253.10009765625,-6.30000019073486,-952.500061035156,-1.0681917227525,0.176512113144025,0.0295177749330544,ST
8.66666666666667,1.19090270996094,-0.177648469805717,8.96137809753418,0.411587983369827,1.13567793369293,0.167683988809586,-1248.30004882812,-6.90000009536743,-954.900024414062,-1.06737562890122,0.135915909774695,0.0204301864783709,ST
8.7,0.586778283119202,0.042468149214983,9.86337757110596,0.221037998795509,0.571649968624115,0.609759986400604,-1248.30004882812,-6.30000019073486,-952.500061035156,-1.0669560059816,0.0688899277350982,-0.0012444498020874,ST
8.73333333333333,0.848764896392822,0.134582161903381,9.52482891082764,0.46494197845459,-0.0533539988100529,0.472563982009888,-1245.90002441406,-6.90000009536743,-952.500061035156,-1.06750301918954,0.086257573960914,-0.0130296856295084,ST
8.76666666666667,1.21961355209351,0.0023925718851387,9.35854530334473,0.266770005226135,-0.160062000155449,0.259148001670837,-1253.10009765625,-8.10000038146973,-959.700012207031,-1.06948504026345,0.124406870621102,-0.0022267452399642,ST
8.8,0.976767480373383,-0.0634031519293785,9.1330451965332,-0.350611984729767,-0.274392008781433,-0.983237981796265,-1248.30004882812,-8.10000038146973,-959.700012207031,-1.06728780994624,0.108893407990663,0.0063336006394312,ST
8.83333333333333,0.576011657714844,-0.196789041161537,9.37290000915527,-1.06708002090454,0.160062000155449,-1.42531394958496,-1248.30004882812,-6.30000019073486,-954.900024414062,-1.06417231483273,0.0675748636448929,0.020462804704355,ST
8.86666666666667,0.556871116161346,-0.751865744590759,10.3634252548218,-1.22714197635651,-0.0838419944047928,-0.83841997385025,-1245.90002441406,-6.90000009536743,-957.300048828125,-1.06443784306697,0.0556445441378101,0.0671890282374982,ST
8.9,0.57660984992981,-1.04615211486816,9.88491058349609,-1.12805593013763,-0.0228659994900227,-1.14329993724823,-1245.90002441406,-5.70000028610229,-962.100036621094,-1.062951314613,0.0578343042799902,0.101879284243445,ST
8.93333333333333,0.570030272006989,-1.08802211284637,9.59002590179443,-0.907018005847931,0.0533539988100529,-1.28049600124359,-1248.30004882812,-7.50000047683716,-962.100036621094,-1.05931737791042,0.0590173749781379,0.113177776453764,ST
8.96666666666667,0.171068891882896,-1.00188946723938,9.20601844787598,-0.411587983369827,0.342989981174469,-0.853663980960846,-1250.70007324219,-7.50000047683716,-964.500061035156,-1.05633572470786,0.0224397965737416,0.109514928057195,ST
9.0,0.333763778209686,-1.16398620605469,10.1983375549316,-0.388722002506256,-0.0838419944047928,-0.198172003030777,-1248.30004882812,-6.30000019073486,-959.700012207031,-1.055876624307,0.0313053031808479,0.113664249245621,ST
9.03333333333333,0.776987731456757,-1.0515353679657,9.84543323516846,-0.0304879993200302,-0.945127964019775,-0.0609759986400604,-1241.10009765625,-6.90000009536743,-966.900024414062,-1.05566847968535,0.0738686914399428,0.107364198219773,ST
9.06666666666667,1.46724474430084,-0.970187902450562,9.93694877624512,-0.167683988809586,-1.62348592281342,-0.426831990480423,-1248.30004882812,-5.70000028610229,-959.700012207031,-1.05393972949159,0.139414946079019,0.0987986625820482,ST
9.1,0.745884299278259,-1.09819054603577,8.74425220489502,-0.0304879993200302,-0.167683988809586,-0.609759986400604,-1248.30004882812,-5.70000028610229,-962.100036621094,-1.05485921181215,0.092223258620972,0.121377989788208,ST
9.13333333333333,0.608909547328949,-1.28660547733307,10.1289529800415,-0.236281991004944,0.846041977405548,0.0457319989800453,-1245.90002441406,-6.90000009536743,-962.100036621094,-1.05499730081353,0.0627001539041,0.12602673408695,ST
9.16666666666667,1.21602463722229,-1.06469452381134,9.79459095001221,0.556405961513519,-0.114329993724823,0.37347799539566,-1248.30004882812,-5.10000038146973,-957.300048828125,-1.0548161002923,0.114794620478707,0.109906954234472,ST
9.2,1.32488667964935,-0.995309889316559,9.51166915893555,0.716467976570129,-0.586893975734711,0.396344006061554,-1245.90002441406,-5.10000038146973,-959.700012207031,-1.05564731301389,0.135388672884332,0.104033923634011,ST
9.23333333333333,1.54380702972412,-0.874485015869141,8.90335845947266,0.800309956073761,-0.868907988071442,0.46494197845459,-1250.70007324219,-6.90000009536743,-950.100036621094,-1.05660257618102,0.167323817722736,0.0976611111453636,ST
9.26666666666667,0.940878868103027,-0.957028746604919,9.35435771942139,0.830797970294952,0.609759986400604,0.67835795879364,-1250.70007324219,-6.90000009536743,-959.700012207031,-1.05903247836425,0.107840650659882,0.10023650410391,ST
9.3,0.680686712265015,-0.961813926696777,9.71623420715332,0.556405961513519,0.815553963184357,0.830797970294952,-1248.30004882812,-6.30000019073486,-962.100036621094,-1.06132503890077,0.0723188125648898,0.0980628946888637,ST
9.33333333333333,0.78476357460022,-1.04316139221191,10.1576642990112,0.510673999786377,0.487807989120483,1.10518991947174,-1245.90002441406,-6.30000019073486,-964.500061035156,-1.06467636770284,0.0752113103816385,0.101107996718915,ST
9.36666666666667,1.32668113708496,-0.620274245738983,9.28497314453125,0.967993974685669,-1.32622802257538,0.213415995240211,-1243.5,-6.30000019073486,-969.300048828125,-1.06264218665837,0.134619338797837,0.069978091964398,ST
9.4,1.0395724773407,-0.482103228569031,9.48654747009277,0.983237981796265,-1.96647596359253,0.746955990791321,-1245.90002441406,-7.50000047683716,-959.700012207031,-1.06322345355013,0.115370189519048,0.052032236869343,ST
9.43333333333333,1.27643704414368,-0.515001118183136,9.61694240570068,0.609759986400604,-0.846041977405548,0.67835795879364,-1250.70007324219,-7.50000047683716,-957.300048828125,-1.06556239276359,0.130776800277712,0.0525201085694977,ST
9.46666666666667,1.38171029090881,-0.741697311401367,9.91362190246582,-0.632625997066498,-0.449698001146317,0.114329993724823,-1250.70007324219,-6.90000009536743,-959.700012207031,-1.06842219988651,0.137781833124591,0.0726668930412883,ST
9.5,1.11254596710205,-0.720762252807617,8.92429351806641,-0.967993974685669,-0.0762199983000755,-0.381099998950958,-1250.70007324219,-5.10000038146973,-954.900024414062,-1.0680090094053,0.125432816509015,0.0810902505218792,ST
9.53333333333333,0.804502308368683,-1.28899812698364,8.86926364898682,-1.34147191047668,0.861285984516144,-0.670735955238342,-1248.30004882812,-5.70000028610229,-957.300048828125,-1.07148937420004,0.0919041128489447,0.14004734264687,ST
9.56666666666667,0.300865918397903,-1.7304276227951,9.4554443359375,-1.53964400291443,1.43293595314026,-0.640248000621796,-1245.90002441406,-5.10000038146973,-962.100036621094,-1.07097410602115,0.0357827819156078,0.178950136365262,ST
9.6,0.452794224023819,-1.73162388801575,10.039231300354,-0.663114011287689,0.853663980960846,0.426831990480423,-1241.10009765625,-4.5,-957.300048828125,-1.07148286926419,0.042004223442729,0.172790822655694,ST
9.63333333333333,0.643003702163696,-1.79502701759338,10.3496675491333,-0.37347799539566,0.0762199983000755,0.67835795879364,-1241.10009765625,-4.5,-957.300048828125,-1.07335245334047,0.0584487654835901,0.172488113770359,ST
9.66666666666667,0.675303399562836,-1.52107763290405,9.11689472198486,-0.495429992675781,0.0533539988100529,-0.0914639979600906,-1248.30004882812,-5.70000028610229,-957.300048828125,-1.0726211611115,0.0709210815561759,0.167025625433302,ST
9.7,0.0879270136356354,-1.51389980316162,9.27719783782959,-1.44817996025085,1.43293595314026,-1.47866797447205,-1243.5,-3.30000019073486,-962.100036621094,-1.0674686723399,0.015901050866217,0.164582451623431,ST
9.73333333333333,0.0861325860023499,-1.60960268974304,9.63309288024902,-1.82165801525116,2.23324584960938,-1.79117000102997,-1241.10009765625,-3.30000019073486,-964.500061035156,-1.061298080714,0.0069001566280033,0.168150747715888,ST
9.76666666666667,0.989328503608704,-1.64369690418243,9.59421348571777,0.297257989645004,-1.03659200668335,0.685979962348938,-1236.30004882812,-3.90000009536743,-962.100036621094,-1.06406542966898,0.0925531528470853,0.169148536636061,ST
9.8,1.29139065742493,-1.60421943664551,9.79937648773193,2.56861400604248,0.350611984729767,3.86435389518738,-1236.30004882812,-5.10000038146973,-959.700012207031,-1.07565474534618,0.123863429146105,0.159696363196423,ST
9.83333333333333,1.63352847099304,-0.847568571567535,10.3191623687744,3.00306797027588,1.41769194602966,3.49087595939636,-1241.10009765625,-5.70000028610229,-962.100036621094,-1.07720857277006,0.150265357587596,0.086425539947617,ST
9.86666666666667,1.12510693073273,-0.649583280086517,10.0882797241211,2.0655620098114,2.86587190628052,1.99696397781372,-1231.5,-5.70000028610229,-966.900024414062,-1.08018850173006,0.111641764206674,0.0644879998214563,ST
9.9,0.190807610750198,-0.467149674892426,9.60378360748291,0.868907988071442,5.03051996231079,0.640248000621796,-1231.5,-3.90000009536743,-966.900024414062,-1.08034973811485,0.0246124761663356,0.0494521115990731,ST
9.93333333333333,0.0717771574854851,-0.878073871135712,8.98590183258057,-0.37347799539566,6.02137994766235,0.647870004177094,-1217.10009765625,-5.10000038146973,-971.700012207031,-1.08148035235042,0.0010650586937718,0.0914949268989442,ST
9.96666666666667,-0.488682806491852,-0.812278151512146,9.54875469207764,-0.0685980021953583,5.51070594787598,0.777444005012512,-1209.90002441406,-5.70000028610229,-964.500061035156,-1.08245912112621,-0.052311163015884,0.0858464440233901,ST
10.0,-0.388194799423218,-0.718369722366333,9.29693603515625,0.297257989645004,3.17837381362915,1.6844619512558,-1202.70007324219,-4.5,-971.700012207031,-1.08741778297081,-0.0478601117798362,0.0774057034128189,ST
10.0333333333333,-0.61249840259552,-0.544908225536346,9.14082050323486,-0.640248000621796,1.30336201190948,1.6692179441452,-1197.90002441406,-5.70000028610229,-966.900024414062,-1.09334170262447,-0.0669518804840903,0.0623057851921846,ST
10.0666666666667,0.0669920146465302,-0.720762252807617,9.73477649688721,-1.04421401023865,-0.442075997591019,0.792688012123108,-1195.5,-5.70000028610229,-974.100036621094,-1.09539737191595,-0.0025298114575686,0.0738970818546595,ST
10.1,-0.262584775686264,-0.980356335639954,9.87294769287109,-0.78506600856781,-0.320124000310898,0.327746003866196,-1197.90002441406,-5.10000038146973,-964.500061035156,-1.09615851359197,-0.0227912192794058,0.0967601735822321,ST
10.1333333333333,-0.74947315454483,-1.04794645309448,11.0243730545044,-0.213415995240211,0.182927995920181,-0.121951997280121,-1202.70007324219,-2.70000004768372,-969.300048828125,-1.09584436619534,-0.0617825486398224,0.0953761223943865,ST
10.1666666666667,-0.568235814571381,-0.66932201385498,9.82210540771484,0.846041977405548,-0.411587983369827,-0.160062000155449,-1195.5,-5.10000038146973,-974.100036621094,-1.09682353538668,-0.0575759794938328,0.0704632965125969,ST
10.2,-0.572422802448273,-0.643003702163696,9.46262168884277,0.899396002292633,-0.289635986089706,0.259148001670837,-1200.30004882812,-3.90000009536743,-971.700012207031,-1.09768520748573,-0.0595057518399989,0.0668182158446108,ST
10.2333333333333,-1.23157632350922,-0.418101936578751,8.21848487854004,0.960371971130371,0.739333987236023,0.663114011287689,-1200.30004882812,-3.30000019073486,-969.300048828125,-1.10068806656953,-0.137679628937089,0.0514529168082106,ST
10.2666666666667,-1.32309222221375,-0.467149674892426,10.0793075561523,0.358233988285065,1.40244793891907,1.65397393703461,-1195.5,-5.10000038146973,-974.100036621094,-1.10606728906171,-0.133512162741011,0.0460267437526064,ST
10.3,-0.506028950214386,-0.0460570082068443,9.38247108459473,1.12043392658234,-0.533540010452271,1.50915598869324,-1197.90002441406,-5.70000028610229,-971.700012207031,-1.11381990046326,-0.0638812439714019,0.0085646497455822,ST
10.3333333333333,-1.38290655612946,-0.532945394515991,9.47159385681152,-0.0304879993200302,1.56251001358032,0.564027965068817,-1195.5,-5.70000028610229,-974.100036621094,-1.11119648966625,-0.136217829084917,0.0496733392917274,ST
10.3666666666667,-0.730332553386688,-0.760837852954865,9.85201263427734,-1.2500079870224,1.6844619512558,0.594515979290009,-1190.70007324219,-3.90000009536743,-976.500061035156,-1.11021142998521,-0.0836840647358145,0.0757721107340332,ST
10.4,-1.04196500778198,-0.608311414718628,9.92378997802734,-1.62348592281342,1.27287399768829,-1.47866797447205,-1190.70007324219,-3.30000019073486,-978.900024414062,-1.10687191063877,-0.103820261679928,0.0656585867741508,ST
10.4333333333333,-2.16467952728271,-1.07904994487762,9.36332988739014,-1.27287399768829,1.60061991214752,-1.64635193347931,-1183.5,-2.70000004768372,-971.700012207031,-1.0946592129649,-0.21483075247668,0.111897877048757,ST
10.4666666666667,-0.680088579654694,-1.39965450763702,9.7299919128418,-1.21951997280121,0.480185985565186,-0.602137982845306,-1183.5,-2.70000004768372,-976.500061035156,-1.08890157354388,-0.089375240766464,0.140738302206635,ST
10.5,-0.256603330373764,-1.07725548744202,9.30889892578125,-0.442075997591019,-1.20427596569061,-1.31860601902008,-1185.90002441406,-3.30000019073486,-976.500061035156,-1.08697220835603,-0.0336903021235104,0.119400078965769,ST
10.5333333333333,-2.0791449546814,-1.57610678672791,10.3801727294922,1.08232402801514,1.62348592281342,-0.899396002292633,-1185.90002441406,-2.70000004768372,-978.900024414062,-1.08077341602971,-0.175765017363944,0.144991020805722,ST
10.5666666666667,-0.844577848911285,-1.13228464126587,10.0398302078247,0.716467976570129,0.564027965068817,-0.670735955238342,-1181.10009765625,-3.90000009536743,-976.500061035156,-1.08233049963139,-0.095691361819647,0.115404696681078,ST
10.6,-0.860727727413177,-0.75545459985733,9.20900917053223,0.975615978240967,-1.44817996025085,-1.65397393703461,-1183.5,-3.90000009536743,-971.700012207031,-1.08024747682042,-0.0907093984234459,0.0841491196355259,ST
10.6333333333333,-0.52636581659317,-0.91874760389328,8.94223785400391,0.861285984516144,-0.259148001670837,-0.907018005847931,-1183.5,-3.90000009536743,-976.500061035156,-1.07632973796032,-0.0619973760159812,0.098883151833488,ST
10.6666666666667,0.0119628589600325,-0.923532724380493,8.71733570098877,0.472563982009888,-0.533540010452271,-1.35671591758728,-1185.90002441406,-6.30000019073486,-969.300048828125,-1.0723815040665,-0.0061764443304809,0.103976519603298,ST
10.7,-1.48758161067963,-0.95463615655899,9.26344013214111,0.556405961513519,-0.152439996600151,-1.21189796924591,-1181.10009765625,-3.90000009536743,-976.500061035156,-1.0685351203861,-0.142782856783217,0.102177148477329,ST
10.7333333333333,-1.56892895698547,-1.66523003578186,10.2198705673218,0.37347799539566,0.769822001457214,-0.670735955238342,-1176.30004882812,-3.90000009536743,-983.700012207031,-1.05829713517172,-0.150620764009394,0.154739607576055,ST
10.7666666666667,-1.55158281326294,-1.40025269985199,9.3118896484375,0.503051996231079,-0.67835795879364,-1.47104597091675,-1181.10009765625,-5.70000028610229,-978.900024414062,-1.05502862747872,-0.160246189193145,0.149561995288571,ST
10.8,-1.49775004386902,-1.28421294689178,9.91960334777832,0.609759986400604,-1.27287399768829,-0.830797970294952,-1183.5,-6.30000019073486,-981.300048828125,-1.05580561371036,-0.148131277800626,0.130781583025327,ST
10.8333333333333,-0.0089721446856856,-1.05512416362762,9.32684326171875,1.16616594791412,-3.20123982429504,0.0533539988100529,-1185.90002441406,-5.10000038146973,-974.100036621094,-1.05824524579408,-0.0160556565142809,0.113319187505154,ST
10.8666666666667,0.107665732502937,-1.08921837806702,9.52482891082764,0.952749967575073,-1.96647596359253,0.335367977619171,-1188.30004882812,-5.70000028610229,-974.100036621094,-1.05993877361979,0.0110204193006231,0.112333087140006,ST
10.9,-0.970187902450562,-1.30933499336243,9.90764045715332,0.213415995240211,0.937505960464478,-0.121951997280121,-1185.90002441406,-8.10000038146973,-976.500061035156,-1.05853922812872,-0.0865912506568337,0.129028769693147,ST
10.9333333333333,-0.390587359666824,-1.17594909667969,9.40101337432861,0.160062000155449,-0.0457319989800453,0.472563982009888,-1181.10009765625,-6.30000019073486,-969.300048828125,-1.06020026308567,-0.0469073210119935,0.124731480114307,ST
10.9666666666667,-0.74050098657608,-1.51449799537659,8.86029148101807,0.472563982009888,0.259148001670837,0.586893975734711,-1185.90002441406,-7.50000047683716,-964.500061035156,-1.05932845773065,-0.0783031628612378,0.162915653959125,ST
11.0,-1.90508532524109,-1.46245956420898,8.70955944061279,0.403965979814529,1.92074394226074,0.190549999475479,-1188.30004882812,-5.10000038146973,-976.500061035156,-1.05846637593582,-0.197162053566973,0.165333272442324,ST
11.0333333333333,-2.28969120979309,-1.38529908657074,9.32086181640625,0.144817993044853,1.84452390670776,0.914639949798584,-1188.30004882812,-6.90000009536743,-981.300048828125,-1.06359102015973,-0.236196456505174,0.149352422886783,ST
11.0666666666667,-2.91116189956665,-1.52107763290405,10.916109085083,0.327746003866196,0.899396002292633,1.265251994133,-1185.90002441406,-4.5,-981.300048828125,-1.0690215792704,-0.256872022652315,0.138998476112371,ST
11.1,-1.46784281730652,-1.50133883953094,12.9318513870239,1.37195992469788,-2.14178204536438,3.48325395584106,-1181.10009765625,-5.10000038146973,-974.100036621094,-1.08331114730737,-0.129237242315674,0.115758416285879,ST
11.1333333333333,0.849363029003143,-1.338045835495,9.57088565826416,2.70580983161926,-4.984787940979,2.18751406669617,-1188.30004882812,-6.30000019073486,-969.300048828125,-1.09091922656127,0.0674604470251431,0.131984619001066,ST
11.1666666666667,1.04854464530945,-0.729136288166046,9.50628662109375,2.14178204536438,-1.38720393180847,1.18140995502472,-1195.5,-6.90000009536743,-971.700012207031,-1.09083735350775,0.105789929797791,0.0810197940359944,ST
11.2,0.296080768108368,-0.439635097980499,8.69161510467529,1.6615959405899,-0.137196004390717,0.586893975734711,-1193.10009765625,-7.50000047683716,-971.700012207031,-1.09086871403222,0.0418852693457749,0.0512619415486062,ST
11.2333333333333,0.147143170237541,-0.333165645599365,8.25437259674072,1.13567793369293,-0.289635986089706,1.63110792636871,-1195.5,-9.30000019073486,-976.500061035156,-1.09577341013943,0.0207402832540056,0.0398084395764318,ST
11.2666666666667,-0.196190893650055,-0.33137121796608,8.20173645019531,0.87652999162674,-0.777444005012512,2.0655620098114,-1197.90002441406,-8.70000076293945,-971.700012207031,-1.10216558845644,-0.0176377100670511,0.0389319610046363,ST
11.3,-1.06768524646759,-0.107665732502937,9.0851936340332,1.09756803512573,-0.967993974685669,2.61434602737427,-1195.5,-9.90000057220459,-966.900024414062,-1.11106178987532,-0.102143266567529,0.0135592477792422,ST
11.3333333333333,-2.167072057724,-0.177050322294235,11.4879341125488,1.98934197425842,-1.79879200458527,3.82624387741089,-1193.10009765625,-8.70000076293945,-969.300048828125,-1.12277132619197,-0.17527395970724,0.0111116073478936,ST
11.3666666666667,-0.863718450069427,0.080151155591011,11.6727600097656,3.86435389518738,-3.97868394851685,3.07166600227356,-1197.90002441406,-9.30000019073486,-974.100036621094,-1.13297056756424,-0.0815343093529695,-0.0107509713121758,ST
11.4,0.976169347763062,1.02880585193634,8.98291110992432,2.29422187805176,-4.78661584854126,0.243903994560242,-1205.10009765625,-10.5,-964.500061035156,-1.13255176087448,0.0890721925995297,-0.103404325746303,ST
11.4333333333333,0.73751026391983,0.909177303314209,8.96436882019043,0.259148001670837,-1.15854394435883,-1.33385002613068,-1217.10009765625,-7.50000047683716,-964.500061035156,-1.12859236557115,0.0842027290532801,-0.101967465125713,ST
11.4666666666667,-0.122021168470383,0.382811486721039,9.12048435211182,-1.39482593536377,0.129574000835419,-1.37195992469788,-1209.90002441406,-9.30000019073486,-964.500061035156,-1.12678719153987,-0.0005078729797414,-0.0479823584629896,ST
11.5,-0.744687974452972,0.21712589263916,8.95479869842529,-1.16616594791412,0.533540010452271,-0.434453994035721,-1209.90002441406,-9.30000019073486,-962.100036621094,-1.12491035437847,-0.0726323244614543,-0.0256649630992938,ST
11.5333333333333,-0.246434897184372,-0.20755560696125,9.75571155548096,-0.807931959629059,-0.0076219998300075,0.221037998795509,-1209.90002441406,-9.90000057220459,-959.700012207031,-1.12351601327708,-0.0299502565574079,0.0178780982634992,ST
11.5666666666667,-0.28112718462944,-0.184228032827377,10.4758758544922,-0.0381099991500378,-0.525918006896973,-0.510673999786377,-1207.5,-9.90000057220459,-964.500061035156,-1.1220810443491,-0.0264394052400832,0.0177019797386986,ST
11.6,-0.544908225536346,-0.349315494298935,10.7067594528198,0.320124000310898,-0.236281991004944,-1.08232402801514,-1207.5,-9.90000057220459,-966.900024414062,-1.11848965475558,-0.0471307148273821,0.03018466585536,ST
11.6333333333333,0.277538329362869,-0.28411790728569,10.0571756362915,-0.152439996600151,-1.06708002090454,-1.34147191047668,-1205.10009765625,-11.1000003814697,-964.500061035156,-1.11439707722658,0.0212779811265304,0.0286761305935985,ST
11.6666666666667,0.0125610027462244,-0.03828115016222,9.3477783203125,0.106707997620106,-0.731711983680725,-1.54726600646973,-1207.5,-9.30000019073486,-969.300048828125,-1.10969697076404,0.0051678181899756,0.0072300589809571,ST
11.7,0.0825437307357788,-0.0305052921175957,8.66290473937988,0.708845973014832,1.11281192302704,-0.144817993044853,-1205.10009765625,-9.90000057220459,-969.300048828125,-1.1091993031846,0.0073467301800561,0.0027733896625119,ST
11.7333333333333,-0.0807493031024933,0.138171032071114,8.68264293670654,0.0838419944047928,1.63872992992401,0.205793991684914,-1209.90002441406,-11.1000003814697,-957.300048828125,-1.10983837387634,-0.0095218269250537,-0.0135173539376408,ST
11.7666666666667,-1.16518247127533,0.23925718665123,8.41048812866211,-0.884151995182037,1.76068198680878,-0.823175966739655,-1205.10009765625,-9.90000057220459,-966.900024414062,-1.10851427811606,-0.122954653743861,-0.0249425287504817,ST
11.8,-1.35539197921753,-0.284716039896011,10.5027923583984,-1.91312193870544,1.35671591758728,-0.396344006061554,-1195.5,-8.70000076293945,-976.500061035156,-1.10202650746653,-0.1296321895918,0.023041988477729,ST
11.8333333333333,-0.10826388001442,-0.598142981529236,11.3126783370972,-2.18751406669617,-1.41769194602966,-0.137196004390717,-1200.30004882812,-9.30000019073486,-966.900024414062,-1.10000892569763,-0.0236452247205708,0.0521378645359752,ST
11.8666666666667,0.320604622364044,-1.17295837402344,9.86397552490234,-1.73019397258759,-1.98934197425842,-0.990859985351562,-1207.5,-6.90000009536743,-971.700012207031,-1.09775425809345,0.0278463164146841,0.111997436221961,ST
11.9,0.387596637010574,-1.7525589466095,10.1911602020264,-1.98934197425842,0.205793991684914,-0.777444005012512,-1205.10009765625,-8.10000038146973,-969.300048828125,-1.09692225905453,0.0361391111251492,0.165986827965164,ST
11.9333333333333,0.178844749927521,-1.4241783618927,8.53609848022461,-1.00610399246216,0.350611984729767,-1.84452390670776,-1200.30004882812,-7.50000047683716,-966.900024414062,-1.0911287975382,0.0223963499061388,0.166875334753159,ST
11.9666666666667,-0.38939106464386,-1.09878861904144,8.45056343078613,-0.350611984729767,0.0,-0.525918006896973,-1205.10009765625,-7.50000047683716,-966.900024414062,-1.08986435503247,-0.0363551683095965,0.134930898294709,ST
12.0,0.257201462984085,-1.05871307849884,8.49303245544434,0.411587983369827,-0.746955990791321,0.0914639979600906,-1200.30004882812,-8.70000076293945,-971.700012207031,-1.09046852063948,0.0221782301403281,0.124875208403641,ST
12.0333333333333,0.279930919408798,-1.23157632350922,8.55523872375488,0.266770005226135,-0.807931959629059,-0.586893975734711,-1200.30004882812,-6.30000019073486,-974.100036621094,-1.08946984383707,0.0325512597947711,0.140439349669975,ST
12.0666666666667,-0.702817976474762,-1.36256968975067,10.4286222457886,-0.396344006061554,-0.388722002506256,-0.480185985565186,-1205.10009765625,-7.50000047683716,-974.100036621094,-1.08829081421565,-0.0544905876229522,0.131786376803554,ST
12.1,-0.186620607972145,-1.52885341644287,10.8909873962402,-0.487807989120483,-1.18140995502472,-0.0838419944047928,-1202.70007324219,-7.50000047683716,-971.700012207031,-1.08829890995423,-0.0194977403085096,0.139326477472286,ST
12.1333333333333,-0.0699827298521996,-1.72205364704132,10.2503757476807,0.0762199983000755,-1.49391198158264,0.388722002506256,-1205.10009765625,-6.90000009536743,-969.300048828125,-1.08975360207112,-0.0063217319623756,0.162657995784449,ST
12.1666666666667,-0.29009935259819,-1.92183339595795,9.7539176940918,0.129574000835419,0.3125019967556,0.37347799539566,-1212.30004882812,-7.50000047683716,-966.900024414062,-1.09019504543412,-0.0266508249117107,0.190025137137545,ST
12.2,0.0185424312949181,-1.43374872207642,10.0398302078247,0.487807989120483,-0.426831990480423,0.586893975734711,-1207.5,-6.90000009536743,-974.100036621094,-1.09275911950662,-0.0009629114709951,0.146677212197989,ST
12.2333333333333,-0.594554126262665,-1.13467717170715,9.07681941986084,1.53202199935913,0.182927995920181,1.21951997280121,-1200.30004882812,-6.90000009536743,-969.300048828125,-1.09698033912084,-0.0585571431783574,0.1242956930959,ST
12.2666666666667,-0.629844546318054,-0.933103024959564,9.51107120513916,1.17378795146942,0.205793991684914,1.45580196380615,-1207.5,-8.10000038146973,-966.900024414062,-1.10253625194945,-0.065448598809086,0.0991841308487706,ST
12.3,-0.0891233012080193,-0.994711756706238,9.41536808013916,1.2423859834671,-0.663114011287689,1.59299790859222,-1209.90002441406,-6.90000009536743,-969.300048828125,-1.10701700088472,-0.0162311460234818,0.102495710589174,ST
12.3333333333333,-0.48150509595871,-0.922934591770172,10.1325416564941,1.52439999580383,0.0,1.57775402069092,-1209.90002441406,-8.70000076293945,-969.300048828125,-1.11204580042797,-0.0439078553913021,0.0897471233531853,ST
12.3666666666667,-0.314025074243546,-0.736313998699188,10.3676118850708,1.6692179441452,-0.0685980021953583,1.40244793891907,-1209.90002441406,-6.90000009536743,-969.300048828125,-1.11662251613529,-0.0321106676024608,0.0708522300917636,ST
12.4,0.730930685997009,-0.614292860031128,9.49432373046875,1.53202199935913,-1.57775402069092,1.34909391403198,-1207.5,-5.70000028610229,-964.500061035156,-1.12089919015614,0.0652953078951527,0.0631543304459776,ST
12.4333333333333,0.0328978635370731,-0.498851239681244,9.17431735992432,0.922261953353882,-0.663114011287689,0.975615978240967,-1209.90002441406,-8.70000076293945,-962.100036621094,-1.12373478236037,0.0116851479310984,0.0539590236099119,ST
12.4666666666667,0.388792932033539,-0.382213354110718,9.43929386138916,0.480185985565186,-0.350611984729767,1.6615959405899,-1209.90002441406,-9.30000019073486,-969.300048828125,-1.1282925314187,0.0375711674039328,0.0416481451892869,ST
12.5,-0.183031752705574,-0.30923992395401,9.69948673248291,0.434453994035721,0.0304879993200302,1.16616594791412,-1209.90002441406,-8.10000038146973,-969.300048828125,-1.13153865223756,-0.0113402318043294,0.0325366356599238,ST
12.5333333333333,0.0478514358401299,-0.272753208875656,10.2402076721191,0.449698001146317,-0.259148001670837,2.15702605247498,-1207.5,-7.50000047683716,-971.700012207031,-1.13778815491188,0.0028075033133137,0.0267467943342544,ST
12.5666666666667,-0.0239257179200649,-0.0891233012080193,9.62172794342041,0.548784017562866,-0.815553963184357,1.53964400291443,-1205.10009765625,-8.10000038146973,-966.900024414062,-1.14224634435369,-0.0005742046128051,0.0107963683268605,ST
12.6,0.276342064142227,-0.0023925718851387,9.71503829956055,0.289635986089706,-0.350611984729767,1.95885396003723,-1212.30004882812,-7.50000047683716,-969.300048828125,-1.1482929238485,0.0258560506158476,0.0009913647541354,ST
12.6333333333333,-0.507823407649994,-0.0586180128157139,9.61993312835693,0.0762199983000755,0.198172003030777,0.67835795879364,-1212.30004882812,-8.70000076293945,-966.900024414062,-1.15037715546782,-0.0446020566770585,0.0053937164730548,ST
12.6666666666667,-0.298473328351974,-0.107665732502937,9.73058986663818,-0.564027965068817,-0.182927995920181,0.419209986925125,-1212.30004882812,-8.10000038146973,-966.900024414062,-1.15142900207222,-0.032274608926246,0.0111279711579482,ST
12.7,-0.398961365222931,-0.203966751694679,9.14620399475098,-0.449698001146317,-0.442075997591019,-0.236281991004944,-1212.30004882812,-10.5,-966.900024414062,-1.15043758261635,-0.0413814702690844,0.0214809122189703,ST
12.7333333333333,-0.512608528137207,-0.319408357143402,9.60079288482666,-0.617381989955902,-0.510673999786377,-0.152439996600151,-1212.30004882812,-9.30000019073486,-962.100036621094,-1.14960926928694,-0.0509240654111809,0.0326081409096501,ST
12.7666666666667,-0.55866551399231,-0.336156338453293,10.3514623641968,-0.0076219998300075,-0.754577994346619,0.221037998795509,-1212.30004882812,-7.50000047683716,-964.500061035156,-1.15032321490683,-0.0523609953639085,0.0324747090418398,ST
12.8,-0.0992917343974113,-0.320604622364044,9.42733097076416,0.365855991840363,-0.724089980125427,-0.121951997280121,-1217.10009765625,-4.5,-966.900024414062,-1.14998142922365,-0.0150756541115645,0.0332418351393235,ST
12.8333333333333,0.0813474431633949,-0.0879270136356354,9.38546180725098,0.114329993724823,-0.754577994346619,-0.37347799539566,-1212.30004882812,-8.10000038146973,-971.700012207031,-1.14890780040391,0.0075063408277009,0.0115560141950984,ST
12.8666666666667,0.0759641602635384,-0.0753660127520561,9.71444034576416,-0.0152439996600151,-0.518296003341675,-0.495429992675781,-1212.30004882812,-6.90000009536743,-969.300048828125,-1.14746902679506,0.0085663095950308,0.0082875355419788,ST
12.9,0.214135184884071,-0.165087461471558,10.0571756362915,-0.289635986089706,0.198172003030777,-0.655492007732391,-1217.10009765625,-6.30000019073486,-959.700012207031,-1.14566611816575,0.0192834352409044,0.0157369247735314,ST
12.9333333333333,0.311632484197617,-0.176452174782753,9.281982421875,-0.586893975734711,0.419209986925125,-1.52439999580383,-1212.30004882812,-8.10000038146973,-962.100036621094,-1.14130429116479,0.0310390592363921,0.0193870721988059,ST
12.9666666666667,0.416905641555786,-0.375035643577576,9.76827239990234,-1.02897000312805,0.365855991840363,-1.42531394958496,-1209.90002441406,-8.10000038146973,-974.100036621094,-1.13770579266375,0.0405787334677118,0.0372810401077544,ST
13.0,-0.0430662930011749,-0.582591235637665,10.0769147872925,-0.746955990791321,0.259148001670837,-1.40244793891907,-1209.90002441406,-6.90000009536743,-964.500061035156,-1.13399100131752,0.0015072076053391,0.0560930534164097,ST
13.0333333333333,0.470738530158997,-0.684275567531586,9.58942794799805,-0.503051996231079,0.0076219998300075,-0.685979962348938,-1209.90002441406,-6.30000019073486,-966.900024414062,-1.13228804602721,0.0425804488246148,0.0699147492394343,ST
13.0666666666667,0.479710668325424,-0.840988993644714,9.2520751953125,-0.685979962348938,-0.167683988809586,-0.640248000621796,-1205.10009765625,-7.50000047683716,-962.100036621094,-1.13128033579506,0.0507088401384041,0.0888374415018744,ST
13.1,0.47851437330246,-1.14245307445526,9.0612678527832,-1.02134799957275,0.182927995920181,-0.449698001146317,-1207.5,-7.50000047683716,-969.300048828125,-1.13143465443564,0.0519597659843742,0.122710689742636,ST
13.1333333333333,-0.257799625396729,-1.57012534141541,9.58882999420166,-0.792688012123108,1.28811800479889,-0.243903994560242,-1207.5,-7.50000047683716,-966.900024414062,-1.13074292016845,-0.0185631065934731,0.158555634522338,ST
13.1666666666667,-0.325987905263901,-1.74478304386139,8.85550689697266,-0.967993974685669,1.18140995502472,-0.693601965904236,-1202.70007324219,-6.90000009536743,-974.100036621094,-1.12729061946392,-0.0354831445697856,0.191548250185116,ST
13.2,-1.00368392467499,-1.92422592639923,10.1451025009155,-0.830797970294952,0.647870004177094,-0.510673999786377,-1202.70007324219,-6.90000009536743,-969.300048828125,-1.12579037585449,-0.0894095191615434,0.18933285819607,ST
13.2333333333333,-0.435448080301285,-1.83809340000153,10.1241683959961,0.0228659994900227,-1.06708002090454,-0.3125019967556,-1202.70007324219,-5.10000038146973,-966.900024414062,-1.12604076611714,-0.0469812661683064,0.180887891356362,ST
13.2666666666667,-0.196789041161537,-1.63412654399872,8.20711994171143,0.632625997066498,-1.265251994133,0.0762199983000755,-1205.10009765625,-5.70000028610229,-971.700012207031,-1.12644406410162,-0.0245773174591132,0.19360144371369,ST
13.3,-0.579600512981415,-1.59584546089172,8.89079666137695,-0.0990860015153885,-0.434453994035721,0.0304879993200302,-1205.10009765625,-4.5,-969.300048828125,-1.12739454439852,-0.0591776279228474,0.179471377030769,ST
13.3333333333333,0.282921612262726,-1.04136693477631,9.84004974365234,-0.0533539988100529,-0.289635986089706,0.823175966739655,-1212.30004882812,-6.90000009536743,-964.500061035156,-1.13127396900247,0.0178716114070821,0.11480552444894,ST
13.3666666666667,0.628050148487091,-1.38290655612946,9.7479362487793,-0.259148001670837,0.434453994035721,0.87652999162674,-1205.10009765625,-4.5,-969.300048828125,-1.13444666583809,0.056688186340523,0.137839134802614,ST
13.4,0.926523447036743,-1.53902184963226,10.0858869552612,-0.0304879993200302,0.602137982845306,1.05183601379395,-1202.70007324219,-5.70000028610229,-969.300048828125,-1.13802319360688,0.0848564834029631,0.149742282066881,ST
13.4333333333333,-0.960019469261169,-1.60063064098358,9.92438793182373,0.282013982534409,1.40244793891907,0.769822001457214,-1202.70007324219,-4.5,-966.900024414062,-1.13963606956951,-0.0730188667449401,0.158081229811023,ST
13.4666666666667,-1.24114668369293,-1.71308147907257,10.0559797286987,0.525918006896973,0.442075997591019,1.95123195648193,-1207.5,-6.90000009536743,-971.700012207031,-1.14461818509528,-0.117485173286235,0.166528826194885,ST
13.5,-0.372044920921326,-1.74478304386139,8.87464714050293,0.807931959629059,-1.72257196903229,3.10215401649475,-1200.30004882812,-5.70000028610229,-966.900024414062,-1.15276218737008,-0.0482537920242654,0.189367093357807,ST
13.5333333333333,-0.442027658224106,-1.4941611289978,9.76468372344971,1.16616594791412,-2.17227005958557,3.70429182052612,-1209.90002441406,-5.10000038146973,-964.500061035156,-1.16645919072148,-0.042743004010553,0.154127543709427,ST
13.5666666666667,-0.0771604403853416,-1.1717621088028,10.3281345367432,2.44666194915771,-0.609759986400604,4.2302098274231,-1212.30004882812,-6.30000019073486,-974.100036621094,-1.18040688132786,-0.0113900130197441,0.113855908552936,ST
13.6,0.52337509393692,-0.730930685997009,10.0182962417603,2.45428395271301,-0.807931959629059,3.32319188117981,-1212.30004882812,-5.10000038146973,-969.300048828125,-1.19020998805668,0.0455059291026159,0.0739925330924333,ST
13.6333333333333,0.553880393505096,-0.468944102525711,9.48236083984375,1.69970595836639,-0.365855991840363,1.64635193347931,-1209.90002441406,-6.90000009536743,-969.300048828125,-1.19403984822332,0.056963782293993,0.0503063881365215,ST
13.6666666666667,-0.117236025631428,0.0203368607908487,8.58215522766113,1.32622802257538,-0.449698001146317,1.28049600124359,-1212.30004882812,-6.90000009536743,-962.100036621094,-1.19691749757788,-0.0053849353357181,0.0012383598622579,ST
13.7,-0.456981241703033,0.238060906529427,9.29334735870361,1.15854394435883,-0.25152599811554,1.69970595836639,-1219.5,-7.50000047683716,-969.300048828125,-1.20231719490045,-0.0427826336863516,-0.0238132580452418,ST
13.7333333333333,0.416905641555786,0.392979919910431,8.93326568603516,0.739333987236023,-1.17378795146942,2.59910202026367,-1212.30004882812,-8.70000076293945,-966.900024414062,-1.2099581589303,0.0373137821210667,-0.0424871885826926,ST
13.7666666666667,-0.553880393505096,0.288304924964905,10.2988252639771,0.388722002506256,-0.495429992675781,1.94360995292664,-1221.90002441406,-5.70000028610229,-962.100036621094,-1.21596013533996,-0.0430456857968647,-0.0302350899948856,ST
13.8,0.0610105842351913,0.157311603426933,10.7264976501465,-0.297257989645004,-0.746955990791321,1.6920839548111,-1217.10009765625,-6.90000009536743,-971.700012207031,-1.22050085169201,0.0002792672392472,-0.0163439550622487,ST
13.8333333333333,-0.180639177560806,-0.0717771574854851,10.3287324905396,-0.525918006896973,-0.99848198890686,0.663114011287689,-1212.30004882812,-5.70000028610229,-966.900024414062,-1.2223238037384,-0.0137369919753891,0.0048227743154021,ST
13.8666666666667,0.0059814294800162,-0.321800917387009,9.77245998382568,-0.823175966739655,-0.556405961513519,-0.472563982009888,-1219.5,-5.10000038146973,-962.100036621094,-1.22070767519256,-4.36629920700954e-05,0.0311857011217329,ST
13.9,0.364867210388184,-0.218920320272446,9.1928596496582,-0.945127964019775,-1.57013201713562,-0.503051996231079,-1226.70007324219,-5.10000038146973,-959.700012207031,-1.21924228210342,0.0366883471566065,0.0262142513938974,ST
13.9333333333333,-0.335558205842972,-0.125011876225471,8.95240592956543,-0.419209986925125,-0.175305992364883,-0.87652999162674,-1221.90002441406,-5.10000038146973,-964.500061035156,-1.21667913751931,-0.0271552119342416,0.0162678473695347,ST
13.9666666666667,-0.549095273017883,-0.251220047473907,9.88132190704346,-0.602137982845306,0.579271972179413,-0.106707997620106,-1221.90002441406,-5.70000028610229,-966.900024414062,-1.21605641806301,-0.0525377870523421,0.0250992880176003,ST
14.0,0.16568560898304,-0.390587359666824,10.087082862854,-0.762199997901917,-0.152439996600151,-0.746955990791321,-1221.90002441406,-8.70000076293945,-966.900024414062,-1.21367100761872,0.0073691729374269,0.0380263310971517,ST
14.0333333333333,0.111852735280991,-0.342137783765793,9.6821403503418,-0.907018005847931,0.0457319989800453,-2.01982998847961,-1217.10009765625,-3.30000019073486,-962.100036621094,-1.2078183701969,0.0110260072251827,0.0370256434190053,ST
14.0666666666667,-0.297875195741653,-0.613096535205841,10.2844705581665,-0.945127964019775,0.777444005012512,-2.00458598136902,-1224.30004882812,-5.10000038146973,-971.700012207031,-1.20182428840285,-0.024525978298097,0.057979751277376,ST
14.1,0.186620607972145,-0.713584542274475,9.89089202880859,-1.33385002613068,0.0457319989800453,-2.16464805603027,-1217.10009765625,-5.10000038146973,-974.100036621094,-1.19552648411836,0.0131234316334216,0.0721268489126491,ST
14.1333333333333,0.0430662930011749,-0.69564026594162,9.35914325714111,-1.21189796924591,0.0609759986400604,-2.14940404891968,-1217.10009765625,-4.5,-969.300048828125,-1.18934148541326,0.0058912498405798,0.0757175343779709,ST
14.1666666666667,-0.152526453137398,-0.964804589748383,9.60139083862305,-1.21189796924591,0.472563982009888,-2.08842802047729,-1217.10009765625,-3.90000009536743,-971.700012207031,-1.18316064253017,-0.0132929406236486,0.0987098871206744,ST
14.2,0.160302311182022,-0.951645493507385,9.76288986206055,-1.02134799957275,-0.655492007732391,-1.30336201190948,-1217.10009765625,-4.5,-966.900024414062,-1.17960629729517,0.0135205345036919,0.0989060785558141,ST
14.2333333333333,0.693845868110657,-1.51389980316162,9.95608997344971,-1.03659200668335,-0.495429992675781,-1.34909391403198,-1212.30004882812,-3.90000009536743,-966.900024414062,-1.17757135285295,0.062344349196507,0.145327332419157,ST
14.2666666666667,0.426475942134857,-1.50313329696655,9.12586688995361,-1.16616594791412,-0.891773998737335,-2.31708788871765,-1217.10009765625,-2.10000014305115,-966.900024414062,-1.17197440066975,0.0500196171064513,0.162611613008184,ST
14.3,0.122021168470383,-1.72982943058014,10.1768045425415,-0.663114011287689,-0.823175966739655,-0.762199997901917,-1217.10009765625,-4.5,-962.100036621094,-1.17034328038448,0.0183961725625956,0.168569469034528,ST
14.3333333333333,0.638218522071838,-2.10247254371643,9.54576396942139,0.106707997620106,-0.823175966739655,-0.46494197845459,-1224.30004882812,-3.90000009536743,-969.300048828125,-1.17112640348603,0.060241437014615,0.210076606962983,ST
14.3666666666667,0.435448080301285,-1.75196075439453,8.12337970733643,0.6250039935112,-0.754577994346619,-0.87652999162674,-1217.10009765625,-5.10000038146973,-969.300048828125,-1.16910526085459,0.0546341395680052,0.211130073885984,ST
14.4,-0.711192011833191,-1.74597930908203,10.011118888855,0.731711983680725,-0.243903994560242,0.205793991684914,-1219.5,-4.5,-969.300048828125,-1.1697766241984,-0.052705751975354,0.176778797512174,ST
14.4333333333333,0.372643083333969,-1.95652568340302,10.2754983901978,0.899396002292633,-2.15702605247498,1.40244793891907,-1219.5,-3.90000009536743,-969.300048828125,-1.17473387828364,0.0264911075750042,0.185286515662552,ST
14.4666666666667,0.776389598846436,-1.69633340835571,9.37349891662598,1.30336201190948,-1.50153398513794,0.3125019967556,-1214.70007324219,-5.10000038146973,-969.300048828125,-1.17632630002894,0.0771546987626145,0.177809895435815,ST
14.5,-0.136376604437828,-1.71009075641632,9.79877853393555,0.861285984516144,0.46494197845459,0.87652999162674,-1229.10009765625,-5.70000028610229,-971.700012207031,-1.17844822749701,-0.0023385657290546,0.172182545756497,ST
14.5333333333333,-0.523973226547241,-1.8386914730072,10.6918058395386,0.777444005012512,0.952749967575073,0.937505960464478,-1219.5,-5.10000038146973,-971.700012207031,-1.18064985330581,-0.0437114932078837,0.169348865028549,ST
14.5666666666667,0.0514402948319912,-1.30335354804993,9.84304046630859,1.265251994133,-0.922261953353882,1.2500079870224,-1221.90002441406,-6.90000009536743,-966.900024414062,-1.18529484415063,-0.0003095773463939,0.134807660136751,ST
14.6,1.25310957431793,-0.929514169692993,8.57796859741211,1.98934197425842,-1.6692179441452,2.32470989227295,-1219.5,-6.90000009536743,-957.300048828125,-1.19126620850764,0.126750522794058,0.108982862958761,ST
14.6333333333333,-0.152526453137398,-1.12091994285583,10.0535869598389,1.89025592803955,0.868907988071442,2.43141794204712,-1221.90002441406,-4.5,-959.700012207031,-1.19819976786307,0.0024432214740794,0.108018698076742,ST
14.6666666666667,0.251220047473907,-0.846970438957214,9.88849925994873,1.75305998325348,0.846041977405548,2.37044191360474,-1231.5,-5.70000028610229,-959.700012207031,-1.20516060047952,0.0212064441741562,0.0852009427294722,ST
14.7,0.813474416732788,-0.577806115150452,8.81961822509766,1.52439999580383,-0.670735955238342,1.73019397258759,-1224.30004882812,-8.10000038146973,-964.500061035156,-1.20950617489922,0.083066457813077,0.065985613668959,ST
14.7333333333333,0.60651695728302,-0.574815392494202,9.37290000915527,1.02897000312805,-0.640248000621796,1.01372599601746,-1226.70007324219,-5.70000028610229,-957.300048828125,-1.21233060629731,0.0678767158564736,0.0604499527761777,ST
14.7666666666667,0.355296939611435,-0.490477234125137,9.77604866027832,0.99848198890686,-0.861285984516144,1.12043392658234,-1224.30004882812,-5.70000028610229,-962.100036621094,-1.21526950609673,0.0417595003410017,0.0500985684639006,ST
14.8,0.685471832752228,-0.0011962859425693,10.0733261108398,1.52439999580383,-0.990859985351562,2.18751406669617,-1226.70007324219,-6.90000009536743,-964.500061035156,-1.21943209161881,0.065856859600094,0.004780301053411,ST
14.8333333333333,0.494664251804352,0.138171032071114,9.73776721954346,1.34909391403198,-0.617381989955902,2.01982998847961,-1229.10009765625,-5.70000028610229,-962.100036621094,-1.22453619726582,0.0536156111596271,-0.0136986883223028,ST
14.8666666666667,0.619676113128662,0.360680222511292,9.74733829498291,0.442075997591019,0.221037998795509,1.74543797969818,-1233.90002441406,-6.30000019073486,-957.300048828125,-1.22873168786829,0.0620454406635302,-0.0347996761215129,ST
14.9,0.670518279075623,0.320006489753723,10.0661478042603,0.701223969459534,-1.12043392658234,1.46342396736145,-1226.70007324219,-6.30000019073486,-962.100036621094,-1.23306609859894,0.0676450219570851,-0.0331033476463424,ST
14.9333333333333,1.40443968772888,0.436644375324249,8.93685436248779,0.236281991004944,-2.46190595626831,0.533540010452271,-1233.90002441406,-6.90000009536743,-959.700012207031,-1.23289312269474,0.147529398184849,-0.0469566286490085,ST
14.9666666666667,0.952841758728027,0.21712589263916,9.09835243225098,-0.807931959629059,-1.6692179441452,-0.586893975734711,-1233.90002441406,-6.30000019073486,-954.900024414062,-1.23348870868356,0.112643838568907,-0.0258619793447883,ST
15.0,0.427672237157822,-0.0005981429712846,9.26284217834473,-0.846041977405548,0.320124000310898,-0.335367977619171,-1241.10009765625,-6.30000019073486,-957.300048828125,-1.23432066359924,0.054633327186882,-0.0021832020695345,ST
15.0333333333333,-0.0436644367873669,-0.539524972438812,10.2671241760254,-0.815553963184357,1.45580196380615,0.0228659994900227,-1231.5,-6.30000019073486,-959.700012207031,-1.235576468803,-0.0001828256843614,0.0478979906142644,ST
15.0666666666667,-0.104675017297268,-0.397765070199966,9.79518890380859,-0.198172003030777,1.35671591758728,-0.975615978240967,-1233.90002441406,-5.70000028610229,-969.300048828125,-1.23236564470734,-0.0115972694047211,0.0416942603974746,ST
15.1,-0.376830071210861,-0.270958751440048,10.3723974227905,-0.167683988809586,0.46494197845459,-1.46342396736145,-1226.70007324219,-7.50000047683716,-959.700012207031,-1.22804603282716,-0.0343039776617573,0.028119203202318,ST
15.1333333333333,-0.152526453137398,-0.068188302218914,9.4787712097168,-0.0685980021953583,-0.335367977619171,-1.61586391925812,-1231.5,-5.70000028610229,-957.300048828125,-1.22388578749253,-0.0180064464160299,0.0101734735692438,ST
15.1666666666667,0.135180309414864,-0.107665732502937,9.5385856628418,-0.518296003341675,-0.46494197845459,-1.2500079870224,-1229.10009765625,-6.90000009536743,-959.700012207031,-1.22029733368102,0.0105507587871555,0.0119122833485344,ST
15.2,0.916355013847351,-0.453392386436462,9.56550216674805,-0.617381989955902,-0.518296003341675,-1.86738991737366,-1229.10009765625,-8.70000076293945,-959.700012207031,-1.2162412665589,0.0856635271521996,0.0436473691164806,ST
15.2333333333333,0.817063271999359,-0.349913626909256,10.0200910568237,-0.609759986400604,-0.617381989955902,-1.61586391925812,-1229.10009765625,-5.10000038146973,-962.100036621094,-1.21080451390673,0.082894592025897,0.0367279503439843,ST
15.2666666666667,1.10536825656891,-0.467747807502747,9.18269062042236,-0.434453994035721,-0.144817993044853,-1.37958192825317,-1229.10009765625,-6.90000009536743,-959.700012207031,-1.20800017470923,0.114999524929256,0.0494071148174653,ST
15.3,0.902597725391388,-0.678294122219086,9.52841758728027,-0.891773998737335,-0.190549999475479,-0.663114011287689,-1226.70007324219,-6.30000019073486,-962.100036621094,-1.20798595800589,0.0973694815006073,0.0693938476671008,ST
15.3333333333333,1.1155366897583,-1.21064138412476,9.41716289520264,-1.06708002090454,0.46494197845459,-0.342989981174469,-1224.30004882812,-5.70000028610229,-966.900024414062,-1.21206283803171,0.113873589044633,0.122073219838359,ST
15.3666666666667,0.733921408653259,-1.61678040027618,9.62591457366943,-1.35671591758728,0.205793991684914,-1.08994603157043,-1226.70007324219,-6.30000019073486,-959.700012207031,-1.21227448770738,0.0795131351236575,0.16322025156169,ST
15.4,0.562254369258881,-1.69154834747314,8.77715015411377,-1.17378795146942,0.167683988809586,-1.21951997280121,-1226.70007324219,-5.10000038146973,-964.500061035156,-1.21002791030076,0.0647049628292307,0.18917175948088,ST
15.4333333333333,-0.0939084440469742,-1.93499255180359,10.4304170608521,-0.632625997066498,0.236281991004944,0.800309956073761,-1224.30004882812,-4.5,-962.100036621094,-1.211979122691,0.0005194368606896,0.185180008436617,ST
15.4666666666667,0.817661464214325,-1.80998063087463,9.49910831451416,0.3125019967556,-1.06708002090454,1.18140995502472,-1221.90002441406,-3.90000009536743,-957.300048828125,-1.21601244555764,0.0742775513254022,0.187512857583507,ST
15.5,0.16568560898304,-1.6783891916275,9.25387001037598,0.518296003341675,-0.182927995920181,1.36433792114258,-1231.5,-5.10000038146973,-969.300048828125,-1.21989057079258,0.0240956218477892,0.179635520649316,LD
15.5333333333333,-0.0442625805735588,-1.78844749927521,9.34837627410889,0.0762199983000755,0.297257989645004,1.05945801734924,-1231.5,-6.30000019073486,-969.300048828125,-1.22282465581777,-0.0015021567549132,0.187650989381221,LD
15.5666666666667,0.0275145769119263,-1.68915569782257,9.79219818115234,-0.0304879993200302,-0.320124000310898,0.556405961513519,-1231.5,-5.10000038146973,-964.500061035156,-1.22461080980825,0.0025666266445732,0.172975138274889,LD
15.6,0.464158952236176,-1.32309222221375,10.0834941864014,1.18140995502472,-1.40244793891907,1.6692179441452,-1229.10009765625,-3.90000009536743,-969.300048828125,-1.22950030624443,0.0423948561028239,0.133683188148199,LD
15.6333333333333,0.990524768829346,-1.37034559249878,10.426230430603,1.2500079870224,-1.74543797969818,2.10367202758789,-1231.5,-5.70000028610229,-962.100036621094,-1.23611714816353,0.0891523843121364,0.129475595675852,LD
15.6666666666667,1.40503787994385,-1.13228464126587,9.94053840637207,1.31860601902008,-0.632625997066498,1.74543797969818,-1233.90002441406,-3.90000009536743,-964.500061035156,-1.23999823350249,0.133357498725656,0.113943119146303,LD
15.7,1.03239476680756,-0.886447906494141,9.54516506195068,1.49391198158264,0.114329993724823,1.92836594581604,-1236.30004882812,-5.70000028610229,-957.300048828125,-1.24348788449396,0.110349332385816,0.0935581937014245,LD
15.7333333333333,1.15262150764465,-0.701023578643799,9.24968338012695,1.56251001358032,0.289635986089706,1.60061991214752,-1233.90002441406,-5.10000038146973,-959.700012207031,-1.24647296169341,0.121201577087735,0.075991151397722,LD
15.7666666666667,-0.126208171248436,-0.605320692062378,8.85909557342529,1.38720393180847,1.65397393703461,1.01372599601746,-1231.5,-5.70000028610229,-957.300048828125,-1.24880548246234,0.000168742946233,0.0671105513803765,LD
15.8,-0.556871116161346,-0.517991840839386,10.0679426193237,1.05945801734924,1.49391198158264,1.53202199935913,-1231.5,-5.70000028610229,-962.100036621094,-1.25364297525401,-0.0516857422471528,0.0513538984662855,LD
15.8333333333333,-0.116637878119946,-0.336754500865936,9.7479362487793,1.30336201190948,-0.556405961513519,1.18140995502472,-1221.90002441406,-6.30000019073486,-959.700012207031,-1.25776257160524,-0.0157812347378367,0.0344297213008467,LD
15.8666666666667,0.607713282108307,-0.553880393505096,10.5620088577271,1.36433792114258,-1.95123195648193,1.42531394958496,-1231.5,-6.90000009536743,-957.300048828125,-1.26255849394846,0.0510977875154066,0.0481349872509763,LD
15.9,1.43973016738892,-0.17525589466095,10.082896232605,2.04269599914551,-3.42989993095398,-0.114329993724823,-1229.10009765625,-6.90000009536743,-962.100036621094,-1.26036036622185,0.134727685297828,0.0184737774984684,LD
15.9333333333333,0.960019469261169,0.379222631454468,9.42015361785889,2.28659987449646,-3.14026403427124,-0.152439996600151,-1238.70007324219,-6.90000009536743,-952.500061035156,-1.25396978358686,0.110725274552841,-0.0358303739971518,LD
15.9666666666667,1.55995690822601,0.713584542274475,8.65153980255127,2.02745199203491,-2.30946588516235,0.777444005012512,-1241.10009765625,-8.70000076293945,-957.300048828125,-1.25055820414131,0.172297616451439,-0.0788814069169628,LD
16.0,1.24533367156982,0.888242304325104,8.44996547698975,1.54726600646973,-2.01220798492432,0.701223969459534,-1248.30004882812,-7.50000047683716,-952.500061035156,-1.24875672798125,0.152279312904881,-0.103472495784191,LD
16.0333333333333,0.406737208366394,0.83560574054718,9.25028133392334,0.442075997591019,-1.70732796192169,0.282013982534409,-1243.5,-8.70000076293945,-952.500061035156,-1.25037845951211,0.0610292133815775,-0.0925476833607513,LD
16.0666666666667,-0.252416342496872,0.773398876190186,10.6989831924438,0.0990860015153885,-4.07776975631714,-0.243903994560242,-1255.5,-8.10000038146973,-950.100036621094,-1.24914254409343,-0.0067558293258163,-0.074877852761879,LD
16.1,-0.641209244728088,0.34811919927597,10.7288904190063,-0.152439996600151,-6.60827398300171,-0.92988395690918,-1262.70007324219,-9.90000057220459,-947.700012207031,-1.24452857774357,-0.0426226080204378,-0.0378875421277745,LD
16.1333333333333,0.370848655700684,0.293688207864761,10.1265602111816,-1.10518991947174,-11.509220123291,-2.84300589561462,-1274.70007324219,-8.70000076293945,-942.900024414062,-1.23524352400842,0.0431348957499707,-0.0286342073061702,LD
16.1666666666667,0.702817976474762,0.0526365824043751,8.75262641906738,-1.19665396213531,-15.480281829834,-3.3613018989563,-1291.5,-8.70000076293945,-935.700012207031,-1.22546902727389,0.09966058496355,-0.0072669572843398,LD
16.2,1.66283750534058,0.0490477234125137,8.08629512786865,-1.39482593536377,-17.2943172454834,-3.63569402694702,-1313.10009765625,-8.70000076293945,-921.300048828125,-1.21348573281068,0.218625053941628,-0.0051768705630949,LD
16.2333333333333,3.20544815063477,-0.0526365824043751,8.57079029083252,-1.28049600124359,-18.7806072235107,-3.95581793785095,-1334.70007324219,-9.90000057220459,-904.500061035156,-1.20367208380582,0.370631621509401,0.0045963951396899,LD
16.2666666666667,5.20982551574707,-0.377428203821182,6.8122501373291,-0.83841997385025,-18.6434116363525,-5.60216999053955,-1356.30004882812,-9.90000057220459,-885.300048828125,-1.20884128385275,0.64186057177933,0.0433637069063769,LD
16.3,6.84634447097778,-0.341539651155472,9.11749362945557,0.335367977619171,-17.6373081207275,-6.12046575546265,-1373.10009765625,-13.5000009536743,-856.500061035156,-1.18959110170323,0.670418372827275,0.0312702573994645,LD
16.3333333333333,6.57538557052612,-0.0185424312949181,7.66998720169067,1.6920839548111,-15.739429473877,-6.07473373413086,-1385.10009765625,-14.1000003814697,-844.500061035156,-1.15706978500011,0.727332695321421,-0.0040796322320674,LD
16.3666666666667,10.2719097137451,0.269762486219406,6.29844570159912,1.87501192092896,-10.6708002090454,-3.84910988807678,-1394.70007324219,-16.5,-830.100036621094,-1.12014063028784,0.995467233132665,-0.0488035029798818,LD
16.4,8.92548942565918,0.628050148487091,6.32476377487183,2.24848985671997,-7.90401363372803,-3.84148788452148,-1399.5,-17.7000007629395,-808.500061035156,-1.07073443272883,0.969231070948293,-0.106035497691828,LD
16.4333333333333,7.8237099647522,0.677695989608765,6.44917774200439,1.55488801002502,-2.0655620098114,-0.937505960464478,-1401.90002441406,-18.9000015258789,-810.900024414062,-1.06968190217015,0.892979928399781,-0.109452452805102,LD
16.4666666666667,7.07842397689819,0.768015563488007,6.43542003631592,0.335367977619171,0.609759986400604,1.85976791381836,-1401.90002441406,-17.7000007629395,-808.500061035156,-1.06989766736927,0.837387875373228,-0.114884573042493,LD
16.5,7.22257614135742,0.216527760028839,6.99049711227417,-0.320124000310898,-1.38720393180847,3.29270386695862,-1399.5,-15.3000001907349,-813.300048828125,-1.13310301048159,0.808856477071368,-0.0363058328388454,LD
16.5333333333333,7.93616104125977,-0.125011876225471,5.96946668624878,-1.48628997802734,-1.32622802257538,2.05031800270081,-1409.10009765625,-15.3000001907349,-808.500061035156,-1.17624498578047,0.914179075869945,0.0196280257827083,LD
16.5666666666667,7.88232803344727,-0.265575468540192,7.36732721328735,-1.34147191047668,-0.853663980960846,1.6768399477005,-1404.30004882812,-14.7000007629395,-808.500061035156,-1.19143413460043,0.831943201620326,0.0390335747204439,LD
16.6,6.80806350708008,-0.421092659235001,5.81454801559448,-0.579271972179413,-0.899396002292633,1.57013201713562,-1399.5,-15.9000005722046,-810.900024414062,-1.21746573378096,0.859726075319879,0.0713569221018215,LD
16.6333333333333,6.05320692062378,-0.410326063632965,7.74236249923706,-0.0533539988100529,2.01982998847961,2.21800184249878,-1404.30004882812,-14.7000007629395,-810.900024414062,-1.21240504146487,0.684164478941737,0.057486359757414,LD
16.6666666666667,5.75353717803955,-0.57660984992981,7.84524297714233,0.327746003866196,0.396344006061554,2.59148001670837,-1401.90002441406,-14.1000003814697,-808.500061035156,-1.22878007986532,0.637732493091225,0.0736983233498172,LD
16.7,6.8780460357666,-0.551487803459167,7.52762937545776,0.83841997385025,-1.91312193870544,1.96647596359253,-1409.10009765625,-12.9000005722046,-818.100036621094,-1.23563427408538,0.727899219839148,0.0746277608513351,LD
16.7333333333333,7.58445310592651,-0.565843224525452,6.82301664352417,0.807931959629059,-3.37654590606689,1.265251994133,-1406.70007324219,-10.5,-806.100036621094,-1.2461167520876,0.826646114458266,0.0826577049513667,LD
16.7666666666667,8.31897258758545,-0.904392182826996,7.76210117340088,1.2500079870224,-1.85976791381836,-0.213415995240211,-1406.70007324219,-11.7000007629395,-803.700012207031,-1.2684864962603,0.820866274797802,0.109636559353694,LD
16.8,8.03844356536865,-0.477916240692139,6.01851463317871,2.85824990272522,-0.914639949798584,-2.58385801315308,-1413.90002441406,-12.9000005722046,-806.100036621094,-1.24347973651165,0.913944360387152,0.0745427091036701,LD
16.8333333333333,8.13354778289795,0.565245091915131,6.34390449523926,3.90246391296387,-0.83841997385025,-1.76830399036407,-1409.10009765625,-15.9000005722046,-806.100036621094,-1.12639505954309,0.908970443953658,-0.0812902166778469,LD
16.8666666666667,7.51865720748901,1.02641332149506,5.56392574310303,2.89635992050171,0.0914639979600906,-0.335367977619171,-1418.70007324219,-15.3000001907349,-801.300048828125,-1.05925370099665,0.923473085429147,-0.173531710577059,LD
16.9,6.18838739395142,0.876279473304749,6.66690158843994,1.21951997280121,3.48325395584106,2.11129403114319,-1411.5,-14.7000007629395,-806.100036621094,-1.09700662789053,0.763285496797514,-0.13371821219344,LD
16.9333333333333,7.01860952377319,1.263876080513,6.99348783493042,1.19665396213531,2.78202986717224,2.42379593849182,-1404.30004882812,-17.1000003814697,-806.100036621094,-1.07987724583512,0.773526769169466,-0.170214245207814,LD
16.9666666666667,6.7021918296814,0.878672003746033,7.17951011657715,0.937505960464478,-0.205793991684914,0.6250039935112,-1406.70007324219,-14.7000007629395,-810.900024414062,-1.11278032309924,0.750639235270924,-0.127453853366438,LD
17.0,7.94094610214233,1.16219174861908,5.73080778121948,0.0914639979600906,-0.0076219998300075,-0.609759986400604,-1409.10009765625,-14.7000007629395,-806.100036621094,-1.06465939621458,0.914132887400507,-0.191335241677307,LD
17.0333333333333,8.15807151794434,0.393578082323074,6.99887084960938,-0.0838419944047928,-2.03507399559021,-3.55947399139404,-1409.10009765625,-14.7000007629395,-806.100036621094,-1.14636254300531,0.869760357710341,-0.0765981436479176,LD
17.0666666666667,7.53899383544922,0.659153580665588,7.56411600112915,0.243903994560242,-2.45428395271301,-5.38113164901733,-1409.10009765625,-16.5,-806.100036621094,-1.12256098405792,0.796617735415074,-0.0948123461493265,LD
17.1,5.3958477973938,1.66164112091064,6.42884063720703,1.15854394435883,-2.74391984939575,-4.5655779838562,-1406.70007324219,-19.5,-789.300048828125,-1.01361800112014,0.700994559440619,-0.242036771269376,LD
17.1333333333333,6.12019872665405,1.05273163318634,7.03236675262451,-0.259148001670837,0.952749967575073,2.46952795982361,-1411.5,-20.1000003814697,-796.500061035156,-1.07355356094332,0.708835246898532,-0.157594257732562,LD
17.1666666666667,6.88103675842285,0.815867006778717,7.23812818527222,-0.571649968624115,-1.04421401023865,3.47563195228577,-1401.90002441406,-18.3000011444092,-803.700012207031,-1.10918932977074,0.752694649800834,-0.113129015518362,LD
17.2,7.85660791397095,0.360082060098648,6.80567073822021,-0.983237981796265,-1.61586391925812,2.87349390983582,-1413.90002441406,-17.7000007629395,-798.900024414062,-1.15434497678098,0.846024206876869,-0.0551249847498917,LD
17.2333333333333,7.2542781829834,0.325987905263901,7.41278600692749,-0.868907988071442,-1.57775402069092,0.396344006061554,-1409.10009765625,-16.5,-796.500061035156,-1.16170042492034,0.784885350746467,-0.0433567625812051,LD
17.2666666666667,7.2183895111084,0.159106031060219,6.71714544296265,-1.30336201190948,0.602137982845306,0.739333987236023,-1411.5,-18.3000011444092,-801.300048828125,-1.17520309427315,0.816096550216324,-0.0228057135289009,LD
17.3,8.67845630645752,0.431261092424393,5.79899597167969,-0.419209986925125,-1.82165801525116,-0.541162014007568,-1413.90002441406,-15.9000005722046,-798.900024414062,-1.13811724005429,0.963917865221314,-0.0679454350275389,LD
17.3333333333333,7.11012554168701,0.24224790930748,7.21599674224854,0.182927995920181,-1.01372599601746,0.3125019967556,-1411.5,-16.5,-796.500061035156,-1.16321091326129,0.802500142368144,-0.0371511832261491,LD
17.3666666666667,6.84634447097778,0.705210566520691,6.94503784179688,0.518296003341675,4.02441596984863,2.75916385650635,-1411.5,-18.3000011444092,-801.300048828125,-1.13323284246923,0.772774979691568,-0.0905341813966603,LD
