seconds,sensor_accX_m_s_,sensor_accY_m_s_,sensor_accZ_m_s_,sensor_gyroX___s_,sensor_gyroY___s_,sensor_gyroZ___s_,sensor_magX__T_,sensor_magY__T_,sensor_magZ__T_,sensor_yaw___,sensor_pitch___,sensor_roll___,label2
0.0,4.44001531600952,-0.309838056564331,8.68922328948975,0.350611984729767,-0.327746003866196,0.411587983369827,-1332.30004882812,-12.3000001907349,-897.300048828125,2.27693211160335,0.469580747809474,0.0363285129776326,ST
0.0333333333333333,4.45855760574341,-0.307445496320724,8.74365425109863,0.243903994560242,-0.282013982534409,0.358233988285065,-1329.90002441406,-11.1000003814697,-890.100036621094,2.27654881194162,0.471169603095766,0.0354003228862458,ST
0.0666666666666667,4.42207098007202,-0.357689499855042,8.76758003234863,0.129574000835419,-0.167683988809586,0.198172003030777,-1327.5,-12.3000001907349,-890.100036621094,2.27427244193637,0.468103567217157,0.0393995290568513,ST
0.1,4.34969568252563,-0.342735916376114,8.76518726348877,0.121951997280121,-0.106707997620106,0.190549999475479,-1334.70007324219,-12.3000001907349,-890.100036621094,2.27396078808947,0.462499979168041,0.0391340091058653,ST
0.133333333333333,4.38319158554077,-0.357689499855042,8.644362449646,0.0762199983000755,-0.182927995920181,0.236281991004944,-1334.70007324219,-11.1000003814697,-894.900024414062,2.27280510541923,0.467209879083576,0.0407416421730612,ST
0.166666666666667,4.34790134429932,-0.39537250995636,8.81004810333252,0.160062000155449,-0.259148001670837,0.236281991004944,-1329.90002441406,-12.3000001907349,-892.500061035156,2.27103237200003,0.46110794562262,0.0435731216568078,ST
0.2,4.39216375350952,-0.433653652667999,8.79210376739502,0.0609759986400604,-0.198172003030777,0.175305992364883,-1332.30004882812,-11.1000003814697,-890.100036621094,2.26877550663587,0.462608537207786,0.0478252551283595,ST
0.233333333333333,4.42984676361084,-0.386998504400253,8.71972846984863,0.0609759986400604,-0.297257989645004,0.221037998795509,-1329.90002441406,-9.90000057220459,-890.100036621094,2.26942264892531,0.467882881592365,0.045469771665879,ST
0.266666666666667,4.45377254486084,-0.476121813058853,8.75322437286377,0.243903994560242,-0.190549999475479,0.175305992364883,-1334.70007324219,-12.9000005722046,-894.900024414062,2.26609875937252,0.469709151489761,0.0517121990717703,ST
0.3,4.26117038726807,-0.369054228067398,8.65153980255127,0.205793991684914,0.0,0.25152599811554,-1334.70007324219,-11.1000003814697,-894.900024414062,2.26852336031008,0.460692978916246,0.0450132634795594,ST
0.333333333333333,4.38498592376709,-0.352904349565506,8.7101583480835,0.144817993044853,-0.289635986089706,0.221037998795509,-1334.70007324219,-11.1000003814697,-892.500061035156,2.26947551287061,0.464789234696815,0.0418216510271911,ST
0.366666666666667,4.3784065246582,-0.392979919910431,8.75142955780029,0.243903994560242,-0.304879993200302,0.228659987449646,-1329.90002441406,-12.3000001907349,-890.100036621094,2.26802421465863,0.46424152075894,0.0438070687454641,ST
0.4,4.35089206695557,-0.373839348554611,8.80406665802002,0.114329993724823,-0.243903994560242,0.243903994560242,-1337.10009765625,-10.5,-890.100036621094,2.26796412251364,0.46060367071459,0.0428630478833452,ST
0.433333333333333,4.41549158096313,-0.366063505411148,8.7221212387085,0.228659987449646,-0.25152599811554,0.274392008781433,-1341.90002441406,-11.7000007629395,-890.100036621094,2.26766858279794,0.466366189107019,0.0421027527087549,ST
0.466666666666667,4.41369676589966,-0.390587359666824,8.74843883514404,0.350611984729767,-0.320124000310898,0.327746003866196,-1334.70007324219,-12.9000005722046,-892.500061035156,2.26617660544823,0.467078562822298,0.0436427029013176,ST
0.5,4.47470760345459,-0.282921612262726,8.74544811248779,0.381099998950958,-0.342989981174469,0.259148001670837,-1332.30004882812,-11.7000007629395,-892.500061035156,2.26916374464507,0.47143599494493,0.0354498733605522,ST
0.533333333333333,4.50521278381348,-0.29009935259819,8.61505317687988,0.259148001670837,-0.342989981174469,0.228659987449646,-1329.90002441406,-11.7000007629395,-885.300048828125,2.26921421796709,0.479499294286332,0.0339335704855909,ST
0.566666666666667,4.45975399017334,-0.33137121796608,8.63598823547363,0.0685980021953583,-0.266770005226135,0.144817993044853,-1337.10009765625,-13.5000009536743,-890.100036621094,2.26742212157251,0.477578206386362,0.0371550734681272,ST
0.6,4.29646110534668,-0.405540943145752,8.66709136962891,-0.0533539988100529,-0.137196004390717,0.175305992364883,-1339.5,-11.7000007629395,-892.500061035156,2.26404712774097,0.465298142566154,0.0440683604852856,ST
0.633333333333333,4.29646110534668,-0.445018380880356,8.79329967498779,0.175305992364883,-0.205793991684914,0.327746003866196,-1332.30004882812,-12.3000001907349,-890.100036621094,2.26136852555054,0.457622813402332,0.0486114876348032,ST
0.666666666666667,4.46453905105591,-0.455186814069748,8.86866569519043,0.274392008781433,-0.228659987449646,0.358233988285065,-1337.10009765625,-12.3000001907349,-887.700012207031,2.25980733411865,0.463626328763771,0.0503644001604451,ST
0.7,4.61168241500854,-0.437840640544891,8.72271919250488,0.350611984729767,-0.472563982009888,0.182927995920181,-1339.5,-12.9000005722046,-882.900024414062,2.25938914060527,0.480310783021191,0.0499041202307437,ST
0.733333333333333,4.64816904067993,-0.436046212911606,8.60907173156738,0.282013982534409,-0.358233988285065,0.0076219998300075,-1334.70007324219,-12.9000005722046,-885.300048828125,2.25902843202836,0.491078636624307,0.0500731889881501,ST
0.766666666666667,4.3520884513855,-0.405540943145752,8.62462329864502,0.190549999475479,0.0304879993200302,0.0076219998300075,-1339.5,-11.7000007629395,-887.700012207031,2.26003604180462,0.472894333604761,0.0475099974272552,ST
0.8,4.28150749206543,-0.446214646100998,8.63479232788086,-0.0304879993200302,0.274392008781433,0.236281991004944,-1332.30004882812,-12.9000005722046,-887.700012207031,2.2583353298008,0.463380579538095,0.0505725135803432,ST
0.833333333333333,4.19716930389404,-0.432457357645035,8.75083160400391,-0.0762199983000755,0.221037998795509,0.152439996600151,-1337.10009765625,-11.7000007629395,-885.300048828125,2.25846605922469,0.451468765209419,0.0499146786887129,ST
0.866666666666667,4.30902194976807,-0.592759668827057,8.91352653503418,-0.3125019967556,-0.198172003030777,0.0,-1339.5,-13.5000009536743,-880.500061035156,2.25348867297267,0.450301368036119,0.0618372235912078,ST
0.9,4.47111892700195,-0.61249840259552,8.88840484619141,-0.0914639979600906,-0.396344006061554,-0.144817993044853,-1337.10009765625,-13.5000009536743,-892.500061035156,2.25148885396623,0.461755714375144,0.0670092423959339,ST
0.933333333333333,4.55127000808716,-0.541917502880096,8.62522125244141,0.304879993200302,-0.442075997591019,-0.0076219998300075,-1334.70007324219,-12.3000001907349,-892.500061035156,2.25274648361259,0.478669729157479,0.0636205012528428,ST
0.966666666666667,4.59194374084473,-0.427074074745178,8.70238208770752,0.518296003341675,-0.541162014007568,0.0609759986400604,-1337.10009765625,-11.7000007629395,-887.700012207031,2.25732512801516,0.483977985868357,0.0524560837296428,ST
1.0,4.49803495407104,-0.394774347543716,8.69998931884766,0.815553963184357,0.0076219998300075,0.411587983369827,-1329.90002441406,-14.1000003814697,-890.100036621094,2.25871649719852,0.478609044479833,0.0464304089844911,ST
1.03333333333333,4.41668748855591,-0.141161739826202,8.5785665512085,1.06708002090454,0.114329993724823,0.556405961513519,-1339.5,-12.9000005722046,-894.900024414062,2.26736702814946,0.476155354622439,0.0236900982108235,ST
1.06666666666667,4.27851676940918,-0.0592161528766155,8.68742847442627,1.00610399246216,-0.175305992364883,0.724089980125427,-1332.30004882812,-14.1000003814697,-887.700012207031,2.271167410595,0.463402899265114,0.0110804242415509,ST
1.1,4.3963508605957,-0.0622068680822849,8.72870063781738,0.67835795879364,-0.731711983680725,0.571649968624115,-1346.70007324219,-11.7000007629395,-882.900024414062,2.27118440883198,0.466560639271038,0.0077814754883389,ST
1.13333333333333,4.754638671875,-0.227294325828552,8.69939136505127,0.282013982534409,-0.800309956073761,0.350611984729767,-1339.5,-14.1000003814697,-887.700012207031,2.26444207656401,0.491420502367669,0.0206688009212137,ST
1.16666666666667,4.74805879592896,-0.247631192207336,8.63718414306641,0.167683988809586,-0.510673999786377,0.205793991684914,-1337.10009765625,-11.7000007629395,-885.300048828125,2.26134880325449,0.49975783139704,0.026188150219581,ST
1.2,4.56682157516479,-0.252416342496872,8.62462329864502,0.289635986089706,-0.0685980021953583,0.121951997280121,-1337.10009765625,-11.7000007629395,-885.300048828125,2.25994162675812,0.490279931136894,0.0281729139760854,ST
1.23333333333333,4.40592098236084,-0.24224790930748,8.80705738067627,0.609759986400604,0.282013982534409,0.381099998950958,-1337.10009765625,-13.5000009536743,-887.700012207031,2.25933427071731,0.471345017467583,0.0271986519952721,ST
1.26666666666667,4.38618230819702,-0.326586067676544,8.91053581237793,0.556405961513519,0.121951997280121,0.586893975734711,-1337.10009765625,-13.5000009536743,-887.700012207031,2.25517244326734,0.461259346917977,0.0334932662972118,ST
1.3,4.62125253677368,-0.262584775686264,8.73886871337891,0.46494197845459,-0.0076219998300075,0.411587983369827,-1339.5,-12.3000001907349,-887.700012207031,2.25537557006282,0.479990964382469,0.0305813764028859,ST
1.33333333333333,4.57280302047729,-0.353502482175827,8.78313159942627,0.381099998950958,0.259148001670837,0.228659987449646,-1334.70007324219,-14.1000003814697,-880.500061035156,2.25177180866082,0.479458057285508,0.0370001102326321,ST
1.36666666666667,4.56024217605591,-0.335558205842972,8.88661003112793,0.472563982009888,0.0228659994900227,-0.106707997620106,-1334.70007324219,-13.5000009536743,-890.100036621094,2.25161332753412,0.475424395400641,0.0368731912316696,ST
1.4,4.51777362823486,-0.142358019948006,9.0373420715332,0.823175966739655,0.0685980021953583,0.0304879993200302,-1344.30004882812,-12.3000001907349,-887.700012207031,2.25820029615578,0.466874167051639,0.0207936117545941,ST
1.43333333333333,4.93408155441284,-0.0723752975463867,8.83457183837891,0.87652999162674,0.106707997620106,0.0762199983000755,-1339.5,-12.9000005722046,-890.100036621094,2.26210107106293,0.498060818085428,0.0104850565126541,ST
1.46666666666667,4.42326736450195,-0.028710862621665,8.75980377197266,0.282013982534409,1.21189796924591,-0.0990860015153885,-1334.70007324219,-14.7000007629395,-890.100036621094,2.26477060912227,0.473630379872135,0.0046225998206114,ST
1.5,3.20843887329102,0.0634031519293785,8.48585414886475,-0.449698001146317,2.54574799537659,0.0762199983000755,-1329.90002441406,-14.7000007629395,-897.300048828125,2.26839912031813,0.390588808469709,-0.0034590095397927,ST
1.53333333333333,2.936283826828,-0.0861325860023499,8.56600570678711,-0.800309956073761,3.16313004493713,0.487807989120483,-1329.90002441406,-15.3000001907349,-894.900024414062,2.26405232641191,0.341973070167679,0.0078466811187665,ST
1.56666666666667,2.90996551513672,-0.272155046463013,8.31418704986572,-1.08994603157043,4.16923379898071,-0.0685980021953583,-1322.70007324219,-13.5000009536743,-902.100036621094,2.25871539965505,0.333087886230409,0.0265092625440719,ST
1.6,2.87347888946533,-0.65137767791748,8.20951271057129,-1.55488801002502,5.27442407608032,-0.564027965068817,-1322.70007324219,-14.7000007629395,-899.700012207031,2.24794431261778,0.328371459620622,0.0669665142407466,ST
1.63333333333333,2.36087036132812,-0.736313998699188,8.96137809753418,-2.27897787094116,5.80034208297729,-1.53964400291443,-1313.10009765625,-14.7000007629395,-911.700012207031,2.24861948137576,0.271402905135562,0.0795957288494387,ST
1.66666666666667,2.27174711227417,-0.772800743579865,9.57985782623291,-1.72257196903229,4.35978412628174,-1.31860601902008,-1301.10009765625,-12.9000005722046,-916.500061035156,2.25160219220388,0.238757241013568,0.081807128976716,ST
1.7,2.20834374427795,-0.849363029003143,10.1265602111816,-0.815553963184357,0.685979962348938,-1.37195992469788,-1296.30004882812,-14.1000003814697,-916.500061035156,2.25403481812935,0.220067540398857,0.0837825652369135,ST
1.73333333333333,2.28251361846924,-0.553282260894775,10.3843603134155,0.0990860015153885,-1.59299790859222,-1.31098401546478,-1301.10009765625,-11.1000003814697,-916.500061035156,2.26119788763914,0.219301967635929,0.0607627190479806,ST
1.76666666666667,2.70240998268127,-0.324193477630615,10.4818572998047,0.594515979290009,-1.97409796714783,-0.815553963184357,-1296.30004882812,-12.9000005722046,-914.100036621094,2.26716365642169,0.244784876288771,0.0390196365775055,ST
1.8,3.26227188110352,-0.297875195741653,10.1696271896362,0.457319974899292,-1.2576299905777,0.213415995240211,-1303.5,-15.3000001907349,-914.100036621094,2.26844527436569,0.292099410204927,0.0317972803206426,ST
1.83333333333333,3.19109272956848,-0.344530344009399,10.0236797332764,0.403965979814529,-0.868907988071442,0.647870004177094,-1303.5,-14.7000007629395,-916.500061035156,2.26666901085084,0.304279765424357,0.0333471206915626,ST
1.86666666666667,2.83938479423523,-0.216527760028839,9.3717041015625,0.434453994035721,-0.327746003866196,1.17378795146942,-1305.90002441406,-13.5000009536743,-921.300048828125,2.26664445965447,0.29752871465757,0.0260916983776923,ST
1.9,2.4715268611908,-0.108862020075321,9.2939453125,0.205793991684914,-0.0838419944047928,1.6692179441452,-1303.5,-13.5000009536743,-911.700012207031,2.26651082499077,0.271278959577846,0.0163471503252085,ST
1.93333333333333,2.29447650909424,0.230285048484802,9.35555458068848,0.503051996231079,-0.266770005226135,2.09605002403259,-1308.30004882812,-14.1000003814697,-911.700012207031,2.27016979116339,0.250086700777637,-0.0122975212207803,ST
1.96666666666667,2.58038878440857,0.374437510967255,9.29574012756348,0.92988395690918,-0.121951997280121,2.78965187072754,-1308.30004882812,-11.1000003814697,-921.300048828125,2.27013240977907,0.264656762924129,-0.03205088622152,ST
2.0,2.68027853965759,0.418101936578751,8.91113376617432,0.579271972179413,0.297257989645004,2.77440786361694,-1305.90002441406,-12.9000005722046,-911.700012207031,2.26796102583485,0.283457553854112,-0.0421430063860866,ST
2.03333333333333,2.40453481674194,0.421690791845322,9.26882362365723,0.0152439996600151,0.457319974899292,2.5152599811554,-1313.10009765625,-11.1000003814697,-914.100036621094,2.26414313399268,0.262133999356194,-0.0436294827861208,ST
2.06666666666667,2.42307710647583,0.956430613994598,8.88960075378418,0.0609759986400604,0.121951997280121,2.36281991004944,-1303.5,-12.3000001907349,-918.900024414062,2.27172374392069,0.264141925606006,-0.0889722472215371,ST
2.1,2.98892045021057,0.655564725399017,9.10014724731445,-0.327746003866196,0.182927995920181,2.72105383872986,-1310.70007324219,-11.1000003814697,-921.300048828125,2.26365138620654,0.300866321192811,-0.0757254664177892,ST
2.13333333333333,3.15101718902588,0.44023323059082,9.26164531707764,-1.41006994247437,0.175305992364883,2.27897787094116,-1313.10009765625,-11.7000007629395,-921.300048828125,2.25381375270852,0.319543816510286,-0.0534152404392365,ST
2.16666666666667,2.7562427520752,0.302660346031189,9.47757530212402,-1.60061991214752,0.960371971130371,2.13416004180908,-1310.70007324219,-11.1000003814697,-916.500061035156,2.24568602180682,0.292854942313907,-0.0355470122128656,ST
2.2,2.28610253334045,-0.119628593325615,10.7007780075073,-0.990859985351562,1.51677799224854,2.02745199203491,-1301.10009765625,-9.90000057220459,-918.900024414062,2.23319038891626,0.231276644812449,0.0005009494861848,ST
2.23333333333333,2.4476010799408,-0.916953146457672,10.0679426193237,-0.83841997385025,1.04421401023865,1.22714197635651,-1298.70007324219,-8.10000038146973,-923.700012207031,2.21661519112417,0.234545883026098,0.0649822167463475,ST
2.26666666666667,2.71018576622009,-2.43982529640198,9.39024639129639,-1.62348592281342,0.731711983680725,-1.12805593013763,-1305.90002441406,-8.10000038146973,-923.700012207031,2.18655975156147,0.261274764653794,0.198232271700845,ST
2.3,1.71786665916443,-2.16886639595032,9.51824951171875,0.78506600856781,1.85976791381836,-3.82624387741089,-1301.10009765625,-8.70000076293945,-928.500061035156,2.18979172404508,0.196849162014535,0.214925085536562,ST
2.33333333333333,0.857138872146606,-1.88953363895416,8.68683052062988,2.4923939704895,1.42531394958496,-3.74240183830261,-1303.5,-11.1000003814697,-928.500061035156,2.19650928275559,0.125704573615624,0.210673441636829,ST
2.36666666666667,1.16219174861908,-1.31950342655182,8.95778942108154,2.08842802047729,-1.13567793369293,-1.36433792114258,-1296.30004882812,-11.7000007629395,-926.100036621094,2.20403900682778,0.128789374776057,0.162915695888385,ST
2.4,1.53304040431976,-1.24054849147797,9.40280723571777,1.40244793891907,-1.20427596569061,0.0533539988100529,-1291.5,-9.30000019073486,-921.300048828125,2.20672765267159,0.153124467236151,0.138195956041362,ST
2.43333333333333,1.86441159248352,-1.24772620201111,9.40101337432861,0.693601965904236,-0.960371971130371,1.37958192825317,-1298.70007324219,-11.7000007629395,-921.300048828125,2.20472830218537,0.183284293296857,0.13322085906143,ST
2.46666666666667,2.27174711227417,-1.33445692062378,10.4914274215698,-0.213415995240211,-1.00610399246216,1.44055795669556,-1298.70007324219,-11.7000007629395,-918.900024414062,2.20274184511716,0.205212060266159,0.128959906478157,ST
2.5,2.52655601501465,-1.36256968975067,9.60198879241943,-0.213415995240211,-0.701223969459534,0.807931959629059,-1301.10009765625,-11.1000003814697,-923.700012207031,2.19926867412626,0.241303366071587,0.138015780495449,ST
2.53333333333333,1.66881883144379,-0.845774173736572,9.49910831451416,-0.0,-0.0838419944047928,0.228659987449646,-1301.10009765625,-11.1000003814697,-928.500061035156,2.20631594225557,0.193831703997697,0.103544320627937,ST
2.56666666666667,1.75495147705078,-1.02402079105377,9.26822566986084,-0.213415995240211,0.213415995240211,0.830797970294952,-1301.10009765625,-11.7000007629395,-918.900024414062,2.20407473928753,0.18801041145728,0.108539212470389,ST
2.6,1.49057233333588,-0.970786035060883,9.03913688659668,-0.586893975734711,0.114329993724823,0.708845973014832,-1301.10009765625,-9.90000057220459,-921.300048828125,2.20308900914589,0.169605454468265,0.108318601235746,ST
2.63333333333333,1.4301598072052,-1.44750595092773,9.01999568939209,-1.2347639799118,0.221037998795509,1.15854394435883,-1303.5,-11.1000003814697,-918.900024414062,2.19510683989229,0.158799281829383,0.146992065329104,ST
2.66666666666667,1.7525589466095,-1.70351123809814,10.154673576355,-1.28049600124359,-1.2423859834671,0.960371971130371,-1303.5,-10.5,-923.700012207031,2.19105257949716,0.166967862867787,0.162217572265109,ST
2.7,2.17544603347778,-1.73102581501007,9.90883636474609,-0.769822001457214,-0.983237981796265,1.63110792636871,-1303.5,-7.50000047683716,-928.500061035156,2.18631972867401,0.201816823107823,0.171555420382473,ST
2.73333333333333,2.16049242019653,-0.725547432899475,10.1008405685425,2.00458598136902,0.0609759986400604,1.41769194602966,-1305.90002441406,-9.90000057220459,-923.700012207031,2.19786017244901,0.207596027518843,0.0997329206215667,ST
2.76666666666667,2.31840205192566,-0.804502308368683,9.66359806060791,1.40244793891907,0.853663980960846,1.265251994133,-1301.10009765625,-9.90000057220459,-926.100036621094,2.19812924266819,0.22569656572379,0.0864588033382458,ST
2.8,1.66941702365875,-0.641209244728088,8.80406665802002,0.0762199983000755,1.14329993724823,1.56251001358032,-1298.70007324219,-9.90000057220459,-918.900024414062,2.19751008896074,0.195958761760764,0.0767597752512478,ST
2.83333333333333,1.11374223232269,-1.18252861499786,8.83636569976807,-0.724089980125427,1.96647596359253,2.25611186027527,-1298.70007324219,-8.70000076293945,-923.700012207031,2.18732278907838,0.143251615464846,0.117567533792122,ST
2.86666666666667,0.605918824672699,-2.1772403717041,8.85131931304932,-1.11281192302704,1.32622802257538,2.53812599182129,-1301.10009765625,-8.10000038146973,-923.700012207031,2.17264988974516,0.0845238438262338,0.210689846025923,ST
2.9,0.549693405628204,-2.22808265686035,9.44228458404541,-0.693601965904236,0.655492007732391,2.26373386383057,-1303.5,-7.50000047683716,-928.500061035156,2.16775809504179,0.0628345651887457,0.227032827542977,ST
2.93333333333333,1.32069969177246,-2.5337336063385,9.41656494140625,0.922261953353882,-0.99848198890686,2.62196803092957,-1296.30004882812,-6.30000019073486,-930.900024414062,2.16070415057179,0.113423166422174,0.251220813565923,ST
2.96666666666667,1.97626435756683,-2.14374446868896,9.92558479309082,1.44817996025085,-0.99848198890686,2.9268479347229,-1301.10009765625,-5.70000028610229,-928.500061035156,2.15902935352251,0.168878737299794,0.223226782006573,ST
3.0,2.65216588973999,-1.37393438816071,9.34538555145264,2.53050398826599,-1.20427596569061,2.27135586738586,-1298.70007324219,-6.90000009536743,-923.700012207031,2.16543515018602,0.243193299019988,0.16729502682968,ST
3.03333333333333,3.07864189147949,-1.49236667156219,9.52183818817139,2.12653803825378,-1.02134799957275,1.89025592803955,-1298.70007324219,-5.70000028610229,-928.500061035156,2.16368159866232,0.29107452396983,0.156991419927564,ST
3.06666666666667,3.20245742797852,-0.712388277053833,9.56909084320068,2.55336999893188,-1.08994603157043,1.2423859834671,-1305.90002441406,-6.30000019073486,-926.100036621094,2.17804508134887,0.314136443389067,0.0967997995684799,ST
3.1,3.2186074256897,-0.335558205842972,9.45245361328125,1.6692179441452,-0.0533539988100529,1.07470202445984,-1303.5,-8.10000038146973,-933.300048828125,2.18930251276841,0.323930370613513,0.0524039679218712,ST
3.13333333333333,3.03318309783936,-0.238060906529427,9.00504207611084,1.6692179441452,0.350611984729767,1.10518991947174,-1305.90002441406,-6.90000009536743,-923.700012207031,2.19288842341161,0.324070043097763,0.0326552001338755,ST
3.16666666666667,2.47332119941711,-0.151330173015594,8.04861164093018,1.2347639799118,1.62348592281342,0.945127964019775,-1298.70007324219,-8.10000038146973,-918.900024414062,2.19410383085912,0.303894612778065,0.02179744331692,ST
3.2,1.8847484588623,-0.442625790834427,8.58155727386475,0.564027965068817,1.73019397258759,1.29574000835419,-1308.30004882812,-9.90000057220459,-923.700012207031,2.1862138909868,0.240253794313949,0.0424992362664524,ST
3.23333333333333,2.03488230705261,-1.13946235179901,8.70178413391113,0.282013982534409,1.11281192302704,1.90549993515015,-1293.90002441406,-7.50000047683716,-930.900024414062,2.16761072795799,0.229671696490612,0.107454719995156,ST
3.26666666666667,1.59165847301483,-1.62336003780365,9.79100227355957,0.442075997591019,0.960371971130371,1.93598794937134,-1303.5,-8.10000038146973,-933.300048828125,2.15585903019817,0.176981304100997,0.148782659498281,ST
3.3,1.33146619796753,-0.37623193860054,9.93754768371582,2.52288198471069,0.243903994560242,1.92074394226074,-1296.30004882812,-6.90000009536743,-930.900024414062,2.16497808936592,0.145366510462705,0.0668823962793335,ST
3.33333333333333,1.85962653160095,-0.13398402929306,9.353759765625,2.20275783538818,0.213415995240211,1.85976791381836,-1301.10009765625,-8.10000038146973,-935.700012207031,2.16754213956719,0.180616310067937,0.0279398258853543,ST
3.36666666666667,1.8446729183197,-0.346324771642685,10.5207366943359,0.221037998795509,-0.754577994346619,1.03659200668335,-1301.10009765625,-7.50000047683716,-926.100036621094,2.16479354240948,0.17621120877166,0.0316266260872246,ST
3.4,2.11802434921265,-0.0005981429712846,9.21259784698486,0.83841997385025,-1.12805593013763,1.02897000312805,-1293.90002441406,-6.30000019073486,-923.700012207031,2.16718178817543,0.213731116698859,0.0080165289590405,ST
3.43333333333333,2.78973889350891,-0.118432305753231,8.46312522888184,0.990859985351562,-1.34909391403198,1.2347639799118,-1298.70007324219,-8.10000038146973,-921.300048828125,2.16384543440186,0.28848758015769,0.0113668996680311,ST
3.46666666666667,3.35378766059875,-0.554478526115417,9.1922607421875,-0.403965979814529,-1.63110792636871,0.182927995920181,-1298.70007324219,-8.10000038146973,-926.100036621094,2.15311524552756,0.333024773405158,0.0459215043866716,ST
3.5,2.96379852294922,-0.467149674892426,9.83227443695068,-0.388722002506256,-1.18140995502472,-1.04421401023865,-1298.70007324219,-8.10000038146973,-928.500061035156,2.15477499750297,0.30421474909333,0.0471843827102732,ST
3.53333333333333,1.95951640605927,-0.188415035605431,8.88302135467529,0.342989981174469,-0.0076219998300075,0.0304879993200302,-1303.5,-7.50000047683716,-926.100036621094,2.15961554420134,0.243317829470252,0.0285154151424498,ST
3.56666666666667,1.99121797084808,-0.412120521068573,10.0165023803711,0.137196004390717,0.259148001670837,1.10518991947174,-1301.10009765625,-7.50000047683716,-933.300048828125,2.15569814024642,0.209924407751741,0.0375054315170092,ST
3.6,2.52416324615479,-0.279332756996155,10.6828336715698,0.419209986925125,-0.518296003341675,0.259148001670837,-1305.90002441406,-7.50000047683716,-918.900024414062,2.15688532917059,0.225949886228825,0.0291371556597608,ST
3.63333333333333,3.64867210388184,-0.334960073232651,9.12825965881348,0.190549999475479,-1.00610399246216,-1.41769194602966,-1308.30004882812,-7.50000047683716,-918.900024414062,2.15787162843251,0.334758313101657,0.0336615325890617,ST
3.66666666666667,2.43324565887451,-0.129198879003525,9.64086818695068,-0.297257989645004,-0.167683988809586,-2.5000159740448,-1303.5,-8.70000076293945,-918.900024414062,2.16657911508825,0.27385651746844,0.0188341872784038,ST
3.7,1.73581087589264,0.0939084440469742,9.98121166229248,0.3125019967556,-0.137196004390717,-2.24848985671997,-1305.90002441406,-8.70000076293945,-928.500061035156,2.17515048253609,0.203009038110885,-0.0020464752680991,ST
3.73333333333333,2.1610906124115,0.0909177288413048,8.76518726348877,0.221037998795509,-0.746955990791321,-1.62348592281342,-1303.5,-10.5,-918.900024414062,2.17921903915996,0.230971481103719,-0.0085589640740846,ST
3.76666666666667,2.32797241210938,0.436644375324249,9.33102989196777,-0.106707997620106,-0.823175966739655,-1.41006994247437,-1305.90002441406,-9.90000057220459,-921.300048828125,2.1885461875585,0.241811902382326,-0.0370203880804467,ST
3.8,2.49305987358093,0.381615221500397,9.17192459106445,-0.152439996600151,-0.846041977405548,-1.82165801525116,-1301.10009765625,-9.30000019073486,-923.700012207031,2.19260103450727,0.259095849198545,-0.0405982031573785,ST
3.83333333333333,2.20415687561035,0.0269164331257343,9.45723819732666,-1.17378795146942,0.221037998795509,-2.12653803825378,-1301.10009765625,-11.7000007629395,-926.100036621094,2.18995328863215,0.237745029357301,-0.0133595102597783,ST
3.86666666666667,2.03248977661133,-0.301464051008224,9.76109504699707,-1.47866797447205,0.937505960464478,-1.89025592803955,-1305.90002441406,-9.90000057220459,-928.500061035156,2.18648529933613,0.213906959886786,0.0189147443920801,ST
3.9,2.06598591804504,-1.1675751209259,9.78083419799805,-0.83841997385025,1.90549993515015,-1.86738991737366,-1296.30004882812,-11.1000003814697,-926.100036621094,2.17493092977981,0.206556608547304,0.0931512943408447,ST
3.93333333333333,0.705808699131012,-0.87687760591507,10.2270488739014,1.12043392658234,1.79879200458527,-1.36433792114258,-1298.70007324219,-9.90000057220459,-928.500061035156,2.17829764761364,0.108172196516578,0.0862274840795669,ST
3.96666666666667,0.101684302091599,-0.771006286144257,9.4195556640625,1.40244793891907,0.983237981796265,1.28811800479889,-1293.90002441406,-11.7000007629395,-933.300048828125,2.17619787290413,0.0349097154587949,0.0811859361612376,ST
4.0,0.297875195741653,-0.801511585712433,9.3896484375,0.37347799539566,0.0685980021953583,2.22562384605408,-1293.90002441406,-9.30000019073486,-930.900024414062,2.1720374265324,0.0321882895871629,0.0836859561997406,ST
4.03333333333333,0.828428030014038,-1.18671560287476,9.98599720001221,-1.02897000312805,-1.00610399246216,2.85062789916992,-1293.90002441406,-11.1000003814697,-928.500061035156,2.16577424892986,0.0680349294696756,0.109303969069812,ST
4.06666666666667,1.21722090244293,-1.14723825454712,9.64206504821777,-0.632625997066498,-1.41006994247437,2.59910202026367,-1293.90002441406,-9.90000057220459,-926.100036621094,2.16048840891191,0.109005812940726,0.116759933158759,ST
4.1,1.62874329090118,-0.873288750648499,9.22575759887695,0.602137982845306,-1.2423859834671,2.15702605247498,-1298.70007324219,-9.30000019073486,-926.100036621094,2.15855140730813,0.155661438181856,0.100816710705443,ST
4.13333333333333,2.14194989204407,-0.896018147468567,9.03195858001709,0.952749967575073,-1.50915598869324,2.43141794204712,-1303.5,-10.5,-921.300048828125,2.15423474380904,0.21038553729897,0.0989198125340472,ST
4.16666666666667,2.45657324790955,-0.729136288166046,9.22037410736084,0.67835795879364,-1.53964400291443,2.28659987449646,-1310.70007324219,-9.30000019073486,-926.100036621094,2.15308163142036,0.246427795567204,0.0848610078078217,ST
4.2,2.37821650505066,-0.590367138385773,9.84842395782471,1.03659200668335,-0.724089980125427,2.5152599811554,-1303.5,-9.30000019073486,-921.300048828125,2.15268177534372,0.240178334567695,0.06688247417154,ST
4.23333333333333,2.73650407791138,-0.328978627920151,9.43092060089111,1.19665396213531,-0.0990860015153885,2.09605002403259,-1303.5,-7.50000047683716,-928.500061035156,2.15447570530594,0.26960386525087,0.0438008168716211,ST
4.26666666666667,2.27832651138306,0.237462759017944,9.47219181060791,1.15854394435883,0.617381989955902,1.47866797447205,-1301.10009765625,-8.70000076293945,-928.500061035156,2.16405111740604,0.245443416076087,-0.0054043741513018,ST
4.3,2.33754277229309,0.274547636508942,9.49193096160889,0.579271972179413,0.632625997066498,1.79879200458527,-1303.5,-8.70000076293945,-926.100036621094,2.16478610663284,0.241866904106329,-0.0220083976040068,ST
4.33333333333333,2.47332119941711,0.0394774377346039,9.54576396942139,-0.259148001670837,0.304879993200302,1.46342396736145,-1301.10009765625,-8.70000076293945,-928.500061035156,2.15920748369105,0.249681341260457,-0.0087546233379403,ST
4.36666666666667,2.19458651542664,-0.131591454148293,9.83825588226318,-0.899396002292633,0.327746003866196,0.289635986089706,-1298.70007324219,-6.30000019073486,-921.300048828125,2.1551405573853,0.228158024517932,0.0079395285745684,ST
4.4,2.50920987129211,-0.323595345020294,9.46202373504639,-0.693601965904236,0.198172003030777,0.0,-1303.5,-6.90000009536743,-928.500061035156,2.15089521382782,0.249549907590385,0.0270935367663209,ST
4.43333333333333,2.65037155151367,-0.253612607717514,8.82201099395752,-0.541162014007568,-0.0381099991500378,0.274392008781433,-1301.10009765625,-6.90000009536743,-928.500061035156,2.15011737513044,0.281220106519844,0.0291404845743479,ST
4.46666666666667,2.74487805366516,-0.32538977265358,9.12168025970459,-0.640248000621796,0.0838419944047928,0.548784017562866,-1301.10009765625,-6.90000009536743,-926.100036621094,2.14787275257988,0.289001237735791,0.0348777674694094,ST
4.5,3.03736996650696,0.0460570082068443,8.66410064697266,-0.708845973014832,-0.0152439996600151,0.731711983680725,-1293.90002441406,-5.10000038146973,-928.500061035156,2.15562747195398,0.325182126928767,0.0061294958816984,ST
4.53333333333333,3.13127851486206,-0.470738530158997,9.51346397399902,-1.17378795146942,0.243903994560242,0.693601965904236,-1298.70007324219,-5.10000038146973,-930.900024414062,2.14439371108482,0.319318072264927,0.0399201858220419,ST
4.56666666666667,3.01404237747192,-0.428868502378464,9.55234336853027,-1.71494996547699,0.411587983369827,-0.365855991840363,-1305.90002441406,-5.10000038146973,-930.900024414062,2.1443202452763,0.308505552242421,0.0456215598616476,ST
4.6,2.33694458007812,-0.361876487731934,10.0553817749023,-0.945127964019775,0.746955990791321,-0.92988395690918,-1296.30004882812,-5.10000038146973,-928.500061035156,2.14802166546578,0.251513697866383,0.039672267795111,ST
4.63333333333333,2.37522578239441,-0.218322187662125,9.49432373046875,-0.121951997280121,0.724089980125427,-1.48628997802734,-1301.10009765625,-6.30000019073486,-930.900024414062,2.15355366472256,0.246199499306254,0.0276864532522362,ST
4.66666666666667,1.93798327445984,0.323595345020294,9.6462516784668,-0.236281991004944,0.236281991004944,-1.50915598869324,-1293.90002441406,-8.10000038146973,-926.100036621094,2.16597577402965,0.212435602977621,-0.0153774495739391,ST
4.7,2.88245105743408,-0.0861325860023499,9.44826602935791,-1.12805593013763,-0.472563982009888,-1.35671591758728,-1293.90002441406,-6.90000009536743,-933.300048828125,2.1644048669327,0.272597793853937,0.0029433043035192,ST
4.73333333333333,3.1946816444397,-0.32838049530983,8.87524509429932,-2.15702605247498,-0.350611984729767,-2.71343183517456,-1293.90002441406,-6.30000019073486,-933.300048828125,2.16255105482513,0.323911105388729,0.0281821698938651,ST
4.76666666666667,2.39257192611694,-0.918149471282959,9.64984035491943,-2.59148001670837,1.00610399246216,-3.48325395584106,-1293.90002441406,-5.10000038146973,-933.300048828125,2.15550040826396,0.265821021740581,0.0770255152924462,ST
4.8,1.9989937543869,-1.57610678672791,9.33641338348389,-2.90398192405701,0.907018005847931,-3.51374197006226,-1296.30004882812,-4.5,-940.500061035156,2.14660586972797,0.222813405099823,0.146423824761249,ST
4.83333333333333,1.31770896911621,-1.94456279277802,9.69709396362305,-2.38568592071533,0.746955990791321,-3.19361782073975,-1291.5,-7.50000047683716,-935.700012207031,2.14566639645815,0.159486212366422,0.184772816617273,ST
4.86666666666667,1.31112945079803,-2.12879085540771,9.56131553649902,-0.693601965904236,0.236281991004944,-1.22714197635651,-1289.10009765625,-5.10000038146973,-933.300048828125,2.14429412787241,0.141045084303457,0.209403889764067,ST
4.9,1.23695969581604,-1.93259990215302,9.84423732757568,0.182927995920181,-0.419209986925125,-0.541162014007568,-1293.90002441406,-5.10000038146973,-935.700012207031,2.14656564364051,0.128608026995234,0.198015029063067,ST
4.93333333333333,1.6323322057724,-1.71367967128754,8.74425220489502,0.792688012123108,-0.685979962348938,0.0304879993200302,-1286.70007324219,-5.70000028610229,-935.700012207031,2.14668443900663,0.166171050587572,0.193960943719585,ST
4.96666666666667,1.93917953968048,-1.67001521587372,9.48295879364014,0.396344006061554,-1.30336201190948,0.663114011287689,-1289.10009765625,-5.70000028610229,-938.100036621094,2.14752265381489,0.190819352398902,0.17970843148884,ST
5.0,2.47691011428833,-1.53304040431976,8.69998931884766,0.510673999786377,-1.90549993515015,1.35671591758728,-1291.5,-5.10000038146973,-930.900024414062,2.14534331301174,0.250498323817551,0.17592088145015,ST
5.03333333333333,2.73530769348145,-1.6383136510849,9.06485652923584,0.525918006896973,-1.00610399246216,1.48628997802734,-1291.5,-6.30000019073486,-935.700012207031,2.14186980585883,0.278057172825456,0.177841850546591,ST
5.06666666666667,2.63661432266235,-1.70769822597504,9.37110614776611,0.594515979290009,-0.282013982534409,1.52439999580383,-1289.10009765625,-3.90000009536743,-933.300048828125,2.13860561183489,0.272456127302639,0.1793372754195,ST
5.1,1.94037580490112,-1.36615860462189,9.75870227813721,0.914639949798584,0.457319974899292,1.53964400291443,-1296.30004882812,-5.10000038146973,-933.300048828125,2.14282544403168,0.217064686187459,0.150396410875033,ST
5.13333333333333,1.73820352554321,-0.803305983543396,9.21140193939209,1.02897000312805,0.960371971130371,1.37195992469788,-1296.30004882812,-6.30000019073486,-935.700012207031,2.14988391435993,0.192641778786454,0.102551971140879,ST
5.16666666666667,1.68736135959625,-0.624461233615875,9.2879638671875,0.6250039935112,0.83841997385025,0.518296003341675,-1289.10009765625,-5.10000038146973,-933.300048828125,2.1536780598719,0.182273268287721,0.0771098593953318,ST
5.2,1.51689052581787,-0.675303399562836,9.72640323638916,0.442075997591019,0.701223969459534,-0.0762199983000755,-1286.70007324219,-5.10000038146973,-938.100036621094,2.15479531052213,0.161897570406004,0.0710912300174951,ST
5.23333333333333,1.78186786174774,-0.931906759738922,9.82808685302734,0.358233988285065,0.198172003030777,-0.221037998795509,-1289.10009765625,-5.70000028610229,-933.300048828125,2.15244276150449,0.173346639051421,0.0869840248622806,ST
5.26666666666667,1.93858134746552,-0.896018147468567,9.79219818115234,0.548784017562866,0.0381099991500378,-0.198172003030777,-1286.70007324219,-4.5,-938.100036621094,2.1522077455925,0.188218183660109,0.0892484412797253,ST
5.3,2.34412240982056,-0.671116411685944,9.22755146026611,0.907018005847931,-0.205793991684914,0.0228659994900227,-1291.5,-5.10000038146973,-935.700012207031,2.15445436657685,0.23036044305888,0.0765777559945254,ST
5.33333333333333,2.1892032623291,-0.785361707210541,9.48415470123291,0.83841997385025,0.167683988809586,-0.182927995920181,-1281.90002441406,-5.10000038146973,-933.300048828125,2.15374049537147,0.22720074187924,0.0797252154842014,ST
5.36666666666667,1.86620604991913,-0.943271458148956,9.15517616271973,0.609759986400604,0.221037998795509,-0.282013982534409,-1284.30004882812,-6.30000019073486,-933.300048828125,2.15072421291771,0.207997172266176,0.0949789683184071,ST
5.4,1.66403377056122,-1.02880585193634,10.0793075561523,0.922261953353882,-0.342989981174469,0.0838419944047928,-1289.10009765625,-6.30000019073486,-935.700012207031,2.14952316427467,0.176792503049013,0.0986173312991544,ST
5.43333333333333,2.55347228050232,-0.932504892349243,9.31547832489014,1.47104597091675,-1.2500079870224,0.564027965068817,-1291.5,-6.90000009536743,-930.900024414062,2.14782332972383,0.245410650691623,0.0977758982474743,ST
5.46666666666667,2.92551732063293,-0.92771977186203,8.65512847900391,1.05183601379395,-1.28049600124359,0.396344006061554,-1291.5,-5.70000028610229,-935.700012207031,2.14507793058727,0.301994077359898,0.102944791692481,ST
5.5,2.66951203346252,-0.865512907505035,9.11151218414307,0.739333987236023,-0.937505960464478,0.800309956073761,-1291.5,-8.10000038146973,-928.500061035156,2.14506309170947,0.290089749169975,0.0964834115192656,ST
5.53333333333333,2.47870445251465,-0.939084470272064,9.88012599945068,0.868907988071442,-0.129574000835419,1.48628997802734,-1296.30004882812,-8.70000076293945,-935.700012207031,2.14264842303042,0.258361963856384,0.0947357509486172,ST
5.56666666666667,2.55347228050232,-0.543113827705383,9.90644359588623,1.41006994247437,0.205793991684914,2.0731840133667,-1289.10009765625,-7.50000047683716,-933.300048828125,2.14598681147966,0.253167917297859,0.0641081744739601,ST
5.6,3.14025068283081,-0.375035643577576,9.92618274688721,1.21189796924591,-0.167683988809586,2.03507399559021,-1289.10009765625,-6.90000009536743,-930.900024414062,2.14715765404646,0.29033228509258,0.0450143727261453,ST
5.63333333333333,2.4936580657959,-0.393578082323074,9.27480506896973,0.670735955238342,0.0,1.11281192302704,-1298.70007324219,-6.90000009536743,-935.700012207031,2.14545112982553,0.269676720691508,0.042637594287235,ST
5.66666666666667,2.46793794631958,-0.391185492277145,9.61155986785889,0.510673999786377,-0.198172003030777,1.08232402801514,-1293.90002441406,-6.30000019073486,-930.900024414062,2.14382958792627,0.256899282645991,0.0410000472319147,ST
5.7,2.39257192611694,-0.0239257179200649,8.61146450042725,0.6250039935112,-1.21189796924591,0.342989981174469,-1301.10009765625,-7.50000047683716,-938.100036621094,2.15023048086184,0.268691915049104,0.0126452227478157,ST
5.73333333333333,2.33634638786316,0.294286340475082,8.76698112487793,0.335367977619171,-1.57013201713562,0.0990860015153885,-1296.30004882812,-6.30000019073486,-935.700012207031,2.15898229370872,0.264585905837832,-0.02186498137787,ST
5.76666666666667,2.48289155960083,0.310436189174652,8.9655647277832,0.548784017562866,-1.52439999580383,0.205793991684914,-1298.70007324219,-8.70000076293945,-935.700012207031,2.16097187357117,0.270250880147841,-0.0313895590438031,ST
5.8,3.02241635322571,-0.0328978635370731,9.50987529754639,-0.167683988809586,-1.63110792636871,-0.137196004390717,-1296.30004882812,-6.90000009536743,-923.700012207031,2.153995097513,0.300516011092231,-0.005170778724866,ST
5.83333333333333,2.55825757980347,-0.0394774377346039,9.90106105804443,-0.495429992675781,-0.967993974685669,-0.693601965904236,-1298.70007324219,-8.10000038146973,-928.500061035156,2.1534846710109,0.26837236891443,0.0016252124577218,ST
5.86666666666667,2.5056209564209,-0.345726639032364,10.3083963394165,-0.121951997280121,0.579271972179413,-0.975615978240967,-1303.5,-7.50000047683716,-933.300048828125,2.14952488035465,0.246697169335329,0.0238239795923302,ST
5.9,2.33754277229309,-0.080151155591011,9.72640323638916,-0.243903994560242,0.358233988285065,-1.64635193347931,-1301.10009765625,-8.70000076293945,-928.500061035156,2.15520208844858,0.238565446055332,0.0125100646541879,ST
5.93333333333333,1.30215728282928,-0.01914057508111,9.81253528594971,-0.304879993200302,1.07470202445984,-1.79117000102997,-1298.70007324219,-9.30000019073486,-928.500061035156,2.15984613970546,0.162759251031048,0.0050497353006842,ST
5.96666666666667,1.61797678470612,-0.214135184884071,9.28856182098389,-0.853663980960846,0.777444005012512,-1.92074394226074,-1293.90002441406,-8.70000076293945,-928.500061035156,2.16119495655778,0.168596095397393,0.018273955595474,ST
6.0,1.9206371307373,-0.440831363201141,9.33043193817139,-1.13567793369293,-0.228659987449646,-2.05031800270081,-1291.5,-7.50000047683716,-930.900024414062,2.16122268807218,0.192868611561025,0.0393917592715309,ST
6.03333333333333,1.77349388599396,-0.561058104038239,9.05169773101807,-1.04421401023865,-0.274392008781433,-1.59299790859222,-1291.5,-6.90000009536743,-930.900024414062,2.16108239373041,0.193493607532424,0.0563454351908777,ST
6.06666666666667,1.91824448108673,-0.773398876190186,9.4375,-0.975615978240967,-0.434453994035721,-1.80641400814056,-1296.30004882812,-9.90000057220459,-930.900024414062,2.1608089394183,0.198643366896028,0.0748726302333095,ST
6.1,2.15630531311035,-0.699827253818512,9.44108867645264,-0.426831990480423,-0.693601965904236,-1.52439999580383,-1296.30004882812,-9.30000019073486,-928.500061035156,2.163541111642,0.217317497458655,0.074400469718643,ST
6.13333333333333,2.48109698295593,-0.561058104038239,9.16953182220459,0.0381099991500378,-0.807931959629059,-0.914639949798584,-1293.90002441406,-8.10000038146973,-928.500061035156,2.16718061089388,0.250862680848112,0.0648555102255804,ST
6.16666666666667,2.86988997459412,-0.732127010822296,8.98530387878418,-0.243903994560242,-0.586893975734711,-0.480185985565186,-1296.30004882812,-8.70000076293945,-930.900024414062,2.16491694602821,0.29170014122921,0.0764526514282314,ST
6.2,3.03318309783936,-1.00787091255188,9.20781326293945,-1.10518991947174,-0.274392008781433,-0.190549999475479,-1298.70007324219,-9.30000019073486,-933.300048828125,2.15831609369785,0.31036434181952,0.10179460197769,ST
6.23333333333333,2.70001745223999,-1.00368392467499,9.353759765625,-0.922261953353882,-0.0685980021953583,-0.190549999475479,-1291.5,-8.70000076293945,-933.300048828125,2.15772251490811,0.288887692199516,0.106430639621144,ST
6.26666666666667,2.53253722190857,-0.87388688325882,9.13842868804932,-0.525918006896973,-0.655492007732391,0.221037998795509,-1298.70007324219,-7.50000047683716,-928.500061035156,2.15945819438595,0.275876621835828,0.099402988898504,ST
6.3,2.63721227645874,-0.914560616016388,9.01281833648682,-0.221037998795509,-0.342989981174469,0.861285984516144,-1296.30004882812,-6.90000009536743,-930.900024414062,2.15759067586693,0.281366516282252,0.101189821515698,ST
6.33333333333333,3.03856635093689,-1.06947958469391,8.86986255645752,-0.282013982534409,-0.762199997901917,0.937505960464478,-1291.5,-7.50000047683716,-930.900024414062,2.15186888916748,0.315290941051951,0.115283843053971,ST
6.36666666666667,3.11752104759216,-0.823044717311859,8.64196968078613,0.297257989645004,-0.518296003341675,0.586893975734711,-1298.70007324219,-8.10000038146973,-928.500061035156,2.15537629793917,0.33764108283712,0.100229864367754,ST
6.4,2.69642853736877,-0.963010191917419,9.32265663146973,0.579271972179413,0.198172003030777,0.99848198890686,-1291.5,-8.10000038146973,-926.100036621094,2.1529689167443,0.297064343505417,0.101831745097696,ST
6.43333333333333,3.01763129234314,-1.08503139019012,9.13543796539307,0.3125019967556,0.144817993044853,0.647870004177094,-1296.30004882812,-8.10000038146973,-938.100036621094,2.14839038700543,0.310721002076837,0.113127256034396,ST
6.46666666666667,3.00566840171814,-0.918149471282959,9.19465351104736,-0.0762199983000755,0.0685980021953583,-0.0914639979600906,-1293.90002441406,-8.10000038146973,-930.900024414062,2.15155489337553,0.313333881596863,0.103496948218517,ST
6.5,2.4996395111084,-1.28600740432739,10.19056224823,-0.525918006896973,0.0533539988100529,-0.320124000310898,-1296.30004882812,-7.50000047683716,-930.900024414062,2.14780393295406,0.261163967997923,0.11956215133212,ST
6.53333333333333,3.32208609580994,-1.68736135959625,10.2635354995728,-0.891773998737335,-0.960371971130371,-0.602137982845306,-1291.5,-8.10000038146973,-935.700012207031,2.14044439364165,0.296012906617773,0.15069505789546,ST
6.56666666666667,2.93448948860168,-1.69573533535004,9.08280086517334,-0.746955990791321,-0.495429992675781,-1.01372599601746,-1296.30004882812,-7.50000047683716,-928.500061035156,2.1349459261687,0.305378170617378,0.17626242354774,ST
6.6,2.59534239768982,-1.63651919364929,9.06366062164307,0.228659987449646,-0.0838419944047928,-0.381099998950958,-1286.70007324219,-7.50000047683716,-933.300048828125,2.1350614702895,0.284085474565771,0.17752097886278,ST
6.63333333333333,2.07555603981018,-1.62814521789551,9.03674411773682,0.6250039935112,0.0914639979600906,0.37347799539566,-1298.70007324219,-7.50000047683716,-930.900024414062,2.1342219381722,0.24069068376779,0.177417559617288,ST
6.66666666666667,2.40214228630066,-1.33625137805939,8.99068737030029,0.990859985351562,-0.533540010452271,0.693601965904236,-1301.10009765625,-8.70000076293945,-930.900024414062,2.13790035859226,0.253825145836191,0.155177158630482,ST
6.7,3.00507020950317,-1.23038005828857,8.95599460601807,1.08232402801514,-0.907018005847931,1.13567793369293,-1293.90002441406,-8.70000076293945,-930.900024414062,2.139088693921,0.303414270000182,0.140849237977337,ST
6.73333333333333,2.66652131080627,-1.27703523635864,8.87464714050293,0.632625997066498,0.548784017562866,1.60061991214752,-1298.70007324219,-10.5,-926.100036621094,2.13582170248003,0.292236555499613,0.142112607918924,ST
6.76666666666667,2.36206650733948,-1.263876080513,9.25925350189209,0.266770005226135,0.899396002292633,1.43293595314026,-1291.5,-7.50000047683716,-933.300048828125,2.13474770105285,0.259670598656958,0.137713932487656,ST
6.8,2.37941265106201,-1.41042113304138,9.28676795959473,0.0914639979600906,0.289635986089706,1.53202199935913,-1291.5,-7.50000047683716,-933.300048828125,2.12984964909132,0.250961967087714,0.147177563521172,ST
6.83333333333333,1.9469553232193,-1.65147268772125,10.1672344207764,0.571649968624115,0.503051996231079,1.95123195648193,-1291.5,-8.70000076293945,-930.900024414062,2.12406876561473,0.203422281910769,0.157099410725647,ST
6.86666666666667,1.70470750331879,-1.60182690620422,10.6481409072876,0.868907988071442,0.403965979814529,1.78354799747467,-1293.90002441406,-5.10000038146973,-933.300048828125,2.12203806107018,0.170141247470529,0.150980487834084,ST
6.9,2.63123083114624,-1.33684957027435,9.62531661987305,1.38720393180847,-0.724089980125427,0.983237981796265,-1296.30004882812,-7.50000047683716,-930.900024414062,2.12176527876989,0.240404887075489,0.140021700033105,ST
6.93333333333333,2.65515661239624,-0.842185318470001,8.57378101348877,1.54726600646973,-1.02134799957275,0.815553963184357,-1289.10009765625,-8.70000076293945,-928.500061035156,2.12749065557526,0.282505558851439,0.109179086301357,ST
6.96666666666667,2.39855337142944,-0.802109718322754,9.14620399475098,1.18903195858002,-0.571649968624115,1.12043392658234,-1293.90002441406,-7.50000047683716,-930.900024414062,2.12937354909519,0.264211000467463,0.092918402306022,ST
7.0,2.66353058815002,-0.700425446033478,8.75561714172363,0.937505960464478,-0.899396002292633,1.29574000835419,-1298.70007324219,-8.10000038146973,-928.500061035156,2.12931880302721,0.286298437963057,0.0831237533529873,LD
7.03333333333333,2.90338587760925,-0.866709172725677,9.17431735992432,0.746955990791321,-0.78506600856781,1.83690190315247,-1303.5,-8.10000038146973,-926.100036621094,2.12348274196082,0.30055824824137,0.0907854363172104,LD
7.06666666666667,3.2407386302948,-0.945065915584564,9.21439266204834,0.647870004177094,-0.37347799539566,1.57775402069092,-1303.5,-6.30000019073486,-921.300048828125,2.1176789428586,0.327406725566067,0.0990331411905049,LD
7.1,2.4476010799408,-0.982150733470917,9.73836612701416,0.907018005847931,0.541162014007568,1.98934197425842,-1301.10009765625,-8.10000038146973,-930.900024414062,2.11383999589739,0.268909868299934,0.0997232410353202,LD
7.13333333333333,2.38599228858948,-0.945664048194885,9.59899806976318,0.891773998737335,0.663114011287689,1.91312193870544,-1298.70007324219,-5.70000028610229,-930.900024414062,2.11077384679521,0.249403565531521,0.0981639070788356,LD
7.16666666666667,2.64199757575989,-0.917551338672638,9.28975868225098,0.442075997591019,-1.69970595836639,0.914639949798584,-1296.30004882812,-6.90000009536743,-928.500061035156,2.10871554289606,0.270208118145039,0.0981800029913178,LD
7.2,2.2532045841217,-0.852353751659393,9.05708122253418,0.617381989955902,-2.39330792427063,1.12043392658234,-1296.30004882812,-8.70000076293945,-928.500061035156,2.10688029231652,0.252909931025439,0.0946338575363214,LD
7.23333333333333,1.82433605194092,-0.655564725399017,8.79987907409668,0.87652999162674,-3.59758400917053,0.78506600856781,-1305.90002441406,-7.50000047683716,-926.100036621094,2.10820562470795,0.222916781563674,0.0796616070882061,LD
7.26666666666667,1.87039303779602,-0.681284844875336,9.09596061706543,0.525918006896973,-6.2729058265686,-0.137196004390717,-1310.70007324219,-6.90000009536743,-921.300048828125,2.10828069272391,0.216112477524474,0.0756810498802962,LD
7.3,1.97626435756683,-0.287706762552261,9.46501445770264,0.670735955238342,-10.6784219741821,-0.663114011287689,-1325.10009765625,-8.70000076293945,-916.500061035156,2.11510256400475,0.221972156962007,0.0431281752026716,LD
7.33333333333333,2.75085949897766,0.171068891882896,8.42544174194336,1.42531394958496,-17.1799869537354,-1.49391198158264,-1339.5,-7.50000047683716,-904.500061035156,2.12934482643974,0.31318785184624,-0.0056255880299568,LD
7.36666666666667,3.72343993186951,-0.442625790834427,8.51994895935059,1.28049600124359,-21.5931262969971,-2.00458598136902,-1358.70007324219,-7.50000047683716,-878.100036621094,2.11821983090035,0.408381920813255,0.0319468117767547,LD
7.4,5.18410491943359,0.384007781744003,7.04612398147583,0.533540010452271,-23.018440246582,-4.06252574920654,-1382.70007324219,-10.5,-851.700012207031,2.15336733033731,0.593590751937298,-0.0290713831100237,LD
7.43333333333333,7.45824480056763,0.348717361688614,5.74576139450073,-0.160062000155449,-18.9482917785645,-3.51374197006226,-1401.90002441406,-10.5,-818.100036621094,2.17533641789552,0.838442706271947,-0.0526599321927403,LD
7.46666666666667,9.38785362243652,0.461168229579926,6.44678497314453,-0.609759986400604,-17.5534648895264,-3.46800994873047,-1413.90002441406,-12.9000005722046,-803.700012207031,2.19702645211425,0.954001061599445,-0.072309719101542,LD
7.5,9.51047325134277,0.559263706207275,5.32287406921387,0.114329993724823,-10.4116516113281,-2.67532205581665,-1421.10009765625,-13.5000009536743,-782.100036621094,2.22634535258424,1.04383793753801,-0.102813720836808,LD
7.53333333333333,9.18927001953125,0.331969350576401,6.13455438613892,-0.396344006061554,-2.45428395271301,-0.602137982845306,-1421.10009765625,-12.3000001907349,-770.100036621094,2.19850128504451,1.00329082636891,-0.0686269474866534,LD
7.56666666666667,7.94393682479858,0.126208171248436,6.4276442527771,-0.0304879993200302,-1.60061991214752,0.182927995920181,-1423.5,-14.7000007629395,-767.700012207031,2.16868479990875,0.92646621022499,-0.0322954207793546,LD
7.6,8.02229309082031,-0.269164323806763,6.32655811309814,-0.663114011287689,-1.82165801525116,0.525918006896973,-1425.90002441406,-12.9000005722046,-762.900024414062,2.12566903295958,0.912296557362965,0.0222632658578397,LD
7.63333333333333,7.34818649291992,-0.193200185894966,6.09208631515503,-0.335367977619171,-2.15702605247498,0.37347799539566,-1421.10009765625,-12.9000005722046,-765.300048828125,2.11925290837813,0.890004597051297,0.0304518908633434,LD
7.66666666666667,8.01391983032227,-0.435448080301285,6.0131311416626,-0.746955990791321,-2.66007804870605,0.121951997280121,-1430.70007324219,-14.7000007629395,-767.700012207031,2.09626743654153,0.918366336558383,0.060662044804628,LD
7.7,7.9218053817749,0.0185424312949181,6.15967655181885,-0.411587983369827,-2.81251788139343,-0.685979962348938,-1425.90002441406,-14.7000007629395,-758.100036621094,2.13327587079322,0.916121562575192,0.0154947806868048,LD
7.73333333333333,8.12038898468018,0.262584775686264,5.93417644500732,0.602137982845306,-3.01831197738647,-0.335367977619171,-1425.90002441406,-12.9000005722046,-746.100036621094,2.16947518648878,0.937577958293021,-0.0304127140973011,LD
7.76666666666667,8.69400787353516,0.56165623664856,4.7366943359375,0.655492007732391,-3.25459384918213,-0.0533539988100529,-1433.10009765625,-14.7000007629395,-753.300048828125,2.21857861784494,1.03546021906634,-0.0898357341497107,LD
7.8,8.1365385055542,0.376830071210861,5.22657346725464,-0.518296003341675,-2.32470989227295,0.0609759986400604,-1430.70007324219,-15.9000005722046,-746.100036621094,2.20826117125121,1.01255649681336,-0.0767065487201082,LD
7.83333333333333,8.68802642822266,0.30923992395401,5.06028938293457,-0.739333987236023,-1.51677799224854,0.472563982009888,-1430.70007324219,-14.1000003814697,-738.900024414062,2.19837330775517,1.03543714961831,-0.0642335625357343,LD
7.86666666666667,9.25506591796875,0.573020994663239,4.60749530792236,-0.937505960464478,-2.37806391716003,0.160062000155449,-1435.5,-13.5000009536743,-738.900024414062,2.23371922359222,1.08769095336375,-0.102971391025478,LD
7.9,8.34469223022461,0.579600512981415,5.14223527908325,-0.967993974685669,-1.60061991214752,0.228659987449646,-1433.10009765625,-14.7000007629395,-741.300048828125,2.24013875603935,1.03752742312401,-0.10856372037798,LD
7.93333333333333,9.25327205657959,0.819455862045288,4.85632276535034,-0.114329993724823,0.0457319989800453,0.716467976570129,-1430.70007324219,-12.3000001907349,-734.100036621094,2.2728937940784,1.06863406322654,-0.146729056259232,LD
7.96666666666667,8.7340841293335,0.358287632465363,4.82402324676514,-0.83841997385025,0.632625997066498,0.411587983369827,-1433.10009765625,-14.1000003814697,-738.900024414062,2.22736956047431,1.06563020473002,-0.0937741020679145,LD
8.0,8.26992511749268,-0.122619308531284,4.66372060775757,-2.32470989227295,1.96647596359253,-0.144817993044853,-1433.10009765625,-12.9000005722046,-746.100036621094,2.15234975397278,1.05763673876944,-0.0035891182953345,LD
8.03333333333333,8.47448921203613,0.186620607972145,5.21819925308228,-2.22562384605408,1.80641400814056,-0.396344006061554,-1433.10009765625,-15.9000005722046,-753.300048828125,2.17411300187119,1.0281773041888,-0.0245551395889626,LD
8.06666666666667,8.83158111572266,-0.325987905263901,5.38029623031616,-1.16616594791412,-1.00610399246216,0.442075997591019,-1430.70007324219,-13.5000009536743,-736.5,2.12230481103739,1.02599865065147,0.0375120548730258,LD
8.1,8.3458890914917,-0.179442897439003,4.88144493103027,-0.830797970294952,-0.342989981174469,0.289635986089706,-1435.5,-12.3000001907349,-748.5,2.12233573226982,1.03749082435147,0.0386691286611829,LD
8.13333333333333,8.94403171539307,-0.388194799423218,5.01901769638062,-1.40244793891907,-0.0152439996600151,0.0228659994900227,-1433.10009765625,-13.5000009536743,-753.300048828125,2.09901126537855,1.0525543305467,0.0681762135664684,LD
8.16666666666667,8.87763786315918,-0.779380261898041,5.04772853851318,-2.15702605247498,-1.40244793891907,-0.586893975734711,-1428.30004882812,-13.5000009536743,-748.5,2.04670538664414,1.05191427751762,0.132926176259867,LD
8.2,8.26394367218018,-0.900205194950104,5.56811285018921,-1.48628997802734,-0.0076219998300075,-0.807931959629059,-1430.70007324219,-14.1000003814697,-746.100036621094,2.03178569437486,0.993051088689181,0.154212065195082,LD
8.23333333333333,7.83926200866699,-1.05632042884827,6.22965908050537,-0.228659987449646,0.533540010452271,0.396344006061554,-1440.30004882812,-14.1000003814697,-743.700012207031,2.02261509387343,0.919271811521806,0.165590789111053,LD
8.26666666666667,8.62342739105225,-0.32838049530983,5.24332141876221,0.449698001146317,0.198172003030777,0.861285984516144,-1433.10009765625,-14.1000003814697,-750.900024414062,2.0761043500495,0.992357124791612,0.0984879467748533,LD
8.3,8.11022090911865,-0.0251220054924488,5.14402961730957,0.548784017562866,-0.37347799539566,1.18140995502472,-1435.5,-12.9000005722046,-750.900024414062,2.12741034979122,1.00243406107884,0.0351128516771775,LD
8.33333333333333,8.28128910064697,-0.39836323261261,5.35756635665894,-0.0304879993200302,1.2423859834671,1.05183601379395,-1430.70007324219,-12.9000005722046,-753.300048828125,2.10186133693041,0.995943398318175,0.0644384347929435,LD
8.36666666666667,9.04751014709473,-0.398961365222931,5.02440118789673,-0.335367977619171,-1.12043392658234,-0.25152599811554,-1430.70007324219,-13.5000009536743,-753.300048828125,2.0939082207996,1.04385840535682,0.074583571289166,LD
8.4,8.24240970611572,-0.418101936578751,5.4257550239563,0.0762199983000755,-1.31098401546478,-0.525918006896973,-1433.10009765625,-13.5000009536743,-746.100036621094,2.09351081750716,1.00592262567868,0.0753961822184894,LD
8.43333333333333,8.17781066894531,-0.503636360168457,6.1471152305603,0.6250039935112,0.449698001146317,-0.121951997280121,-1433.10009765625,-12.3000001907349,-753.300048828125,2.08974774416001,0.948516136612811,0.0791105858317585,LD
8.46666666666667,8.1126127243042,0.0041870009154081,5.58187007904053,1.73019397258759,-0.25152599811554,-0.381099998950958,-1433.10009765625,-15.3000001907349,-746.100036621094,2.13510612435961,0.962886927158859,0.0210346024330665,LD
8.5,8.15747356414795,0.208751901984215,5.38747358322144,1.75305998325348,-0.0609759986400604,-0.167683988809586,-1435.5,-14.1000003814697,-750.900024414062,2.16953551706113,0.980153691155441,-0.0235638066463169,LD
8.53333333333333,9.28437519073486,0.403746515512466,4.71575927734375,0.129574000835419,-0.518296003341675,-0.579271972179413,-1428.30004882812,-12.9000005722046,-748.5,2.20629764417833,1.06573568760417,-0.0659597188407007,LD
8.56666666666667,8.70238208770752,0.201574176549911,4.67269277572632,-0.411587983369827,0.0838419944047928,-0.952749967575073,-1433.10009765625,-14.1000003814697,-748.5,2.194821636764,1.07422682372844,-0.0511737375273653,LD
8.6,8.80346870422363,-0.0586180128157139,4.9394645690918,-1.07470202445984,1.46342396736145,-1.13567793369293,-1433.10009765625,-14.1000003814697,-753.300048828125,2.15940272114606,1.06227812562556,-0.0078679335713663,LD
8.63333333333333,8.29086017608643,0.0137572884559631,5.86598825454712,-0.396344006061554,0.655492007732391,-1.45580196380615,-1428.30004882812,-16.5,-758.100036621094,2.15969223431921,0.986483071752017,-0.005891927671291,LD
8.66666666666667,8.62103462219238,0.276940196752548,4.85512638092041,0.121951997280121,0.815553963184357,-0.983237981796265,-1425.90002441406,-15.3000001907349,-753.300048828125,2.1919286357271,1.03590397505066,-0.0429779514546412,LD
8.7,8.81662750244141,0.196789041161537,4.80368614196777,-0.503051996231079,-0.190549999475479,-1.08232402801514,-1425.90002441406,-14.1000003814697,-753.300048828125,2.19403106740121,1.06194651807243,-0.0433139451040435,LD
8.73333333333333,7.84464502334595,0.125011876225471,4.89699649810791,-0.792688012123108,1.32622802257538,-0.282013982534409,-1425.90002441406,-15.9000005722046,-758.100036621094,2.18397725753475,1.02581611357862,-0.0300485552507859,LD
8.76666666666667,8.42783451080322,0.138171032071114,4.58297157287598,-0.891773998737335,2.00458598136902,0.0381099991500378,-1428.30004882812,-15.9000005722046,-765.300048828125,2.18412230948562,1.05603044915536,-0.0287568578345547,LD
8.8,7.90924453735352,-0.108862020075321,5.84804391860962,-0.335367977619171,0.762199997901917,0.0838419944047928,-1421.10009765625,-15.9000005722046,-760.5,2.15428911050109,0.969914360387847,0.0070489624872363,LD
8.83333333333333,8.21728801727295,-0.180639177560806,5.2881817817688,0.0533539988100529,1.2500079870224,0.632625997066498,-1428.30004882812,-15.3000001907349,-765.300048828125,2.13723446182416,0.988540087086508,0.0267864947588253,LD
8.86666666666667,8.09825801849365,-0.257799625396729,5.29535961151123,0.37347799539566,0.907018005847931,0.586893975734711,-1425.90002441406,-14.7000007629395,-762.900024414062,2.12265620085194,0.989269113252691,0.0429176513623503,LD
8.9,7.57129383087158,-0.449803501367569,6.32775449752808,1.06708002090454,1.37195992469788,1.31098401546478,-1423.5,-15.9000005722046,-770.100036621094,2.10221983413356,0.904925875032389,0.0647730120796025,LD
8.93333333333333,8.44577884674072,-0.506028950214386,6.02150535583496,1.15092194080353,0.548784017562866,1.30336201190948,-1421.10009765625,-15.9000005722046,-765.300048828125,2.08839012846467,0.935499414953569,0.0785099029570416,LD
8.96666666666667,8.25437259674072,-0.300865918397903,5.67577886581421,1.65397393703461,-0.243903994560242,1.2576299905777,-1423.5,-15.3000001907349,-770.100036621094,2.0991173361197,0.958728381284883,0.0607347749960269,LD
9.0,9.0911750793457,-0.765024840831757,5.18051624298096,0.922261953353882,0.663114011287689,1.31098401546478,-1416.30004882812,-14.7000007629395,-770.100036621094,2.04755696501471,1.02062228783078,0.119387945216878,LD
9.03333333333333,8.16285705566406,-0.418700069189072,5.71764850616455,1.21951997280121,0.67835795879364,0.617381989955902,-1428.30004882812,-15.9000005722046,-767.700012207031,2.07404122975186,0.975537413763065,0.085123631861196,LD
9.06666666666667,7.25786685943604,-0.70162171125412,6.1949667930603,1.89025592803955,2.73629784584045,1.50915598869324,-1423.5,-16.5,-770.100036621094,2.05296726029491,0.887391928364329,0.106250442354742,LD
9.1,7.94453477859497,-0.647190690040588,6.34510040283203,1.76830399036407,1.65397393703461,1.37195992469788,-1418.70007324219,-14.1000003814697,-772.500061035156,2.0519521652947,0.890169108967329,0.102543639073862,LD
9.13333333333333,7.80755996704102,0.0053832866251468,5.93896150588989,2.79727387428284,0.0457319989800453,1.31860601902008,-1418.70007324219,-13.5000009536743,-774.900024414062,2.10658337045647,0.912948331913113,0.0256735495534716,LD
9.16666666666667,8.36622619628906,0.299071490764618,5.18530130386353,2.69056582450867,0.609759986400604,1.28811800479889,-1421.10009765625,-15.3000001907349,-774.900024414062,2.14733760212333,0.98400857676348,-0.0305496096334657,LD
9.2,7.93197393417358,0.296080768108368,6.20872402191162,1.74543797969818,1.6692179441452,1.265251994133,-1423.5,-14.7000007629395,-779.700012207031,2.15350792535226,0.927561877117726,-0.0426717610563161,LD
9.23333333333333,7.19805240631104,0.394176214933395,5.83488464355469,1.40244793891907,2.98020195960999,1.05945801734924,-1425.90002441406,-13.5000009536743,-784.500061035156,2.16448262371985,0.895003834248026,-0.0609529963943388,LD
9.26666666666667,7.80038261413574,0.381017059087753,6.79849290847778,0.579271972179413,1.6692179441452,1.29574000835419,-1423.5,-12.9000005722046,-784.500061035156,2.15831444010746,0.863189717651968,-0.0560015368560372,LD
9.3,7.68852996826172,0.249425619840622,6.98032855987549,0.602137982845306,-0.556405961513519,0.525918006896973,-1423.5,-13.5000009536743,-782.100036621094,2.14549241190801,0.841917656213343,-0.0409170080873507,LD
9.33333333333333,7.96068477630615,0.35709136724472,5.58246850967407,-0.137196004390717,0.0533539988100529,0.388722002506256,-1423.5,-11.7000007629395,-777.300048828125,2.1570892754783,0.92763106750536,-0.0560943687930543,LD
9.36666666666667,7.86916875839233,0.444420218467712,5.78942584991455,-0.503051996231079,0.46494197845459,-0.167683988809586,-1413.90002441406,-12.3000001907349,-782.100036621094,2.16977189008192,0.932553697616668,-0.0707717585647437,LD
9.4,8.03126525878906,0.159106031060219,6.27332353591919,-0.266770005226135,0.884151995182037,0.396344006061554,-1416.30004882812,-14.1000003814697,-786.900024414062,2.14184676195952,0.913071447623028,-0.0358693279492243,LD
9.43333333333333,8.0414342880249,-0.486290246248245,6.12438583374023,-1.17378795146942,1.44817996025085,0.297257989645004,-1416.30004882812,-14.1000003814697,-786.900024414062,2.07449184995105,0.915799595638045,0.0508606124545366,LD
9.46666666666667,6.96836566925049,-0.626255691051483,6.48686075210571,-1.32622802257538,2.9116039276123,0.342989981174469,-1423.5,-14.1000003814697,-789.300048828125,2.04939135089942,0.844534542864995,0.0856057365066451,LD
9.5,7.31349420547485,-0.449205368757248,6.0430383682251,-0.87652999162674,2.43141794204712,0.594515979290009,-1411.5,-13.5000009536743,-794.100036621094,2.05477776501841,0.865534734429665,0.079401789743506,LD
9.53333333333333,6.69321966171265,-0.720164120197296,6.13814306259155,-0.632625997066498,1.70732796192169,0.685979962348938,-1418.70007324219,-12.9000005722046,-801.300048828125,2.03322712961451,0.834123744334877,0.108423041211455,LD
9.56666666666667,6.70877170562744,-0.789548695087433,6.65972375869751,-0.67835795879364,0.815553963184357,0.716467976570129,-1413.90002441406,-12.9000005722046,-801.300048828125,2.02720939455685,0.799085024434662,0.116874176263698,LD
9.6,7.67596864700317,-0.682481110095978,6.59990978240967,-0.518296003341675,-1.12043392658234,0.228659987449646,-1413.90002441406,-12.3000001907349,-803.700012207031,2.03353983774467,0.841592615362296,0.108577991515178,LD
9.63333333333333,7.63649129867554,-0.613694667816162,7.2805962562561,-0.114329993724823,-2.15702605247498,0.121951997280121,-1416.30004882812,-11.7000007629395,-798.900024414062,2.04566400470486,0.820379164880186,0.0918314549131905,LD
9.66666666666667,7.33981227874756,-0.453392386436462,6.57119846343994,0.0381099991500378,-0.975615978240967,0.350611984729767,-1413.90002441406,-11.1000003814697,-798.900024414062,2.05704647045732,0.835667937201518,0.0755632484087071,LD
9.7,7.27700757980347,-0.578404247760773,6.76439905166626,-0.518296003341675,0.335367977619171,0.160062000155449,-1418.70007324219,-11.7000007629395,-801.300048828125,2.05164587596366,0.823716819070261,0.0836351311281262,LD
9.73333333333333,7.62991189956665,-0.409129798412323,6.33732461929321,0.137196004390717,-1.09756803512573,-0.350611984729767,-1411.5,-11.1000003814697,-794.100036621094,2.06219098148226,0.862828270161597,0.0697278583595686,LD
9.76666666666667,7.2387261390686,-0.427672237157822,6.85053157806396,0.274392008781433,-1.10518991947174,-0.617381989955902,-1413.90002441406,-12.9000005722046,-801.300048828125,2.06735749814019,0.827380251650483,0.0632189415269329,LD
9.8,7.30511999130249,-0.0741697251796722,6.6513500213623,0.769822001457214,0.121951997280121,-0.381099998950958,-1418.70007324219,-13.5000009536743,-791.700012207031,2.09519480044074,0.830811667019256,0.0247166761890686,LD
9.83333333333333,7.39843034744263,-0.110656447708607,6.9019718170166,0.396344006061554,0.167683988809586,-0.221037998795509,-1416.30004882812,-12.9000005722046,-796.500061035156,2.10001048686381,0.823081237593632,0.0178443827753067,LD
9.86666666666667,7.69570732116699,-0.180041030049324,6.07354354858398,-0.0914639979600906,-0.182927995920181,0.0076219998300075,-1416.30004882812,-12.9000005722046,-801.300048828125,2.09398097208028,0.878759316804118,0.0260510541440668,LD
9.9,7.52942371368408,-0.426475942134857,7.32007360458374,-0.236281991004944,-0.449698001146317,0.0533539988100529,-1409.10009765625,-12.3000001907349,-796.500061035156,2.07652266210492,0.823338743836077,0.0496315165709216,LD
9.93333333333333,7.50250720977783,-0.915158748626709,6.77636194229126,-1.16616594791412,-0.129574000835419,-0.503051996231079,-1409.10009765625,-14.7000007629395,-796.500061035156,2.03456901524616,0.829810855451476,0.109424633355261,LD
9.96666666666667,8.34469223022461,-0.442027658224106,6.67946243286133,-0.419209986925125,-1.2576299905777,-0.541162014007568,-1413.90002441406,-14.7000007629395,-796.500061035156,2.05790767071672,0.876857797240982,0.0798589195773625,LD
10.0,8.14730548858643,-0.623863101005554,6.23922920227051,0.518296003341675,-1.265251994133,-0.388722002506256,-1411.5,-12.9000005722046,-786.900024414062,2.04772529479837,0.905018950856225,0.0924609823897633,LD
10.0333333333333,7.1884822845459,-0.48449581861496,6.36543750762939,0.426831990480423,2.72867584228516,-0.724089980125427,-1413.90002441406,-14.7000007629395,-796.500061035156,2.0587302599235,0.859532458383862,0.0788640034887313,LD
10.0666666666667,7.36613082885742,-0.366661638021469,6.69979953765869,0.967993974685669,3.18599581718445,-0.571649968624115,-1409.10009765625,-13.5000009536743,-801.300048828125,2.07334666761604,0.835596779908973,0.0588776317793837,LD
10.1,7.55215311050415,-0.0957028716802597,6.1889853477478,1.18903195858002,2.47714996337891,-0.861285984516144,-1409.10009765625,-15.9000005722046,-806.100036621094,2.09741283533467,0.866698223165536,0.0263302915771192,LD
10.1333333333333,8.35605716705322,-0.128002598881721,6.00655174255371,0.442075997591019,2.46190595626831,-0.87652999162674,-1406.70007324219,-14.7000007629395,-810.900024414062,2.10223368734949,0.922121098009704,0.0207918041084137,LD
10.1666666666667,7.08201265335083,-0.0687864422798157,6.34270811080933,0.342989981174469,3.68904781341553,-0.327746003866196,-1409.10009765625,-14.1000003814697,-813.300048828125,2.10848760606538,0.860459068029731,0.0127710726512386,LD
10.2,7.73937177658081,0.141759887337685,6.12797451019287,0.990859985351562,3.71953582763672,0.792688012123108,-1404.30004882812,-14.1000003814697,-818.100036621094,2.12551553186875,0.884752113870964,-0.0123765653611919,LD
10.2333333333333,7.08380699157715,0.390587359666824,6.31818437576294,0.617381989955902,4.83234786987305,0.983237981796265,-1394.70007324219,-16.5,-820.500061035156,2.1498417337022,0.848115941284976,-0.0470752183585531,LD
10.2666666666667,7.07662963867188,-0.249425619840622,7.45525407791138,-0.320124000310898,9.62658596038818,2.97257995605469,-1385.10009765625,-15.3000001907349,-837.300048828125,2.10156276636306,0.774448252968914,0.0149788590618749,LD
10.3,8.01870441436768,-0.227294325828552,8.1544828414917,-0.342989981174469,12.2028217315674,2.78202986717224,-1385.10009765625,-14.1000003814697,-842.100036621094,2.08954918475495,0.76039780654654,0.0279937333784554,LD
10.3333333333333,7.08978843688965,-0.199181616306305,8.60009956359863,0.304879993200302,13.7043552398682,3.3689239025116,-1365.90002441406,-13.5000009536743,-858.900024414062,2.08576850387977,0.693814235800043,0.0274582128767626,LD
10.3666666666667,4.76600313186646,-0.158507883548737,7.98939561843872,0.121951997280121,14.6189956665039,3.95581793785095,-1356.30004882812,-12.9000005722046,-882.900024414062,2.08220367556507,0.566736733051444,0.0251541952209256,LD
10.4,3.70250487327576,-0.639414846897125,9.26284217834473,-0.746955990791321,13.2851457595825,4.41313791275024,-1339.5,-11.7000007629395,-894.900024414062,2.0604893712818,0.419487611607798,0.0601543179064184,LD
10.4333333333333,3.65226101875305,-0.724949300289154,9.449462890625,-0.937505960464478,9.34457206726074,3.91770792007446,-1332.30004882812,-10.5,-911.700012207031,2.05035656475324,0.371653382874978,0.0745065437183208,LD
10.4666666666667,2.98772406578064,-0.632835268974304,8.83098316192627,-0.693601965904236,7.69059801101685,2.99544596672058,-1320.30004882812,-8.10000038146973,-914.100036621094,2.04670567615012,0.328137772878358,0.0743413340491303,LD
10.5,1.54021811485291,-0.87687760591507,8.90754508972168,-0.78506600856781,8.70432376861572,2.54574799537659,-1310.70007324219,-9.30000019073486,-916.500061035156,2.03917498580464,0.207084086733929,0.0928289901809934,LD
10.5333333333333,2.27653217315674,-1.64908015727997,9.03853797912598,-1.99696397781372,7.45431566238403,2.15702605247498,-1293.90002441406,-7.50000047683716,-930.900024414062,2.02416894886665,0.222922502241966,0.156635548013567,ST
10.5666666666667,0.779380261898041,-1.38230836391449,9.74733829498291,-1.14329993724823,6.13570976257324,1.2576299905777,-1291.5,-7.50000047683716,-933.300048828125,2.02559880946965,0.114699511188894,0.147126551690273,ST
10.6,0.256005197763443,-1.62934148311615,10.2061138153076,-0.0762199983000755,4.03203773498535,2.01982998847961,-1286.70007324219,-6.90000009536743,-935.700012207031,2.02255760334099,0.0465819867721745,0.155215614689687,ST
10.6333333333333,0.753660142421722,-1.36855113506317,9.68632698059082,1.15854394435883,2.41617393493652,3.15550804138184,-1274.70007324219,-5.70000028610229,-940.500061035156,2.018333196079,0.0642912806300899,0.143610429941403,ST
10.6666666666667,1.96789038181305,-0.704014301300049,9.63787746429443,1.62348592281342,0.602137982845306,2.59148001670837,-1272.30004882812,-6.90000009536743,-940.500061035156,2.01941175682174,0.163885538292164,0.0901710136122531,ST
10.7,2.04684519767761,-0.238659039139748,9.33880615234375,1.80641400814056,-0.190549999475479,1.19665396213531,-1279.5,-6.90000009536743,-942.900024414062,2.02530646042394,0.200329665027709,0.043231767755775,ST
10.7333333333333,1.99839568138123,0.109460160136223,9.50808048248291,1.28049600124359,-0.472563982009888,0.556405961513519,-1269.90002441406,-6.30000019073486,-945.300048828125,2.03189834665205,0.205729335506809,0.0035596303798125,ST
10.7666666666667,2.88245105743408,-0.0197387188673019,7.83627128601074,0.243903994560242,-0.83841997385025,0.25152599811554,-1274.70007324219,-6.30000019073486,-940.500061035156,2.03158142491064,0.31306550774978,0.0026595104331053,ST
10.8,2.2232973575592,0.139965459704399,8.6264181137085,-0.663114011287689,-1.21189796924591,-0.46494197845459,-1284.30004882812,-7.50000047683716,-945.300048828125,2.03633389799863,0.272007717847662,-0.0099720865174828,ST
10.8333333333333,1.4941611289978,-0.358885794878006,9.39802265167236,-0.0685980021953583,0.0762199983000755,-0.160062000155449,-1281.90002441406,-5.70000028610229,-938.100036621094,2.02881745012307,0.191998362873215,0.0240183447311604,ST
10.8666666666667,2.09888362884521,-0.648985147476196,9.88790130615234,-0.457319974899292,-0.78506600856781,-0.777444005012512,-1284.30004882812,-3.90000009536743,-942.900024414062,2.02445075015476,0.204728241085031,0.0533949774931481,ST
10.9,2.08034133911133,-0.460570096969604,9.64565372467041,-0.0076219998300075,-1.91312193870544,-1.2347639799118,-1284.30004882812,-6.30000019073486,-942.900024414062,2.02725219445113,0.212352852111999,0.0491391241620269,ST
10.9333333333333,2.84237551689148,-0.750071287155151,8.9775276184082,-0.388722002506256,-2.33995389938354,-1.11281192302704,-1286.70007324219,-7.50000047683716,-933.300048828125,2.02321137593135,0.280471507838572,0.0730676466597362,ST
10.9666666666667,3.02480912208557,-1.19568777084351,9.10792255401611,-1.2347639799118,-1.88263392448425,-1.51677799224854,-1289.10009765625,-7.50000047683716,-935.700012207031,2.01411278723634,0.309333837797114,0.114119651724645,ST
11.0,3.1468300819397,-1.57311606407166,9.69111251831055,-1.33385002613068,-1.37958192825317,-1.2500079870224,-1289.10009765625,-4.5,-933.300048828125,2.00619053138402,0.311861677419925,0.148062569103211,ST
11.0333333333333,2.99250936508179,-1.67539846897125,9.26284217834473,-1.2347639799118,-0.868907988071442,-0.983237981796265,-1291.5,-6.90000009536743,-933.300048828125,2.00104175270044,0.310204119332916,0.17210212847249,ST
11.0666666666667,2.83160877227783,-1.39486944675446,9.5152587890625,-0.487807989120483,-0.914639949798584,-0.67835795879364,-1293.90002441406,-5.70000028610229,-923.700012207031,2.00757448011819,0.294779185339544,0.153895434327724,ST
11.1,3.07086610794067,-1.48638522624969,9.12825965881348,0.632625997066498,-0.99848198890686,0.0,-1293.90002441406,-5.10000038146973,-928.500061035156,2.00563404633068,0.314026417917911,0.158432149032345,ST
11.1333333333333,2.35189819335938,-1.31830716133118,8.75322437286377,0.495429992675781,0.213415995240211,0.449698001146317,-1291.5,-6.90000009536743,-940.500061035156,2.0066606674537,0.275686388639436,0.15171170030234,ST
11.1666666666667,1.5743123292923,-1.14604198932648,9.07203483581543,0.358233988285065,1.08994603157043,0.92988395690918,-1291.5,-5.10000038146973,-940.500061035156,2.0096321303945,0.19924381493156,0.132872902152029,ST
11.2,1.4020471572876,-1.25909090042114,9.16534519195557,0.121951997280121,0.503051996231079,1.07470202445984,-1291.5,-6.90000009536743,-938.100036621094,2.00742117881731,0.164305355716762,0.135514174067008,ST
11.2333333333333,1.81356954574585,-1.2357634305954,11.1751050949097,0.358233988285065,-0.541162014007568,1.01372599601746,-1286.70007324219,-6.30000019073486,-930.900024414062,2.00838238607653,0.161569346169266,0.116237175093801,ST
11.2666666666667,3.30533814430237,-1.48399269580841,10.9537925720215,0.548784017562866,-2.33233189582825,1.15092194080353,-1289.10009765625,-6.30000019073486,-935.700012207031,2.00320074424882,0.254287459089354,0.12876484694078,ST
11.3,3.9938006401062,-1.13348090648651,8.53370571136475,0.449698001146317,-1.86738991737366,0.266770005226135,-1296.30004882812,-7.50000047683716,-930.900024414062,2.00151173406419,0.382066146776232,0.130869932895429,ST
11.3333333333333,2.57141661643982,-1.14903259277344,8.69340991973877,-0.0228659994900227,1.27287399768829,1.01372599601746,-1293.90002441406,-6.30000019073486,-933.300048828125,1.99976003612254,0.308818283177288,0.131749746470227,ST
11.3666666666667,1.84527111053467,-1.25550210475922,9.15756893157959,0.228659987449646,1.14329993724823,1.6768399477005,-1296.30004882812,-6.90000009536743,-933.300048828125,1.99622917471973,0.229010727114575,0.135216682269501,ST
11.4,2.47033047676086,-1.09460163116455,9.40101337432861,1.01372599601746,-0.0457319989800453,1.94360995292664,-1291.5,-5.70000028610229,-940.500061035156,1.99590333861652,0.247167755782024,0.121088481950789,ST
11.4333333333333,3.11632490158081,-0.923532724380493,8.64256763458252,1.36433792114258,-0.807931959629059,1.45580196380615,-1291.5,-5.70000028610229,-933.300048828125,1.99581948373953,0.315783555887634,0.109894881418151,ST
11.4666666666667,2.7801685333252,-0.844577848911285,8.644362449646,0.983237981796265,0.388722002506256,0.952749967575073,-1293.90002441406,-6.90000009536743,-935.700012207031,1.99676143449924,0.311001014668967,0.100307208285881,ST
11.5,2.54868721961975,-0.552085936069489,9.36871337890625,0.571649968624115,1.2500079870224,0.800309956073761,-1291.5,-5.10000038146973,-933.300048828125,2.00390279860437,0.277403702536147,0.0707795940048558,ST
11.5333333333333,1.6323322057724,-0.88285905122757,11.0213823318481,0.655492007732391,1.62348592281342,1.31098401546478,-1296.30004882812,-6.30000019073486,-940.500061035156,2.00026277467921,0.183869852746601,0.0768432695804239,ST
11.5666666666667,2.60670709609985,-0.916355013847351,10.7982749938965,0.403965979814529,0.259148001670837,1.41769194602966,-1286.70007324219,-5.10000038146973,-933.300048828125,1.9967008220036,0.219896439445692,0.0821555117059681,ST
11.6,2.91176009178162,-0.803904175758362,8.620436668396,-0.510673999786377,-0.830797970294952,0.533540010452271,-1293.90002441406,-5.10000038146973,-935.700012207031,1.99365222547552,0.296635257228116,0.0908498329973098,ST
11.6333333333333,2.61268854141235,-0.822446584701538,8.86687183380127,-0.907018005847931,0.0457319989800453,-0.228659987449646,-1291.5,-5.70000028610229,-935.700012207031,1.99386292029978,0.288741478265633,0.0930197330258,ST
11.6666666666667,2.07017278671265,-0.430662930011749,8.59411811828613,-0.0152439996600151,0.282013982534409,0.266770005226135,-1293.90002441406,-5.10000038146973,-935.700012207031,2.00148867283624,0.251611842366022,0.0629728007770137,ST
11.7,1.82134532928467,-0.525767683982849,8.85670280456543,0.388722002506256,0.67835795879364,0.975615978240967,-1289.10009765625,-5.10000038146973,-935.700012207031,2.00041151599614,0.216347588847287,0.0601959516548249,ST
11.7333333333333,2.69104528427124,-0.436046212911606,8.96915340423584,0.594515979290009,-0.884151995182037,0.685979962348938,-1284.30004882812,-4.5,-938.100036621094,2.00099587812715,0.269668729151391,0.0516476050435712,ST
11.7666666666667,2.33156132698059,-0.412120521068573,9.84244251251221,0.861285984516144,-0.762199997901917,0.419209986925125,-1289.10009765625,-5.70000028610229,-938.100036621094,2.00183322889176,0.243576295021797,0.0435848042367775,ST
11.8,2.20296049118042,-0.326586067676544,10.6092615127563,1.12043392658234,-0.487807989120483,0.259148001670837,-1289.10009765625,-6.90000009536743,-942.900024414062,2.00329167013979,0.215939559325657,0.0329380597842421,ST
11.8333333333333,2.67549347877502,-0.186620607972145,9.7539176940918,0.739333987236023,-0.78506600856781,-0.228659987449646,-1289.10009765625,-5.70000028610229,-933.300048828125,2.00580329925958,0.253068498764055,0.0223690830424278,ST
11.8666666666667,2.81545901298523,-0.374437510967255,9.82270431518555,0.449698001146317,-0.533540010452271,-1.50153398513794,-1291.5,-5.70000028610229,-940.500061035156,2.00550737960015,0.27187297274021,0.0323051267498304,ST
11.9,2.95243382453918,-0.221312895417213,8.584547996521,-0.259148001670837,-1.38720393180847,-2.9116039276123,-1289.10009765625,-6.90000009536743,-933.300048828125,2.01191553907388,0.315090948834696,0.0270270299184978,ST
11.9333333333333,1.55756425857544,-0.136974737048149,8.19994163513184,-0.647870004177094,0.320124000310898,-2.13416004180908,-1284.30004882812,-5.10000038146973,-935.700012207031,2.01770010583275,0.225743419270459,0.0198841488592116,ST
11.9666666666667,1.83211195468903,-0.456981241703033,9.13603591918945,-0.952749967575073,1.22714197635651,-0.807931959629059,-1291.5,-5.10000038146973,-933.300048828125,2.01477486921003,0.204672977312775,0.0419049223188877,ST
12.0,1.8949168920517,-0.580198705196381,9.22336483001709,-0.67835795879364,0.724089980125427,-1.12043392658234,-1289.10009765625,-8.10000038146973,-938.100036621094,2.01393279983108,0.202029348469264,0.0579062678677163,ST
12.0333333333333,1.36735486984253,-0.906784772872925,9.97582817077637,-0.67835795879364,1.57013201713562,-1.34147191047668,-1291.5,-7.50000047683716,-940.500061035156,2.01244022212377,0.153865773783984,0.0814064442509116,ST
12.0666666666667,2.2113344669342,-0.648985147476196,10.4112768173218,-0.746955990791321,-0.167683988809586,-1.37195992469788,-1286.70007324219,-7.50000047683716,-933.300048828125,2.01715855464975,0.192663103816523,0.0686949302167905,ST
12.1,2.65216588973999,-0.847568571567535,10.0404281616211,-0.228659987449646,-1.21951997280121,-1.6768399477005,-1284.30004882812,-8.10000038146973,-933.300048828125,2.0177038272943,0.2412773005264,0.0797563104306045,ST
12.1333333333333,2.18441820144653,-0.662144243717194,9.77903938293457,0.175305992364883,0.0076219998300075,-1.01372599601746,-1289.10009765625,-7.50000047683716,-945.300048828125,2.02159306600705,0.225412623722636,0.0704092460119792,ST
12.1666666666667,2.41649770736694,-0.37025049328804,9.30411434173584,-0.182927995920181,0.457319974899292,-0.442075997591019,-1284.30004882812,-6.90000009536743,-940.500061035156,2.02753628130563,0.245208400171027,0.048727011005023,ST
12.2,3.27303838729858,-0.393578082323074,8.40809535980225,-0.579271972179413,0.167683988809586,-0.46494197845459,-1284.30004882812,-7.50000047683716,-938.100036621094,2.0288252373776,0.332759364320458,0.047987191169734,ST
12.2333333333333,3.25150513648987,-0.565245091915131,8.56480884552002,-0.769822001457214,1.03659200668335,-0.495429992675781,-1277.10009765625,-7.50000047683716,-935.700012207031,2.02574039698318,0.352057200928333,0.0611696910609471,ST
12.2666666666667,2.984135389328,-0.814670741558075,8.65811920166016,-0.731711983680725,2.15702605247498,-0.647870004177094,-1281.90002441406,-5.70000028610229,-938.100036621094,2.01958336596356,0.33449834400321,0.0845932539779409,ST
12.3,3.09897875785828,-0.91874760389328,9.00025749206543,-0.586893975734711,1.94360995292664,-0.754577994346619,-1281.90002441406,-6.90000009536743,-938.100036621094,2.01741641218923,0.32909622468464,0.0969029326923787,ST
12.3333333333333,2.01275110244751,-1.22918379306793,9.14261531829834,-0.342989981174469,3.31556987762451,-0.175305992364883,-1272.30004882812,-6.30000019073486,-940.500061035156,2.0108758117615,0.242128930494538,0.124099637377738,ST
12.3666666666667,1.26447427272797,-1.41819703578949,9.71683216094971,-0.731711983680725,3.71953582763672,-0.0381099991500378,-1269.90002441406,-6.30000019073486,-945.300048828125,2.00894441311312,0.157917628436594,0.139584019982238,ST
12.4,1.23456704616547,-1.72803509235382,10.2994241714478,-0.67835795879364,1.37195992469788,0.205793991684914,-1260.30004882812,-6.90000009536743,-947.700012207031,2.00617383157362,0.125929255946155,0.160490592107026,ST
12.4333333333333,1.06648886203766,-1.87278568744659,9.50568771362305,-0.541162014007568,-0.205793991684914,0.358233988285065,-1265.10009765625,-5.70000028610229,-945.300048828125,2.00267563633361,0.114724756062197,0.185022028251905,ST
12.4666666666667,0.842185318470001,-1.85244882106781,9.01879978179932,0.0228659994900227,-1.30336201190948,0.800309956073761,-1257.90002441406,-6.30000019073486,-950.100036621094,1.99926461036884,0.098571729733125,0.198316032512776,ST
12.5,1.3458217382431,-1.62754702568054,8.85730075836182,1.37195992469788,-1.98171997070312,0.92988395690918,-1267.5,-7.50000047683716,-952.500061035156,1.9982149476586,0.136914405509289,0.184776031750862,ST
12.5333333333333,1.43315052986145,-1.20944511890411,9.57327842712402,1.95123195648193,-0.724089980125427,1.33385002613068,-1265.10009765625,-5.70000028610229,-952.500061035156,2.00139024434219,0.144941060157882,0.141337737522212,ST
12.5666666666667,1.37273812294006,-0.936093747615814,9.65043830871582,1.86738991737366,-0.419209986925125,1.38720393180847,-1267.5,-6.30000019073486,-954.900024414062,2.0032394356504,0.142118077479555,0.106254094405965,ST
12.6,2.31840205192566,-1.03119850158691,10.4453706741333,0.99848198890686,-1.63872992992401,1.6920839548111,-1272.30004882812,-6.30000019073486,-947.700012207031,2.00085619476684,0.196508240391234,0.0999871520523379,ST
12.6333333333333,2.33335566520691,-0.849961161613464,9.16534519195557,0.632625997066498,-1.19665396213531,1.37958192825317,-1274.70007324219,-5.70000028610229,-942.900024414062,1.99930551607792,0.233984365535115,0.0943939724757638,ST
12.6666666666667,1.88833737373352,-0.940878868103027,9.54396915435791,0.213415995240211,0.221037998795509,1.72257196903229,-1272.30004882812,-6.90000009536743,-942.900024414062,1.9957329405959,0.205840744200405,0.0973134253887736,ST
12.7,1.8787670135498,-1.03777801990509,9.497314453125,0.3125019967556,0.0990860015153885,1.57775402069092,-1269.90002441406,-7.50000047683716,-947.700012207031,1.99136655932744,0.19736779342348,0.105386800119315,ST
12.7333333333333,1.80818617343903,-1.01026344299316,9.09536170959473,0.434453994035721,0.0076219998300075,1.30336201190948,-1267.5,-6.30000019073486,-950.100036621094,1.98835209979406,0.195585547135374,0.108831936201985,ST
12.7666666666667,1.16936945915222,-1.03598368167877,9.61514854431152,0.46494197845459,0.213415995240211,1.11281192302704,-1272.30004882812,-5.70000028610229,-942.900024414062,1.98660270490771,0.142558701771132,0.107456436116747,ST
12.8,1.34103655815125,-0.997702479362488,9.22695350646973,0.564027965068817,-0.205793991684914,0.746955990791321,-1281.90002441406,-4.5,-947.700012207031,1.98520953620714,0.143371547814133,0.107080179446837,ST
12.8333333333333,1.44930040836334,-1.03837621212006,9.92857551574707,0.381099998950958,-0.487807989120483,0.716467976570129,-1269.90002441406,-6.30000019073486,-947.700012207031,1.98399862116485,0.144509249107589,0.104570555195649,ST
12.8666666666667,2.49664878845215,-0.979160070419312,10.2114963531494,0.426831990480423,-1.74543797969818,0.663114011287689,-1272.30004882812,-6.30000019073486,-945.300048828125,1.98358906175684,0.213673329304685,0.0979150172579839,ST
12.9,2.76700949668884,-0.699229121208191,8.85909557342529,0.495429992675781,-1.31098401546478,0.586893975734711,-1277.10009765625,-7.50000047683716,-947.700012207031,1.98557623053783,0.279187737215114,0.0837675559006817,ST
12.9333333333333,2.05462121963501,-0.722556710243225,8.41886234283447,0.213415995240211,1.40244793891907,0.846041977405548,-1274.70007324219,-6.30000019073486,-942.900024414062,1.98393733738043,0.248959012847589,0.0850502604027183,ST
12.9666666666667,1.02342259883881,-0.709995687007904,9.35675048828125,-0.0914639979600906,1.12805593013763,1.2576299905777,-1274.70007324219,-6.30000019073486,-947.700012207031,1.98322385878911,0.149396938005329,0.0789593213529778,ST
13.0,0.731528878211975,-0.424083352088928,9.79160022735596,0.0533539988100529,-1.49391198158264,2.13416004180908,-1274.70007324219,-5.10000038146973,-945.300048828125,1.98244965144237,0.0986927518770436,0.0542287976563929,DLL
13.0333333333333,1.09579789638519,-0.468345940113068,8.59352016448975,-0.449698001146317,-3.66618180274963,5.26680183410645,-1279.5,-5.10000038146973,-942.900024414062,1.97298862007423,0.122359024052882,0.0556834845261056,DLL
13.0666666666667,0.614890992641449,-0.292491912841797,8.96078014373779,-0.945127964019775,-2.64483404159546,9.52750015258789,-1281.90002441406,-3.90000009536743,-940.500061035156,1.95706316847088,0.0860263486529657,0.0413625125350638,DLL
13.1,0.766819298267365,-1.00906717777252,9.98360443115234,-1.6615959405899,-3.41465592384338,17.2714519500732,-1289.10009765625,0.300000011920929,-942.900024414062,1.92239443923292,0.0818720336289733,0.087623943159101,DLL
13.1333333333333,1.17116391658783,-1.51031100749969,9.70307540893555,-1.00610399246216,-3.38416790962219,20.3812274932861,-1293.90002441406,2.70000004768372,-926.100036621094,1.88215219921023,0.108910063125051,0.138035125173122,DLL
13.1666666666667,2.63840866088867,-2.14254808425903,9.03435134887695,-1.21189796924591,-3.44514393806458,20.6632423400879,-1293.90002441406,9.30000019073486,-930.900024414062,1.83465167006846,0.225949969529659,0.209771169864773,DLL
13.2,2.60730528831482,-2.18441820144653,8.84832859039307,-2.0655620098114,-3.29270386695862,17.7363929748535,-1293.90002441406,12.9000005722046,-923.700012207031,1.79779640315944,0.261855286201471,0.240364873606241,DLL
13.2333333333333,2.16826820373535,-2.27952289581299,8.93864822387695,-2.24848985671997,-1.84452390670776,15.5565013885498,-1291.5,16.5,-928.500061035156,1.76921523291991,0.237657583276583,0.254445460500347,DLL
13.2666666666667,2.63481974601746,-2.74009299278259,9.27899169921875,-2.69818782806396,-1.99696397781372,12.5991659164429,-1291.5,20.1000003814697,-921.300048828125,1.73872159559111,0.256892506229363,0.286712530750956,DLL
13.3,2.80947756767273,-3.2168128490448,9.23592567443848,-2.88111591339111,-2.34757590293884,10.2820777893066,-1286.70007324219,23.1000003814697,-921.300048828125,1.7117751213741,0.27179359362338,0.327554949136236,DLL
13.3333333333333,2.22987699508667,-3.31849718093872,9.4375,-2.25611186027527,-1.6844619512558,8.07931995391846,-1286.70007324219,27.9000015258789,-911.700012207031,1.6940971089485,0.230997334837499,0.341171142588264,DLL
13.3666666666667,2.65037155151367,-3.66482210159302,9.10852146148682,-1.69970595836639,-0.914639949798584,6.98937368392944,-1284.30004882812,27.3000011444092,-921.300048828125,1.67535998152762,0.251891602945502,0.374186851352937,DLL
13.4,1.38828980922699,-3.43274259567261,9.94233226776123,-0.259148001670837,-0.167683988809586,5.67839002609253,-1277.10009765625,29.1000003814697,-918.900024414062,1.67131912650049,0.158924196524956,0.344543599569278,DLL
13.4333333333333,1.80698990821838,-3.3226842880249,9.09895133972168,0.487807989120483,0.320124000310898,5.13722801208496,-1274.70007324219,29.7000007629395,-914.100036621094,1.66163054662745,0.175102900393075,0.349070157034949,DLL
13.4666666666667,2.37761831283569,-3.41001296043396,8.95061111450195,0.480185985565186,0.0838419944047928,4.30642986297607,-1272.30004882812,30.3000011444092,-918.900024414062,1.6525403212771,0.220843149686256,0.359910163890705,DLL
13.5,1.33565330505371,-3.08043622970581,9.03315544128418,1.47866797447205,1.08994603157043,4.04728174209595,-1265.10009765625,32.7000007629395,-914.100036621094,1.65020005044397,0.157343495720663,0.33571759608715,DLL
13.5333333333333,1.87158930301666,-3.08282876014709,9.01521110534668,1.49391198158264,0.655492007732391,3.41465592384338,-1262.70007324219,30.9000015258789,-916.500061035156,1.64511476632206,0.182134209579134,0.329891045491221,DLL
13.5666666666667,1.22798752784729,-2.61926817893982,9.11031532287598,2.25611186027527,0.533540010452271,3.61282801628113,-1262.70007324219,30.9000015258789,-914.100036621094,1.6446276180071,0.140723729890393,0.290740165759358,DLL
13.6,1.43673944473267,-2.74368190765381,9.93874359130859,1.95123195648193,-0.175305992364883,3.50611996650696,-1260.30004882812,32.1000022888184,-923.700012207031,1.64034594848388,0.13806651139013,0.273352719948647,DLL
13.6333333333333,2.15152025222778,-2.94047093391418,8.77834606170654,1.45580196380615,-0.853663980960846,3.14788603782654,-1260.30004882812,30.9000015258789,-923.700012207031,1.62870595857209,0.201033763463853,0.306980354460235,DLL
13.6666666666667,1.19090270996094,-2.38838481903076,8.71255016326904,1.99696397781372,0.807931959629059,1.40244793891907,-1260.30004882812,32.7000007629395,-921.300048828125,1.63143807446048,0.149700450236624,0.276588955725641,DLL
13.7,1.01863753795624,-2.32797241210938,7.98461055755615,1.99696397781372,1.12805593013763,0.701223969459534,-1253.10009765625,30.9000015258789,-923.700012207031,1.6299661199522,0.128678031184124,0.279193928388482,DLL
13.7333333333333,0.0556272976100445,-3.10615634918213,10.09485912323,1.13567793369293,1.59299790859222,0.807931959629059,-1248.30004882812,30.9000015258789,-918.900024414062,1.62810836290901,0.0369500010621121,0.291899422417197,DLL
13.7666666666667,1.49595558643341,-3.93219184875488,9.3238525390625,-2.0579400062561,-2.40092992782593,0.0533539988100529,-1253.10009765625,29.7000007629395,-921.300048828125,1.62104875880245,0.1162915025154,0.369135511332298,DLL
13.8,1.22619307041168,-3.18810200691223,9.14919471740723,1.57013201713562,-0.525918006896973,-0.121951997280121,-1255.5,29.7000007629395,-926.100036621094,1.62375675332956,0.123941638188107,0.342619916960102,DLL
13.8333333333333,0.448009073734283,-2.62943649291992,10.1008405685425,1.59299790859222,0.990859985351562,-0.525918006896973,-1253.10009765625,29.7000007629395,-921.300048828125,1.63092822347662,0.0663034617647641,0.279031298273342,DLL
13.8666666666667,0.01914057508111,-2.09768748283386,9.23054218292236,1.86738991737366,1.36433792114258,0.0,-1253.10009765625,30.3000011444092,-926.100036621094,1.63324444206694,0.017142848530088,0.235611187262715,DLL
13.9,0.409727931022644,-2.26815819740295,9.4434814453125,0.92988395690918,0.510673999786377,0.182927995920181,-1253.10009765625,29.7000007629395,-933.300048828125,1.63311867157349,0.0349071014287282,0.234496065869069,DLL
13.9333333333333,0.241649761795998,-2.2591860294342,8.70836353302002,0.571649968624115,0.358233988285065,-0.129574000835419,-1255.5,27.9000015258789,-928.500061035156,1.63304916477124,0.0286657371538305,0.247789264365581,DLL
13.9666666666667,1.22439861297607,-2.57620167732239,8.18259620666504,-0.213415995240211,-0.0533539988100529,0.205793991684914,-1248.30004882812,29.7000007629395,-928.500061035156,1.62969316358072,0.111963285312766,0.290194790022975,DLL
14.0,-1.41580438613892,-1.97566628456116,12.2798748016357,1.6615959405899,1.6692179441452,0.525918006896973,-1250.70007324219,27.3000011444092,-928.500061035156,1.6323817915385,-0.0475444022525882,0.197401578800859,DLL
14.0333333333333,0.526963949203491,-3.15699863433838,10.6248140335083,-0.899396002292633,-0.884151995182037,-0.815553963184357,-1245.90002441406,30.3000011444092,-933.300048828125,1.63427792298523,0.0200318340496951,0.262354997617542,DLL
14.0666666666667,0.881662726402283,-3.23834609985352,9.1270637512207,-0.106707997620106,-1.79879200458527,-0.907018005847931,-1250.70007324219,29.7000007629395,-923.700012207031,1.63239262305961,0.0718505111180975,0.317315252366199,DLL
14.1,0.656760990619659,-2.81366443634033,8.95898532867432,1.03659200668335,-0.213415995240211,-0.548784017562866,-1255.5,27.9000015258789,-923.700012207031,1.63389422318362,0.070834145848374,0.306338728483712,DLL
14.1333333333333,0.47552365064621,-2.26815819740295,8.57677173614502,2.00458598136902,0.708845973014832,-0.358233988285065,-1255.5,29.1000003814697,-921.300048828125,1.63698800068013,0.0577956290539013,0.269733412756601,DLL
14.1666666666667,0.574217259883881,-2.19159579277039,8.56779956817627,1.59299790859222,0.655492007732391,-0.144817993044853,-1255.5,27.9000015258789,-926.100036621094,1.63828550319383,0.0619941336759189,0.254266847330508,DLL
14.2,0.533543527126312,-2.66891384124756,9.5804557800293,0.449698001146317,-0.907018005847931,0.0838419944047928,-1255.5,26.7000007629395,-933.300048828125,1.63700391016101,0.0571671106189266,0.265926039535711,DLL
14.2333333333333,0.173461467027664,-2.68386745452881,9.48176193237305,0.114329993724823,-0.655492007732391,0.724089980125427,-1260.30004882812,27.9000015258789,-928.500061035156,1.63508887593541,0.0290188762285813,0.273026507359237,DLL
14.2666666666667,0.809885561466217,-3.16955971717834,9.33940410614014,-0.960371971130371,-0.731711983680725,1.76068198680878,-1255.5,27.9000015258789,-926.100036621094,1.63003072697685,0.0662126153279288,0.312141417653347,DLL
14.3,0.785361707210541,-3.2568883895874,10.0248765945435,-0.137196004390717,-0.243903994560242,2.76678586006165,-1248.30004882812,27.9000015258789,-928.500061035156,1.62525591346211,0.0711605987234058,0.313924169814277,DLL
14.3333333333333,0.872092425823212,-2.78435564041138,9.21439266204834,0.754577994346619,0.586893975734711,2.88111591339111,-1255.5,28.5000019073486,-930.900024414062,1.62188497073642,0.0828463760355742,0.29893817003022,DLL
14.3666666666667,1.37752330303192,-2.86689925193787,9.07741737365723,0.350611984729767,0.213415995240211,2.37044191360474,-1245.90002441406,27.9000015258789,-935.700012207031,1.61755020218715,0.124274123868757,0.303683715039961,DLL
14.4,0.285314202308655,-2.25081205368042,8.41347885131836,0.457319974899292,-0.396344006061554,2.78965187072754,-1250.70007324219,29.7000007629395,-933.300048828125,1.61530190541935,0.0585160083519295,0.273268811639154,DLL
14.4333333333333,0.765622973442078,-2.61029601097107,9.31547832489014,0.297257989645004,-0.442075997591019,3.73477983474731,-1248.30004882812,29.7000007629395,-933.300048828125,1.60886722626965,0.0721144399286558,0.273164496221592,DLL
14.4666666666667,1.23755776882172,-2.53911685943604,8.86089038848877,0.335367977619171,-1.05945801734924,2.80489587783813,-1243.5,29.7000007629395,-930.900024414062,1.60329171983544,0.11530686087149,0.277255146288324,DLL
14.5,0.823044717311859,-2.49006915092468,10.3341159820557,0.342989981174469,-1.36433792114258,1.94360995292664,-1245.90002441406,28.5000019073486,-928.500061035156,1.60226108710924,0.0892222609054609,0.24799857726525,DLL
14.5333333333333,0.970786035060883,-1.71128702163696,10.0206890106201,2.01220798492432,-0.83841997385025,1.91312193870544,-1245.90002441406,29.1000003814697,-928.500061035156,1.60366469871727,0.0939577195507441,0.190642018312511,DLL
14.5666666666667,1.21064138412476,-0.974374890327454,8.82978630065918,1.85214591026306,-0.182927995920181,0.640248000621796,-1241.10009765625,29.7000007629395,-930.900024414062,1.60887375370866,0.125241169734957,0.127871121892286,DLL
14.6,0.785361707210541,-1.13348090648651,9.16355037689209,0.685979962348938,0.0381099991500378,-0.274392008781433,-1243.5,27.3000011444092,-923.700012207031,1.60968448125572,0.0969933614514622,0.123641354915537,DLL
14.6333333333333,0.318212062120438,-1.45887064933777,8.50020980834961,0.0914639979600906,0.716467976570129,-0.442075997591019,-1236.30004882812,27.9000015258789,-933.300048828125,1.60815555482588,0.0542001135011202,0.155917433817809,DLL
14.6666666666667,0.10527316480875,-1.92721664905548,9.79937648773193,-0.564027965068817,0.266770005226135,-0.358233988285065,-1245.90002441406,28.5000019073486,-935.700012207031,1.60781682686035,0.0234374547896047,0.183357743051572,DLL
14.7,0.193798318505287,-2.06897664070129,9.92737865447998,-0.967993974685669,-0.922261953353882,0.0838419944047928,-1243.5,30.9000015258789,-933.300048828125,1.60697952011979,0.0213878745057076,0.200926703387608,DLL
14.7333333333333,0.703416109085083,-2.35668325424194,9.51705265045166,-1.04421401023865,-0.487807989120483,1.05183601379395,-1245.90002441406,27.9000015258789,-930.900024414062,1.60380850362219,0.057464627583667,0.23205883786482,DLL
14.7666666666667,1.90209460258484,-3.32088971138,9.41297626495361,-2.43141794204712,-0.777444005012512,0.449698001146317,-1253.10009765625,29.1000003814697,-933.300048828125,1.59511569952277,0.149507475690634,0.309529788083771,DLL
14.8,0.959421336650848,-3.04215526580811,9.17132663726807,-0.716467976570129,1.08232402801514,0.487807989120483,-1243.5,31.5000019073486,-930.900024414062,1.59394971343772,0.112723146703208,0.317971754821164,DLL
14.8333333333333,1.23516523838043,-3.05292177200317,9.00564098358154,-0.533540010452271,1.40244793891907,-0.175305992364883,-1245.90002441406,29.1000003814697,-921.300048828125,1.59430751085822,0.122665434362476,0.324733134419484,DLL
14.8666666666667,0.877475738525391,-3.24372935295105,9.11569881439209,-0.205793991684914,0.846041977405548,-0.320124000310898,-1241.10009765625,29.7000007629395,-928.500061035156,1.59400631654562,0.098414815565898,0.337360319029669,DLL
14.9,0.320006489753723,-2.42786240577698,8.21310138702393,0.640248000621796,1.60824191570282,-0.510673999786377,-1241.10009765625,30.9000015258789,-928.500061035156,1.59836034426747,0.0540221807973584,0.301558988381793,DLL
14.9333333333333,-0.198583468794823,-1.87757074832916,9.31667518615723,1.86738991737366,2.38568592071533,-0.289635986089706,-1236.30004882812,27.9000015258789,-923.700012207031,1.60197013733169,-0.0051522662237949,0.222120638965956,DLL
14.9666666666667,0.534141659736633,-2.57440733909607,9.20601844787598,-0.426831990480423,-0.381099998950958,-1.38720393180847,-1238.70007324219,28.5000019073486,-930.900024414062,1.60367921254672,0.0406915956286574,0.259907429277377,DLL
15.0,-0.169274464249611,-2.49844312667847,9.5804557800293,-1.08994603157043,-1.32622802257538,-1.75305998325348,-1233.90002441406,30.3000011444092,-935.700012207031,1.60632393212976,0.0002824534496131,0.257751085806711,DLL
15.0333333333333,0.467747807502747,-2.78076672554016,9.03375339508057,-1.11281192302704,-0.167683988809586,-1.27287399768829,-1236.30004882812,30.9000015258789,-928.500061035156,1.60794837142613,0.0365503914399098,0.288750396037528,DLL
15.0666666666667,0.529954671859741,-2.89142322540283,8.46850776672363,-0.6250039935112,-0.388722002506256,-0.884151995182037,-1241.10009765625,30.9000015258789,-926.100036621094,1.60799466813419,0.054038033835768,0.319207980808445,DLL
15.1,0.391783654689789,-2.7981128692627,9.15039157867432,0.0762199983000755,0.25152599811554,-0.434453994035721,-1245.90002441406,29.7000007629395,-930.900024414062,1.60969388197906,0.0443857596289608,0.302797085462054,DLL
15.1333333333333,1.01325416564941,-3.2927770614624,9.06425857543945,-0.579271972179413,-0.701223969459534,-0.571649968624115,-1233.90002441406,28.5000019073486,-928.500061035156,1.60817139336623,0.0875338439399335,0.335349406883364,DLL
15.1666666666667,0.731528878211975,-3.26765513420105,9.37110614776611,0.167683988809586,-0.716467976570129,-0.670735955238342,-1245.90002441406,29.1000003814697,-930.900024414062,1.60884254134259,0.078868984128118,0.335219018687182,DLL
15.2,-0.134582161903381,-2.69523215293884,10.0685405731201,1.11281192302704,0.617381989955902,-0.152439996600151,-1245.90002441406,30.3000011444092,-928.500061035156,1.61177890450878,0.0139834364862693,0.282359118560719,DLL
15.2333333333333,0.0909177288413048,-2.35010361671448,9.44407939910889,0.609759986400604,0.503051996231079,0.0990860015153885,-1245.90002441406,29.7000007629395,-930.900024414062,1.61216771505143,0.0101088280026748,0.254712984738843,DLL
15.2666666666667,0.0406737215816975,-2.19099760055542,8.63359546661377,0.457319974899292,-0.236281991004944,-0.0304879993200302,-1241.10009765625,29.1000003814697,-930.900024414062,1.61215047730734,0.006521390458687,0.249831111422121,DLL
15.3,-0.252416342496872,-2.44700288772583,9.15936374664307,-0.0304879993200302,-0.510673999786377,-0.0838419944047928,-1241.10009765625,29.1000003814697,-926.100036621094,1.61210633608896,-0.0160220381218609,0.257722251316574,DLL
15.3333333333333,-0.21712589263916,-2.46793794631958,9.20003700256348,0.746955990791321,-0.503051996231079,-0.205793991684914,-1245.90002441406,29.1000003814697,-933.300048828125,1.61228928793449,-0.020097195803292,0.259861211650119,DLL
15.3666666666667,0.397765070199966,-2.69104528427124,9.21379470825195,-0.0076219998300075,-1.73781597614288,0.160062000155449,-1245.90002441406,29.1000003814697,-930.900024414062,1.6110652206834,0.0273564990968968,0.277815305475775,DLL
15.4,0.528160214424133,-3.03258490562439,10.1480932235718,-0.0228659994900227,-2.00458598136902,0.503051996231079,-1245.90002441406,29.1000003814697,-933.300048828125,1.60894873223906,0.0452411480723054,0.286681775145071,DLL
15.4333333333333,0.872690618038177,-3.11572670936584,10.1696271896362,0.182927995920181,-1.6615959405899,0.899396002292633,-1245.90002441406,29.1000003814697,-930.900024414062,1.60619555859217,0.0724698929100595,0.293981837027951,DLL
15.4666666666667,1.22140789031982,-2.95362997055054,9.04392147064209,0.617381989955902,-0.3125019967556,1.18903195858002,-1253.10009765625,28.5000019073486,-928.500061035156,1.60265586203593,0.110984503393195,0.308517839906048,DLL
15.5,1.16877138614655,-2.78136491775513,8.11440753936768,0.144817993044853,-0.0381099991500378,0.807931959629059,-1253.10009765625,29.1000003814697,-933.300048828125,1.59949037726713,0.12780532977164,0.32361702145778,DLL
15.5333333333333,0.611302137374878,-2.61388468742371,9.14979267120361,0.472563982009888,-0.182927995920181,1.15854394435883,-1245.90002441406,30.3000011444092,-921.300048828125,1.60079875971698,0.0830667111747717,0.291435017652205,DLL
15.5666666666667,1.03897428512573,-2.71497106552124,8.59172534942627,0.160062000155449,-0.442075997591019,1.48628997802734,-1253.10009765625,30.3000011444092,-923.700012207031,1.59704343803825,0.105655135094419,0.301844231609929,DLL
15.6,1.05332982540131,-2.58517384529114,8.72870063781738,0.716467976570129,-0.381099998950958,1.41006994247437,-1250.70007324219,29.7000007629395,-921.300048828125,1.59535682405171,0.112637670115246,0.290870447464446,DLL
15.6333333333333,1.60003244876862,-2.87288069725037,9.11390399932861,0.198172003030777,-1.48628997802734,1.42531394958496,-1248.30004882812,30.9000015258789,-923.700012207031,1.59052676286208,0.153208410810021,0.301621485528047,DLL
15.6666666666667,1.31352198123932,-2.4655454158783,9.66778469085693,1.73019397258759,-0.754577994346619,1.54726600646973,-1253.10009765625,30.9000015258789,-928.500061035156,1.59272800332016,0.13799411950033,0.263467510104211,DLL
15.7,1.12211620807648,-2.18740892410278,10.0882797241211,1.38720393180847,-0.746955990791321,1.2423859834671,-1253.10009765625,28.5000019073486,-926.100036621094,1.59468455582493,0.116631388460125,0.225013860793298,DLL
15.7333333333333,0.856540739536285,-1.52227389812469,9.34000205993652,1.41769194602966,-0.586893975734711,0.25152599811554,-1248.30004882812,29.1000003814697,-918.900024414062,1.59874849569855,0.0988652328944906,0.178931453258988,DLL
15.7666666666667,0.910971760749817,-1.76033473014832,9.08698844909668,1.17378795146942,0.342989981174469,0.289635986089706,-1255.5,28.5000019073486,-926.100036621094,1.59745129823863,0.097859285636377,0.186209484714489,DLL
15.8,0.110058307647705,-1.67121148109436,8.95599460601807,0.640248000621796,0.0762199983000755,-0.320124000310898,-1248.30004882812,29.1000003814697,-926.100036621094,1.59810386189422,0.0356178491041773,0.184145999588727,DLL
15.8333333333333,0.32239904999733,-1.95832014083862,9.26643085479736,0.106707997620106,0.106707997620106,0.304879993200302,-1250.70007324219,27.9000015258789,-921.300048828125,1.59697925692837,0.0342578608201645,0.2015213767705,DLL
15.8666666666667,0.629246413707733,-2.40453481674194,9.07263278961182,-0.457319974899292,-0.899396002292633,0.716467976570129,-1250.70007324219,27.9000015258789,-930.900024414062,1.59340870098803,0.0588609181676108,0.243873227214826,DLL
15.9,0.506627082824707,-2.69463419914246,9.38067626953125,-0.746955990791321,-0.663114011287689,0.67835795879364,-1253.10009765625,30.3000011444092,-921.300048828125,1.59058624762833,0.0545416103402281,0.269908696332208,DLL
15.9333333333333,0.304454773664474,-2.4476010799408,9.42912578582764,-0.228659987449646,-0.762199997901917,1.02134799957275,-1255.5,29.1000003814697,-928.500061035156,1.58906220837423,0.0388190407104787,0.259107501805316,DLL
15.9666666666667,0.939682602882385,-2.92312479019165,8.96496677398682,-0.396344006061554,-0.266770005226135,2.4923939704895,-1250.70007324219,29.1000003814697,-926.100036621094,1.58227616682796,0.081348084425524,0.299702133508889,DLL
16.0,0.0951047316193581,-2.40991806983948,10.1403179168701,0.106707997620106,0.0304879993200302,2.59148001670837,-1255.5,29.1000003814697,-926.100036621094,1.58024235062626,0.0270891440362107,0.250726833008118,DLL
16.0333333333333,0.913962483406067,-2.73291516304016,9.48355674743652,-0.282013982534409,0.564027965068817,2.54574799537659,-1248.30004882812,29.7000007629395,-926.100036621094,1.57521936030818,0.07121211266289,0.272073107804176,DLL
16.0666666666667,0.866111040115356,-2.68506383895874,8.94881725311279,-0.274392008781433,-0.0076219998300075,2.21800184249878,-1245.90002441406,32.1000022888184,-921.300048828125,1.57047397356231,0.0853127306708898,0.286194269222911,DLL
16.1,1.07486295700073,-2.5235652923584,8.728102684021,0.358233988285065,-0.205793991684914,1.87501192092896,-1245.90002441406,31.5000019073486,-923.700012207031,1.56755932480782,0.107597150391245,0.282676051058025,DLL
16.1333333333333,1.51689052581787,-2.80768299102783,8.99606990814209,-0.0990860015153885,-1.58537602424622,1.41769194602966,-1248.30004882812,32.7000007629395,-918.900024414062,1.56267752608294,0.14529053157907,0.296945979705648,DLL
16.1666666666667,1.43075799942017,-2.62465143203735,8.70058727264404,0.327746003866196,-1.07470202445984,1.08232402801514,-1248.30004882812,30.3000011444092,-923.700012207031,1.56072415770059,0.153758394280487,0.294025580876114,DLL
16.2,1.27344644069672,-2.36206650733948,9.34837627410889,1.09756803512573,-0.228659987449646,1.01372599601746,-1245.90002441406,32.1000022888184,-926.100036621094,1.56357912154001,0.138012016910121,0.260297916069662,DLL
16.2333333333333,0.674107134342194,-1.81715834140778,9.28557109832764,1.31860601902008,-0.182927995920181,0.365855991840363,-1245.90002441406,32.1000022888184,-918.900024414062,1.5681839222837,0.0913676781924443,0.211793494044339,DLL
16.2666666666667,1.35957896709442,-2.05043411254883,8.96377086639404,-0.37347799539566,-1.05183601379395,-0.0076219998300075,-1245.90002441406,31.5000019073486,-923.700012207031,1.56680908485396,0.131355272816119,0.221421598835352,DLL
16.3,1.3721399307251,-2.33634638786316,8.62940883636475,-0.647870004177094,-1.15092194080353,-0.495429992675781,-1248.30004882812,32.7000007629395,-921.300048828125,1.56305462172806,0.147516836082572,0.252198592012276,DLL
16.3333333333333,0.888840436935425,-2.73112082481384,9.52781963348389,-0.480185985565186,-0.152439996600151,0.0,-1250.70007324219,32.1000022888184,-923.700012207031,1.56061511446088,0.107096825014921,0.271697473007584,DLL
16.3666666666667,1.38828980922699,-2.98293900489807,9.74075794219971,0.0457319989800453,-0.106707997620106,0.0228659994900227,-1253.10009765625,32.7000007629395,-923.700012207031,1.5584466121412,0.12703084651094,0.289437523952916,DLL
16.4,1.4301598072052,-3.06129574775696,9.65522384643555,-0.0990860015153885,-0.419209986925125,-1.74543797969818,-1248.30004882812,31.5000019073486,-921.300048828125,1.55951769953402,0.137398242679915,0.301601688865184,DLL
16.4333333333333,0.802109718322754,-2.92790985107422,9.81492805480957,0.861285984516144,-0.129574000835419,-2.43903994560242,-1250.70007324219,30.3000011444092,-921.300048828125,1.56439040258748,0.0969853914113141,0.292060826576344,DLL
16.4666666666667,0.658555388450623,-2.33933711051941,9.0193977355957,1.02897000312805,0.0685980021953583,-1.88263392448425,-1253.10009765625,30.3000011444092,-928.500061035156,1.56986170147827,0.07905310306016,0.263828898204145,DLL
16.5,0.0705808699131012,-1.61558413505554,8.73049449920654,2.0655620098114,0.907018005847931,-0.754577994346619,-1255.5,30.3000011444092,-918.900024414062,1.57447402323153,0.028452370173713,0.20471407018343,DLL
16.5333333333333,0.080151155591011,-1.75495147705078,8.95898532867432,0.533540010452271,0.221037998795509,-0.0381099991500378,-1250.70007324219,27.3000011444092,-923.700012207031,1.57477704990459,0.014439037016932,0.196176505555391,DLL
16.5666666666667,-0.490477234125137,-2.19039964675903,9.64864444732666,-0.411587983369827,-0.37347799539566,0.907018005847931,-1250.70007324219,29.1000003814697,-923.700012207031,1.57325686207084,-0.0300697102598331,0.215580174996519,DLL
16.6,0.165087461471558,-2.6276421546936,9.86995697021484,-0.243903994560242,-0.335367977619171,2.74391984939575,-1253.10009765625,29.1000003814697,-923.700012207031,1.56894589581056,0.0018526879602785,0.247036470831337,DLL
16.6333333333333,1.04734838008881,-3.10316562652588,9.80954456329346,0.342989981174469,-0.663114011287689,2.11129403114319,-1248.30004882812,30.9000015258789,-926.100036621094,1.56360143789412,0.0714736211838104,0.288154183957463,DLL
16.6666666666667,1.58149003982544,-3.18810200691223,9.49372482299805,0.487807989120483,-1.57775402069092,1.85976791381836,-1248.30004882812,30.9000015258789,-923.700012207031,1.55661196218191,0.135455176061506,0.314232929734152,DLL
16.7,2.06239700317383,-2.81366443634033,9.48176193237305,1.2576299905777,-0.548784017562866,1.31860601902008,-1248.30004882812,30.3000011444092,-923.700012207031,1.5568593942129,0.186472990361924,0.294353075512851,DLL
16.7333333333333,1.21542656421661,-1.87816894054413,8.9715461730957,2.08842802047729,0.792688012123108,0.6250039935112,-1253.10009765625,30.3000011444092,-926.100036621094,1.56624466695592,0.147209918726687,0.230233811647475,DLL
16.7666666666667,1.38828980922699,-1.8685986995697,9.25626277923584,1.15092194080353,0.487807989120483,-0.335367977619171,-1250.70007324219,29.1000003814697,-926.100036621094,1.57008150965748,0.145862420335181,0.207049187010644,DLL
16.8,1.96430146694183,-1.57730305194855,9.60079288482666,1.02134799957275,0.746955990791321,-1.73781597614288,-1250.70007324219,29.7000007629395,-930.900024414062,1.57824879181735,0.182682485319435,0.174624497289669,DLL
16.8333333333333,3.8957052230835,-2.59952926635742,9.44228458404541,0.0457319989800453,0.449698001146317,-6.31863784790039,-1250.70007324219,27.9000015258789,-928.500061035156,1.57326294953204,0.320273060756594,0.236921599747638,DLL
16.8666666666667,4.24980592727661,-3.24193501472473,10.9902791976929,1.85976791381836,0.990859985351562,-11.242449760437,-1257.90002441406,26.1000003814697,-930.900024414062,1.58132871202703,0.347005058281324,0.264633532088329,DLL
16.9,3.14144682884216,-2.93568563461304,9.97104358673096,5.07625198364258,1.95885396003723,-18.933048248291,-1260.30004882812,23.1000003814697,-935.700012207031,1.60865590653465,0.313430716805742,0.265997897171865,DLL
16.9333333333333,2.44461035728455,-2.35967397689819,8.26274681091309,2.65245604515076,4.07776975631714,-23.491003036499,-1267.5,16.5,-938.100036621094,1.64972172737234,0.289948434893435,0.262260831330735,DLL
16.9666666666667,0.180041030049324,-1.9248241186142,8.94702243804932,1.49391198158264,4.81710386276245,-25.9376659393311,-1269.90002441406,12.3000001907349,-940.500061035156,1.70206665592719,0.103476067020883,0.219652198558056,DLL
17.0,-1.05691862106323,-1.90030026435852,8.58993148803711,0.861285984516144,4.35216188430786,-21.5550155639648,-1265.10009765625,8.10000038146973,-952.500061035156,1.74117615225796,-0.0543190483758045,0.217118024966964,DLL
17.0333333333333,-1.87577641010284,-1.19688403606415,9.5032958984375,0.358233988285065,4.48173570632935,-17.2409629821777,-1265.10009765625,5.10000038146973,-947.700012207031,1.76541299327782,-0.153074135509283,0.155514974535285,DLL
17.0666666666667,-0.569432079792023,-1.21123957633972,10.1977396011353,0.564027965068817,2.08842802047729,-11.6769037246704,-1257.90002441406,2.10000014305115,-954.900024414062,1.78282364844789,-0.0854188294311756,0.130356273067956,DLL
17.1,-0.826035439968109,-0.729734420776367,9.76408576965332,0.823175966739655,1.64635193347931,-8.74243354797363,-1257.90002441406,1.5,-942.900024414062,1.79567972568102,-0.0854411938690961,0.0898592261586706,DLL
17.1333333333333,-0.16269488632679,-0.586180090904236,9.04751014709473,0.571649968624115,1.11281192302704,-7.19516801834106,-1257.90002441406,-0.300000011920929,-950.100036621094,1.80714589711297,-0.0389461511432117,0.0720851451234895,DLL
17.1666666666667,-0.333165645599365,-0.550291538238525,9.72759914398193,0.3125019967556,1.18140995502472,-5.0686297416687,-1253.10009765625,-1.5,-959.700012207031,1.81587359391456,-0.0366067496240532,0.0608433198092969,DLL
17.2,0.635227859020233,-0.438438802957535,10.0888776779175,0.160062000155449,0.0990860015153885,-4.55795574188232,-1248.30004882812,-1.5,-952.500061035156,1.82445833193663,0.0368655705363588,0.047772477598921,DLL
17.2333333333333,0.861325860023499,-0.400755792856216,9.86337757110596,0.724089980125427,0.663114011287689,-3.09453201293945,-1248.30004882812,-2.10000014305115,-954.900024414062,1.83010745450998,0.07128658871758,0.0416732017649645,DLL
17.2666666666667,1.24533367156982,-0.696836590766907,10.3993139266968,0.198172003030777,0.0762199983000755,-4.32929611206055,-1248.30004882812,-2.70000004768372,-959.700012207031,1.83642332890371,0.106010345946401,0.0591900857973291,DLL
17.3,2.155109167099,-0.62147057056427,9.68094444274902,-0.114329993724823,-0.716467976570129,-5.19820404052734,-1245.90002441406,-5.10000038146973,-957.300048828125,1.8448722444114,0.185876486548969,0.0618104543362337,DLL
17.3333333333333,2.19817543029785,-0.977963745594025,8.80286979675293,-0.358233988285065,0.647870004177094,-6.81406784057617,-1245.90002441406,-6.90000009536743,-954.900024414062,1.84990205499528,0.225899039728492,0.0944551575471002,DLL
17.3666666666667,1.41520631313324,-0.864316582679749,9.15996170043945,-0.144817993044853,2.23324584960938,-9.22262001037598,-1248.30004882812,-6.30000019073486,-957.300048828125,1.8662900677778,0.173031380123282,0.0921302736487942,DLL
17.4,0.933701157569885,-0.922336459159851,9.69649600982666,-0.762199997901917,0.701223969459534,-10.1677474975586,-1238.70007324219,-8.10000038146973,-959.700012207031,1.88477916689606,0.117202981556902,0.0932624124457118,DLL
17.4333333333333,-0.158507883548737,-0.501841962337494,9.11031532287598,-0.632625997066498,0.426831990480423,-7.4924259185791,-1233.90002441406,-6.90000009536743,-966.900024414062,1.8996481960382,0.0234348302192966,0.0667554518273962,DLL
17.4666666666667,-0.32838049530983,-1.05572235584259,8.43680667877197,-1.42531394958496,0.769822001457214,-1.39482593536377,-1236.30004882812,-8.10000038146973,-959.700012207031,1.90211684333307,-0.0207035702257882,0.108838997534373,DLL
17.5,-0.741697311401367,-1.6903520822525,9.72042179107666,-2.17989206314087,-0.121951997280121,1.12805593013763,-1236.30004882812,-7.50000047683716,-964.500061035156,1.90187943032206,-0.0587404363827048,0.15567418684476,DLL
17.5333333333333,-1.19808042049408,-1.95233869552612,9.86218166351318,-2.21800184249878,-1.70732796192169,3.39178991317749,-1241.10009765625,-6.90000009536743,-964.500061035156,1.89770419786086,-0.0992759143412916,0.185773543958136,ST
