seconds,sensor_accX_m_s_,sensor_accY_m_s_,sensor_accZ_m_s_,sensor_gyroX___s_,sensor_gyroY___s_,sensor_gyroZ___s_,sensor_magX__T_,sensor_magY__T_,sensor_magZ__T_,sensor_yaw___,sensor_pitch___,sensor_roll___,label5
0.0,4.32636833190918,-0.555076658725739,8.73587799072266,0.190549999475479,0.152439996600151,0.228659987449646,-1339.5,-7.50000047683716,-882.900024414062,2.71529764580519,0.459014202968096,0.0631931932692491,ST
0.0333333333333333,4.20554304122925,-0.465355217456818,8.66649341583252,0.114329993724823,0.0304879993200302,0.152439996600151,-1344.30004882812,-8.10000038146973,-885.300048828125,2.71845168422136,0.451371436423767,0.0538332338375178,ST
0.0666666666666667,4.15410280227661,-0.501841962337494,8.67726039886475,-0.0914639979600906,-0.0685980021953583,0.198172003030777,-1339.5,-7.50000047683716,-885.300048828125,2.71583037863181,0.446038367436127,0.058021357027021,ST
0.1,4.29646110534668,-0.585581958293915,8.78313159942627,-0.106707997620106,-0.320124000310898,0.190549999475479,-1346.70007324219,-6.30000019073486,-882.900024414062,2.71131465231235,0.454375739950746,0.0666953367960979,ST
0.133333333333333,4.39694881439209,-0.643003702163696,8.88900279998779,0.0457319989800453,-0.472563982009888,0.182927995920181,-1341.90002441406,-8.10000038146973,-890.100036621094,2.70779456253667,0.45899339732909,0.0721646597864858,ST
0.166666666666667,4.42565965652466,-0.630442678928375,8.83457183837891,0.228659987449646,-0.419209986925125,0.289635986089706,-1341.90002441406,-8.10000038146973,-887.700012207031,2.70606121364917,0.463991465391838,0.0711380094847837,ST
0.2,4.45317459106445,-0.589170813560486,8.82619762420654,0.3125019967556,-0.259148001670837,0.358233988285065,-1346.70007324219,-8.10000038146973,-890.100036621094,2.7056486221767,0.466713411982883,0.0665655139113675,ST
0.233333333333333,4.39575290679932,-0.531150937080383,8.74365425109863,0.396344006061554,-0.0152439996600151,0.449698001146317,-1344.30004882812,-5.70000028610229,-880.500061035156,2.70534844158278,0.465118955005687,0.0605431110251085,ST
0.266666666666667,4.39156579971313,-0.474327385425568,8.69340991973877,0.335367977619171,-0.0076219998300075,0.365855991840363,-1341.90002441406,-8.70000076293945,-878.100036621094,2.70562719184699,0.467092600021957,0.0544156188643689,ST
0.3,4.25997447967529,-0.470738530158997,8.72989654541016,0.198172003030777,-0.0990860015153885,0.335367977619171,-1341.90002441406,-6.90000009536743,-890.100036621094,2.70366876834812,0.45379486840221,0.05382571823277,ST
0.333333333333333,4.29287195205688,-0.483897656202316,8.73169136047363,0.182927995920181,-0.152439996600151,0.297257989645004,-1339.5,-8.10000038146973,-887.700012207031,2.70119874842162,0.456494207011064,0.0552638110902817,ST
0.366666666666667,4.31500339508057,-0.500047504901886,8.81244087219238,0.144817993044853,-0.198172003030777,0.259148001670837,-1339.5,-7.50000047683716,-885.300048828125,2.69901419399917,0.45505806704774,0.0566224835977134,ST
0.4,4.334144115448,-0.47552365064621,8.70597076416016,0.205793991684914,-0.190549999475479,0.388722002506256,-1337.10009765625,-8.70000076293945,-890.100036621094,2.69757969476412,0.461437322560139,0.0546088597857604,ST
0.433333333333333,4.4501838684082,-0.538926839828491,8.83576774597168,0.0914639979600906,-0.190549999475479,0.37347799539566,-1341.90002441406,-6.30000019073486,-887.700012207031,2.69276481350926,0.465987939097091,0.0609188562070914,ST
0.466666666666667,4.4322395324707,-0.500645637512207,8.81423473358154,0.167683988809586,-0.25152599811554,0.365855991840363,-1346.70007324219,-8.70000076293945,-887.700012207031,2.69242410605018,0.465689243893446,0.0568915624669238,ST
0.5,4.48248338699341,-0.503636360168457,8.77655220031738,0.190549999475479,-0.0076219998300075,0.297257989645004,-1334.70007324219,-7.50000047683716,-890.100036621094,2.69044446850108,0.471357435754843,0.0572430182097723,ST
0.533333333333333,4.31978845596313,-0.492869794368744,8.75142955780029,0.221037998795509,0.167683988809586,0.198172003030777,-1337.10009765625,-9.90000057220459,-887.700012207031,2.6895859988912,0.457957077995226,0.0560690663632729,ST
0.566666666666667,4.23784303665161,-0.430064797401428,8.78971099853516,0.221037998795509,0.0228659994900227,0.274392008781433,-1344.30004882812,-7.50000047683716,-892.500061035156,2.69093989548251,0.448975486876323,0.048932199836578,ST
0.6,4.20614147186279,-0.458775669336319,8.66051197052002,0.160062000155449,0.144817993044853,0.297257989645004,-1344.30004882812,-8.10000038146973,-882.900024414062,2.68749572716085,0.451232330737313,0.052794762486285,ST
0.633333333333333,4.23006725311279,-0.55567479133606,8.75262641906738,-0.160062000155449,-0.121951997280121,0.121951997280121,-1344.30004882812,-7.50000047683716,-885.300048828125,2.68259741558991,0.449648023959872,0.0634910853535155,ST
0.666666666666667,4.11103677749634,-0.569432079792023,8.86806774139404,-0.198172003030777,-0.289635986089706,0.0609759986400604,-1344.30004882812,-6.30000019073486,-887.700012207031,2.68222789154268,0.434231724613116,0.0645055219492731,ST
0.7,4.32876062393188,-0.61847984790802,8.78133678436279,-0.106707997620106,-0.381099998950958,0.152439996600151,-1341.90002441406,-6.30000019073486,-885.300048828125,2.67895618392937,0.457289984968157,0.070557477342017,ST
0.733333333333333,4.3245735168457,-0.701023578643799,8.77415943145752,-0.205793991684914,-0.182927995920181,0.175305992364883,-1339.5,-6.90000009536743,-890.100036621094,2.67431053391068,0.456971978462893,0.0800741396097857,ST
0.766666666666667,4.30842399597168,-0.699827253818512,8.83038425445557,-0.0457319989800453,-0.0609759986400604,0.144817993044853,-1341.90002441406,-5.10000038146973,-894.900024414062,2.67400262161254,0.452857085414523,0.079307493113102,ST
0.8,4.32397556304932,-0.75545459985733,8.79569244384766,0.0152439996600151,-0.205793991684914,0.0685980021953583,-1339.5,-8.10000038146973,-885.300048828125,2.67082964541185,0.455720798552316,0.0855508960928823,ST
0.833333333333333,4.28090906143188,-0.643003702163696,8.80645942687988,0.175305992364883,-0.221037998795509,0.0990860015153885,-1339.5,-5.70000028610229,-894.900024414062,2.67537367310577,0.451895475046233,0.0729825055192198,ST
0.866666666666667,4.25459098815918,-0.639414846897125,8.73348522186279,0.25152599811554,-0.0838419944047928,0.282013982534409,-1341.90002441406,-6.90000009536743,-885.300048828125,2.67338848356076,0.452370184105045,0.0728904436980361,ST
0.9,4.3126106262207,-0.604124426841736,8.76040172576904,0.289635986089706,-0.243903994560242,0.396344006061554,-1349.10009765625,-9.30000019073486,-890.100036621094,2.67238045511463,0.45681242424636,0.0687752159938825,ST
0.933333333333333,4.39395809173584,-0.571824669837952,8.81004810333252,0.358233988285065,-0.3125019967556,0.403965979814529,-1339.5,-6.90000009536743,-892.500061035156,2.67140728345155,0.46215241459472,0.0646724056849535,ST
0.966666666666667,4.26176881790161,-0.52935653924942,8.73169136047363,0.411587983369827,-0.114329993724823,0.442075997591019,-1344.30004882812,-8.10000038146973,-887.700012207031,2.67004195944128,0.453652374888642,0.060294347048918,ST
1.0,4.3401255607605,-0.513804793357849,8.74305534362793,0.342989981174469,-0.182927995920181,0.457319974899292,-1341.90002441406,-6.90000009536743,-880.500061035156,2.66785087963028,0.46017347463566,0.0585534271473282,ST
1.03333333333333,4.34311628341675,-0.536534249782562,8.70836353302002,0.205793991684914,-0.129574000835419,0.342989981174469,-1339.5,-7.50000047683716,-890.100036621094,2.66441604388664,0.462018657205112,0.0614091626681179,ST
1.06666666666667,4.33833074569702,-0.571824669837952,8.86089038848877,0.205793991684914,-0.266770005226135,0.25152599811554,-1341.90002441406,-6.90000009536743,-892.500061035156,2.66133566014065,0.455060207227667,0.0642544947011514,ST
1.1,4.21511363983154,-0.510814070701599,8.67606353759766,0.243903994560242,-0.213415995240211,0.198172003030777,-1339.5,-6.30000019073486,-885.300048828125,2.66211054887514,0.451977839109971,0.0586634537158249,ST
1.13333333333333,4.30483484268188,-0.56165623664856,8.88960075378418,0.129574000835419,-0.236281991004944,0.259148001670837,-1346.70007324219,-7.50000047683716,-894.900024414062,2.65855219645586,0.450604066977734,0.0630104220598754,ST
1.16666666666667,4.25459098815918,-0.506627082824707,8.72152233123779,0.236281991004944,-0.342989981174469,0.274392008781433,-1344.30004882812,-6.90000009536743,-890.100036621094,2.65883272012492,0.453681879676446,0.0580018399119126,ST
1.2,4.60869169235229,-0.750669419765472,9.38905048370361,-0.0228659994900227,-0.335367977619171,0.297257989645004,-1346.70007324219,-8.10000038146973,-887.700012207031,2.64766207136656,0.455563137138839,0.0797522569084002,ST
1.23333333333333,4.84495830535889,-0.641807436943054,8.88481616973877,0.205793991684914,-0.457319974899292,-0.137196004390717,-1344.30004882812,-8.10000038146973,-885.300048828125,2.65126722934784,0.497922645238132,0.0718515893756642,ST
1.26666666666667,4.50282049179077,-0.741697311401367,8.84174919128418,0.3125019967556,1.02897000312805,0.114329993724823,-1344.30004882812,-6.90000009536743,-882.900024414062,2.64525729348242,0.468632351838674,0.0828681093336847,ST
1.3,3.88613486289978,-0.756052732467651,9.44527530670166,0.403965979814529,1.17378795146942,-0.137196004390717,-1337.10009765625,-9.30000019073486,-887.700012207031,2.64708517259914,0.389398343904241,0.0791104349843335,ST
1.33333333333333,3.82871317863464,-1.10477006435394,9.32265663146973,0.0762199983000755,1.76830399036407,-0.647870004177094,-1341.90002441406,-8.70000076293945,-894.900024414062,2.63692650187843,0.384451072061757,0.116184228695552,ST
1.36666666666667,3.04215526580811,-1.25370764732361,8.65991401672363,-0.564027965068817,1.65397393703461,-1.85214591026306,-1339.5,-9.30000019073486,-894.900024414062,2.6386090987237,0.333615755502253,0.142759099606872,ST
1.4,0.427672237157822,-0.820053994655609,8.24240970611572,-0.388722002506256,2.42379593849182,-0.83841997385025,-1332.30004882812,-6.90000009536743,-890.100036621094,2.65332012427257,0.0527456867231229,0.10048546804026,ST
1.43333333333333,-0.379820793867111,-0.20097604393959,8.0946683883667,0.731711983680725,2.65245604515076,2.46952795982361,-1332.30004882812,-8.10000038146973,-899.700012207031,2.64141246498889,-0.0488009166465524,0.0254880650057244,ST
1.46666666666667,0.580796837806702,-0.266173630952835,8.03186416625977,1.29574000835419,1.30336201190948,4.74850606918335,-1337.10009765625,-7.50000047683716,-906.900024414062,2.61674260622976,0.0663948705818226,0.0311589063259803,ST
1.5,2.20954012870789,-0.653172135353088,8.27770042419434,0.381099998950958,-0.975615978240967,2.65245604515076,-1332.30004882812,-6.30000019073486,-897.300048828125,2.59503271704732,0.256100826836084,0.0778731037324671,ST
1.53333333333333,3.01164984703064,-0.724351167678833,9.41118144989014,0.259148001670837,-1.87501192092896,0.205793991684914,-1329.90002441406,-5.70000028610229,-899.700012207031,2.5932705350436,0.310564987384501,0.0765928082970611,ST
1.56666666666667,4.32158279418945,-0.864316582679749,9.56071758270264,0.0457319989800453,-2.14178204536438,-1.49391198158264,-1327.5,-7.50000047683716,-899.700012207031,2.59511040033969,0.423779789572035,0.088731479641645,ST
1.6,4.43044519424438,-0.610703945159912,9.98898792266846,0.518296003341675,0.381099998950958,-3.19361782073975,-1334.70007324219,-7.50000047683716,-892.500061035156,2.62201860293045,0.416624901193874,0.058409896798975,ST
1.63333333333333,3.08701586723328,-0.161498606204987,9.65582180023193,1.98171997070312,3.33081388473511,-2.15702605247498,-1334.70007324219,-8.70000076293945,-902.100036621094,2.64584184722659,0.306341056697653,0.0130827703083829,ST
1.66666666666667,2.72274684906006,0.263182908296585,9.51346397399902,1.6920839548111,2.73629784584045,0.0076219998300075,-1322.70007324219,-7.50000047683716,-902.100036621094,2.65519329670485,0.274549955960085,-0.0296712496358011,ST
1.7,3.28858995437622,0.294286340475082,9.39503192901611,0.960371971130371,0.891773998737335,0.823175966739655,-1320.30004882812,-11.7000007629395,-902.100036621094,2.65027417295953,0.333397227012022,-0.0324090361004279,ST
1.73333333333333,3.80119848251343,-0.0364867225289345,9.67795372009277,-0.0914639979600906,-0.434453994035721,0.602137982845306,-1325.10009765625,-10.5,-904.500061035156,2.63477927753758,0.374266427453197,0.0036675775789476,ST
1.76666666666667,3.82093739509583,-0.262584775686264,9.61873722076416,-0.67835795879364,-0.426831990480423,-0.167683988809586,-1320.30004882812,-9.90000057220459,-904.500061035156,2.62803764052827,0.378643990377041,0.0277804534927989,ST
1.8,3.64867210388184,-0.324791640043259,10.0171003341675,-0.762199997901917,-0.442075997591019,-0.853663980960846,-1322.70007324219,-8.70000076293945,-904.500061035156,2.63177639770501,0.350640603089992,0.0330749508908424,ST
1.83333333333333,3.04036068916321,-0.302660346031189,10.0236797332764,-0.144817993044853,0.167683988809586,-0.457319974899292,-1320.30004882812,-9.90000057220459,-904.500061035156,2.6353386515384,0.295274699141783,0.0302483429989842,ST
1.86666666666667,3.13785791397095,0.0657957270741463,10.1295509338379,-0.403965979814529,0.434453994035721,-0.6250039935112,-1325.10009765625,-8.70000076293945,-904.500061035156,2.64986684128234,0.299556892797843,-0.005468521359266,ST
1.9,3.34003043174744,0.585581958293915,10.4106788635254,0.129574000835419,0.487807989120483,-0.525918006896973,-1325.10009765625,-9.30000019073486,-906.900024414062,2.66754773298247,0.308953327312679,-0.0558875555372923,ST
1.93333333333333,3.46444416046143,0.66932201385498,10.5416717529297,-0.754577994346619,0.92988395690918,-0.0076219998300075,-1317.90002441406,-9.30000019073486,-911.700012207031,2.67035918888958,0.315134085707445,-0.0618930123372435,ST
1.96666666666667,4.14632701873779,0.604124426841736,10.0368394851685,-1.41769194602966,1.47866797447205,0.0076219998300075,-1322.70007324219,-9.30000019073486,-911.700012207031,2.6710753753565,0.386545379314264,-0.0576885518778455,ST
2.0,4.26715183258057,0.416905641555786,10.1211776733398,-2.14178204536438,2.00458598136902,-0.0533539988100529,-1317.90002441406,-8.70000076293945,-906.900024414062,2.66763859450542,0.3949559814053,-0.0379611393700668,ST
2.03333333333333,3.96150088310242,-0.462962657213211,9.40699481964111,-2.31708788871765,1.81403601169586,-0.137196004390717,-1313.10009765625,-8.70000076293945,-918.900024414062,2.63902659524922,0.395030559137775,0.0505777874392827,ST
2.06666666666667,4.3640513420105,-1.75913846492767,8.6742696762085,-0.556405961513519,1.50915598869324,0.457319974899292,-1313.10009765625,-8.70000076293945,-916.500061035156,2.57851014676433,0.454023799940658,0.197493495490802,ST
2.1,3.49016427993774,-1.75375521183014,7.8476357460022,0.327746003866196,0.396344006061554,0.266770005226135,-1305.90002441406,-8.10000038146973,-911.700012207031,2.56789117254597,0.409663473308984,0.2189826867411,ST
2.13333333333333,3.66601824760437,-0.922336459159851,8.38835716247559,0.175305992364883,0.442075997591019,3.04879999160767,-1310.70007324219,-7.50000047683716,-918.900024414062,2.59451360423623,0.408491411929922,0.113691298557721,ST
2.16666666666667,2.25200819969177,-1.52765715122223,9.06066989898682,-0.426831990480423,2.68294382095337,4.43600368499756,-1303.5,-6.90000009536743,-914.100036621094,2.55802440165485,0.239229110975605,0.168140532767612,ST
2.2,1.19209897518158,-2.61807179450989,9.96865081787109,-1.28811800479889,4.64179801940918,2.75154185295105,-1303.5,-6.90000009536743,-930.900024414062,2.53449952741169,0.108528731500722,0.257784408900685,ST
2.23333333333333,1.90568351745605,-2.85792708396912,9.26164531707764,-0.388722002506256,3.41465592384338,0.83841997385025,-1293.90002441406,-5.10000038146973,-930.900024414062,2.52969117893526,0.186573569275044,0.299153240200083,ST
2.26666666666667,1.34223282337189,-2.19159579277039,9.67496299743652,1.48628997802734,2.88111591339111,-0.37347799539566,-1293.90002441406,-3.90000009536743,-926.100036621094,2.54621632545702,0.131294144619365,0.22207276271103,ST
2.3,1.03239476680756,-1.53304040431976,9.44826602935791,2.22562384605408,1.47104597091675,-0.0990860015153885,-1289.10009765625,-7.50000047683716,-933.300048828125,2.55425061665345,0.105658960912674,0.158676946721175,ST
2.33333333333333,1.88415038585663,-1.18252861499786,9.258056640625,2.41617393493652,-0.0457319989800453,0.442075997591019,-1286.70007324219,-5.10000038146973,-926.100036621094,2.55499788439446,0.196955402291453,0.123833855788009,ST
2.36666666666667,1.77768087387085,-0.160302311182022,9.21140193939209,2.88111591339111,-0.0457319989800453,0.754577994346619,-1286.70007324219,-6.30000019073486,-923.700012207031,2.56915008694767,0.190858758433602,0.015655107623443,ST
2.4,2.14793133735657,-0.0173461455851793,9.38785362243652,1.73019397258759,0.106707997620106,1.85214591026306,-1289.10009765625,-8.70000076293945,-935.700012207031,2.56009078227756,0.224127794120848,-0.0001529200458373,ST
2.43333333333333,1.91166496276855,-0.0005981429712846,9.83466720581055,1.2347639799118,0.365855991840363,1.37958192825317,-1284.30004882812,-8.70000076293945,-935.700012207031,2.55209291192798,0.192242457826379,-0.0015767934071129,ST
2.46666666666667,1.58806955814362,0.388194799423218,9.56968975067139,1.31860601902008,0.716467976570129,1.48628997802734,-1286.70007324219,-8.10000038146973,-928.500061035156,2.55026261908557,0.163958239855144,-0.0412939495479068,ST
2.5,1.66523003578186,0.353502482175827,8.524733543396,0.556405961513519,0.823175966739655,1.44055795669556,-1289.10009765625,-6.90000009536743,-933.300048828125,2.54208993525923,0.190767589895118,-0.0419101841030573,ST
2.53333333333333,1.66762256622314,-0.236864611506462,8.68383979797363,0.0609759986400604,0.586893975734711,1.18903195858002,-1284.30004882812,-8.70000076293945,-938.100036621094,2.52278852784536,0.188648012355804,0.0261167886058909,ST
2.56666666666667,2.23286771774292,-1.01445043087006,7.98461055755615,-0.739333987236023,0.0533539988100529,-0.0457319989800453,-1284.30004882812,-8.10000038146973,-935.700012207031,2.50146844543617,0.268852060253558,0.125490754596971,ST
2.6,0.69863098859787,-1.31770896911621,10.3598365783691,0.0304879993200302,0.990859985351562,-0.899396002292633,-1284.30004882812,-7.50000047683716,-935.700012207031,2.50670427422533,0.0701439012531714,0.126307439381965,ST
2.63333333333333,0.96958976984024,-0.860129594802856,8.87524509429932,1.43293595314026,1.45580196380615,0.0533539988100529,-1281.90002441406,-9.30000019073486,-930.900024414062,2.50925682062452,0.105036273454926,0.0947645490986939,ST
2.66666666666667,0.421690791845322,-0.678892254829407,9.93575286865234,1.34909391403198,1.04421401023865,-0.266770005226135,-1274.70007324219,-8.10000038146973,-933.300048828125,2.51272888476792,0.0420653379051507,0.0665262685004934,ST
2.7,0.721360445022583,0.416307508945465,9.14141941070557,1.98934197425842,0.503051996231079,0.259148001670837,-1279.5,-6.90000009536743,-935.700012207031,2.51735964630204,0.0768418365097368,-0.0457899612814965,ST
2.73333333333333,1.48877787590027,0.928317904472351,8.620436668396,1.02897000312805,-1.09756803512573,0.3125019967556,-1279.5,-8.70000076293945,-938.100036621094,2.52307158558046,0.169425375961845,-0.107271844373286,ST
2.76666666666667,2.27354145050049,0.187816888093948,9.0732307434082,-0.693601965904236,-0.792688012123108,-0.6250039935112,-1279.5,-8.70000076293945,-933.300048828125,2.50979831434784,0.245236058944115,-0.0216079061468889,ST
2.8,2.22568988800049,-0.441429525613785,10.1175880432129,-1.59299790859222,-0.121951997280121,-2.89635992050171,-1279.5,-8.70000076293945,-930.900024414062,2.51178494483585,0.217427813318555,0.0436749647815697,ST
2.83333333333333,2.06538772583008,-0.718967854976654,10.1899633407593,-1.03659200668335,0.106707997620106,-2.78965187072754,-1277.10009765625,-8.70000076293945,-935.700012207031,2.52148015772434,0.200127090323983,0.0705041136695895,ST
2.86666666666667,2.08931350708008,-0.925925314426422,9.89986419677734,0.0304879993200302,0.137196004390717,-2.37044191360474,-1279.5,-9.90000057220459,-933.300048828125,2.5291990608389,0.207054350457664,0.0917417719722901,ST
2.9,1.83570075035095,-0.494066089391708,10.7049646377563,1.29574000835419,-1.22714197635651,-2.00458598136902,-1274.70007324219,-10.5,-942.900024414062,2.54700501805274,0.172799755332137,0.0444030581875972,ST
2.93333333333333,2.31720590591431,-0.209350034594536,9.63129806518555,1.14329993724823,-2.17227005958557,-0.365855991840363,-1281.90002441406,-11.1000003814697,-935.700012207031,2.55219352127612,0.238030510414288,0.0202896737681875,ST
2.96666666666667,2.59055709838867,-0.37324121594429,9.93694877624512,-0.0457319989800453,-1.47104597091675,0.990859985351562,-1281.90002441406,-11.1000003814697,-930.900024414062,2.54279712157152,0.256830034695272,0.0376122382182014,ST
3.0,2.45657324790955,-0.546104550361633,9.57268047332764,-0.37347799539566,-0.602137982845306,1.47104597091675,-1281.90002441406,-9.30000019073486,-933.300048828125,2.53022398016986,0.251823294857641,0.0578862846528681,ST
3.03333333333333,2.2053530216217,-0.955832481384277,9.06665134429932,-0.548784017562866,-0.259148001670837,1.53202199935913,-1281.90002441406,-9.90000057220459,-938.100036621094,2.51134598327557,0.237863840242672,0.105498342415525,ST
3.06666666666667,1.19927668571472,-0.899607002735138,9.83466720581055,-0.175305992364883,0.0381099991500378,1.16616594791412,-1279.5,-9.30000019073486,-938.100036621094,2.50797269636254,0.123783089662155,0.0921703452295339,ST
3.1,0.666929423809052,-0.70760315656662,9.51585674285889,0.129574000835419,-0.503051996231079,1.73781597614288,-1279.5,-7.50000047683716,-938.100036621094,2.50046522724177,0.0718748146852116,0.0747220592602967,ST
3.13333333333333,1.01564681529999,-0.693845868110657,9.29035663604736,0.0533539988100529,-0.442075997591019,2.59148001670837,-1284.30004882812,-6.90000009536743,-935.700012207031,2.48691295322108,0.108011169943672,0.0749267918980393,ST
3.16666666666667,0.30923992395401,-0.83859646320343,9.91601371765137,-0.381099998950958,0.137196004390717,2.74391984939575,-1284.30004882812,-7.50000047683716,-935.700012207031,2.47221748733859,0.0325346339758548,0.0849465486761119,ST
3.2,0.724949300289154,-1.08503139019012,9.49312686920166,-0.693601965904236,-1.06708002090454,4.1311240196228,-1286.70007324219,-7.50000047683716,-940.500061035156,2.44898721809672,0.0755708513356916,0.114707993459694,ST
3.23333333333333,2.1030707359314,-1.31890523433685,10.4441747665405,0.0457319989800453,-0.914639949798584,6.37961387634277,-1289.10009765625,-6.90000009536743,-935.700012207031,2.4142399365978,0.19404976617612,0.127265940833356,ST
3.26666666666667,1.77169942855835,-0.763230443000793,9.48415470123291,1.41006994247437,0.724089980125427,4.59606599807739,-1289.10009765625,-6.30000019073486,-930.900024414062,2.39652064367524,0.18238286234447,0.0801627311636866,ST
3.3,0.702817976474762,-0.099889874458313,8.98530387878418,1.41006994247437,1.27287399768829,3.67380380630493,-1291.5,-5.70000028610229,-935.700012207031,2.38485575811925,0.0779427277809012,0.0106637200478376,ST
3.33333333333333,1.46963727474213,-0.559263706207275,9.3477783203125,0.129574000835419,0.548784017562866,3.33843588829041,-1289.10009765625,-5.10000038146973,-935.700012207031,2.36055581735194,0.153011631921613,0.0594831684861532,ST
3.36666666666667,1.05273163318634,-0.596946656703949,9.54695987701416,-0.0381099991500378,1.21189796924591,1.53202199935913,-1291.5,-4.5,-935.700012207031,2.35267573861657,0.108576856780307,0.0627108925056993,ST
3.4,0.875083148479462,-0.782370984554291,9.78920745849609,-0.129574000835419,0.907018005847931,0.655492007732391,-1284.30004882812,-3.30000019073486,-935.700012207031,2.34805745421693,0.0877881440004158,0.0795986934200916,ST
3.43333333333333,0.855344474315643,-0.684873700141907,10.0649518966675,0.0838419944047928,0.358233988285065,0.37347799539566,-1284.30004882812,-3.90000009536743,-935.700012207031,2.34710517968934,0.0839957249599624,0.0680890171061598,ST
3.46666666666667,0.904392182826996,-0.796128273010254,9.47458457946777,-0.0076219998300075,-0.411587983369827,0.579271972179413,-1286.70007324219,-5.10000038146973,-940.500061035156,2.342580621657,0.0951553457217056,0.0835131749142776,ST
3.5,0.906186580657959,-0.687864422798157,9.78143215179443,-0.213415995240211,-0.137196004390717,0.967993974685669,-1284.30004882812,-5.10000038146973,-940.500061035156,2.3385204596611,0.0923307796675619,0.0710027421942018,ST
3.53333333333333,1.02820777893066,-0.79672646522522,9.96685600280762,-0.525918006896973,-1.15854394435883,1.30336201190948,-1281.90002441406,-3.90000009536743,-938.100036621094,2.3302550572999,0.104060470472863,0.0807314514200142,ST
3.56666666666667,1.08024621009827,-0.989328503608704,9.98240852355957,0.503051996231079,-2.84300589561462,1.74543797969818,-1291.5,-3.30000019073486,-933.300048828125,2.31781838302807,0.111707391685464,0.0978208779242165,ST
3.6,2.10067820549011,-1.10536825656891,8.92130279541016,1.21189796924591,-2.96495795249939,0.693601965904236,-1284.30004882812,-2.10000014305115,-938.100036621094,2.30722604755231,0.231631227420913,0.120993986649828,ST
3.63333333333333,1.79741966724396,-0.792539417743683,9.46680927276611,0.274392008781433,-0.419209986925125,-1.2576299905777,-1296.30004882812,-3.30000019073486,-935.700012207031,2.32089200279435,0.189106566968657,0.0836648592213165,ST
3.66666666666667,1.78605496883392,-0.513206660747528,9.353759765625,0.160062000155449,1.03659200668335,-1.05945801734924,-1291.5,-4.5,-933.300048828125,2.33218927838847,0.186748117600932,0.0547752869854658,ST
3.7,1.53184413909912,-0.360082060098648,9.52243614196777,-0.259148001670837,2.10367202758789,-1.60824191570282,-1289.10009765625,-5.10000038146973,-933.300048828125,2.34391529214243,0.156673714784601,0.0382352105527445,ST
3.73333333333333,0.553282260894775,-0.448009073734283,10.0918684005737,-0.533540010452271,2.05031800270081,-2.55336999893188,-1279.5,-4.5,-930.900024414062,2.35708586967952,0.0542101243653726,0.044818770297476,ST
3.76666666666667,0.948654770851135,-0.219518467783928,9.84961986541748,-0.0762199983000755,1.47104597091675,-2.27135586738586,-1277.10009765625,-3.90000009536743,-935.700012207031,2.37069305882826,0.0924551112718974,0.0226808821213605,ST
3.8,0.596946656703949,0.10826388001442,9.5032958984375,0.289635986089706,2.21037983894348,-3.28508186340332,-1277.10009765625,-5.10000038146973,-947.700012207031,2.39065897204037,0.0596236965108864,-0.0114238965767305,ST
3.83333333333333,1.26746499538422,0.0400755777955055,9.60019493103027,-0.670735955238342,2.10367202758789,-2.62959003448486,-1274.70007324219,-5.70000028610229,-945.300048828125,2.40506181532277,0.126346255027272,-0.0037042925001119,ST
3.86666666666667,0.276940196752548,-0.0113647161051631,9.27719783782959,-2.09605002403259,1.56251001358032,-4.1463680267334,-1272.30004882812,-5.70000028610229,-945.300048828125,2.42654233710113,0.0298482839713939,0.0043733927614294,ST
3.9,0.0622068680822849,-0.343932211399078,10.1624488830566,-1.89787793159485,1.6768399477005,-1.44055795669556,-1274.70007324219,-6.90000009536743,-945.300048828125,2.4338137172095,0.0039996696016969,0.0362345183926182,ST
3.93333333333333,0.916355013847351,-0.479112505912781,9.68752384185791,-1.76068198680878,0.602137982845306,-1.48628997802734,-1269.90002441406,-6.30000019073486,-945.300048828125,2.44148563847829,0.0908428066494582,0.0518349976838689,ST
3.96666666666667,1.04734838008881,-1.01923561096191,9.58404445648193,-1.55488801002502,0.160062000155449,-2.02745199203491,-1262.70007324219,-5.10000038146973,-954.900024414062,2.44767305484392,0.107912234698754,0.106938510558987,ST
4.0,0.893027484416962,-1.02043187618256,9.48116397857666,-1.16616594791412,0.25152599811554,-2.9344699382782,-1260.30004882812,-5.70000028610229,-942.900024414062,2.46327283426124,0.0938874934173506,0.108708975489278,ST
4.03333333333333,1.48698341846466,-1.14664006233215,9.33282470703125,-0.6250039935112,0.0076219998300075,-2.0655620098114,-1265.10009765625,-4.5,-952.500061035156,2.47385809671404,0.156271487012991,0.122569474804701,ST
4.06666666666667,1.36436414718628,-0.669920146465302,9.57268047332764,-0.350611984729767,0.495429992675781,-2.08842802047729,-1262.70007324219,-6.30000019073486,-947.700012207031,2.4933150552169,0.140972867611902,0.0710398564107136,ST
4.1,1.57491040229797,-0.492869794368744,9.70427131652832,-0.0914639979600906,0.0914639979600906,-1.32622802257538,-1260.30004882812,-5.70000028610229,-950.100036621094,2.50384282658195,0.160291941480268,0.0509043033051565,ST
4.13333333333333,1.68975389003754,-0.459971934556961,9.21259784698486,-0.381099998950958,0.228659987449646,-0.922261953353882,-1255.5,-6.90000009536743,-950.100036621094,2.50905279584165,0.180303107433573,0.0502768063048876,ST
4.16666666666667,1.16398620605469,-0.632237136363983,10.0087261199951,-0.457319974899292,0.914639949798584,-0.472563982009888,-1265.10009765625,-4.5,-952.500061035156,2.51013816534112,0.115811981779945,0.063406626250814,ST
4.2,0.844577848911285,-1.01325416564941,10.1756086349487,-0.884151995182037,1.35671591758728,-1.2576299905777,-1250.70007324219,-6.30000019073486,-952.500061035156,2.51430228748418,0.0811064001407627,0.0997074725286782,ST
4.23333333333333,0.465953379869461,-1.40324342250824,9.89747142791748,-0.967993974685669,1.41006994247437,-0.807931959629059,-1255.5,-6.30000019073486,-947.700012207031,2.51751203298181,0.0449996043847742,0.141677091064286,ST
4.26666666666667,0.66334056854248,-1.19927668571472,9.75092697143555,-0.419209986925125,0.533540010452271,-0.487807989120483,-1250.70007324219,-3.90000009536743,-957.300048828125,2.52169402393778,0.0661523608983645,0.123433107511465,ST
4.3,0.842185318470001,-0.979160070419312,9.61933517456055,0.381099998950958,0.0914639979600906,-0.426831990480423,-1250.70007324219,-6.30000019073486,-957.300048828125,2.52546185982315,0.086238791239153,0.101331778499688,ST
4.33333333333333,1.55876052379608,-1.28361487388611,9.01222038269043,0.160062000155449,-0.907018005847931,-0.419209986925125,-1255.5,-5.10000038146973,-952.500061035156,2.52201871203814,0.169723121769369,0.140391716668107,ST
4.36666666666667,1.15142524242401,-1.2178190946579,9.35136699676514,-0.175305992364883,-0.586893975734711,-0.510673999786377,-1255.5,-5.70000028610229,-954.900024414062,2.52593890310331,0.123748036589858,0.129962657569128,ST
4.4,0.742893576622009,-1.19449150562286,9.33880615234375,0.282013982534409,-0.396344006061554,-0.190549999475479,-1253.10009765625,-4.5,-947.700012207031,2.52689733718908,0.0802690902095921,0.126762369838755,ST
4.43333333333333,1.49954438209534,-1.55696618556976,9.19704627990723,0.350611984729767,-0.510673999786377,0.548784017562866,-1255.5,-5.70000028610229,-952.500061035156,2.51865772789465,0.158220970794278,0.16628286500273,ST
4.46666666666667,1.37094366550446,-1.40264523029327,9.13782978057861,0.0076219998300075,0.190549999475479,-0.213415995240211,-1257.90002441406,-5.70000028610229,-954.900024414062,2.52196405030929,0.147255238261587,0.152615725511684,ST
4.5,0.342137783765793,-1.5503865480423,9.99078178405762,-0.213415995240211,0.495429992675781,-0.907018005847931,-1250.70007324219,-5.70000028610229,-954.900024414062,2.52723102452072,0.0355820068129989,0.154222456607115,ST
4.53333333333333,0.483897656202316,-1.64668762683868,10.278489112854,-0.221037998795509,-0.327746003866196,-0.320124000310898,-1253.10009765625,-5.70000028610229,-947.700012207031,2.52845135083386,0.0467919506528503,0.159085922486546,ST
4.56666666666667,0.717771589756012,-1.66582822799683,9.91481781005859,0.442075997591019,-0.609759986400604,0.0762199983000755,-1253.10009765625,-5.70000028610229,-954.900024414062,2.52695323594024,0.0717717424801337,0.165571957748868,ST
4.6,0.395970642566681,-1.27882969379425,9.36452674865723,0.754577994346619,-0.342989981174469,-0.160062000155449,-1260.30004882812,-6.30000019073486,-950.100036621094,2.52909213679504,0.0431083648130456,0.13504100159111,ST
4.63333333333333,0.534141659736633,-1.24054849147797,9.37529277801514,0.434453994035721,-0.823175966739655,-0.701223969459534,-1253.10009765625,-6.30000019073486,-954.900024414062,2.53221951260187,0.0576002291032338,0.130858003478611,ST
4.66666666666667,1.09519982337952,-1.38649535179138,9.02119255065918,0.274392008781433,-1.54726600646973,-0.342989981174469,-1250.70007324219,-4.5,-954.900024414062,2.53085215873401,0.120843679636406,0.15155999737531,ST
4.7,0.915158748626709,-1.63293027877808,8.95420074462891,0.0762199983000755,-1.15854394435883,-0.37347799539566,-1250.70007324219,-5.10000038146973,-947.700012207031,2.52857853765238,0.102820346015788,0.179442260107581,ST
4.73333333333333,1.18551933765411,-1.72923135757446,9.15876483917236,0.548784017562866,-0.670735955238342,0.129574000835419,-1257.90002441406,-6.30000019073486,-947.700012207031,2.52625499527833,0.126948685467789,0.18553578475566,ST
4.76666666666667,0.787156164646149,-1.64250063896179,9.63847541809082,0.472563982009888,-0.586893975734711,0.632625997066498,-1257.90002441406,-6.30000019073486,-957.300048828125,2.52405730726357,0.08240218660237,0.168548699776786,ST
4.8,0.667527556419373,-1.59823799133301,9.5684928894043,0.579271972179413,-0.411587983369827,0.693601965904236,-1255.5,-6.30000019073486,-952.500061035156,2.52024139191326,0.069569925628783,0.164693382643965,ST
4.83333333333333,0.624461233615875,-1.43374872207642,10.0290632247925,0.3125019967556,-0.6250039935112,0.426831990480423,-1257.90002441406,-6.90000009536743,-957.300048828125,2.51896385873191,0.0627246845953561,0.142138893749169,ST
4.86666666666667,0.871494293212891,-1.30694234371185,10.1995344161987,0.37347799539566,-1.16616594791412,0.213415995240211,-1260.30004882812,-8.10000038146973,-952.500061035156,2.51803043929953,0.0858731186132549,0.127260844837051,ST
4.9,0.632237136363983,-1.26148355007172,9.71563625335693,0.594515979290009,-0.716467976570129,-0.6250039935112,-1260.30004882812,-7.50000047683716,-952.500061035156,2.52056091061954,0.0662991564051936,0.128000177563917,ST
4.93333333333333,0.669920146465302,-1.15920102596283,10.0021467208862,1.08994603157043,0.0762199983000755,1.19665396213531,-1262.70007324219,-8.10000038146973,-952.500061035156,2.51501306191338,0.0660683731406621,0.114005622498054,ST
4.96666666666667,1.08802211284637,-1.0634982585907,9.39921855926514,0.914639949798584,0.160062000155449,1.44817996025085,-1255.5,-7.50000047683716,-957.300048828125,2.5067353510013,0.113097733769736,0.11139309571513,ST
5.0,1.20047295093536,-1.00308573246002,9.23891639709473,0.335367977619171,-0.106707997620106,0.533540010452271,-1257.90002441406,-6.90000009536743,-947.700012207031,2.50389813635074,0.128272454690064,0.107750698591527,ST
5.03333333333333,1.09460163116455,-1.14544379711151,9.2281494140625,0.304879993200302,-0.0762199983000755,0.769822001457214,-1265.10009765625,-6.90000009536743,-950.100036621094,2.49749901267533,0.117342704938,0.12284513974185,ST
5.06666666666667,1.28600740432739,-1.21722090244293,9.39503192901611,0.274392008781433,-0.830797970294952,0.571649968624115,-1260.30004882812,-6.90000009536743,-945.300048828125,2.49316338523299,0.135719504923433,0.128367112315274,ST
5.1,1.3900842666626,-1.28899812698364,9.24908447265625,0.655492007732391,-0.442075997591019,0.92988395690918,-1265.10009765625,-5.70000028610229,-954.900024414062,2.48080202953313,0.148311517228672,0.137584383816257,ST
5.13333333333333,1.3320643901825,-1.17056584358215,9.78801155090332,0.403965979814529,-0.365855991840363,1.15854394435883,-1265.10009765625,-7.50000047683716,-954.900024414062,2.47698387878559,0.135075440002782,0.119122511494412,ST
5.16666666666667,1.4481041431427,-1.30634427070618,9.87414455413818,0.655492007732391,-0.365855991840363,1.89025592803955,-1262.70007324219,-6.90000009536743,-950.100036621094,2.46504996352876,0.144326804638226,0.130555810705368,ST
5.2,1.7364090681076,-1.275838971138,9.93276214599609,0.6250039935112,-0.114329993724823,2.13416004180908,-1262.70007324219,-7.50000047683716,-945.300048828125,2.45308433612868,0.170921247073543,0.127350671035391,ST
5.23333333333333,1.69633340835571,-0.995309889316559,9.93694877624512,0.868907988071442,0.0228659994900227,1.93598794937134,-1265.10009765625,-8.10000038146973,-950.100036621094,2.44717445988623,0.167953397744306,0.0996569142556689,ST
5.26666666666667,2.24901747703552,-1.07486295700073,9.50628662109375,0.640248000621796,0.160062000155449,2.11891603469849,-1267.5,-8.10000038146973,-945.300048828125,2.43206022657061,0.229230310733084,0.11210755909488,ST
5.3,1.86560797691345,-1.37333631515503,9.70128059387207,-0.25152599811554,0.739333987236023,1.2500079870224,-1257.90002441406,-5.70000028610229,-950.100036621094,2.42023618592351,0.18746038942712,0.140847893000174,ST
5.33333333333333,1.20884692668915,-1.06290006637573,9.93635082244873,-0.167683988809586,0.617381989955902,1.45580196380615,-1257.90002441406,-5.70000028610229,-947.700012207031,2.41835111986836,0.120894200583481,0.108075644712562,ST
5.36666666666667,0.916953146457672,-1.54500329494476,9.24609375,0.99848198890686,0.769822001457214,2.43903994560242,-1260.30004882812,-5.70000028610229,-950.100036621094,2.40002112502384,0.0962077510162893,0.162697514445796,ST
5.4,1.18133234977722,-1.4361412525177,9.50688457489014,1.2347639799118,0.480185985565186,2.01220798492432,-1253.10009765625,-5.70000028610229,-952.500061035156,2.39095889379236,0.120229593047468,0.148566832016581,ST
5.43333333333333,0.902597725391388,-0.310436189174652,9.83646106719971,2.18751406669617,0.221037998795509,1.85976791381836,-1257.90002441406,-5.10000038146973,-954.900024414062,2.3927440354248,0.0917496711158927,0.0313126428522877,ST
5.46666666666667,1.0395724773407,0.205163031816483,9.06904411315918,1.92074394226074,-0.434453994035721,1.79117000102997,-1260.30004882812,-6.90000009536743,-957.300048828125,2.38815682929112,0.114291748165802,-0.0240688962088466,ST
5.5,1.25968909263611,0.135778456926346,9.06306266784668,0.792688012123108,-0.541162014007568,0.960371971130371,-1262.70007324219,-6.90000009536743,-945.300048828125,2.38176424776629,0.138391061686327,-0.0163532786160352,ST
5.53333333333333,0.978561878204346,-0.235070183873177,9.60258769989014,-0.0914639979600906,-0.541162014007568,-0.541162014007568,-1260.30004882812,-7.50000047683716,-950.100036621094,2.37991450702287,0.103235392788665,0.0236931962587015,ST
5.56666666666667,0.469542235136032,-0.0562254376709461,9.93096733093262,0.289635986089706,-0.342989981174469,-0.129574000835419,-1260.30004882812,-6.30000019073486,-954.900024414062,2.38190347196623,0.0488433556855457,0.005477711235526,ST
5.6,0.189611315727234,0.0711790099740028,9.84423732757568,0.533540010452271,0.564027965068817,0.213415995240211,-1260.30004882812,-5.70000028610229,-957.300048828125,2.3811591141821,0.0191080033913575,-0.0077826375451401,ST
5.63333333333333,-0.154919028282166,-0.12441373616457,9.91721057891846,0.0076219998300075,0.884151995182037,-0.381099998950958,-1265.10009765625,-6.90000009536743,-952.500061035156,2.38319527634017,-0.0162928798406605,0.0120571060712434,ST
5.66666666666667,-0.28411790728569,-0.378026366233826,9.94651985168457,-0.731711983680725,0.121951997280121,-1.47104597091675,-1253.10009765625,-6.90000009536743,-950.100036621094,2.39133174993792,-0.0283199896116421,0.0385917213228496,ST
5.7,-0.142956167459488,-0.464757084846497,9.98838901519775,-0.571649968624115,-0.365855991840363,-1.265251994133,-1253.10009765625,-7.50000047683716,-952.500061035156,2.3983163318554,-0.0138610380560658,0.0473414943004075,ST
5.73333333333333,0.66334056854248,-0.450401663780212,9.23891639709473,-0.0914639979600906,-1.49391198158264,-1.01372599601746,-1255.5,-6.30000019073486,-954.900024414062,2.40331601483957,0.0721829379989767,0.0487326595673605,ST
5.76666666666667,0.90977543592453,-0.0562254376709461,9.60019493103027,-0.274392008781433,-1.05945801734924,-1.55488801002502,-1253.10009765625,-6.90000009536743,-945.300048828125,2.41483670762623,0.0957062222172692,0.0072466766539619,ST
5.8,1.39965450763702,-0.489879101514816,9.76767444610596,-0.945127964019775,-0.533540010452271,-1.94360995292664,-1262.70007324219,-6.90000009536743,-945.300048828125,2.42026545531573,0.141943095746327,0.0500918944137049,ST
5.83333333333333,1.18133234977722,-0.71059387922287,9.79698371887207,-1.43293595314026,-0.807931959629059,-2.98782396316528,-1257.90002441406,-7.50000047683716,-954.900024414062,2.43316725200322,0.122026999662791,0.0736133420543343,ST
5.86666666666667,0.771604418754578,-0.910373628139496,9.59002590179443,-1.02897000312805,-0.487807989120483,-2.42379593849182,-1262.70007324219,-8.10000038146973,-952.500061035156,2.44367507634828,0.0822838208415848,0.0954750913683169,ST
5.9,1.15022897720337,-0.760837852954865,10.0482034683228,-0.175305992364883,-0.663114011287689,-1.44817996025085,-1257.90002441406,-6.30000019073486,-952.500061035156,2.45282378232445,0.114113123674034,0.076152531008849,ST
5.93333333333333,0.986935913562775,-0.901401460170746,9.12467098236084,0.868907988071442,-0.320124000310898,-0.777444005012512,-1262.70007324219,-7.50000047683716,-950.100036621094,2.45394259940913,0.108078689559826,0.0962483159616543,ST
5.96666666666667,1.10656452178955,-0.573020994663239,8.88421726226807,-0.198172003030777,-0.823175966739655,-0.457319974899292,-1257.90002441406,-8.10000038146973,-950.100036621094,2.45966162699745,0.124686866527651,0.0655299543929606,ST
6.0,1.20107114315033,-0.372643083333969,9.58464336395264,-0.121951997280121,-1.71494996547699,-1.41006994247437,-1260.30004882812,-8.70000076293945,-947.700012207031,2.46983816809375,0.12758328770275,0.039501331812373,ST
6.03333333333333,1.51689052581787,-0.356493204832077,9.94293022155762,0.259148001670837,-1.28049600124359,-0.945127964019775,-1260.30004882812,-7.50000047683716,-950.100036621094,2.47484022123459,0.152881108542673,0.0352673580578543,ST
6.06666666666667,2.07495808601379,-0.560459971427917,9.25925350189209,-0.975615978240967,-0.975615978240967,-2.40092992782593,-1262.70007324219,-7.50000047683716,-950.100036621094,2.48307476726788,0.220123536586886,0.0605573554830585,ST
6.1,2.05581736564636,-1.10177934169769,10.2073097229004,-1.20427596569061,0.792688012123108,-1.59299790859222,-1265.10009765625,-8.10000038146973,-947.700012207031,2.48299348547207,0.197187944133785,0.107723496272113,ST
6.13333333333333,2.31780409812927,-1.4020471572876,9.74614143371582,0.137196004390717,1.30336201190948,-1.60061991214752,-1255.5,-7.50000047683716,-945.300048828125,2.48542852457581,0.22874249095146,0.141303427791273,ST
6.16666666666667,1.57610678672791,-1.53662931919098,9.85261058807373,0.365855991840363,1.57013201713562,-0.67835795879364,-1255.5,-9.30000019073486,-942.900024414062,2.48737871709768,0.156261202228424,0.153483568940482,ST
6.2,1.06648886203766,-1.17116391658783,9.42792987823486,0.564027965068817,0.960371971130371,0.853663980960846,-1257.90002441406,-8.70000076293945,-954.900024414062,2.48696566638927,0.110774496180278,0.123302423880608,ST
6.23333333333333,1.04734838008881,-1.29677391052246,8.58933353424072,0.0228659994900227,0.884151995182037,1.52439999580383,-1248.30004882812,-6.90000009536743,-952.500061035156,2.47617333190464,0.117941909833792,0.149603802403715,ST
6.26666666666667,0.937888205051422,-1.6323322057724,9.32923603057861,-0.228659987449646,0.426831990480423,1.60061991214752,-1250.70007324219,-8.70000076293945,-954.900024414062,2.46549456361711,0.0979192200381913,0.173375959902487,ST
6.3,1.13407909870148,-1.69573533535004,9.89507961273193,-0.0990860015153885,-0.922261953353882,1.28049600124359,-1253.10009765625,-6.30000019073486,-952.500061035156,2.45856593763405,0.113264798887913,0.170261006203041,ST
6.33333333333333,1.41341185569763,-1.62395811080933,9.44587421417236,0.327746003866196,-1.52439999580383,0.983237981796265,-1255.5,-6.30000019073486,-942.900024414062,2.45186740693865,0.147902707625457,0.170005210771651,ST
6.36666666666667,1.96190893650055,-1.18611752986908,9.50090312957764,0.396344006061554,-1.47866797447205,0.99848198890686,-1255.5,-7.50000047683716,-950.100036621094,2.44710680345654,0.204450783382496,0.123935719415685,ST
6.4,1.99719941616058,-0.995309889316559,8.68264293670654,-0.0228659994900227,-1.16616594791412,0.922261953353882,-1255.5,-6.90000009536743,-954.900024414062,2.44374660646651,0.225903967804478,0.114846699121182,ST
6.43333333333333,1.94037580490112,-1.31531643867493,9.6522331237793,-0.144817993044853,0.213415995240211,1.2423859834671,-1260.30004882812,-8.70000076293945,-947.700012207031,2.43344542595003,0.196772208972141,0.135539233777617,ST
6.46666666666667,1.45588004589081,-1.18731379508972,9.42733097076416,0.609759986400604,0.548784017562866,1.2423859834671,-1260.30004882812,-6.30000019073486,-950.100036621094,2.42884071783053,0.152066075405848,0.124838702900581,ST
6.5,1.40324342250824,-1.15142524242401,9.20781326293945,0.419209986925125,0.403965979814529,0.609759986400604,-1260.30004882812,-5.70000028610229,-950.100036621094,2.42581988244126,0.149327564980138,0.123845065326429,ST
6.53333333333333,1.67480027675629,-1.27105379104614,9.46441650390625,0.632625997066498,0.564027965068817,1.10518991947174,-1253.10009765625,-7.50000047683716,-942.900024414062,2.41831347601793,0.171910619964491,0.132516829515399,ST
6.56666666666667,0.985141456127167,-1.34941053390503,9.29155254364014,0.503051996231079,1.29574000835419,0.99848198890686,-1255.5,-8.10000038146973,-950.100036621094,2.412361729457,0.103957358644904,0.143206242141993,ST
6.6,0.40853163599968,-1.14664006233215,9.57148361206055,0.518296003341675,1.56251001358032,1.16616594791412,-1253.10009765625,-6.90000009536743,-952.500061035156,2.40837164464596,0.040410567496652,0.118788125126564,ST
6.63333333333333,0.750669419765472,-1.09220910072327,9.66060733795166,0.945127964019775,0.907018005847931,1.28811800479889,-1250.70007324219,-6.90000009536743,-945.300048828125,2.40220598603406,0.074407826143782,0.111261048206069,ST
6.66666666666667,-0.0137572884559631,-1.1095552444458,10.218674659729,0.853663980960846,1.88263392448425,0.807931959629059,-1248.30004882812,-8.10000038146973,-954.900024414062,2.3990673884305,-0.0028749771895872,0.106782674839067,ST
6.7,0.713584542274475,-1.08263874053955,10.8497152328491,0.769822001457214,0.67835795879364,1.16616594791412,-1243.5,-6.90000009536743,-952.500061035156,2.39349122177699,0.0621523231860045,0.098453457416674,ST
6.73333333333333,1.32548487186432,-1.12570512294769,9.42194843292236,1.15092194080353,-0.807931959629059,1.38720393180847,-1250.70007324219,-7.50000047683716,-957.300048828125,2.38263667393191,0.13850944308112,0.116906557587454,ST
6.76666666666667,1.50791847705841,-0.97557121515274,9.48355674743652,1.14329993724823,0.0,1.16616594791412,-1248.30004882812,-6.90000009536743,-959.700012207031,2.37749841772812,0.156334877086693,0.101120118296287,ST
6.8,0.96659904718399,-0.799118995666504,9.14859676361084,0.754577994346619,-0.221037998795509,0.213415995240211,-1241.10009765625,-7.50000047683716,-952.500061035156,2.37768686316159,0.106278996020588,0.086171186946785,ST
6.83333333333333,0.853550016880035,-0.806894838809967,9.17910194396973,0.762199997901917,-0.221037998795509,0.693601965904236,-1248.30004882812,-7.50000047683716,-957.300048828125,2.37312226767577,0.0928604989009033,0.086462088428909,ST
6.86666666666667,1.31352198123932,-0.497056812047958,8.97035026550293,0.830797970294952,-0.853663980960846,0.823175966739655,-1245.90002441406,-6.90000009536743,-950.100036621094,2.3713785766807,0.145615147916518,0.0547079447765734,ST
6.9,1.4020471572876,-0.424681514501572,9.01042556762695,0.907018005847931,-0.365855991840363,0.640248000621796,-1243.5,-7.50000047683716,-954.900024414062,2.36861084693341,0.154532767446994,0.0459372657063941,ST
6.93333333333333,0.978561878204346,-0.52038437128067,10.0332498550415,0.0762199983000755,-0.175305992364883,0.327746003866196,-1245.90002441406,-8.10000038146973,-954.900024414062,2.36612019035658,0.098926576188246,0.051591982805649,ST
6.96666666666667,1.52466642856598,-0.541917502880096,10.5123624801636,-0.358233988285065,-0.739333987236023,0.975615978240967,-1248.30004882812,-8.70000076293945,-952.500061035156,2.36106174129658,0.143787811325806,0.0523578820660203,ST
7.0,1.3440272808075,-0.495860517024994,10.7181234359741,-0.0838419944047928,-0.236281991004944,1.10518991947174,-1255.5,-8.10000038146973,-959.700012207031,2.35613476219414,0.125447978248977,0.0467814278787219,ST
7.03333333333333,1.72683870792389,-0.323595345020294,10.1570653915405,0.297257989645004,-0.0914639979600906,0.182927995920181,-1255.5,-8.10000038146973,-957.300048828125,2.3571297376203,0.167298085715132,0.0318051822657691,ST
7.06666666666667,1.46724474430084,0.0364867225289345,9.34359169006348,0.403965979814529,0.0381099991500378,-0.78506600856781,-1250.70007324219,-8.70000076293945,-950.100036621094,2.36681221478105,0.155933569282445,-0.0040687521377964,ST
7.1,1.06050753593445,-0.0699827298521996,9.12885761260986,0.175305992364883,0.0457319989800453,-0.541162014007568,-1248.30004882812,-8.70000076293945,-954.900024414062,2.36798222588409,0.116673658879142,0.0069399094778737,ST
7.13333333333333,0.91276615858078,-0.0358885787427425,9.06007194519043,0.0762199983000755,0.0228659994900227,-0.449698001146317,-1250.70007324219,-6.90000009536743,-947.700012207031,2.37059603988744,0.100813448706817,0.0038342959802584,ST
7.16666666666667,1.06290006637573,-0.0986935868859291,8.68742847442627,-0.0838419944047928,0.0152439996600151,-0.792688012123108,-1243.5,-6.90000009536743,-954.900024414062,2.374041665247,0.121227234634617,0.0111614503149303,ST
7.2,0.634031534194946,-0.846970438957214,9.17312049865723,-0.815553963184357,-0.25152599811554,-1.12043392658234,-1248.30004882812,-7.50000047683716,-954.900024414062,2.3724241274052,0.0707414130132562,0.0911211325598993,ST
7.23333333333333,0.365465342998505,-1.17654716968536,9.92737865447998,-0.647870004177094,-0.46494197845459,-0.762199997901917,-1245.90002441406,-8.10000038146973,-964.500061035156,2.37487342357407,0.0382925859340566,0.118382810606084,ST
7.26666666666667,0.315819501876831,-1.29438138008118,10.1678323745728,-0.259148001670837,-0.0609759986400604,-0.533540010452271,-1238.70007324219,-8.10000038146973,-952.500061035156,2.3773291448372,0.0312226580123304,0.126808158819453,ST
7.3,0.455784946680069,-2.095294713974,11.1619462966919,0.472563982009888,-0.0762199983000755,0.129574000835419,-1245.90002441406,-8.70000076293945,-962.100036621094,2.37450516219028,0.0399592146770289,0.183165448125111,ST
7.33333333333333,1.251913189888,-1.53004968166351,10.218674659729,2.09605002403259,-0.975615978240967,0.640248000621796,-1253.10009765625,-8.10000038146973,-952.500061035156,2.37208376279422,0.120390558255608,0.145918585319179,ST
7.36666666666667,1.21303391456604,-0.657957255840302,9.35615253448486,2.22562384605408,0.0533539988100529,0.46494197845459,-1245.90002441406,-8.10000038146973,-954.900024414062,2.37787206842515,0.128251757958234,0.0685926301752226,ST
7.4,0.824839174747467,-0.189611315727234,9.48714542388916,1.29574000835419,0.922261953353882,-0.144817993044853,-1253.10009765625,-9.30000019073486,-957.300048828125,2.38341956759977,0.0862814606033653,0.0190768674581456,ST
7.43333333333333,0.919345736503601,-0.0657957270741463,9.0971565246582,0.762199997901917,0.724089980125427,-0.510673999786377,-1241.10009765625,-9.30000019073486,-954.900024414062,2.38691137304867,0.099098492961279,0.0061749962921914,ST
7.46666666666667,0.56165623664856,0.0179442893713713,8.95240592956543,0.381099998950958,0.0838419944047928,-0.304879993200302,-1245.90002441406,-9.90000057220459,-952.500061035156,2.38908794263797,0.0633783056080402,-0.0024942358509823,ST
7.5,0.796128273010254,-0.253014475107193,9.3477783203125,0.274392008781433,0.335367977619171,0.518296003341675,-1245.90002441406,-11.1000003814697,-954.900024414062,2.38424443734075,0.0837567968443388,0.0258597336034967,ST
7.53333333333333,0.487486511468887,-0.280529052019119,9.54217529296875,0.160062000155449,-0.0457319989800453,0.777444005012512,-1243.5,-11.1000003814697,-957.300048828125,2.37994611239827,0.0519512223870705,0.0290957963405033,ST
7.56666666666667,0.973178625106812,-0.53533798456192,9.94293022155762,0.0457319989800453,-0.0838419944047928,0.922261953353882,-1241.10009765625,-10.5,-950.100036621094,2.37336258715718,0.0962512748636153,0.0531823332001732,ST
7.6,1.59106028079987,-0.525767683982849,9.88969612121582,-0.457319974899292,-0.541162014007568,-0.282013982534409,-1245.90002441406,-9.90000057220459,-957.300048828125,2.37505863515328,0.159107819591602,0.0538321348243578,ST
7.63333333333333,1.0634982585907,-0.754258275032043,9.82748889923096,-0.205793991684914,-0.243903994560242,-0.282013982534409,-1245.90002441406,-9.30000019073486,-959.700012207031,2.37365691676202,0.108867698818253,0.0764946694122168,ST
7.66666666666667,1.51090919971466,-0.632237136363983,9.47159385681152,0.0304879993200302,-0.297257989645004,0.442075997591019,-1241.10009765625,-10.5,-959.700012207031,2.37252524428487,0.156961762218923,0.0669911407427708,ST
7.7,1.22439861297607,-0.468345940113068,9.89986419677734,0.144817993044853,-0.167683988809586,0.556405961513519,-1243.5,-9.90000057220459,-954.900024414062,2.37222935419711,0.124081637182946,0.0476838777716386,ST
7.73333333333333,1.2698575258255,-0.456981241703033,9.58942794799805,0.114329993724823,0.777444005012512,0.602137982845306,-1241.10009765625,-9.30000019073486,-962.100036621094,2.3692682418303,0.129939988680643,0.047551008599277,ST
7.76666666666667,1.37931764125824,-0.538328647613525,9.234130859375,0.243903994560242,0.503051996231079,0.708845973014832,-1238.70007324219,-8.10000038146973,-952.500061035156,2.36396758287042,0.146726001182233,0.0577629371138388,ST
7.8,0.925925314426422,-0.808091163635254,9.52961349487305,-0.365855991840363,0.411587983369827,0.25152599811554,-1248.30004882812,-9.90000057220459,-954.900024414062,2.35979312552451,0.0971509697215,0.0845291857069412,ST
7.83333333333333,0.939084470272064,-0.992917358875275,10.0386333465576,-0.320124000310898,-0.259148001670837,-0.403965979814529,-1243.5,-11.1000003814697,-959.700012207031,2.36055179055691,0.0934477597440791,0.0986898773546903,ST
7.86666666666667,0.861325860023499,-1.10477006435394,9.55413722991943,-0.259148001670837,-0.754577994346619,-0.6250039935112,-1243.5,-9.30000019073486,-954.900024414062,2.36203235804277,0.0908137500347436,0.115089336175501,ST
7.9,0.459971934556961,-1.24892246723175,9.90285491943359,-0.221037998795509,-0.221037998795509,-0.655492007732391,-1243.5,-8.10000038146973,-957.300048828125,2.36470589317605,0.0476276043088396,0.125532007240502,ST
7.93333333333333,0.768015563488007,-1.42836546897888,9.38067626953125,-0.0152439996600151,-0.83841997385025,-0.144817993044853,-1236.30004882812,-8.10000038146973,-954.900024414062,2.36323215765001,0.0813055591148358,0.150432519051917,ST
7.96666666666667,0.300267785787582,-1.36256968975067,9.27839374542236,0.0762199983000755,-0.6250039935112,0.861285984516144,-1243.5,-9.90000057220459,-962.100036621094,2.3585891325074,0.0341849480842366,0.145870912061094,ST
8.0,0.546104550361633,-1.15680849552155,9.60677433013916,0.335367977619171,-0.67835795879364,1.38720393180847,-1243.5,-8.70000076293945,-957.300048828125,2.35187320713799,0.056710497255241,0.120022686235567,ST
8.03333333333333,0.854148149490356,-1.02402079105377,9.210205078125,0.396344006061554,-0.586893975734711,1.22714197635651,-1245.90002441406,-9.90000057220459,-962.100036621094,2.34576967861957,0.0917129647032205,0.110502621016269,ST
8.06666666666667,1.48638522624969,-1.03717994689941,9.46621036529541,-0.0762199983000755,-1.2500079870224,1.38720393180847,-1248.30004882812,-10.5,-952.500061035156,2.33767003453913,0.155392792402381,0.109684125427178,ST
8.1,1.30873680114746,-1.3559901714325,9.78083419799805,-0.228659987449646,-1.09756803512573,0.952749967575073,-1243.5,-8.70000076293945,-959.700012207031,2.32804902327591,0.133967222214077,0.137739319268775,ST
8.13333333333333,0.568235814571381,-1.30215728282928,10.1289529800415,0.335367977619171,0.830797970294952,1.50915598869324,-1245.90002441406,-8.70000076293945,-952.500061035156,2.32103098834326,0.0552526471207551,0.12760670585599,ST
8.16666666666667,1.0276095867157,-1.21662282943726,10.1175880432129,0.564027965068817,-0.114329993724823,1.82165801525116,-1245.90002441406,-7.50000047683716,-952.500061035156,2.31201537473714,0.0990923022886381,0.119227609671968,ST
8.2,0.931906759738922,-1.15082705020905,10.130747795105,0.708845973014832,-0.304879993200302,1.37958192825317,-1241.10009765625,-8.10000038146973,-959.700012207031,2.30507692066332,0.0916131829863702,0.112296079090887,ST
8.23333333333333,1.13348090648651,-0.718967854976654,9.45723819732666,1.21951997280121,-0.243903994560242,1.28811800479889,-1250.70007324219,-7.50000047683716,-952.500061035156,2.3015653586586,0.118443791161153,0.0750575053432997,ST
8.26666666666667,1.12391066551208,-0.610105812549591,9.52482891082764,1.15854394435883,-0.967993974685669,1.40244793891907,-1253.10009765625,-7.50000047683716,-962.100036621094,2.29479412194502,0.118738717693508,0.0625972230593079,ST
8.3,1.53603112697601,-0.714780867099762,9.61275577545166,0.884151995182037,-1.15854394435883,1.31098401546478,-1255.5,-7.50000047683716,-950.100036621094,2.28559652876822,0.158756638060049,0.0727709787051684,ST
8.33333333333333,1.76870882511139,-0.622068703174591,9.42194843292236,0.830797970294952,-1.15092194080353,1.2576299905777,-1245.90002441406,-8.70000076293945,-952.500061035156,2.27934902892131,0.186259790157479,0.0651235956660727,ST
8.36666666666667,1.65805232524872,-0.739304721355438,9.31787109375,0.518296003341675,-0.510673999786377,0.78506600856781,-1257.90002441406,-8.70000076293945,-959.700012207031,2.27232884445748,0.176613364858993,0.0781662228824266,ST
8.4,1.41640257835388,-1.03418922424316,9.85261058807373,1.32622802257538,-0.221037998795509,1.89787793159485,-1255.5,-9.90000057220459,-947.700012207031,2.25633228852092,0.142602853754842,0.102374140862282,ST
8.43333333333333,1.67480027675629,-0.799118995666504,9.14799880981445,1.50915598869324,0.342989981174469,1.79879200458527,-1255.5,-9.30000019073486,-947.700012207031,2.24750139166243,0.178956855435728,0.085319735688637,ST
8.46666666666667,1.26806306838989,-0.317613929510117,9.73058986663818,0.92988395690918,0.0381099991500378,0.739333987236023,-1253.10009765625,-8.70000076293945,-952.500061035156,2.25115282239119,0.130756744846206,0.0326457060795756,ST
8.5,1.13407909870148,0.0813474431633949,9.65522384643555,1.08994603157043,-0.731711983680725,0.472563982009888,-1255.5,-9.90000057220459,-954.900024414062,2.25312856835077,0.118499983416021,-0.0092119176148846,ST
8.53333333333333,1.67061328887939,0.296678900718689,9.87653636932373,1.39482593536377,-1.13567793369293,0.777444005012512,-1255.5,-8.10000038146973,-959.700012207031,2.25139083085904,0.168123475251312,-0.0316200819652725,ST
8.56666666666667,1.23935222625732,0.373839348554611,9.86038684844971,0.815553963184357,0.0914639979600906,0.274392008781433,-1255.5,-11.1000003814697,-954.900024414062,2.25029959280966,0.125584925228529,-0.0391183469876492,ST
8.6,1.08443319797516,0.412120521068573,9.41237735748291,0.0838419944047928,0.510673999786377,0.167683988809586,-1257.90002441406,-8.70000076293945,-952.500061035156,2.24976818487385,0.113966894925423,-0.0437669231570565,ST
8.63333333333333,1.14723825454712,0.0107665732502937,9.66898155212402,-0.525918006896973,-0.304879993200302,-0.304879993200302,-1255.5,-8.70000076293945,-957.300048828125,2.24689450823167,0.118547147885019,-0.0010432642733865,ST
8.66666666666667,0.678892254829407,-0.294884473085403,8.86746978759766,-1.01372599601746,0.830797970294952,-0.365855991840363,-1253.10009765625,-7.50000047683716,-952.500061035156,2.24607590748484,0.0758443503557654,0.0342141022755389,ST
8.7,0.580796837806702,-0.204564899206161,9.72042179107666,-0.823175966739655,0.160062000155449,0.106707997620106,-1253.10009765625,-9.30000019073486,-957.300048828125,2.24659533685496,0.0598304847052286,0.0228080507020097,ST
8.73333333333333,0.382213354110718,-0.493467956781387,10.1738138198853,-0.167683988809586,0.106707997620106,0.175305992364883,-1248.30004882812,-8.10000038146973,-957.300048828125,2.24448605975514,0.0378422195590074,0.0481539977044476,ST
8.76666666666667,1.27464270591736,-0.461766362190247,10.8245935440063,-0.167683988809586,-1.13567793369293,-0.365855991840363,-1253.10009765625,-7.50000047683716,-952.500061035156,2.24659025884303,0.116902865502103,0.0430118594875847,ST
8.8,1.24174475669861,-0.260192185640335,9.51107120513916,-0.381099998950958,-1.58537602424622,-1.2347639799118,-1253.10009765625,-8.70000076293945,-947.700012207031,2.255163126065,0.13227931885888,0.0280584644226907,ST
8.83333333333333,0.915158748626709,-0.247033044695854,8.82559967041016,-0.92988395690918,0.853663980960846,-1.02134799957275,-1250.70007324219,-9.30000019073486,-954.900024414062,2.26093221660132,0.10267554064261,0.0293759478979965,ST
8.86666666666667,1.13467717170715,-0.515001118183136,10.1582622528076,-0.609759986400604,0.708845973014832,-0.571649968624115,-1245.90002441406,-8.10000038146973,-952.500061035156,2.26208463734105,0.109714070293104,0.0509973510634416,ST
8.9,0.759641587734222,-0.516197383403778,9.61873722076416,-0.518296003341675,0.746955990791321,-1.12805593013763,-1245.90002441406,-7.50000047683716,-954.900024414062,2.2680354859594,0.0783800677165991,0.0542618874411781,ST
8.93333333333333,0.791941285133362,-0.485692083835602,9.03016471862793,-0.78506600856781,0.6250039935112,-1.34909391403198,-1245.90002441406,-8.70000076293945,-947.700012207031,2.27545876579015,0.0861718825073819,0.0548803311926983,ST
8.96666666666667,0.590367138385773,-0.524571359157562,9.34478759765625,-0.67835795879364,-0.426831990480423,-1.22714197635651,-1243.5,-9.90000057220459,-959.700012207031,2.28233833115636,0.0642611917997098,0.0570815754084528,ST
9.0,0.931308627128601,-0.742893576622009,9.30889892578125,-0.83841997385025,-1.05945801734924,-0.975615978240967,-1243.5,-8.70000076293945,-952.500061035156,2.28587448494462,0.100707508105508,0.0805156170594203,ST
9.03333333333333,1.35479378700256,-0.96360832452774,9.77903938293457,-1.15854394435883,-1.99696397781372,-0.663114011287689,-1245.90002441406,-8.10000038146973,-950.100036621094,2.286962538599,0.139764442771652,0.0997244982028627,ST
9.06666666666667,2.15211844444275,-1.27045571804047,10.2790870666504,-1.10518991947174,-2.11129403114319,-0.365855991840363,-1253.10009765625,-7.50000047683716,-950.100036621094,2.28440827922425,0.206732260393211,0.12417608494734,ST
9.1,1.66283750534058,-1.12869584560394,8.8878059387207,-0.586893975734711,-1.47866797447205,-0.381099998950958,-1250.70007324219,-6.90000009536743,-952.500061035156,2.28537787484076,0.186717242768896,0.127193785033249,ST
9.13333333333333,1.15501403808594,-1.68078172206879,9.88790130615234,-0.99848198890686,1.53202199935913,1.47104597091675,-1253.10009765625,-8.10000038146973,-947.700012207031,2.27299739402982,0.112947196549628,0.169596859565271,ST
9.16666666666667,1.74358677864075,-1.58866775035858,10.1086158752441,-0.335367977619171,0.480185985565186,-0.0990860015153885,-1245.90002441406,-6.30000019073486,-952.500061035156,2.27602305537178,0.166831894622882,0.156698296908483,ST
9.2,1.5001425743103,-1.12570512294769,8.99726676940918,0.289635986089706,-0.457319974899292,-0.411587983369827,-1250.70007324219,-6.30000019073486,-957.300048828125,2.28282095617821,0.164897687583901,0.124755240192577,ST
9.23333333333333,1.06230187416077,-1.67779099941254,9.68393516540527,0.0228659994900227,0.78506600856781,1.03659200668335,-1255.5,-6.30000019073486,-957.300048828125,2.26249325432067,0.106009949301293,0.171676882129252,ST
9.26666666666667,1.00607645511627,-1.75614774227142,11.1894607543945,0.815553963184357,0.0457319989800453,1.02134799957275,-1245.90002441406,-4.5,-952.500061035156,2.25823663322209,0.0886048839104394,0.154768100336695,ST
9.3,1.46963727474213,-1.20166921615601,9.67974758148193,1.29574000835419,-0.990859985351562,0.381099998950958,-1253.10009765625,-6.90000009536743,-959.700012207031,2.25860641070176,0.149475383305076,0.122292179794334,ST
9.33333333333333,0.886447906494141,-0.923532724380493,8.93864822387695,0.967993974685669,0.221037998795509,0.975615978240967,-1255.5,-6.90000009536743,-954.900024414062,2.25552152383163,0.0989951277933525,0.101930226309516,ST
9.36666666666667,0.817063271999359,-1.00069320201874,10.1600561141968,0.746955990791321,0.365855991840363,1.15854394435883,-1253.10009765625,-6.90000009536743,-952.500061035156,2.24984645949699,0.0795719465735336,0.0971649428414087,ST
9.4,1.57610678672791,-0.640012979507446,10.058970451355,1.17378795146942,-1.2347639799118,0.708845973014832,-1253.10009765625,-7.50000047683716,-959.700012207031,2.24872537844457,0.155576804012518,0.0624413226639602,ST
9.43333333333333,1.89910387992859,-0.599937379360199,8.77296257019043,0.891773998737335,-1.00610399246216,0.457319974899292,-1255.5,-8.10000038146973,-947.700012207031,2.24437769932221,0.212799404605984,0.0667909892781012,ST
9.46666666666667,0.718967854976654,-0.829026162624359,9.13244724273682,-0.182927995920181,2.080806016922,0.144817993044853,-1253.10009765625,-8.10000038146973,-952.500061035156,2.24123667033528,0.0778959405774969,0.0902870808399023,ST
9.5,0.622068703174591,-0.955234348773956,9.05468845367432,-0.182927995920181,1.52439999580383,0.548784017562866,-1250.70007324219,-8.10000038146973,-952.500061035156,2.23820914942041,0.0658089521874899,0.105059115919049,ST
9.53333333333333,0.178844749927521,-1.20226740837097,10.0254745483398,0.175305992364883,0.571649968624115,0.99848198890686,-1245.90002441406,-6.90000009536743,-959.700012207031,2.23280610246585,0.0178562058620697,0.118701608308246,ST
9.56666666666667,1.15202331542969,-1.11673295497894,10.3329200744629,0.663114011287689,-1.28811800479889,0.922261953353882,-1255.5,-8.10000038146973,-952.500061035156,2.22780200399465,0.109879077940202,0.107018852779418,ST
9.6,1.52227389812469,-0.768613696098328,9.79100227355957,0.92988395690918,-2.67532205581665,0.632625997066498,-1253.10009765625,-8.10000038146973,-954.900024414062,2.22658643316064,0.157024458632543,0.0777678317253578,ST
9.63333333333333,1.80399918556213,-0.717173397541046,9.66957950592041,0.594515979290009,-0.571649968624115,0.282013982534409,-1257.90002441406,-7.50000047683716,-950.100036621094,2.22516591623393,0.184150222338396,0.0732259684489669,ST
9.66666666666667,1.69812786579132,-0.494664251804352,9.4967155456543,0.525918006896973,-0.655492007732391,-0.0609759986400604,-1253.10009765625,-9.30000019073486,-950.100036621094,2.22866758760018,0.178027826501585,0.0517156335262385,ST
9.7,1.36914920806885,-0.43425178527832,9.29873085021973,0.342989981174469,-0.602137982845306,0.487807989120483,-1255.5,-8.10000038146973,-950.100036621094,2.22661696859159,0.147885761577897,0.046353925721592,ST
9.73333333333333,2.46793794631958,-0.444420218467712,8.95061111450195,-0.0685980021953583,-2.56861400604248,0.419209986925125,-1253.10009765625,-7.50000047683716,-952.500061035156,2.2232281670301,0.269751566018421,0.0498886108822673,ST
9.76666666666667,1.99660122394562,-0.349913626909256,8.46133041381836,-0.259148001670837,-0.777444005012512,0.792688012123108,-1255.5,-6.90000009536743,-945.300048828125,2.22127898857297,0.233838449754842,0.0423397147802011,ST
9.8,1.78605496883392,-0.871494293212891,9.77903938293457,-0.396344006061554,0.853663980960846,1.70732796192169,-1257.90002441406,-8.10000038146973,-950.100036621094,2.20379522595548,0.179734881265751,0.0888226730276467,ST
9.83333333333333,1.22679126262665,-1.09220910072327,10.9394369125366,-0.0609759986400604,0.754577994346619,1.59299790859222,-1253.10009765625,-6.90000009536743,-950.100036621094,2.19425296583299,0.111211762887389,0.0996688290696015,ST
9.86666666666667,1.19688403606415,-1.10716259479523,10.7199182510376,0.541162014007568,0.67835795879364,0.960371971130371,-1257.90002441406,-6.90000009536743,-952.500061035156,2.18911079918452,0.109311396241105,0.102074166055973,ST
9.9,0.769810020923615,-0.766221165657043,9.5086784362793,0.914639949798584,0.586893975734711,0.236281991004944,-1260.30004882812,-6.90000009536743,-957.300048828125,2.18983992099392,0.08017740062121,0.0793896804874095,ST
9.93333333333333,0.86491471529007,-0.579600512981415,9.75511360168457,0.884151995182037,0.182927995920181,0.381099998950958,-1253.10009765625,-5.70000028610229,-952.500061035156,2.18930235485138,0.0877075582175696,0.0584444399249251,ST
9.96666666666667,1.5001425743103,-0.126208171248436,8.73528003692627,1.30336201190948,-0.853663980960846,0.442075997591019,-1253.10009765625,-6.90000009536743,-950.100036621094,2.19154264925901,0.169798116787092,0.0132711010131395,ST
10.0,1.23396897315979,0.0053832866251468,8.74365425109863,0.609759986400604,0.25152599811554,-0.0838419944047928,-1255.5,-8.10000038146973,-954.900024414062,2.19375714948922,0.140579974624762,-0.0012948191985397,ST
10.0333333333333,1.19867849349976,-0.25839775800705,9.80595588684082,0.243903994560242,0.182927995920181,-0.495429992675781,-1255.5,-8.10000038146973,-950.100036621094,2.19270885537101,0.121821484037699,0.0250754719962091,ST
10.0666666666667,0.805698573589325,-0.285314202308655,9.96865081787109,-0.0304879993200302,-0.0838419944047928,-0.495429992675781,-1255.5,-8.10000038146973,-952.500061035156,2.1949196507346,0.0819025670560593,0.0284976822353878,ST
10.1,0.932504892349243,-0.56165623664856,10.3568458557129,0.0990860015153885,0.190549999475479,-0.365855991840363,-1253.10009765625,-8.10000038146973,-954.900024414062,2.19469233523952,0.0891625103840134,0.0532532488780139,ST
10.1333333333333,1.03897428512573,-0.47851437330246,10.2258520126343,0.495429992675781,-0.160062000155449,-0.358233988285065,-1262.70007324219,-6.90000009536743,-954.900024414062,2.19693419877784,0.101119154152271,0.0460364782734436,ST
10.1666666666667,1.30155909061432,-0.391783654689789,9.33820819854736,0.510673999786377,-0.106707997620106,-1.15092194080353,-1253.10009765625,-7.50000047683716,-952.500061035156,2.20310052986797,0.137615187226835,0.0409130520091435,ST
10.2,0.520982503890991,-0.227294325828552,8.55404281616211,0.205793991684914,0.87652999162674,-1.19665396213531,-1253.10009765625,-8.10000038146973,-954.900024414062,2.21076469057706,0.0614694341614729,0.0264630275844157,ST
10.2333333333333,0.804502308368683,-0.405540943145752,9.66957950592041,-0.182927995920181,0.701223969459534,-0.663114011287689,-1250.70007324219,-8.10000038146973,-954.900024414062,2.21330824927663,0.0812071552164067,0.0417113150358636,ST
10.2666666666667,2.57859444618225,0.042468149214983,10.087082862854,0.381099998950958,-3.20886182785034,-0.67835795879364,-1250.70007324219,-8.10000038146973,-952.500061035156,2.22415665988078,0.25270932391361,-0.0042872609745907,ST
10.3,1.76811063289642,-0.149535745382309,9.1270637512207,-0.0762199983000755,-0.0838419944047928,-0.914639949798584,-1257.90002441406,-8.70000076293945,-952.500061035156,2.2244633438237,0.193162963229478,0.015645952798735,ST
10.3333333333333,1.55337727069855,-0.141759887337685,9.92259407043457,-0.815553963184357,1.36433792114258,-0.78506600856781,-1253.10009765625,-8.70000076293945,-952.500061035156,2.22931034899049,0.154009451252574,0.015489522926719,ST
10.3666666666667,1.3159145116806,-0.704014301300049,9.99018383026123,-0.937505960464478,1.62348592281342,-0.510673999786377,-1248.30004882812,-8.10000038146973,-952.500061035156,2.22531106327119,0.128594254395848,0.0703187373930409,ST
10.4,1.07785367965698,-0.723154842853546,9.66718673706055,-0.724089980125427,1.08994603157043,-1.15092194080353,-1248.30004882812,-8.10000038146973,-957.300048828125,2.23225710801433,0.10929158303122,0.0756076667727724,ST
10.4333333333333,0.807493031024933,-1.14843451976776,9.43391132354736,-0.899396002292633,1.64635193347931,-1.21951997280121,-1241.10009765625,-9.30000019073486,-957.300048828125,2.23547111174209,0.082899943274417,0.121224181178185,ST
10.4666666666667,1.93678689002991,-1.09878861904144,8.78552436828613,-0.914639949798584,-0.83841997385025,-1.55488801002502,-1241.10009765625,-8.70000076293945,-952.500061035156,2.24303043895216,0.213476583801477,0.12539927932952,ST
10.5,0.467149674892426,-1.73341834545135,9.85141468048096,-0.937505960464478,0.388722002506256,-1.28811800479889,-1245.90002441406,-7.50000047683716,-957.300048828125,2.24434002753351,0.0498618260423697,0.174648454883467,ST
10.5333333333333,0.802707850933075,-1.96729218959808,9.94472503662109,-0.571649968624115,0.78506600856781,-1.73781597614288,-1243.5,-7.50000047683716,-957.300048828125,2.253392368378,0.0776684788659699,0.19560931915031,ST
10.5666666666667,0.420494496822357,-1.65207087993622,9.55712795257568,0.137196004390717,-0.891773998737335,-1.31860601902008,-1243.5,-9.90000057220459,-962.100036621094,2.26073811407411,0.0461409517257569,0.171507061812641,ST
10.6,0.988730311393738,-1.04256319999695,9.45364952087402,1.62348592281342,-0.861285984516144,0.792688012123108,-1243.5,-8.70000076293945,-954.900024414062,2.25948478450536,0.10400637898813,0.108170821650411,ST
10.6333333333333,1.64070618152618,-0.83859646320343,9.16713905334473,1.70732796192169,-0.815553963184357,1.39482593536377,-1245.90002441406,-9.30000019073486,-950.100036621094,2.25326428085374,0.1755749917468,0.0892152662897425,ST
10.6666666666667,1.20944511890411,-0.66334056854248,8.01511573791504,0.548784017562866,-0.0457319989800453,0.967993974685669,-1238.70007324219,-8.70000076293945,-959.700012207031,2.24901673745651,0.149919870762624,0.0820740827915998,ST
10.7,0.240453481674194,-1.13946235179901,9.46202373504639,0.0304879993200302,1.13567793369293,1.50153398513794,-1243.5,-7.50000047683716,-957.300048828125,2.2377948936211,0.024939298535858,0.119291450354785,ST
10.7333333333333,0.803305983543396,-1.41281366348267,10.4136695861816,0.419209986925125,-0.228659987449646,1.50153398513794,-1241.10009765625,-9.30000019073486,-952.500061035156,2.22907801306826,0.0749417875462747,0.133891694089386,ST
10.7666666666667,0.970187902450562,-1.27942776679993,9.39862060546875,0.564027965068817,-0.701223969459534,0.823175966739655,-1245.90002441406,-8.70000076293945,-962.100036621094,2.22405942179489,0.102187267977555,0.134456233186208,ST
10.8,1.57909739017487,-0.937290012836456,9.82509613037109,1.02897000312805,-1.86738991737366,1.47104597091675,-1241.10009765625,-7.50000047683716,-952.500061035156,2.21994941746294,0.160025712630901,0.0948773627316311,ST
10.8333333333333,1.75435328483582,-0.75545459985733,9.26702880859375,1.22714197635651,-1.70732796192169,1.58537602424622,-1245.90002441406,-8.70000076293945,-952.500061035156,2.21227488315946,0.188544424158638,0.0801239815588577,ST
10.8666666666667,1.41819703578949,-0.772202551364899,9.02777194976807,0.983237981796265,0.259148001670837,1.99696397781372,-1245.90002441406,-10.5,-952.500061035156,2.20003154855883,0.15522293382831,0.0840772245804159,ST
10.9,0.840988993644714,-0.814670741558075,10.2671241760254,0.762199997901917,1.50915598869324,1.89787793159485,-1245.90002441406,-9.30000019073486,-959.700012207031,2.19031348197265,0.0799664144808889,0.0782248550152356,ST
10.9333333333333,1.83629894256592,-0.623863101005554,9.94053840637207,0.967993974685669,-1.45580196380615,1.21189796924591,-1245.90002441406,-8.70000076293945,-957.300048828125,2.18500598862086,0.181866404393264,0.061850030977296,ST
10.9666666666667,1.17295837402344,-0.642405569553375,8.16465187072754,0.518296003341675,-0.236281991004944,0.160062000155449,-1248.30004882812,-8.70000076293945,-954.900024414062,2.18119087790615,0.143711044566427,0.0772349971413375,ST
11.0,0.346922934055328,-0.705808699131012,9.281982421875,0.121951997280121,1.82927989959717,0.868907988071442,-1245.90002441406,-9.90000057220459,-954.900024414062,2.17751669947142,0.0369403791319908,0.075786055928708,ST
11.0333333333333,0.495860517024994,-0.696238398551941,8.90216159820557,0.541162014007568,0.282013982534409,0.960371971130371,-1243.5,-8.70000076293945,-964.500061035156,2.17247065988446,0.0543676618644031,0.0771544724319742,ST
11.0666666666667,0.0598142966628075,-0.623264968395233,10.1301488876343,0.922261953353882,0.967993974685669,1.38720393180847,-1241.10009765625,-9.30000019073486,-954.900024414062,2.16581956654052,0.0052523449285271,0.0602715046021126,ST
11.1,2.08093929290771,-0.768613696098328,12.1177787780762,1.00610399246216,-3.52898597717285,1.95885396003723,-1245.90002441406,-9.30000019073486,-964.500061035156,2.15311685631778,0.172126099587708,0.0621592248795372,ST
11.1333333333333,3.04036068916321,0.0460570082068443,9.67197227478027,1.2423859834671,-2.81251788139343,0.556405961513519,-1253.10009765625,-11.1000003814697,-957.300048828125,2.16407433128568,0.306999363452711,-0.0053463687596937,ST
11.1666666666667,2.15750169754028,0.191405743360519,9.24549579620361,0.632625997066498,0.777444005012512,0.777444005012512,-1248.30004882812,-8.70000076293945,-952.500061035156,2.16345629510838,0.230030167104378,-0.0210359468939831,ST
11.2,0.851157426834106,0.120824880897999,9.39503192901611,0.198172003030777,1.82927989959717,0.762199997901917,-1253.10009765625,-8.70000076293945,-952.500061035156,2.15801582581669,0.091063054224831,-0.0132705626077373,ST
11.2333333333333,1.52406823635101,-0.291893780231476,8.29325199127197,-0.0609759986400604,-0.0076219998300075,0.548784017562866,-1248.30004882812,-9.90000057220459,-957.300048828125,2.14886017719103,0.179156417760245,0.0341089886278572,ST
11.2666666666667,0.907382905483246,-0.120226740837097,8.87404918670654,0.0838419944047928,-0.800309956073761,0.411587983369827,-1248.30004882812,-9.30000019073486,-950.100036621094,2.14933308295903,0.104846181085454,0.0139072069409745,ST
11.3,1.11314404010773,-0.0059814294800162,8.25317668914795,0.426831990480423,-0.403965979814529,0.144817993044853,-1245.90002441406,-8.70000076293945,-957.300048828125,2.149913131172,0.133956193477145,0.0003926262327731,ST
11.3333333333333,-0.14355431497097,-0.0322997197508812,10.198935508728,0.449698001146317,0.807931959629059,0.320124000310898,-1248.30004882812,-8.70000076293945,-957.300048828125,2.14806363416656,-0.0114082751285731,0.0023319612720454,ST
11.3666666666667,0.157909750938416,-0.467149674892426,11.9072322845459,0.0152439996600151,0.236281991004944,0.121951997280121,-1250.70007324219,-8.10000038146973,-959.700012207031,2.14745082520838,0.0121715073337507,0.0381845936612975,ST
11.4,0.982150733470917,-0.315819501876831,11.1894607543945,-0.274392008781433,-1.75305998325348,-1.16616594791412,-1245.90002441406,-8.10000038146973,-950.100036621094,2.15375741019047,0.0884963203038548,0.0288027615433082,ST
11.4333333333333,0.91874760389328,-0.52038437128067,9.69230842590332,-0.922261953353882,-0.25152599811554,-2.0731840133667,-1248.30004882812,-9.90000057220459,-952.500061035156,2.16250290109903,0.0948230569457444,0.0541978719251872,ST
11.4666666666667,1.20226740837097,-0.201574176549911,9.3717041015625,-0.685979962348938,-0.830797970294952,-1.85214591026306,-1248.30004882812,-9.30000019073486,-954.900024414062,2.17576035822556,0.128163345456772,0.0231739799334543,ST
11.5,1.00308573246002,-0.645994424819946,8.82320690155029,-0.487807989120483,0.0228659994900227,-1.78354799747467,-1245.90002441406,-8.10000038146973,-947.700012207031,2.17931888965281,0.113487283608356,0.0722075447527529,ST
11.5333333333333,0.372044920921326,-0.594554126262665,9.25147724151611,-0.571649968624115,0.335367977619171,-1.28049600124359,-1255.5,-9.90000057220459,-950.100036621094,2.18677296604275,0.0416839218605551,0.0652599480809158,ST
11.5666666666667,1.07366669178009,-0.700425446033478,9.69051456451416,-0.411587983369827,-0.602137982845306,-0.99848198890686,-1250.70007324219,-8.10000038146973,-952.500061035156,2.19164671585812,0.109791227512277,0.0725443943572904,ST
11.6,1.69932413101196,-0.680686712265015,9.89627552032471,-0.358233988285065,-1.41769194602966,-0.670735955238342,-1250.70007324219,-9.90000057220459,-954.900024414062,2.19531061744781,0.1705113368905,0.0692290285224003,ST
11.6333333333333,1.9086742401123,-0.980356335639954,10.5584201812744,-0.868907988071442,-1.98171997070312,-0.731711983680725,-1253.10009765625,-8.10000038146973,-957.300048828125,2.19513862002954,0.181479124535302,0.093540883983619,ST
11.6666666666667,3.19169092178345,-0.808689296245575,9.40101337432861,-0.731711983680725,-2.08842802047729,-0.457319974899292,-1255.5,-6.90000009536743,-954.900024414062,2.19934093057201,0.326786371563776,0.0870894230058797,ST
11.7,2.13656663894653,-1.06768524646759,8.65572738647461,-0.388722002506256,-0.449698001146317,0.25152599811554,-1255.5,-9.30000019073486,-952.500061035156,2.18827247008183,0.242758628924174,0.122810598564082,ST
11.7333333333333,0.804502308368683,-1.32608294487,9.20063495635986,-0.594515979290009,2.42379593849182,0.602137982845306,-1260.30004882812,-9.30000019073486,-952.500061035156,2.18375483659008,0.0845130877793473,0.143904581274649,ST
11.7666666666667,1.13228464126587,-1.51031100749969,8.97393894195557,-0.205793991684914,1.22714197635651,0.548784017562866,-1253.10009765625,-8.10000038146973,-957.300048828125,2.17976868810275,0.120511980537979,0.166530772589431,ST
11.8,0.24882747232914,-1.69633340835571,9.47039794921875,0.228659987449646,1.33385002613068,0.205793991684914,-1248.30004882812,-8.10000038146973,-952.500061035156,2.1791065673974,0.0261427681505547,0.176565200213998,ST
11.8333333333333,0.55866551399231,-1.56055498123169,10.3430881500244,0.792688012123108,-0.37347799539566,0.46494197845459,-1243.5,-7.50000047683716,-962.100036621094,2.17732626916308,0.0531257322151336,0.149178537572458,ST
11.8666666666667,1.35658824443817,-1.26507234573364,10.3652191162109,1.39482593536377,-1.80641400814056,0.87652999162674,-1248.30004882812,-8.70000076293945,-954.900024414062,2.17335877837548,0.130255677933739,0.119968740687943,ST
11.9,1.40922486782074,-1.15082705020905,10.242600440979,1.41006994247437,-1.31098401546478,0.907018005847931,-1260.30004882812,-9.30000019073486,-959.700012207031,2.16832017200096,0.13777080652019,0.109958646868779,ST
11.9333333333333,1.63173401355743,-1.10058307647705,9.96625804901123,1.38720393180847,-0.548784017562866,1.18140995502472,-1250.70007324219,-8.70000076293945,-957.300048828125,2.16074142098657,0.161549728454871,0.10795305363808,ST
11.9666666666667,1.65147268772125,-0.691453278064728,9.2939453125,1.265251994133,-0.0990860015153885,0.868907988071442,-1257.90002441406,-9.30000019073486,-954.900024414062,2.16096706486652,0.175063903860489,0.0732921981886398,ST
12.0,1.89551508426666,-0.824241042137146,8.74664497375488,1.00610399246216,0.289635986089706,1.80641400814056,-1253.10009765625,-9.90000057220459,-954.900024414062,2.1472649561635,0.210716530264405,0.0923155557339831,ST
12.0333333333333,1.63412654399872,-0.581993103027344,8.85431003570557,0.99848198890686,0.891773998737335,1.94360995292664,-1253.10009765625,-8.70000076293945,-957.300048828125,2.14202174545179,0.181163413936452,0.0652559672295769,ST
12.0666666666667,1.27105379104614,-0.520982503890991,8.81064605712891,1.02897000312805,0.823175966739655,1.6692179441452,-1250.70007324219,-9.30000019073486,-957.300048828125,2.13410699476859,0.142503652148744,0.0578879618107254,ST
12.1,0.47552365064621,-0.843381583690643,9.69948673248291,0.525918006896973,0.701223969459534,1.18903195858002,-1245.90002441406,-9.90000057220459,-954.900024414062,2.12541528484807,0.050001011926124,0.0851770148064881,ST
12.1333333333333,0.485692083835602,-0.811081886291504,10.106822013855,0.327746003866196,-0.0304879993200302,1.21189796924591,-1248.30004882812,-8.70000076293945,-957.300048828125,2.11875529409558,0.0477896038334649,0.0797088543305164,ST
12.1666666666667,0.83859646320343,-0.913962483406067,10.3753881454468,0.731711983680725,-1.21189796924591,1.50153398513794,-1248.30004882812,-10.5,-952.500061035156,2.1097747086064,0.0812866278083311,0.0866110689235959,ST
12.2,1.37871956825256,-0.731528878211975,9.37708759307861,0.990859985351562,-0.67835795879364,1.12043392658234,-1248.30004882812,-9.30000019073486,-954.900024414062,2.10423033808922,0.144800684316488,0.0766904780589666,ST
12.2333333333333,1.2058562040329,-0.602329969406128,9.24609375,0.83841997385025,-0.327746003866196,0.685979962348938,-1250.70007324219,-9.90000057220459,-950.100036621094,2.10174233250838,0.130312507324332,0.0641036603294585,ST
12.2666666666667,1.47681498527527,-0.214733332395554,9.52243614196777,0.480185985565186,-1.20427596569061,0.762199997901917,-1255.5,-9.30000019073486,-954.900024414062,2.10262701204497,0.155493452093018,0.0225841288362129,ST
12.3,1.80160665512085,-0.280529052019119,9.61993312835693,0.0762199983000755,-0.571649968624115,0.983237981796265,-1253.10009765625,-9.30000019073486,-952.500061035156,2.09634734122055,0.185175554125945,0.0291572021367146,ST
12.3333333333333,2.31182265281677,-0.404942780733109,10.1636457443237,0.213415995240211,-0.647870004177094,1.2500079870224,-1257.90002441406,-9.30000019073486,-947.700012207031,2.08753364581191,0.223458554266819,0.0396505722234788,ST
12.3666666666667,2.27234506607056,-0.419298231601715,9.24908447265625,0.358233988285065,0.190549999475479,0.967993974685669,-1253.10009765625,-8.70000076293945,-945.300048828125,2.08105352972558,0.239809656253314,0.0449356430187952,ST
12.4,1.20705246925354,-0.145946890115738,9.89388275146484,0.495429992675781,1.08994603157043,1.16616594791412,-1250.70007324219,-9.30000019073486,-952.500061035156,2.07969637532509,0.121620947103563,0.014696139111363,ST
12.4333333333333,1.03239476680756,0.0221312902867794,8.95121002197266,0.426831990480423,0.564027965068817,1.34909391403198,-1248.30004882812,-9.30000019073486,-962.100036621094,2.07451867527292,0.114057455975159,-0.0024664605012598,ST
12.4666666666667,0.923532724380493,-0.195592746138573,9.34957313537598,-0.144817993044853,0.884151995182037,1.45580196380615,-1253.10009765625,-9.90000057220459,-952.500061035156,2.06469823050586,0.0973157994086095,0.0207704147951059,ST
12.5,0.56763768196106,-0.311034351587296,9.96984672546387,-0.182927995920181,0.221037998795509,1.18140995502472,-1253.10009765625,-7.50000047683716,-954.900024414062,2.0578712146778,0.0575109915195922,0.0313380208370336,ST
12.5333333333333,1.07127404212952,-0.293090045452118,9.35734844207764,-0.510673999786377,-0.381099998950958,0.853663980960846,-1250.70007324219,-8.10000038146973,-954.900024414062,2.05306728010599,0.113657939793649,0.0323544412941517,ST
12.5666666666667,1.12869584560394,-0.461766362190247,10.3777809143066,-0.342989981174469,-0.899396002292633,0.472563982009888,-1255.5,-6.30000019073486,-954.900024414062,2.04925195599651,0.109867177098364,0.0448156191571002,ST
12.6,1.09340536594391,-0.377428203821182,9.82031154632568,-0.0914639979600906,-0.647870004177094,0.236281991004944,-1250.70007324219,-6.90000009536743,-952.500061035156,2.04854507631563,0.111874689051283,0.0387534889714779,ST
12.6333333333333,1.16518247127533,-0.232079476118088,8.74185943603516,-0.274392008781433,-0.350611984729767,-0.228659987449646,-1255.5,-9.90000057220459,-954.900024414062,2.05124080694828,0.132506743838965,0.0272923304696975,ST
12.6666666666667,0.797922730445862,-0.296678900718689,9.48116397857666,-0.304879993200302,0.746955990791321,-0.457319974899292,-1257.90002441406,-8.70000076293945,-950.100036621094,2.05363851334194,0.083540672079337,0.0316606645049807,ST
12.7,0.865512907505035,-0.452196091413498,10.0332498550415,-0.0152439996600151,-0.442075997591019,-0.548784017562866,-1245.90002441406,-6.30000019073486,-952.500061035156,2.05528238414635,0.0866891463127174,0.0446232647720882,ST
12.7333333333333,0.772202551364899,-0.1214230209589,9.77844142913818,0.0838419944047928,-0.350611984729767,-1.08994603157043,-1248.30004882812,-8.10000038146973,-962.100036621094,2.06416612443853,0.0795542736243865,0.0126269147162659,ST
12.7666666666667,0.939682602882385,-0.488682806491852,9.13782978057861,-1.14329993724823,1.30336201190948,-1.31860601902008,-1248.30004882812,-7.50000047683716,-952.500061035156,2.08346934842383,0.100184578364445,0.0551802680261842,ST
12.8,1.55576992034912,-0.486888378858566,10.0846900939941,-1.07470202445984,-0.884151995182037,-1.28049600124359,-1250.70007324219,-7.50000047683716,-957.300048828125,2.0912228026252,0.15306163776452,0.0499463945682757,ST
12.8333333333333,1.47920751571655,-0.461766362190247,8.16285705566406,-0.632625997066498,-1.18903195858002,-1.55488801002502,-1243.5,-5.70000028610229,-950.100036621094,2.09821729424407,0.18044445653626,0.056950596640292,ST
12.8666666666667,1.45348739624023,-0.697434723377228,9.75331974029541,-0.800309956073761,0.907018005847931,-0.853663980960846,-1248.30004882812,-6.90000009536743,-954.900024414062,2.10137468653967,0.146803747460483,0.0722205294400027,ST
12.9,1.66582822799683,-0.821250319480896,9.37469482421875,-0.746955990791321,1.43293595314026,-1.28049600124359,-1243.5,-6.90000009536743,-957.300048828125,2.10688976974621,0.172282050408289,0.0878808501993679,ST
12.9333333333333,1.31950342655182,-0.97258049249649,10.1995344161987,-1.33385002613068,1.63872992992401,-0.92988395690918,-1238.70007324219,-8.70000076293945,-954.900024414062,2.11205860298275,0.126665260470005,0.0968963155422945,ST
12.9666666666667,1.86500978469849,-1.61977112293243,10.0248765945435,-1.35671591758728,1.49391198158264,-0.685979962348938,-1241.10009765625,-7.50000047683716,-962.100036621094,2.10809431322066,0.17781276431364,0.160484974806812,ST
13.0,1.16936945915222,-1.54799401760101,9.30650615692139,-1.05945801734924,1.2423859834671,-1.06708002090454,-1238.70007324219,-6.30000019073486,-954.900024414062,2.11508901515519,0.122503186876159,0.166290565888216,ST
13.0333333333333,0.378026366233826,-1.89850580692291,9.31129169464111,-0.655492007732391,0.83841997385025,-0.937505960464478,-1233.90002441406,-4.5,-964.500061035156,2.11804007686727,0.0409323245898921,0.201218976094825,ST
13.0666666666667,0.874485015869141,-1.57191967964172,9.14620399475098,-0.160062000155449,0.525918006896973,-0.442075997591019,-1236.30004882812,-6.30000019073486,-957.300048828125,2.12282483796418,0.0917606842891762,0.171246758997412,ST
13.1,0.513804793357849,-1.65147268772125,8.99846267700195,0.426831990480423,-0.259148001670837,0.426831990480423,-1231.5,-6.90000009536743,-959.700012207031,2.1195703178575,0.0573756993169446,0.180554154822875,ST
13.1333333333333,0.534141659736633,-1.48698341846466,9.94711780548096,0.914639949798584,0.548784017562866,1.14329993724823,-1236.30004882812,-6.30000019073486,-957.300048828125,2.11520773026234,0.0519135062802806,0.147495428806228,ST
13.1666666666667,0.323595345020294,-1.43315052986145,9.59421348571777,0.899396002292633,0.403965979814529,0.731711983680725,-1236.30004882812,-5.10000038146973,-959.700012207031,2.11117822497441,0.0327653604291032,0.14676167723911,ST
13.2,0.189611315727234,-1.11912548542023,11.0022420883179,0.99848198890686,-0.403965979814529,1.41006994247437,-1233.90002441406,-6.30000019073486,-962.100036621094,2.10472388540879,0.017998966279055,0.100955365994135,ST
13.2333333333333,1.22140789031982,-1.03658175468445,9.95549201965332,1.45580196380615,-1.98934197425842,1.18903195858002,-1229.10009765625,-7.50000047683716,-962.100036621094,2.09637744831137,0.122458547618572,0.10147445440087,ST
13.2666666666667,0.937888205051422,-0.874485015869141,8.43800258636475,1.27287399768829,-0.426831990480423,0.594515979290009,-1233.90002441406,-8.10000038146973,-954.900024414062,2.0923889207913,0.111066168146004,0.101179711690813,ST
13.3,-0.122619308531284,-0.920542061328888,9.08638954162598,0.442075997591019,0.67835795879364,0.160062000155449,-1241.10009765625,-9.30000019073486,-957.300048828125,2.09190015941697,-0.0112066559936675,0.100226091579575,ST
13.3333333333333,0.785361707210541,-0.741697311401367,10.1145973205566,1.00610399246216,-1.28811800479889,0.754577994346619,-1231.5,-7.50000047683716,-962.100036621094,2.08812493630154,0.0769595104585941,0.0723293059942831,ST
13.3666666666667,1.22499680519104,-0.591563403606415,9.45783710479736,1.69970595836639,-1.6768399477005,1.05183601379395,-1238.70007324219,-9.30000019073486,-957.300048828125,2.08159504897456,0.13051601693605,0.0599537489885249,ST
13.4,1.82254159450531,-0.482701390981674,9.60318565368652,1.35671591758728,-0.6250039935112,1.00610399246216,-1241.10009765625,-7.50000047683716,-952.500061035156,2.07691804650455,0.186753142773632,0.0485085773876899,ST
13.4333333333333,1.4080286026001,-0.434849947690964,10.3006200790405,0.868907988071442,-0.266770005226135,0.274392008781433,-1243.5,-8.10000038146973,-962.100036621094,2.07592993776174,0.137379087560136,0.0409301897618871,ST
13.4666666666667,0.955234348773956,-0.389989227056503,9.86337757110596,0.541162014007568,0.106707997620106,-0.365855991840363,-1236.30004882812,-7.50000047683716,-964.500061035156,2.07785429066203,0.0972853670759001,0.0385669272526831,ST
13.5,0.396568775177002,-0.362474650144577,8.80945014953613,0.46494197845459,0.716467976570129,-0.0762199983000755,-1233.90002441406,-8.10000038146973,-954.900024414062,2.07812794801136,0.0451619232972187,0.0402560078862284,ST
13.5333333333333,0.962412059307098,-0.48449581861496,9.41596698760986,0.175305992364883,-0.541162014007568,0.160062000155449,-1241.10009765625,-7.50000047683716,-964.500061035156,2.07631994684341,0.101087654499442,0.0508377971672375,ST
13.5666666666667,1.24832439422607,-0.403746515512466,9.36811542510986,0.548784017562866,-1.86738991737366,0.129574000835419,-1245.90002441406,-8.70000076293945,-954.900024414062,2.07586198962886,0.134658111548214,0.0423989174237037,ST
13.6,1.45528185367584,-0.126806303858757,9.85799407958984,0.87652999162674,-1.52439999580383,0.731711983680725,-1243.5,-11.7000007629395,-957.300048828125,2.07552816209422,0.148800997490343,0.0123689305872094,ST
13.6333333333333,2.03607869148254,-0.312230616807938,10.3885469436646,0.594515979290009,-0.602137982845306,1.41769194602966,-1243.5,-9.30000019073486,-957.300048828125,2.06409080689619,0.193614358398023,0.0291803511760394,ST
13.6666666666667,1.93439435958862,-0.0921140164136887,9.94293022155762,0.487807989120483,-0.701223969459534,0.716467976570129,-1250.70007324219,-7.50000047683716,-957.300048828125,2.06374396635096,0.193359461926777,0.0092178550076855,ST
13.7,1.08981645107269,-0.215929612517357,8.98410701751709,0.221037998795509,1.20427596569061,0.167683988809586,-1243.5,-9.90000057220459,-952.500061035156,2.06063775494791,0.120608656507185,0.0232883501730116,ST
13.7333333333333,1.22260427474976,-0.39537250995636,9.2939453125,-0.350611984729767,0.693601965904236,0.0762199983000755,-1238.70007324219,-8.10000038146973,-952.500061035156,2.05820022842826,0.129225187899115,0.0425971115790037,ST
13.7666666666667,1.01744115352631,-0.543711960315704,9.42194843292236,-0.0609759986400604,0.510673999786377,-0.388722002506256,-1243.5,-6.90000009536743,-952.500061035156,2.05864475052232,0.107157889078467,0.0572606787463607,ST
13.8,0.221911042928696,-0.577806115150452,9.97642707824707,-0.0762199983000755,1.74543797969818,-0.342989981174469,-1238.70007324219,-9.90000057220459,-950.100036621094,2.06091430985104,0.0215911536365182,0.0579454216807849,ST
13.8333333333333,0.644798099994659,-0.625657558441162,10.7067594528198,0.228659987449646,3.20886182785034,0.0457319989800453,-1236.30004882812,-8.70000076293945,-959.700012207031,2.06158822576404,0.0535582790018351,0.0579575626277253,ST
13.8666666666667,0.276342064142227,-0.422288924455643,10.5189418792725,0.564027965068817,2.9344699382782,-0.381099998950958,-1226.70007324219,-7.50000047683716,-966.900024414062,2.06508079198452,0.0217374434329021,0.0394580211401125,ST
13.9,0.0592161528766155,-0.359483927488327,10.4698944091797,0.388722002506256,2.36281991004944,-0.571649968624115,-1221.90002441406,-8.70000076293945,-957.300048828125,2.06883461448681,0.0019285697330545,0.0337441452576589,ST
13.9333333333333,0.650181412696838,-0.155517175793648,9.74913215637207,0.175305992364883,0.350611984729767,-0.541162014007568,-1219.5,-11.1000003814697,-964.500061035156,2.07248197519854,0.0648332228539806,0.0159156308070294,ST
13.9666666666667,0.221312895417213,-0.18183545768261,7.82071924209595,-0.25152599811554,-0.541162014007568,-0.586893975734711,-1224.30004882812,-7.50000047683716,-962.100036621094,2.07552001147076,0.0298075735089048,0.0235323318351829,ST
14.0,-0.45638307929039,-0.775193274021149,10.0440168380737,-0.579271972179413,0.937505960464478,0.381099998950958,-1221.90002441406,-8.10000038146973,-962.100036621094,2.07417333338491,-0.0448621320255906,0.0765322945243865,ST
14.0333333333333,0.527562081813812,-0.897812604904175,10.3652191162109,-0.106707997620106,-1.56251001358032,0.228659987449646,-1229.10009765625,-7.50000047683716,-964.500061035156,2.07230162113739,0.0506708637320356,0.0863415791997561,ST
14.0666666666667,0.843381583690643,-0.683677434921265,9.33222675323486,0.403965979814529,-2.62196803092957,0.0,-1224.30004882812,-10.5,-962.100036621094,2.07200013444938,0.093545426211962,0.0727433184186709,ST
14.1,0.613694667816162,-0.871494293212891,9.99556732177734,0.0457319989800453,-0.198172003030777,0.320124000310898,-1229.10009765625,-9.30000019073486,-957.300048828125,2.06911880773117,0.0621498250673532,0.0865905831776948,ST
14.1333333333333,1.30155909061432,-1.00966536998749,9.92977142333984,-0.289635986089706,-1.31860601902008,-0.198172003030777,-1224.30004882812,-9.30000019073486,-964.500061035156,2.068229211007,0.13033475599042,0.101460768912059,ST
14.1666666666667,0.998300611972809,-1.09041464328766,9.87354564666748,-0.274392008781433,-1.53964400291443,-0.495429992675781,-1229.10009765625,-9.30000019073486,-959.700012207031,2.06905800007475,0.103672782266018,0.110168411979698,ST
14.2,0.973178625106812,-1.12630319595337,9.12048435211182,-0.0990860015153885,-0.167683988809586,-0.655492007732391,-1231.5,-8.70000076293945,-959.700012207031,2.07106679904263,0.105872613738255,0.122578535220431,ST
14.2333333333333,0.974973022937775,-1.23636150360107,9.90644359588623,0.259148001670837,-0.907018005847931,-0.152439996600151,-1226.70007324219,-9.30000019073486,-962.100036621094,2.07102387698438,0.0991436846997009,0.123672171483242,ST
14.2666666666667,1.09460163116455,-1.27165198326111,9.67436408996582,0.510673999786377,-0.0838419944047928,-0.419209986925125,-1229.10009765625,-8.70000076293945,-962.100036621094,2.07220751431216,0.111603350408099,0.129561543522382,ST
14.3,0.810483753681183,-0.887046039104462,9.58284854888916,1.07470202445984,0.167683988809586,0.655492007732391,-1226.70007324219,-8.10000038146973,-969.300048828125,2.07213199386361,0.0843802991686595,0.0915839973816673,ST
14.3333333333333,1.11972367763519,-0.809287428855896,9.14261531829834,0.693601965904236,0.510673999786377,0.632625997066498,-1226.70007324219,-9.30000019073486,-966.900024414062,2.06916214062106,0.119431182100466,0.0873164049312952,ST
14.3666666666667,0.858933329582214,-0.807493031024933,9.44407939910889,-0.0609759986400604,1.61586391925812,0.99848198890686,-1221.90002441406,-9.30000019073486,-959.700012207031,2.06495703200491,0.0882833750567239,0.085586823359348,ST
14.4,0.619077980518341,-0.839792728424072,9.18986892700195,-0.480185985565186,2.14940404891968,1.6768399477005,-1224.30004882812,-8.70000076293945,-962.100036621094,2.05701261815285,0.0636703369874633,0.0919596891020783,ST
14.4333333333333,2.17006278038025,-1.11134958267212,8.06177139282227,-1.03659200668335,7.0732159614563,2.9116039276123,-1214.70007324219,-8.10000038146973,-964.500061035156,2.03978451116942,0.244331139580284,0.1387129107953,ST
14.4666666666667,-0.810483753681183,-1.3559901714325,10.130747795105,-1.10518991947174,10.3735418319702,2.17989206314087,-1197.90002441406,-8.10000038146973,-971.700012207031,2.03618935567236,-0.08818504171248,0.135071628335816,ST
14.5,0.661546111106873,-1.18193054199219,11.2929391860962,0.274392008781433,9.35981559753418,3.06404399871826,-1183.5,-8.10000038146973,-976.500061035156,2.02516298429751,0.0378404752783704,0.104751788326713,ST
14.5333333333333,0.233275756239891,-1.10835897922516,9.72460842132568,0.0762199983000755,11.0061674118042,2.44666194915771,-1171.5,-7.50000047683716,-966.900024414062,2.0186651916506,0.0051744586752289,0.113135057736508,ST
14.5666666666667,-1.46545028686523,-1.34103655815125,10.1821880340576,-0.243903994560242,13.3918533325195,2.21037983894348,-1147.5,-6.30000019073486,-976.500061035156,2.01721164671203,-0.160761022427986,0.130766813583971,ST
14.6,-3.5553617477417,-1.39307498931885,11.1069164276123,0.800309956073761,10.9604358673096,1.91312193870544,-1130.70007324219,-6.30000019073486,-976.500061035156,2.0138082343826,-0.323483270688724,0.123234737569774,ST
14.6333333333333,-4.00396919250488,-1.0335910320282,9.90764045715332,2.5000159740448,5.97564792633057,1.96647596359253,-1116.30004882812,-8.10000038146973,-976.500061035156,2.00375238179444,-0.391021746612735,0.0993092862813699,ST
14.6666666666667,-3.37233018875122,-0.308043628931046,7.75791454315186,3.10977602005005,1.64635193347931,2.41617393493652,-1111.5,-9.30000019073486,-976.500061035156,1.97315455084131,-0.412362813102761,0.0338624385538506,ST
14.7,-3.23057007789612,0.211742609739304,8.59830474853516,3.29270386695862,-1.64635193347931,2.14178204536438,-1113.90002441406,-9.30000019073486,-971.700012207031,1.94475115583074,-0.357506192527036,-0.0304181367156718,ST
14.7333333333333,-3.34601187705994,0.537132382392883,8.63957691192627,2.53812599182129,-0.205793991684914,2.27897787094116,-1113.90002441406,-12.3000001907349,-976.500061035156,1.92502438380036,-0.3680191051256,-0.067260269148261,ST
14.7666666666667,-2.17843675613403,0.573020994663239,8.60428619384766,0.922261953353882,-1.79879200458527,2.77440786361694,-1116.30004882812,-11.7000007629395,-974.100036621094,1.91187584552616,-0.246542936225703,-0.069276445820379,ST
14.8,-1.52466642856598,0.613096535205841,8.55045413970947,0.228659987449646,-1.69970595836639,2.28659987449646,-1116.30004882812,-11.7000007629395,-969.300048828125,1.90043850872566,-0.1747738993973,-0.0725811276025709,ST
14.8333333333333,-2.73291516304016,0.33137121796608,8.51695823669434,0.0762199983000755,-1.09756803512573,2.24848985671997,-1118.70007324219,-12.9000005722046,-974.100036621094,1.89649108712495,-0.305427603110626,-0.0409023673811794,ST
14.8666666666667,-2.86331033706665,0.530552804470062,9.23293495178223,0.129574000835419,-0.739333987236023,2.32470989227295,-1125.90002441406,-9.90000057220459,-974.100036621094,1.87913209128464,-0.298848668555159,-0.0585307484488489,ST
14.9,-2.70300817489624,0.409727931022644,9.48056602478027,-0.655492007732391,-1.53202199935913,1.02897000312805,-1125.90002441406,-10.5,-976.500061035156,1.87784299189044,-0.275400274765099,-0.0429578072792167,ST
14.9333333333333,-2.84237551689148,0.20755560696125,10.7157316207886,-1.02134799957275,-1.98934197425842,-0.0762199983000755,-1125.90002441406,-11.1000003814697,-976.500061035156,1.88360757313328,-0.256234362934095,-0.0181334813272765,ST
14.9666666666667,-2.50741529464722,0.286510497331619,9.86218166351318,-1.37195992469788,-0.899396002292633,-0.78506600856781,-1128.30004882812,-11.1000003814697,-976.500061035156,1.88391666291034,-0.24757907225824,-0.0260691606104497,ST
15.0,-2.01394748687744,0.209350034594536,9.24310302734375,-1.32622802257538,-0.868907988071442,-1.37195992469788,-1130.70007324219,-10.5,-976.500061035156,1.89081047482909,-0.213954374617909,-0.0199675775823964,ST
15.0333333333333,-1.61199533939362,0.0921140164136887,8.36861801147461,-1.33385002613068,-1.03659200668335,-1.92074394226074,-1133.10009765625,-9.30000019073486,-981.300048828125,1.90160825402405,-0.189197676393481,-0.0083502595980219,ST
15.0666666666667,-2.05462121963501,-0.201574176549911,8.74903678894043,-1.37195992469788,-0.0533539988100529,-2.25611186027527,-1128.30004882812,-8.70000076293945,-978.900024414062,1.91850015258117,-0.22929881952004,0.0253814523818544,ST
15.1,-2.17963290214539,-0.272753208875656,9.44826602935791,-0.640248000621796,-0.259148001670837,-1.58537602424622,-1130.70007324219,-7.50000047683716,-981.300048828125,1.92753249424177,-0.226155985244911,0.0305172344378947,ST
15.1333333333333,-2.22808265686035,0.0921140164136887,9.96625804901123,-0.297257989645004,-0.815553963184357,-1.85976791381836,-1130.70007324219,-6.90000009536743,-976.500061035156,1.92831364590446,-0.218738753009381,-0.0069502119335512,ST
15.1666666666667,-2.515789270401,0.0657957270741463,10.5392789840698,-0.259148001670837,0.594515979290009,-1.6692179441452,-1128.30004882812,-8.70000076293945,-971.700012207031,1.9368188214161,-0.234916856001556,-0.0051495530776305,ST
15.2,-2.07854676246643,-0.0514402948319912,9.73058986663818,-0.442075997591019,-0.236281991004944,-2.75154185295105,-1130.70007324219,-7.50000047683716,-974.100036621094,1.95287048014973,-0.210683046094445,0.0067629198752461,ST
15.2333333333333,-2.13357591629028,-0.352904349565506,9.19345760345459,-0.487807989120483,-0.182927995920181,-3.20123982429504,-1123.5,-8.70000076293945,-981.300048828125,1.97558169513676,-0.22690120815563,0.0395738918081434,ST
15.2666666666667,-2.51220059394836,-0.721360445022583,8.92010593414307,-0.503051996231079,0.533540010452271,-3.25459384918213,-1125.90002441406,-8.70000076293945,-971.700012207031,2.0028802567032,-0.273175846762889,0.0822413901724929,ST
15.3,-2.35907578468323,-0.923532724380493,9.07681941986084,0.0685980021953583,-0.685979962348938,-2.85062789916992,-1133.10009765625,-8.70000076293945,-978.900024414062,2.02372653670733,-0.251674611294325,0.102210056433595,ST
15.3333333333333,-1.93858134746552,-0.806894838809967,8.57318305969238,0.228659987449646,-0.823175966739655,-2.5000159740448,-1125.90002441406,-7.50000047683716,-978.900024414062,2.03437073287117,-0.220463607972472,0.0946096856977099,ST
15.3666666666667,-2.09589290618896,-1.16697692871094,9.7180290222168,-0.0914639979600906,-1.2576299905777,-2.17989206314087,-1130.70007324219,-8.10000038146973,-978.900024414062,2.04987741347354,-0.208653529660497,0.119718057779052,ST
15.4,-1.58507883548737,-1.2058562040329,9.85500335693359,0.0076219998300075,-2.01982998847961,-1.97409796714783,-1133.10009765625,-8.70000076293945,-981.300048828125,2.05908071105568,-0.155873145654694,0.122158516029634,ST
15.4333333333333,-1.71128702163696,-1.35000872612,8.91113376617432,-0.129574000835419,-1.51677799224854,-1.6692179441452,-1133.10009765625,-8.10000038146973,-978.900024414062,2.07105518095499,-0.183811520216078,0.150244103104603,ST
15.4666666666667,-1.92123520374298,-1.67719292640686,9.82449817657471,-0.0685980021953583,-1.11281192302704,-0.67835795879364,-1135.5,-8.10000038146973,-974.100036621094,2.07691795054991,-0.188197144296632,0.168843777433346,ST
15.5,-1.93678689002991,-1.64668762683868,9.09655857086182,0.525918006896973,-0.609759986400604,-0.228659987449646,-1135.5,-6.30000019073486,-974.100036621094,2.07988368031469,-0.204995598593115,0.177984086001935,ST
15.5333333333333,-2.03847122192383,-1.45707631111145,9.09356784820557,0.868907988071442,-0.160062000155449,0.617381989955902,-1128.30004882812,-6.90000009536743,-966.900024414062,2.07336504158284,-0.217381035254612,0.157689533636996,ST
15.5666666666667,-2.49664878845215,-1.18492126464844,10.1516828536987,1.49391198158264,-0.655492007732391,1.265251994133,-1135.5,-8.70000076293945,-976.500061035156,2.05857633310211,-0.238133856194718,0.114247309019868,ST
15.6,-1.54320883750916,-0.909177303314209,9.86995697021484,1.74543797969818,-1.83690190315247,1.6920839548111,-1135.5,-6.90000009536743,-978.900024414062,2.04577925469432,-0.153888290543608,0.0889816049831551,ST
15.6333333333333,-1.95413303375244,-0.736313998699188,9.20841121673584,1.27287399768829,-0.0304879993200302,1.85214591026306,-1137.90002441406,-9.30000019073486,-976.500061035156,2.03550698663629,-0.207174217762471,0.0772364363469174,ST
15.6666666666667,-2.31242084503174,-0.712388277053833,9.2999267578125,0.693601965904236,0.0076219998300075,1.86738991737366,-1130.70007324219,-9.30000019073486,-971.700012207031,2.02633180249009,-0.242298253636595,0.0745242691847399,ST
15.7,-2.73710227012634,-0.848764896392822,9.71982288360596,0.586893975734711,0.663114011287689,2.41617393493652,-1137.90002441406,-8.70000076293945,-976.500061035156,2.01663779815031,-0.274500158194861,0.084766595656427,ST
15.7333333333333,-1.83330821990967,-0.445018380880356,9.51645469665527,1.08994603157043,-1.04421401023865,2.13416004180908,-1137.90002441406,-9.30000019073486,-971.700012207031,1.99632425136311,-0.189813108577311,0.0446983441661585,ST
15.7666666666667,-1.64549136161804,-0.553282260894775,9.40938663482666,0.632625997066498,-0.6250039935112,1.59299790859222,-1133.10009765625,-9.30000019073486,-981.300048828125,1.9903415972012,-0.172272059434403,0.0568753312306932,ST
15.8,-1.41819703578949,-0.538328647613525,9.46321964263916,1.08232402801514,-0.899396002292633,1.41006994247437,-1140.30004882812,-10.5,-976.500061035156,1.98277700719388,-0.14754125452311,0.0545954838439942,ST
15.8333333333333,-1.89611327648163,-0.241051614284515,9.68453311920166,1.48628997802734,0.495429992675781,1.87501192092896,-1137.90002441406,-11.7000007629395,-981.300048828125,1.96923849903244,-0.192963740003622,0.0225699536263008,ST
15.8666666666667,-1.63891172409058,-0.131591454148293,9.94113636016846,1.75305998325348,-0.655492007732391,1.64635193347931,-1137.90002441406,-10.5,-976.500061035156,1.960123768929,-0.163100998467891,0.0100429925224929,ST
15.9,-1.26148355007172,0.445616513490677,8.88361930847168,1.73019397258759,-0.556405961513519,0.945127964019775,-1137.90002441406,-12.3000001907349,-971.700012207031,1.94735728989567,-0.140476785336812,-0.0516497256090386,ST
15.9333333333333,-2.01454544067383,0.872690618038177,8.96855545043945,1.49391198158264,0.282013982534409,0.693601965904236,-1145.10009765625,-11.7000007629395,-971.700012207031,1.93684554922188,-0.218153351735806,-0.0985489290646428,ST
15.9666666666667,-1.85364508628845,1.08981645107269,9.22575759887695,1.35671591758728,-0.548784017562866,1.12043392658234,-1142.70007324219,-12.9000005722046,-971.700012207031,1.9285666087581,-0.19637541268753,-0.119728287127196,ST
16.0,-1.30155909061432,1.1376678943634,9.23293495178223,0.571649968624115,-0.846041977405548,1.18903195858002,-1142.70007324219,-14.1000003814697,-974.100036621094,1.92268531919843,-0.1386906471362,-0.123772979412613,ST
16.0333333333333,-1.43374872207642,0.549693405628204,9.53978252410889,-0.815553963184357,0.137196004390717,0.274392008781433,-1145.10009765625,-11.1000003814697,-981.300048828125,1.93003278815305,-0.148863749303872,-0.0580497776649906,ST
16.0666666666667,-1.89372062683105,-0.0143554313108325,9.80057239532471,-1.31860601902008,0.282013982534409,-0.388722002506256,-1140.30004882812,-11.1000003814697,-974.100036621094,1.9409551354941,-0.190217494084117,0.0021944642311886,ST
16.1,-1.94276833534241,-0.282323479652405,10.1277570724487,-0.914639949798584,-0.152439996600151,-0.640248000621796,-1140.30004882812,-11.1000003814697,-974.100036621094,1.94834561679535,-0.189186766149821,0.0289298368228523,ST
16.1333333333333,-1.81715834140778,-0.250621914863586,9.60378360748291,-0.213415995240211,0.114329993724823,-1.12805593013763,-1140.30004882812,-11.7000007629395,-974.100036621094,1.95351596143859,-0.187143251099061,0.0268937242363011,ST
16.1666666666667,-1.93140363693237,-0.244640469551086,8.70118618011475,-0.182927995920181,0.205793991684914,-1.43293595314026,-1142.70007324219,-11.1000003814697,-969.300048828125,1.9610208643089,-0.217774650343233,0.0289189536373217,ST
16.2,-2.30524301528931,-0.43425178527832,9.41776084899902,-0.160062000155449,0.182927995920181,-1.34909391403198,-1140.30004882812,-9.90000057220459,-971.700012207031,1.97206560392879,-0.239562719335767,0.0465551460908077,ST
16.2333333333333,-2.29806518554688,-0.337950766086578,9.03195858001709,-0.160062000155449,0.663114011287689,-1.12043392658234,-1137.90002441406,-11.1000003814697,-978.900024414062,1.9756547608998,-0.249777719461826,0.038415353225136,ST
16.2666666666667,-2.30285048484802,-0.567039549350739,9.41596698760986,-0.228659987449646,0.190549999475479,-1.38720393180847,-1137.90002441406,-11.1000003814697,-971.700012207031,1.98774855397172,-0.239911021503144,0.0605282675180137,ST
16.3,-2.26815819740295,-0.401353925466537,9.98480033874512,0.0457319989800453,-0.708845973014832,-1.69970595836639,-1135.5,-10.5,-971.700012207031,1.99179945162065,-0.22232620676642,0.0412943883741518,ST
16.3333333333333,-2.04804158210754,-0.315221339464188,9.76169300079346,0.0304879993200302,0.0685980021953583,-1.10518991947174,-1133.10009765625,-9.90000057220459,-981.300048828125,1.99597700388121,-0.207077740728186,0.0328141353108504,ST
16.3666666666667,-1.59345293045044,-0.425877809524536,10.486044883728,0.0381099991500378,-0.388722002506256,-1.11281192302704,-1140.30004882812,-8.70000076293945,-978.900024414062,2.00318167838276,-0.151287175481978,0.0406365998593339,ST
16.4,-1.43793570995331,-0.221911042928696,8.29624271392822,-0.0076219998300075,0.0990860015153885,-1.31860601902008,-1135.5,-11.7000007629395,-976.500061035156,2.00782402460539,-0.171110943699515,0.0275179304850592,ST
16.4333333333333,-2.58397769927979,-0.633433401584625,9.26344013214111,-0.365855991840363,1.74543797969818,-0.708845973014832,-1133.10009765625,-10.5,-978.900024414062,2.02035965630456,-0.271573949006383,0.0681295616891574,ST
16.4666666666667,-2.12938904762268,-0.745884299278259,9.11330604553223,-0.152439996600151,-0.106707997620106,-0.579271972179413,-1128.30004882812,-9.90000057220459,-978.900024414062,2.02642157943129,-0.22970568523384,0.0817871267720966,ST
16.5,-1.96848857402802,-0.750669419765472,8.83576774597168,-0.129574000835419,-0.724089980125427,0.106707997620106,-1130.70007324219,-10.5,-981.300048828125,2.02610456958155,-0.217541132126891,0.0848307176991575,ST
16.5333333333333,-1.45827257633209,-0.900205194950104,9.1210823059082,-0.259148001670837,-0.960371971130371,0.182927995920181,-1130.70007324219,-11.1000003814697,-978.900024414062,2.02700663093593,-0.15781794739306,0.0983741755189984,ST
16.5666666666667,-1.36556041240692,-1.00667464733124,9.19585037231445,-0.365855991840363,-1.12043392658234,0.327746003866196,-1135.5,-8.70000076293945,-978.900024414062,2.02594347276579,-0.144947439012706,0.109328801849917,ST
16.6,-1.63412654399872,-1.37034559249878,9.66300010681152,-0.617381989955902,-0.846041977405548,0.144817993044853,-1135.5,-8.10000038146973,-971.700012207031,2.0288892551116,-0.164119835063504,0.141288369888938,ST
16.6333333333333,-1.7926344871521,-1.6143878698349,9.84244251251221,-0.571649968624115,-0.228659987449646,1.08232402801514,-1133.10009765625,-10.5,-981.300048828125,2.02601536726557,-0.177460611717892,0.162774020877089,ST
16.6666666666667,-1.75495147705078,-1.59584546089172,11.3114814758301,0.121951997280121,-1.21189796924591,2.01982998847961,-1137.90002441406,-8.10000038146973,-978.900024414062,2.01124838461084,-0.151564277376108,0.139990011900361,ST
16.7,-1.41400992870331,-1.17893981933594,8.97393894195557,0.724089980125427,0.182927995920181,2.28659987449646,-1137.90002441406,-8.10000038146973,-978.900024414062,1.99866314927186,-0.155692360136469,0.129054328273468,ST
16.7333333333333,-1.75674593448639,-0.986935913562775,8.61026763916016,0.640248000621796,1.18140995502472,2.27897787094116,-1135.5,-10.5,-981.300048828125,1.98555469720016,-0.20122264557459,0.112724489721437,ST
16.7666666666667,-2.61089396476746,-0.915158748626709,8.58993148803711,0.632625997066498,1.265251994133,2.0579400062561,-1133.10009765625,-11.1000003814697,-976.500061035156,1.97477773352854,-0.293499785039153,0.104291336896244,ST
16.8,-2.52416324615479,-0.640611112117767,9.42015361785889,1.18903195858002,-0.213415995240211,2.83538389205933,-1135.5,-9.90000057220459,-978.900024414062,1.95077293264458,-0.26186393321307,0.0652986631682067,ST
16.8333333333333,-1.98344206809998,-0.44322395324707,9.61455059051514,1.34147191047668,-1.10518991947174,2.22562384605408,-1140.30004882812,-11.1000003814697,-978.900024414062,1.93542868799517,-0.202914569066121,0.0434155193618267,ST
16.8666666666667,-1.52825534343719,-0.193798318505287,8.92070388793945,1.01372599601746,-0.365855991840363,1.6615959405899,-1135.5,-9.90000057220459,-978.900024414062,1.92279239491204,-0.169663145151456,0.0198750423680468,ST
16.9,-3.66422390937805,-0.473729223012924,10.3071994781494,0.449698001146317,1.49391198158264,1.04421401023865,-1137.90002441406,-11.1000003814697,-976.500061035156,1.92441867504836,-0.340289538331561,0.0440088375221732,ST
16.9333333333333,-2.57440733909607,-0.541319370269775,9.77604866027832,0.83841997385025,-0.564027965068817,0.685979962348938,-1133.10009765625,-9.90000057220459,-976.500061035156,1.92482127501642,-0.258484699947101,0.0532619118289083,ST
16.9666666666667,-1.44092643260956,-0.226098045706749,9.56789493560791,1.18903195858002,-1.38720393180847,0.358233988285065,-1142.70007324219,-11.1000003814697,-976.500061035156,1.91761047090992,-0.150068165921194,0.0222895323725802,ST
17.0,-0.823044717311859,-0.0005981429712846,8.9655647277832,1.40244793891907,-2.03507399559021,0.228659987449646,-1133.10009765625,-10.5,-976.500061035156,1.91421692944862,-0.0891110267357256,-0.001975884233195,ST
17.0333333333333,-1.26925933361053,0.174059599637985,9.08220291137695,1.2423859834671,-0.0609759986400604,0.739333987236023,-1142.70007324219,-12.3000001907349,-974.100036621094,1.90876817029858,-0.137802740200032,-0.0211526028264411,ST
17.0666666666667,-1.64549136161804,0.215929612517357,10.1104106903076,0.800309956073761,-0.0838419944047928,0.25152599811554,-1137.90002441406,-12.3000001907349,-971.700012207031,1.90780520742053,-0.160780318189545,-0.022795072246164,ST
17.1,-0.522178828716278,0.252416342496872,9.87892913818359,1.01372599601746,-2.080806016922,0.304879993200302,-1145.10009765625,-9.90000057220459,-976.500061035156,1.90648873778201,-0.0521868584748833,-0.0272209026686614,ST
17.1333333333333,-1.49894630908966,0.228490620851517,9.42972373962402,0.396344006061554,0.205793991684914,-0.0990860015153885,-1135.5,-12.9000005722046,-969.300048828125,1.90748543110921,-0.155439225230014,-0.0249529447463843,ST
17.1666666666667,-1.38051402568817,0.596946656703949,8.78432750701904,-0.0152439996600151,-0.167683988809586,0.121951997280121,-1140.30004882812,-12.3000001907349,-976.500061035156,1.90043707878081,-0.155233216343045,-0.0666880180018103,ST
17.2,-1.73880159854889,0.180639177560806,8.89618015289307,-0.365855991840363,0.754577994346619,-0.0381099991500378,-1142.70007324219,-12.3000001907349,-974.100036621094,1.90808594729143,-0.193242566046954,-0.0209468439791426,ST
17.2333333333333,-2.4356381893158,-0.241051614284515,9.4793701171875,-0.922261953353882,0.0838419944047928,-0.586893975734711,-1137.90002441406,-11.1000003814697,-969.300048828125,1.9205407369539,-0.250497304883254,0.0264093862649731,ST
17.2666666666667,-2.34113168716431,-0.52337509393692,9.51226806640625,-0.701223969459534,0.289635986089706,-0.480185985565186,-1135.5,-10.5,-974.100036621094,1.92924935485564,-0.241679956803615,0.055588366440754,ST
17.3,-2.47810626029968,-0.464158952236176,10.6828336715698,0.190549999475479,-0.564027965068817,-0.160062000155449,-1140.30004882812,-12.9000005722046,-981.300048828125,1.92733647462088,-0.227143077917018,0.0434814330233896,ST
17.3333333333333,-2.23765277862549,-0.318810194730759,9.68393516540527,0.525918006896973,0.297257989645004,0.167683988809586,-1137.90002441406,-11.7000007629395,-971.700012207031,1.92462536491141,-0.227483262348413,0.0322423106049229,ST
17.3666666666667,-2.539715051651,-0.312828779220581,9.48056602478027,-0.0,-0.0533539988100529,0.388722002506256,-1137.90002441406,-12.9000005722046,-969.300048828125,1.92279809602977,-0.260607405971708,0.0327894659060934,ST
17.4,-2.08093929290771,-0.349315494298935,8.55224800109863,-0.640248000621796,1.17378795146942,-0.0076219998300075,-1135.5,-11.1000003814697,-978.900024414062,1.92444389629896,-0.240899124860662,0.0417986305994344,ST
17.4333333333333,-2.05402302742004,-0.181237325072289,9.89148998260498,-0.160062000155449,-0.777444005012512,0.0381099991500378,-1137.90002441406,-11.1000003814697,-969.300048828125,1.91898184847769,-0.204380315074379,0.0192058822020736,ST
17.4666666666667,-1.78485858440399,0.0299071483314037,8.73228931427002,-0.564027965068817,-0.449698001146317,0.198172003030777,-1137.90002441406,-10.5,-976.500061035156,1.91312565595495,-0.200932779433138,-0.0019204064025287,ST
