seconds,sensor_accX_m_s_,sensor_accY_m_s_,sensor_accZ_m_s_,sensor_gyroX___s_,sensor_gyroY___s_,sensor_gyroZ___s_,sensor_magX__T_,sensor_magY__T_,sensor_magZ__T_,sensor_yaw___,sensor_pitch___,sensor_roll___,label1
0.0,0.0346922911703587,-0.855344474315643,9.58763408660889,0.411587983369827,-0.0990860015153885,0.274392008781433,-1166.70007324219,3.30000019073486,-938.100036621094,2.82936788826138,0.0041338840876845,0.0887338371933146,ST
0.0333333333333333,-0.0269164331257343,-0.836802005767822,9.56968975067139,0.411587983369827,-0.0076219998300075,0.282013982534409,-1171.5,6.30000019073486,-940.500061035156,2.82839617119576,-0.0022015241157271,0.0867042487690063,ST
0.0666666666666667,-0.068188302218914,-0.805698573589325,9.55952072143555,0.396344006061554,-0.121951997280121,0.449698001146317,-1176.30004882812,12.9000005722046,-945.300048828125,2.82675744133555,-0.0065682994301629,0.083661488807127,ST
0.1,-0.0580198690295219,-0.842185318470001,9.5625114440918,0.289635986089706,-0.205793991684914,0.411587983369827,-1173.90002441406,8.70000076293945,-947.700012207031,2.82521734295327,-0.0058099557996481,0.087057906620595,ST
0.133333333333333,-0.0520384386181831,-0.907382905483246,9.53978252410889,0.259148001670837,-0.198172003030777,0.37347799539566,-1164.30004882812,5.10000038146973,-959.700012207031,2.82378991153831,-0.0051918178499056,0.0938717056495821,ST
0.166666666666667,-0.0107665732502937,-0.913364291191101,9.55533409118652,0.221037998795509,-0.236281991004944,0.205793991684914,-1171.5,2.10000014305115,-938.100036621094,2.82301003474879,-0.0011472774179676,0.0948167537536571,ST
0.2,0.0645994395017624,-0.930112302303314,9.56729698181152,0.304879993200302,-0.388722002506256,0.121951997280121,-1178.70007324219,12.3000001907349,-954.900024414062,2.82245468408983,0.0066043199799788,0.0962409809095487,ST
0.233333333333333,0.104076877236366,-0.919943869113922,9.56370830535889,0.297257989645004,-0.335367977619171,0.0609759986400604,-1166.70007324219,8.70000076293945,-947.700012207031,2.82213155619285,0.0109703338757828,0.0954568930484745,ST
0.266666666666667,0.0275145769119263,-0.930710434913635,9.57746505737305,0.3125019967556,-0.213415995240211,0.0533539988100529,-1181.10009765625,9.30000019073486,-952.500061035156,2.82186415997462,0.0039221735230095,0.0962494774097609,ST
0.3,0.0460570082068443,-0.952841758728027,9.60916709899902,0.297257989645004,-0.228659987449646,0.190549999475479,-1171.5,14.1000003814697,-940.500061035156,2.82109639934263,0.0050341400161771,0.0981484346264554,ST
0.333333333333333,0.0203368607908487,-0.946860313415527,9.59361553192139,0.297257989645004,-0.205793991684914,0.243903994560242,-1173.90002441406,-0.900000035762787,-954.900024414062,2.82010245096365,0.002604676236497,0.0978806684929727,ST
0.366666666666667,0.0005981429712846,-0.913962483406067,9.58464336395264,0.335367977619171,-0.137196004390717,0.365855991840363,-1176.30004882812,8.70000076293945,-940.500061035156,2.81876217194365,0.0004351059350225,0.0947654367622252,ST
0.4,-0.0143554313108325,-0.930710434913635,9.57866191864014,0.327746003866196,-0.167683988809586,0.37347799539566,-1176.30004882812,5.10000038146973,-950.100036621094,2.81742308850749,-0.0011091440523598,0.0961506151913451,ST
0.433333333333333,0.0065795728005468,-0.938486337661743,9.5924186706543,0.289635986089706,-0.152439996600151,0.403965979814529,-1166.70007324219,11.7000007629395,-928.500061035156,2.81598294035029,0.0006994814369286,0.096941891654784,ST
0.466666666666667,-0.0448607243597507,-0.951645493507385,9.58284854888916,0.3125019967556,-0.137196004390717,0.37347799539566,-1159.5,11.1000003814697,-950.100036621094,2.81465666498421,-0.004015023066198,0.0983001535680504,ST
0.5,0.042468149214983,-0.951645493507385,9.57387638092041,0.320124000310898,-0.198172003030777,0.289635986089706,-1171.5,9.30000019073486,-945.300048828125,2.81359253183078,0.003919456508976,0.0984976539519847,ST
0.533333333333333,0.0364867225289345,-0.980954468250275,9.53021240234375,0.342989981174469,-0.213415995240211,0.282013982534409,-1173.90002441406,5.70000028610229,-947.700012207031,2.81243577532756,0.0041148710892733,0.101734484561871,ST
0.566666666666667,-0.0442625805735588,-0.952841758728027,9.55832481384277,0.3125019967556,-0.129574000835419,0.274392008781433,-1190.70007324219,11.7000007629395,-945.300048828125,2.81138884592048,-0.0037860715893787,0.0990327788000536,ST
0.6,-0.0173461455851793,-0.926523447036743,9.55832481384277,0.335367977619171,-0.121951997280121,0.396344006061554,-1176.30004882812,10.5,-947.700012207031,2.80989503874813,-0.0018215584409144,0.0962701931276923,ST
0.633333333333333,0.0167480036616325,-0.974973022937775,9.56550216674805,0.358233988285065,-0.152439996600151,0.403965979814529,-1171.5,8.10000038146973,-947.700012207031,2.80836644403482,0.0016529683977558,0.100597671711498,ST
0.666666666666667,0.0370848625898361,-0.952841758728027,9.57387638092041,0.350611984729767,-0.114329993724823,0.266770005226135,-1173.90002441406,10.5,-935.700012207031,2.80732410710853,0.003845234692544,0.0987263148446723,ST
0.7,-0.0197387188673019,-0.908579170703888,9.63070011138916,0.327746003866196,0.0228659994900227,0.396344006061554,-1161.90002441406,14.1000003814697,-938.100036621094,2.80584960786864,-0.0017340658899411,0.0938508432764019,ST
0.733333333333333,0.0711790099740028,-0.955832481384277,9.56490421295166,0.3125019967556,0.0152439996600151,0.396344006061554,-1181.10009765625,7.50000047683716,-947.700012207031,2.80439350008399,0.0066285512134055,0.098665821809642,ST
0.766666666666667,-0.0197387188673019,-0.953439891338348,9.55593204498291,0.289635986089706,0.198172003030777,0.396344006061554,-1164.30004882812,16.5,-950.100036621094,2.80305648580878,-0.0017160463989514,0.0989174725557858,ST
0.8,-0.0400755777955055,-0.96958976984024,9.55473613739014,0.358233988285065,0.228659987449646,0.37347799539566,-1164.30004882812,8.70000076293945,-933.300048828125,2.80185941002433,-0.0043710167791228,0.100360196060582,ST
0.833333333333333,-0.0992917343974113,-0.945065915584564,9.59540939331055,0.259148001670837,0.25152599811554,0.304879993200302,-1161.90002441406,5.10000038146973,-952.500061035156,2.80088634740018,-0.0102065182595097,0.0979572216691483,ST
0.866666666666667,-0.111852735280991,-0.963010191917419,9.62651252746582,0.335367977619171,0.243903994560242,0.434453994035721,-1166.70007324219,11.1000003814697,-947.700012207031,2.79949987392966,-0.0118918116019269,0.0990075765553665,ST
0.9,-0.154919028282166,-0.964206457138062,9.5086784362793,0.37347799539566,0.228659987449646,0.388722002506256,-1169.10009765625,6.30000019073486,-938.100036621094,2.79820384423938,-0.0163121424524098,0.100291033416434,ST
0.933333333333333,-0.227294325828552,-0.915158748626709,9.56490421295166,0.289635986089706,0.419209986925125,0.480185985565186,-1176.30004882812,15.9000005722046,-947.700012207031,2.7965231484526,-0.0238453910363866,0.0952751037849816,ST
0.966666666666667,-0.157311603426933,-0.888840436935425,9.51226806640625,0.182927995920181,0.556405961513519,0.586893975734711,-1171.5,3.30000019073486,-945.300048828125,2.7946510341491,-0.0180985916063846,0.0930545095948244,ST
1.0,-0.158507883548737,-0.937290012836456,9.51705265045166,0.0762199983000755,0.693601965904236,0.602137982845306,-1161.90002441406,6.30000019073486,-952.500061035156,2.79289507826641,-0.0178995187547351,0.0975700203325434,ST
1.03333333333333,-0.1722651720047,-0.979758203029633,9.47159385681152,-0.0914639979600906,0.670735955238342,0.442075997591019,-1169.10009765625,6.30000019073486,-950.100036621094,2.79169758759621,-0.0192023674691744,0.102711235326072,ST
1.06666666666667,-0.14355431497097,-1.03179657459259,9.39024639129639,-0.0609759986400604,1.2576299905777,0.403965979814529,-1164.30004882812,5.10000038146973,-959.700012207031,2.79088161424957,-0.017611251868811,0.108921137570493,ST
1.1,-0.173461467027664,-1.0916109085083,9.47996807098389,-0.274392008781433,2.01220798492432,0.365855991840363,-1161.90002441406,9.30000019073486,-971.700012207031,2.79045443982168,-0.0214537486573291,0.11469250258062,ST
1.13333333333333,-0.409129798412323,-1.12749946117401,9.54277324676514,-0.327746003866196,2.37044191360474,0.259148001670837,-1149.90002441406,10.5,-952.500061035156,2.79058788712188,-0.0449772267071333,0.11794125363654,ST
1.16666666666667,-0.492869794368744,-1.15142524242401,9.4853515625,-0.289635986089706,3.10215401649475,0.381099998950958,-1154.70007324219,8.70000076293945,-959.700012207031,2.79066316708659,-0.0559987396204873,0.121026014346015,ST
1.2,-0.747080564498901,-1.17236018180847,9.43690204620361,-0.442075997591019,4.00154972076416,0.426831990480423,-1137.90002441406,15.3000001907349,-952.500061035156,2.79100604914555,-0.0832042609987514,0.124127090500774,ST
1.23333333333333,-1.10536825656891,-1.12032175064087,9.31727313995361,-0.609759986400604,4.61131000518799,0.426831990480423,-1135.5,5.10000038146973,-942.900024414062,2.7909503287011,-0.121845569683446,0.121039336929313,ST
1.26666666666667,-1.41759884357452,-1.06050753593445,9.73358058929443,-0.724089980125427,4.70277404785156,0.792688012123108,-1125.90002441406,13.5000009536743,-950.100036621094,2.78836443483053,-0.149361276647355,0.110749548818582,ST
1.3,-1.70829629898071,-1.2578946352005,9.47398662567139,-0.457319974899292,3.05642199516296,0.891773998737335,-1106.70007324219,17.1000003814697,-959.700012207031,2.78961701327838,-0.179382830081813,0.130662078744505,ST
1.33333333333333,-1.86142086982727,-1.34881234169006,9.04451942443848,-0.609759986400604,2.12653803825378,1.16616594791412,-1111.5,12.3000001907349,-952.500061035156,2.78921830063812,-0.203034064554946,0.147556612092776,ST
1.36666666666667,-1.94516098499298,-1.27942776679993,9.25446796417236,-0.350611984729767,1.97409796714783,1.12043392658234,-1109.10009765625,15.3000001907349,-950.100036621094,2.78433039435396,-0.208424002825129,0.138577035182066,ST
1.4,-1.92362785339355,-1.36077523231506,9.33641338348389,-0.297257989645004,1.53202199935913,1.00610399246216,-1106.70007324219,9.90000057220459,-969.300048828125,2.78236901717642,-0.204297313656604,0.144568616412751,ST
1.43333333333333,-2.00557327270508,-1.37333631515503,9.26104736328125,-0.0228659994900227,0.830797970294952,0.693601965904236,-1106.70007324219,5.70000028610229,-969.300048828125,2.7809067433264,-0.211884698221972,0.146823867347396,ST
1.46666666666667,-2.00377893447876,-1.35778450965881,9.25327205657959,0.0533539988100529,0.655492007732391,0.487807989120483,-1109.10009765625,9.90000057220459,-954.900024414062,2.77929446915674,-0.212285764579507,0.145560125671989,ST
1.5,-2.11264085769653,-1.35898077487946,9.3358154296875,0.274392008781433,0.190549999475479,0.381099998950958,-1087.5,11.7000007629395,-950.100036621094,2.77796945413895,-0.220027057676268,0.144070942320016,ST
1.53333333333333,-2.07974314689636,-1.36974740028381,9.25745868682861,0.365855991840363,-0.144817993044853,0.282013982534409,-1099.5,7.50000047683716,-957.300048828125,2.77764207179385,-0.218641783110515,0.145953508720497,ST
1.56666666666667,-2.06419134140015,-1.32727921009064,9.1270637512207,0.335367977619171,-0.106707997620106,0.320124000310898,-1101.90002441406,9.90000057220459,-954.900024414062,2.77629699719201,-0.219956691121207,0.143881943015939,ST
1.6,-2.0970892906189,-1.36436414718628,9.28557109832764,0.236281991004944,-0.0457319989800453,0.403965979814529,-1101.90002441406,13.5000009536743,-954.900024414062,2.77538982002554,-0.219865594512405,0.145188997206641,ST
1.63333333333333,-2.15690350532532,-1.37692511081696,9.39144325256348,0.358233988285065,-0.213415995240211,0.525918006896973,-1116.30004882812,9.30000019073486,-969.300048828125,2.77371290316388,-0.22290486138612,0.144775929089805,ST
1.66666666666667,-2.05701375007629,-1.37692511081696,9.30471229553223,0.365855991840363,-0.350611984729767,0.487807989120483,-1104.30004882812,8.70000076293945,-962.100036621094,2.77244363936094,-0.215550813242996,0.145954641127033,ST
1.7,-1.91704821586609,-1.33326065540314,9.13782978057861,0.327746003866196,-0.282013982534409,0.396344006061554,-1085.10009765625,9.30000019073486,-950.100036621094,2.77087338876233,-0.205317524982614,0.144315352948107,ST
1.73333333333333,-1.89790761470795,-1.37154185771942,9.28377723693848,0.236281991004944,-0.3125019967556,0.221037998795509,-1104.30004882812,20.7000007629395,-957.300048828125,2.77048245639277,-0.199628454711181,0.146000880456314,ST
1.76666666666667,-1.94456279277802,-1.37034559249878,9.16953182220459,0.243903994560242,-0.190549999475479,0.297257989645004,-1101.90002441406,14.7000007629395,-969.300048828125,2.76989329253822,-0.205868532237229,0.147641721060449,ST
1.8,-2.03248977661133,-1.37931764125824,9.15756893157959,0.282013982534409,0.114329993724823,0.403965979814529,-1097.10009765625,11.1000003814697,-962.100036621094,2.76903646023488,-0.215399463761843,0.148749247346393,ST
1.83333333333333,-2.10187435150146,-1.41939330101013,9.20661640167236,0.403965979814529,0.167683988809586,0.487807989120483,-1101.90002441406,12.3000001907349,-959.700012207031,2.76845515111449,-0.221708819124194,0.151780783019884,ST
1.86666666666667,-2.15750169754028,-1.37034559249878,9.26762676239014,0.480185985565186,-0.121951997280121,0.518296003341675,-1092.30004882812,17.7000007629395,-950.100036621094,2.76581884388337,-0.225859233151184,0.146295824141613,ST
1.9,-2.07495808601379,-1.37154185771942,9.18867206573486,0.419209986925125,-0.388722002506256,0.434453994035721,-1104.30004882812,11.1000003814697,-964.500061035156,2.76465074105866,-0.219728805034538,0.147169642046803,ST
1.93333333333333,-1.99002170562744,-1.36974740028381,9.18568134307861,0.304879993200302,-0.37347799539566,0.426831990480423,-1097.10009765625,16.5,-964.500061035156,2.76329303960669,-0.211377868525582,0.147301847176424,ST
1.96666666666667,-1.99420869350433,-1.37632691860199,9.09296989440918,0.365855991840363,-0.3125019967556,0.411587983369827,-1097.10009765625,14.1000003814697,-950.100036621094,2.762432254195,-0.212948493479557,0.149220871726882,ST
2.0,-2.00138640403748,-1.42358028888702,9.26284217834473,0.350611984729767,-0.266770005226135,0.274392008781433,-1113.90002441406,10.5,-962.100036621094,2.76212077889971,-0.210275960981598,0.151535740876373,ST
2.03333333333333,-2.0791449546814,-1.3721399307251,9.28856182098389,0.419209986925125,-0.350611984729767,0.320124000310898,-1106.70007324219,18.9000015258789,-950.100036621094,2.76007716337685,-0.216752701979485,0.146310965427148,ST
2.06666666666667,-1.98523652553558,-1.38589727878571,9.24370193481445,0.381099998950958,-0.320124000310898,0.365855991840363,-1113.90002441406,5.70000028610229,-954.900024414062,2.75929926676865,-0.209541148089571,0.147849810531647,ST
2.1,-1.92721664905548,-1.37154185771942,9.32325458526611,0.419209986925125,-0.327746003866196,0.434453994035721,-1106.70007324219,11.7000007629395,-950.100036621094,2.75734607382935,-0.201840391013941,0.145343642363557,ST
2.13333333333333,-2.00916218757629,-1.34163463115692,9.27001953125,0.449698001146317,-0.381099998950958,0.388722002506256,-1099.5,12.9000005722046,-945.300048828125,2.75570266323543,-0.209934672079313,0.143015161904481,ST
2.16666666666667,-1.93439435958862,-1.33864402770996,9.2879638671875,0.449698001146317,-0.320124000310898,0.480185985565186,-1094.70007324219,15.3000001907349,-959.700012207031,2.75410085513815,-0.203497450075162,0.142244216790569,ST
2.2,-1.94815170764923,-1.36436414718628,9.16953182220459,0.396344006061554,-0.274392008781433,0.411587983369827,-1106.70007324219,11.7000007629395,-942.900024414062,2.75363018261785,-0.206538293115187,0.146537424023167,ST
2.23333333333333,-2.00138640403748,-1.35000872612,9.21259784698486,0.274392008781433,-0.213415995240211,0.274392008781433,-1099.5,15.3000001907349,-954.900024414062,2.75249825394686,-0.210985849668417,0.14505940096843,ST
2.26666666666667,-1.99361050128937,-1.40085089206696,9.27360820770264,0.327746003866196,-0.289635986089706,0.3125019967556,-1106.70007324219,8.10000038146973,-947.700012207031,2.75233535823028,-0.209205750627784,0.148845255734574,ST
2.3,-2.15989422798157,-1.44092643260956,9.55712795257568,0.327746003866196,-0.403965979814529,0.198172003030777,-1106.70007324219,15.3000001907349,-957.300048828125,2.75173683954206,-0.218308951339877,0.148960643207375,ST
2.33333333333333,-2.2352602481842,-1.52227389812469,9.41357421875,0.342989981174469,-0.327746003866196,0.350611984729767,-1104.30004882812,13.5000009536743,-969.300048828125,2.75280059610662,-0.228743040049647,0.158601624710543,ST
2.36666666666667,-2.26277494430542,-1.56294763088226,9.20242977142334,0.213415995240211,-0.114329993724823,0.259148001670837,-1109.10009765625,11.7000007629395,-947.700012207031,2.75395500496345,-0.237032003715616,0.167056403007615,ST
2.4,-2.67848420143127,-1.5683308839798,9.29215145111084,0.0914639979600906,0.167683988809586,0.396344006061554,-1099.5,6.90000009536743,-959.700012207031,2.75274478677122,-0.274001277462429,0.166888285507586,ST
2.43333333333333,-2.51220059394836,-1.52347016334534,8.71314907073975,0.221037998795509,0.541162014007568,0.830797970294952,-1089.90002441406,9.30000019073486,-974.100036621094,2.75177635286818,-0.27761085654636,0.171939276439576,ST
2.46666666666667,-2.22808265686035,-1.67300593852997,8.79688835144043,0.221037998795509,0.564027965068817,0.670735955238342,-1104.30004882812,6.90000009536743,-974.100036621094,2.75373959333502,-0.248000223560741,0.185924948611294,ST
2.5,-2.53253722190857,-1.63352847099304,9.25028133392334,0.46494197845459,-0.0076219998300075,0.335367977619171,-1109.10009765625,15.9000005722046,-964.500061035156,2.7502635024463,-0.262041748089575,0.174923669297562,ST
2.53333333333333,-2.46913409233093,-1.50971281528473,8.84773063659668,0.769822001457214,-0.0457319989800453,0.403965979814529,-1092.30004882812,6.30000019073486,-966.900024414062,2.74783231570322,-0.267910415469381,0.16814292398571,ST
2.56666666666667,-2.60610890388489,-1.39546751976013,8.80825328826904,0.708845973014832,0.335367977619171,0.655492007732391,-1111.5,15.9000005722046,-962.100036621094,2.74335538169617,-0.283652384214953,0.156626708637933,ST
2.6,-2.94346165657043,-1.32369041442871,9.13842868804932,0.739333987236023,0.510673999786377,1.00610399246216,-1092.30004882812,6.30000019073486,-959.700012207031,2.73720812500822,-0.307368624277245,0.143381483139918,ST
2.63333333333333,-2.86510491371155,-1.32069969177246,9.05588436126709,0.960371971130371,0.304879993200302,1.2347639799118,-1097.10009765625,13.5000009536743,-957.300048828125,2.73390009580481,-0.304472836511531,0.142561782286249,ST
2.66666666666667,-2.70240998268127,-1.31172752380371,8.89857292175293,0.449698001146317,0.0228659994900227,0.899396002292633,-1099.5,11.1000003814697,-964.500061035156,2.73189679964424,-0.292977854843734,0.144926983625129,ST
2.7,-2.96260213851929,-0.882260859012604,8.83636569976807,0.221037998795509,-0.228659987449646,0.99848198890686,-1094.70007324219,14.1000003814697,-966.900024414062,2.71546626715433,-0.319841914129604,0.101767035332359,ST
2.73333333333333,-2.87288069725037,-1.17654716968536,8.88541412353516,0.114329993724823,-0.160062000155449,1.38720393180847,-1092.30004882812,12.3000001907349,-976.500061035156,2.71908944805578,-0.311011628414021,0.128279698739148,ST
2.76666666666667,-2.575603723526,-1.3440272808075,8.93864822387695,-0.0,-0.571649968624115,0.609759986400604,-1099.5,12.3000001907349,-974.100036621094,2.72229183799083,-0.279854628418221,0.147045633450475,ST
2.8,-2.63003468513489,-1.30933499336243,8.9416389465332,0.0838419944047928,-0.609759986400604,0.160062000155449,-1099.5,15.9000005722046,-952.500061035156,2.72106809127451,-0.281983030457536,0.145300632852523,ST
2.83333333333333,-2.85493636131287,-1.31471824645996,8.67068004608154,0.289635986089706,-0.243903994560242,-0.129574000835419,-1104.30004882812,10.5,-962.100036621094,2.7229231008444,-0.311347223578212,0.149594211112074,ST
2.86666666666667,-2.97277045249939,-1.40922486782074,8.82978630065918,0.403965979814529,0.0381099991500378,-0.198172003030777,-1082.70007324219,14.1000003814697,-962.100036621094,2.72630164356365,-0.320112951169186,0.156941266831533,ST
2.9,-2.95841503143311,-1.50732028484344,8.86089038848877,0.739333987236023,-0.221037998795509,-0.0304879993200302,-1097.10009765625,11.7000007629395,-957.300048828125,2.73015086411685,-0.317763104397276,0.166497656259889,ST
2.93333333333333,-3.25030899047852,-1.58627510070801,9.07203483581543,1.03659200668335,-0.381099998950958,0.0838419944047928,-1104.30004882812,6.30000019073486,-959.700012207031,2.73220283530264,-0.336758202136963,0.170772574378373,ST
2.96666666666667,-3.31550645828247,-1.60302317142487,8.98709774017334,1.29574000835419,-0.236281991004944,0.182927995920181,-1106.70007324219,6.30000019073486,-964.500061035156,2.73400696439762,-0.347004813399284,0.173806836347861,ST
3.0,-3.07445478439331,-1.47202980518341,9.00922966003418,1.41006994247437,-0.6250039935112,0.3125019967556,-1099.5,16.5,-971.700012207031,2.72989223109083,-0.325964516246952,0.160565914591076,ST
3.03333333333333,-3.10914707183838,-1.34522354602814,9.1210823059082,1.41006994247437,-1.21951997280121,0.487807989120483,-1087.5,12.3000001907349,-962.100036621094,2.72433503021946,-0.323516821897197,0.145116644445049,ST
3.06666666666667,-2.92671346664429,-1.29617583751678,9.0373420715332,1.32622802257538,-1.49391198158264,0.739333987236023,-1097.10009765625,11.1000003814697,-950.100036621094,2.72090586603813,-0.30889555910985,0.13998744291245,ST
3.1,-2.75205588340759,-1.16936945915222,9.20781326293945,1.17378795146942,-1.34147191047668,0.92988395690918,-1111.5,1.5,-959.700012207031,2.71378366129643,-0.28769346141151,0.124815781641978,ST
3.13333333333333,-2.59713673591614,-1.16278994083405,9.31129169464111,1.31098401546478,-1.2576299905777,1.2576299905777,-1104.30004882812,6.30000019073486,-964.500061035156,2.70947315505141,-0.269875729513586,0.121584511115413,ST
3.16666666666667,-2.73291516304016,-0.99889874458313,8.98291110992432,1.63110792636871,-0.602137982845306,1.57775402069092,-1125.90002441406,9.30000019073486,-964.500061035156,2.70195662298832,-0.290811438136869,0.108374823583623,ST
3.2,-2.9661910533905,-0.869699895381927,8.67008209228516,1.57775402069092,0.198172003030777,1.78354799747467,-1111.5,11.7000007629395,-971.700012207031,2.69419510921568,-0.325897860724931,0.0971291993477472,ST
3.23333333333333,-3.21202778816223,-1.14424753189087,8.81363677978516,1.47866797447205,0.525918006896973,1.6844619512558,-1101.90002441406,13.5000009536743,-959.700012207031,2.69913289171929,-0.346072942163437,0.122931847209572,ST
3.26666666666667,-3.46025705337524,-1.17475283145905,9.20781326293945,1.21189796924591,0.0914639979600906,1.13567793369293,-1116.30004882812,5.10000038146973,-957.300048828125,2.69712250820214,-0.35645638487092,0.123980637212365,ST
3.3,-3.41958332061768,-0.986935913562775,9.01222038269043,1.30336201190948,-0.708845973014832,0.899396002292633,-1109.10009765625,4.5,-954.900024414062,2.68968287381619,-0.359390227233729,0.107509741308523,ST
3.33333333333333,-3.09718441963196,-0.97557121515274,9.33761024475098,1.20427596569061,-1.08232402801514,1.00610399246216,-1111.5,6.30000019073486,-959.700012207031,2.6855539123692,-0.320792650165529,0.101895525104923,ST
3.36666666666667,-2.68446564674377,-0.772800743579865,9.06904411315918,1.37195992469788,-1.31860601902008,0.914639949798584,-1099.5,12.3000001907349,-964.500061035156,2.67815277766461,-0.287921777064887,0.083851841946264,ST
3.4,-2.27533578872681,-0.480308800935745,9.10852146148682,1.29574000835419,-0.647870004177094,0.899396002292633,-1104.30004882812,8.10000038146973,-959.700012207031,2.66803326876549,-0.247466048637988,0.0530290541372942,ST
3.43333333333333,-2.19578289985657,-0.436644375324249,9.31488037109375,1.07470202445984,-0.167683988809586,0.67835795879364,-1104.30004882812,9.90000057220459,-964.500061035156,2.66457457086491,-0.232048413422972,0.0452013409147896,ST
3.46666666666667,-2.52655601501465,-0.290697485208511,9.29215145111084,0.6250039935112,0.342989981174469,0.449698001146317,-1109.10009765625,6.90000009536743,-966.900024414062,2.66025760595476,-0.26291696711799,0.0313683395430667,ST
3.5,-2.67369914054871,-0.279930919408798,9.61813926696777,0.121951997280121,0.434453994035721,0.6250039935112,-1104.30004882812,15.3000001907349,-952.500061035156,2.65766315729877,-0.271014798950775,0.028840319830149,ST
3.53333333333333,-2.55706119537354,0.263182908296585,9.03973484039307,0.0533539988100529,0.396344006061554,0.663114011287689,-1111.5,1.5,-957.300048828125,2.6411636205413,-0.275804146554278,-0.0242434195529062,ST
3.56666666666667,-2.9661910533905,0.313426911830902,9.41596698760986,-0.213415995240211,0.640248000621796,1.33385002613068,-1097.10009765625,2.70000004768372,-950.100036621094,2.6335509718958,-0.303983322994838,-0.0329801248067088,ST
3.6,-2.30763554573059,0.102880589663982,9.95848274230957,-0.0457319989800453,-0.106707997620106,0.297257989645004,-1101.90002441406,8.10000038146973,-945.300048828125,2.63802471255243,-0.232765015834543,-0.0119072127343901,ST
3.63333333333333,-2.4816951751709,0.0634031519293785,9.81732082366943,0.403965979814529,-0.518296003341675,-0.907018005847931,-1113.90002441406,18.3000011444092,-969.300048828125,2.64274805304084,-0.24565246070649,-0.0071586288729655,ST
3.66666666666667,-2.36386108398438,-0.232677608728409,9.99377250671387,0.182927995920181,-0.525918006896973,-2.40092992782593,-1097.10009765625,4.5,-971.700012207031,2.65824676547351,-0.23231700053712,0.0216159398298787,ST
3.7,-2.2191104888916,-0.157311603426933,9.1982421875,0.190549999475479,-0.487807989120483,-2.86587190628052,-1109.10009765625,11.1000003814697,-959.700012207031,2.66809511622395,-0.235514980543729,0.0182132697591779,ST
3.73333333333333,-2.55706119537354,-0.526963949203491,9.16953182220459,0.0685980021953583,0.640248000621796,-2.33233189582825,-1111.5,6.30000019073486,-966.900024414062,2.68515220894182,-0.269128453192278,0.0547199971915525,ST
3.76666666666667,-2.53253722190857,-0.66633129119873,9.06545448303223,0.0457319989800453,0.46494197845459,-1.98934197425842,-1099.5,10.5,-954.900024414062,2.6966569885745,-0.272008075655942,0.072499742456929,ST
3.8,-2.52057456970215,-0.634629666805267,8.2621488571167,0.0076219998300075,0.617381989955902,-1.48628997802734,-1111.5,15.3000001907349,-969.300048828125,2.70298898899351,-0.293977810967002,0.0769929218806749,ST
3.83333333333333,-3.13426923751831,-0.788352429866791,9.1928596496582,-0.266770005226135,0.807931959629059,-0.571649968624115,-1099.5,5.10000038146973,-950.100036621094,2.70739908785528,-0.325641311551648,0.0855244297304332,ST
3.86666666666667,-3.1827187538147,-0.955832481384277,9.55533409118652,-0.160062000155449,0.510673999786377,-0.121951997280121,-1092.30004882812,4.5,-959.700012207031,2.71198600511795,-0.321333972876472,0.0987644810924455,ST
3.9,-3.29756212234497,-1.37572884559631,9.12227821350098,-0.190549999475479,0.724089980125427,-0.160062000155449,-1097.10009765625,0.900000035762787,-952.500061035156,2.72781793037161,-0.34244597761627,0.145486323702497,ST
3.93333333333333,-4.12898111343384,-1.46903908252716,9.22515869140625,-0.472563982009888,1.40244793891907,-0.236281991004944,-1089.90002441406,8.10000038146973,-964.500061035156,2.73318256448384,-0.411655500147705,0.15781805226725,ST
3.96666666666667,-4.07813882827759,-1.41400992870331,9.16355037689209,-0.647870004177094,1.37958192825317,0.137196004390717,-1087.5,9.90000057220459,-964.500061035156,2.73123913983595,-0.416320352160053,0.154609539937942,ST
4.0,-4.00396919250488,-1.41640257835388,9.67735481262207,-0.830797970294952,0.518296003341675,0.541162014007568,-1089.90002441406,8.70000076293945,-971.700012207031,2.72573677367805,-0.392023512252944,0.147170917662054,ST
4.03333333333333,-3.52605271339417,-1.3900842666626,8.97513484954834,-0.533540010452271,-0.304879993200302,0.617381989955902,-1097.10009765625,14.7000007629395,-954.900024414062,2.72531125523645,-0.371960959069503,0.153513487060813,ST
4.06666666666667,-3.03557562828064,-0.948654770851135,8.89139556884766,-0.754577994346619,-0.381099998950958,0.716467976570129,-1082.70007324219,8.70000076293945,-966.900024414062,2.70719970220637,-0.33053107483874,0.11091128518094,ST
4.1,-2.43204927444458,-0.228490620851517,7.80516767501831,-0.861285984516144,-0.358233988285065,0.861285984516144,-1097.10009765625,8.10000038146973,-962.100036621094,2.68046205704844,-0.304133165318446,0.0375040450879134,ST
4.13333333333333,-3.17015767097473,-0.324791640043259,8.2741117477417,-1.10518991947174,1.09756803512573,1.37958192825317,-1087.5,4.5,-964.500061035156,2.67567175982214,-0.361894784557884,0.0400589655641521,ST
4.16666666666667,-3.30713248252869,-0.457579374313354,9.47518253326416,-1.40244793891907,0.46494197845459,1.35671591758728,-1092.30004882812,5.10000038146973,-962.100036621094,2.67274912879861,-0.338679818626431,0.0489867616555839,ST
4.2,-2.97576117515564,-0.340343356132507,9.2407112121582,-0.891773998737335,-0.564027965068817,1.17378795146942,-1077.90002441406,10.5,-964.500061035156,2.66420773489877,-0.312573973510667,0.038526912271365,ST
4.23333333333333,-2.8082811832428,-0.958823204040527,9.51107120513916,-0.945127964019775,-0.975615978240967,0.388722002506256,-1082.70007324219,5.10000038146973,-966.900024414062,2.67887146473353,-0.286290870900379,0.0971260055399102,ST
4.26666666666667,-2.43444180488586,-1.53184413909912,9.2640380859375,-1.13567793369293,-0.564027965068817,-0.609759986400604,-1092.30004882812,16.5,-954.900024414062,2.69640024900093,-0.255659204365115,0.159899536924184,ST
4.3,-2.74248552322388,-1.71308147907257,9.6761589050293,-0.952749967575073,0.0381099991500378,-1.79117000102997,-1089.90002441406,11.7000007629395,-962.100036621094,2.70640993743947,-0.270685722945202,0.176618541236438,ST
4.33333333333333,-2.40931987762451,-1.58627510070801,8.77415943145752,-0.114329993724823,0.640248000621796,-2.01220798492432,-1104.30004882812,6.90000009536743,-962.100036621094,2.71411007002311,-0.264953833330389,0.179742695604743,ST
4.36666666666667,-3.08761405944824,-1.72564244270325,8.54148197174072,0.282013982534409,1.40244793891907,-1.79879200458527,-1075.5,6.90000009536743,-969.300048828125,2.72655288793243,-0.335316267570096,0.198162344572952,ST
4.4,-3.24014043807983,-1.7304276227951,8.34887981414795,0.274392008781433,1.37195992469788,-1.65397393703461,-1075.5,12.9000005722046,-952.500061035156,2.73519454338287,-0.362244778029289,0.204491222488074,ST
4.43333333333333,-3.45666813850403,-1.89431881904602,8.66110992431641,0.0609759986400604,1.16616594791412,-1.47866797447205,-1077.90002441406,12.3000001907349,-971.700012207031,2.74459639576038,-0.372210603568807,0.215287116356801,ST
4.46666666666667,-3.6833643913269,-2.06299519538879,8.94283580780029,-0.114329993724823,0.990859985351562,-1.36433792114258,-1087.5,18.3000011444092,-959.700012207031,2.75368341933307,-0.381857518151434,0.226847534202068,ST
4.5,-3.38847994804382,-2.62345504760742,9.14381122589111,-0.266770005226135,0.564027965068817,-1.41769194602966,-1082.70007324219,8.70000076293945,-964.500061035156,2.77576323373794,-0.346104450840969,0.276028781800349,ST
4.53333333333333,-3.14742827415466,-2.40453481674194,8.55523872375488,-0.205793991684914,-0.152439996600151,-1.44055795669556,-1077.90002441406,11.1000003814697,-952.500061035156,2.77964223307532,-0.340049287820272,0.275260312233612,ST
4.56666666666667,-2.86929178237915,-2.39855337142944,8.18917560577393,0.0685980021953583,0.144817993044853,-1.02134799957275,-1082.70007324219,9.90000057220459,-964.500061035156,2.78607394022303,-0.325562115546115,0.28449839394216,ST
4.6,-2.97695755958557,-2.6336236000061,9.15398025512695,0.525918006896973,0.266770005226135,-0.670735955238342,-1068.30004882812,16.5,-966.900024414062,2.78785052254408,-0.304584977671744,0.27995329308631,ST
4.63333333333333,-2.90099334716797,-2.23047518730164,8.75920581817627,1.28811800479889,-0.777444005012512,-0.586893975734711,-1075.5,18.9000015258789,-959.700012207031,2.78145743259211,-0.30870021560825,0.249551534622998,ST
4.66666666666667,-2.9303023815155,-2.00617146492004,7.87694501876831,0.846041977405548,-0.121951997280121,-0.175305992364883,-1075.5,9.90000057220459,-978.900024414062,2.78240429362397,-0.342369162708861,0.248135745758848,ST
4.7,-3.19408345222473,-1.98942351341248,8.20891380310059,0.304879993200302,0.594515979290009,0.114329993724823,-1077.90002441406,17.7000007629395,-962.100036621094,2.77944759687377,-0.360917999436298,0.238157983657715,ST
4.73333333333333,-3.43094801902771,-1.92781484127045,8.32973861694336,-0.106707997620106,0.78506600856781,0.67835795879364,-1073.10009765625,17.7000007629395,-969.300048828125,2.77418571388303,-0.381203055258729,0.228278029906733,ST
4.76666666666667,-3.62235379219055,-1.99121797084808,8.40271282196045,-0.510673999786377,0.548784017562866,1.05945801734924,-1068.30004882812,13.5000009536743,-952.500061035156,2.77221762541896,-0.396971329802202,0.232495317137079,ST
4.8,-3.57091355323792,-2.06060242652893,8.61385726928711,-0.487807989120483,0.327746003866196,1.39482593536377,-1073.10009765625,17.7000007629395,-957.300048828125,2.7678517454046,-0.385231214234707,0.234592760455632,ST
4.83333333333333,-3.54818415641785,-2.00258255004883,8.72870063781738,-0.236281991004944,-0.0381099991500378,1.53964400291443,-1082.70007324219,15.9000005722046,-981.300048828125,2.75905396538665,-0.378332800505822,0.225613644174886,ST
4.86666666666667,-3.36933946609497,-1.99540495872498,8.31657981872559,-0.25152599811554,-0.213415995240211,1.49391198158264,-1058.70007324219,14.1000003814697,-976.500061035156,2.75661393020725,-0.375717149690269,0.234246794951768,ST
4.9,-3.42436861991882,-2.02411580085754,8.79389762878418,-0.693601965904236,-0.426831990480423,1.53202199935913,-1070.70007324219,18.9000015258789,-974.100036621094,2.74743746904136,-0.363475743947926,0.226918328076881,ST
4.93333333333333,-3.09060478210449,-1.94157207012177,8.63897895812988,-0.769822001457214,-1.2423859834671,1.41006994247437,-1075.5,17.7000007629395,-954.900024414062,2.73883523194366,-0.336260056546108,0.221769274852569,ST
4.96666666666667,-3.06548261642456,-1.9529367685318,8.60727691650391,-0.708845973014832,-1.2576299905777,1.50153398513794,-1080.30004882812,18.9000015258789,-966.900024414062,2.73280091426787,-0.333045055217418,0.223160508585285,ST
5.0,-2.9781539440155,-1.8889354467392,8.67546558380127,-0.266770005226135,-0.830797970294952,1.44055795669556,-1080.30004882812,20.1000003814697,-974.100036621094,2.72404099116035,-0.323462892715666,0.214552790941115,ST
5.03333333333333,-3.11811923980713,-2.05462121963501,9.00922966003418,0.198172003030777,-0.762199997901917,1.20427596569061,-1077.90002441406,15.9000005722046,-962.100036621094,2.72233655893163,-0.324501734958679,0.222315965761253,ST
5.06666666666667,-3.1587929725647,-1.96430146694183,9.00444412231445,0.533540010452271,-0.87652999162674,0.411587983369827,-1080.30004882812,19.5,-954.900024414062,2.71842323596425,-0.328461978098124,0.214300439023426,ST
5.1,-3.62055945396423,-1.93020737171173,9.25028133392334,0.815553963184357,-0.564027965068817,0.282013982534409,-1068.30004882812,14.1000003814697,-974.100036621094,2.71495063302136,-0.361725267710534,0.204973799287489,ST
5.13333333333333,-3.72643065452576,-2.00796604156494,9.44527530670166,0.777444005012512,0.0609759986400604,0.472563982009888,-1087.5,17.7000007629395,-969.300048828125,2.71537889097166,-0.367951836429265,0.207554253064704,ST
5.16666666666667,-3.66781258583069,-2.14194989204407,9.50389385223389,0.754577994346619,0.236281991004944,0.266770005226135,-1070.70007324219,25.5000019073486,-974.100036621094,2.71973600856242,-0.361246276003714,0.21907607667415,ST
5.2,-3.07924008369446,-1.80998063087463,8.72391510009766,0.975615978240967,0.0762199983000755,0.0152439996600151,-1082.70007324219,15.9000005722046,-974.100036621094,2.71584695146462,-0.335457444063992,0.204325406999867,ST
5.23333333333333,-2.9422652721405,-1.88235592842102,8.72152233123779,1.2423859834671,-0.0457319989800453,0.190549999475479,-1075.5,17.7000007629395,-964.500061035156,2.71839957080508,-0.319804876775845,0.209841968787114,ST
5.26666666666667,-3.05292177200317,-2.03129363059998,8.88661003112793,0.815553963184357,-0.548784017562866,-0.182927995920181,-1077.90002441406,11.7000007629395,-976.500061035156,2.72335565852064,-0.32195068955496,0.222106251870811,ST
5.3,-3.02600526809692,-1.89850580692291,8.15209102630615,0.922261953353882,-0.426831990480423,-0.342989981174469,-1087.5,14.1000003814697,-971.700012207031,2.72673883117196,-0.343861809226731,0.226863406903061,ST
5.33333333333333,-3.29935669898987,-1.98045134544373,8.26454162597656,0.548784017562866,0.289635986089706,-0.0381099991500378,-1068.30004882812,15.3000001907349,-959.700012207031,2.73009684584516,-0.368357947877598,0.233626935366911,ST
5.36666666666667,-3.42257404327393,-1.88833737373352,8.19754981994629,0.37347799539566,0.304879993200302,0.419209986925125,-1063.5,14.7000007629395,-957.300048828125,2.72677013903009,-0.385393902470867,0.226252513635825,ST
5.4,-3.61158728599548,-1.98344206809998,8.52114486694336,-0.0076219998300075,0.3125019967556,0.891773998737335,-1077.90002441406,19.5,-942.900024414062,2.7248553229663,-0.391745446547788,0.227964121841132,ST
5.43333333333333,-3.29636597633362,-2.04385447502136,8.49602317810059,-0.266770005226135,0.0,1.04421401023865,-1063.5,13.5000009536743,-947.700012207031,2.72354377119667,-0.363059365741737,0.235376221361585,ST
5.46666666666667,-3.30055284500122,-2.09230422973633,8.89917087554932,-0.198172003030777,-0.533540010452271,0.815553963184357,-1063.5,10.5,-957.300048828125,2.71841588708645,-0.346968447005362,0.230973093772646,ST
5.5,-3.23356080055237,-2.06957459449768,8.99248123168945,-0.0609759986400604,-0.685979962348938,1.01372599601746,-1063.5,15.9000005722046,-962.100036621094,2.71273152625398,-0.33708999280069,0.226013185361969,ST
5.53333333333333,-3.08402514457703,-1.96609592437744,9.00863170623779,-0.129574000835419,-0.25152599811554,1.14329993724823,-1073.10009765625,19.5,-959.700012207031,2.70503633989692,-0.323853954923559,0.215281877597701,ST
5.56666666666667,-2.86869359016418,-1.99002170562744,9.11450290679932,-0.129574000835419,-0.304879993200302,1.18903195858002,-1070.70007324219,14.7000007629395,-974.100036621094,2.70039224193,-0.300172873221701,0.21457373655375,ST
5.6,-2.43324565887451,-1.97865700721741,8.84773063659668,-0.114329993724823,-0.457319974899292,0.891773998737335,-1061.10009765625,11.1000003814697,-962.100036621094,2.69810196574982,-0.264404009989512,0.219394457455999,ST
5.63333333333333,-2.5678277015686,-1.89431881904602,8.83696460723877,0.0228659994900227,0.0381099991500378,1.03659200668335,-1075.5,22.5,-954.900024414062,2.69265079913628,-0.276112745233528,0.211429720613401,ST
5.66666666666667,-2.83639407157898,-2.13297772407532,8.89797496795654,0.518296003341675,0.800309956073761,1.39482593536377,-1063.5,15.3000001907349,-971.700012207031,2.69501050637476,-0.300124418511465,0.231712829873207,ST
5.7,-3.13127851486206,-2.07196736335754,9.07083797454834,0.685979962348938,1.06708002090454,1.32622802257538,-1070.70007324219,21.3000011444092,-954.900024414062,2.68957538698129,-0.324938411945308,0.223438661414157,ST
5.73333333333333,-3.32806754112244,-2.05820989608765,9.04990291595459,0.907018005847931,1.06708002090454,1.52439999580383,-1058.70007324219,20.7000007629395,-974.100036621094,2.68587721634246,-0.34474005383179,0.221463046346117,ST
5.76666666666667,-3.31730103492737,-1.86321532726288,8.70357799530029,1.08232402801514,1.10518991947174,1.43293595314026,-1075.5,12.3000001907349,-969.300048828125,2.67925263881571,-0.357859785982824,0.209443907322474,ST
5.8,-3.03736996650696,-1.83330821990967,8.42723655700684,1.2423859834671,1.02897000312805,1.17378795146942,-1058.70007324219,14.7000007629395,-971.700012207031,2.67823323900421,-0.342093486211427,0.211310481761983,ST
5.83333333333333,-3.43573331832886,-1.89013183116913,8.69759654998779,1.15092194080353,0.99848198890686,1.01372599601746,-1065.90002441406,16.5,-962.100036621094,2.6771067098796,-0.368120536112582,0.211446140097489,ST
5.86666666666667,-3.66422390937805,-1.68437063694,8.71314907073975,1.12805593013763,0.975615978240967,1.10518991947174,-1056.30004882812,12.9000005722046,-950.100036621094,2.66791954018956,-0.391317456777621,0.190454629704158,ST
5.9,-3.94116401672363,-1.67121148109436,8.89917087554932,1.15092194080353,0.777444005012512,1.31098401546478,-1053.90002441406,14.7000007629395,-966.900024414062,2.66310835568265,-0.410387711847482,0.183459148974888,ST
5.93333333333333,-3.65704607963562,-1.51389980316162,8.46910667419434,1.28049600124359,0.701223969459534,1.44817996025085,-1046.70007324219,15.3000001907349,-959.700012207031,2.65710276434388,-0.404143078907446,0.174485161067375,ST
5.96666666666667,-4.04344654083252,-1.26806306838989,8.74485015869141,1.21189796924591,0.602137982845306,1.63872992992401,-1049.10009765625,18.9000015258789,-959.700012207031,2.64156245888975,-0.428237996961907,0.143764672330857,ST
6.0,-4.21631002426147,-1.04675018787384,8.74485015869141,1.31860601902008,0.647870004177094,1.85214591026306,-1053.90002441406,14.7000007629395,-964.500061035156,2.62707925819283,-0.446227852959309,0.117956203247883,ST
6.03333333333333,-4.15111207962036,-0.916953146457672,8.84055328369141,1.44055795669556,0.46494197845459,1.98934197425842,-1070.70007324219,14.1000003814697,-954.900024414062,2.61589859804963,-0.438845608519268,0.100938139373686,ST
6.06666666666667,-3.65824246406555,-0.647190690040588,8.26932621002197,1.35671591758728,-0.495429992675781,1.59299790859222,-1034.70007324219,12.9000005722046,-954.900024414062,2.60252840585239,-0.416738317062669,0.076636944744996,ST
6.1,-3.91006064414978,-0.756052732467651,8.73468208312988,0.914639949798584,-0.739333987236023,1.10518991947174,-1046.70007324219,6.90000009536743,-962.100036621094,2.60264648055183,-0.418268780619814,0.0833470651932989,ST
6.13333333333333,-3.92022895812988,-0.74050098657608,8.71793365478516,0.640248000621796,-0.800309956073761,0.419209986925125,-1046.70007324219,8.70000076293945,-957.300048828125,2.60190164054485,-0.419806726208431,0.0832476242177615,ST
6.16666666666667,-3.72224378585815,-0.840390861034393,8.54207992553711,0.457319974899292,-0.708845973014832,-0.167683988809586,-1058.70007324219,12.3000001907349,-957.300048828125,2.60809768293361,-0.40891064012603,0.0961846519136828,ST
6.2,-3.7371973991394,-0.935495615005493,8.71255016326904,0.388722002506256,-0.701223969459534,-0.67835795879364,-1051.5,8.70000076293945,-952.500061035156,2.61433026767353,-0.402440521522484,0.105781044878148,ST
6.23333333333333,-3.66003680229187,-0.817063271999359,8.71434497833252,0.518296003341675,-0.899396002292633,-0.807931959629059,-1058.70007324219,18.9000015258789,-971.700012207031,2.61282621946377,-0.395102961420217,0.0942522652175845,ST
6.26666666666667,-3.75813221931458,-1.00188946723938,9.1922607421875,0.746955990791321,-1.09756803512573,-0.739333987236023,-1053.90002441406,14.1000003814697,-950.100036621094,2.62083041944641,-0.384764138366967,0.106779255521247,ST
6.3,-3.73839354515076,-0.887644171714783,8.97513484954834,0.922261953353882,-0.907018005847931,-0.762199997901917,-1068.30004882812,9.90000057220459,-964.500061035156,2.62110964322591,-0.390752592571633,0.0981546294091153,ST
6.33333333333333,-3.70310306549072,-0.860727727413177,8.97812557220459,1.17378795146942,-0.190549999475479,-0.518296003341675,-1049.10009765625,9.90000057220459,-957.300048828125,2.62293105153305,-0.389292482722147,0.0942074320262396,ST
6.36666666666667,-3.07924008369446,-0.782969176769257,8.92728424072266,1.27287399768829,0.335367977619171,-0.693601965904236,-1053.90002441406,10.5,-957.300048828125,2.62424720461678,-0.335810105395973,0.0863489645541221,ST
6.4,-3.31371212005615,-0.894223749637604,8.22207355499268,1.20427596569061,0.350611984729767,-1.77592599391937,-1051.5,12.3000001907349,-957.300048828125,2.63823237133609,-0.377256935187442,0.105497509236607,ST
6.43333333333333,-3.56433391571045,-0.938486337661743,8.51815414428711,1.04421401023865,0.602137982845306,-2.02745199203491,-1044.30004882812,14.1000003814697,-957.300048828125,2.64758592352774,-0.393230071317081,0.10904525681854,ST
6.46666666666667,-3.81256318092346,-1.03119850158691,8.64077377319336,1.31860601902008,0.396344006061554,-1.99696397781372,-1049.10009765625,11.1000003814697,-969.300048828125,2.66011748033967,-0.411965642583608,0.117444162639623,ST
6.5,-4.29347038269043,-1.06947958469391,8.79150581359863,1.37195992469788,0.228659987449646,-1.80641400814056,-1053.90002441406,10.5,-966.900024414062,2.66933581733306,-0.448449296599647,0.11994790754388,ST
6.53333333333333,-4.04882955551147,-0.893027484416962,8.560622215271,0.884151995182037,-0.807931959629059,-1.50915598869324,-1046.70007324219,11.7000007629395,-954.900024414062,2.66876817327236,-0.438875630009534,0.10491394725413,ST
6.56666666666667,-4.23126316070557,-1.12989211082458,8.99726676940918,0.335367977619171,-1.32622802257538,-1.02134799957275,-1053.90002441406,12.3000001907349,-959.700012207031,2.68001319825149,-0.434444615399123,0.123516397915942,ST
6.6,-4.38678073883057,-1.27165198326111,8.89797496795654,-0.0533539988100529,-1.01372599601746,-0.724089980125427,-1063.5,8.10000038146973,-964.500061035156,2.6893809181602,-0.450787747614242,0.141081295876291,ST
6.63333333333333,-4.13197183609009,-1.27763342857361,8.73767280578613,-0.419209986925125,-0.937505960464478,-0.457319974899292,-1063.5,6.30000019073486,-964.500061035156,2.69182869962458,-0.436940203228382,0.14583441704254,ST
6.66666666666667,-3.9997820854187,-1.47801125049591,8.82918834686279,-0.724089980125427,-1.17378795146942,-0.0228659994900227,-1046.70007324219,12.3000001907349,-964.500061035156,2.69828446643943,-0.419867522447444,0.165091570215152,ST
6.7,-3.19767236709595,-1.32428848743439,8.22147560119629,-0.640248000621796,-1.44817996025085,0.327746003866196,-1058.70007324219,8.70000076293945,-964.500061035156,2.6940288615586,-0.369263298128816,0.160845470703324,ST
6.73333333333333,-2.83878660202026,-1.37453258037567,8.19336223602295,-0.739333987236023,-1.42531394958496,0.442075997591019,-1051.5,16.5,-964.500061035156,2.69293628720363,-0.330764095207628,0.166532304626381,ST
6.76666666666667,-2.97695755958557,-1.37273812294006,8.78073883056641,-0.541162014007568,-1.16616594791412,0.754577994346619,-1056.30004882812,12.3000001907349,-962.100036621094,2.68606416043894,-0.322263285024807,0.156477440953359,ST
6.8,-3.12529706954956,-1.53722739219666,9.26463603973389,-0.525918006896973,-0.663114011287689,0.724089980125427,-1070.70007324219,9.30000019073486,-976.500061035156,2.68513002814648,-0.320481903498781,0.164173845172079,ST
6.83333333333333,-3.26825308799744,-1.53124594688416,9.5326042175293,-0.358233988285065,-0.320124000310898,0.327746003866196,-1075.5,11.7000007629395,-976.500061035156,2.68208980414353,-0.325531491844487,0.160017243198367,ST
6.86666666666667,-3.43154621124268,-1.39247679710388,9.44108867645264,0.0762199983000755,-0.297257989645004,0.213415995240211,-1063.5,12.9000005722046,-969.300048828125,2.67714400939296,-0.343142188101477,0.147299660087525,ST
6.9,-2.73112082481384,-1.35957896709442,8.55045413970947,0.129574000835419,-0.144817993044853,0.25152599811554,-1061.10009765625,10.5,-962.100036621094,2.67931620080082,-0.308237911848958,0.156563050956572,ST
6.93333333333333,-2.26038217544556,-1.20406174659729,7.99178838729858,-0.472563982009888,-0.487807989120483,0.0381099991500378,-1070.70007324219,15.9000005722046,-976.500061035156,2.67673088570676,-0.27438139567077,0.150731133941975,ST
6.96666666666667,-2.5116024017334,-1.42956173419952,8.80466461181641,-0.92988395690918,-0.708845973014832,0.0914639979600906,-1061.10009765625,15.9000005722046,-966.900024414062,2.6780374995632,-0.273353353168269,0.161596513567219,ST
7.0,-2.91295623779297,-1.40324342250824,8.91292858123779,-0.670735955238342,-0.533540010452271,0.480185985565186,-1075.5,17.1000003814697,-964.500061035156,2.6743262352917,-0.308046475395838,0.157448946734574,ST
7.03333333333333,-3.25569224357605,-1.80998063087463,9.05708122253418,-0.861285984516144,0.190549999475479,0.769822001457214,-1063.5,11.7000007629395,-969.300048828125,2.68276823150281,-0.337329286409909,0.195476874563258,ST
7.06666666666667,-3.27303838729858,-1.86620604991913,8.56002426147461,-1.05183601379395,0.365855991840363,0.419209986925125,-1075.5,18.9000015258789,-981.300048828125,2.68686661274328,-0.356415449083204,0.214385570457575,ST
7.1,-3.66302752494812,-2.33634638786316,9.13543796539307,-1.07470202445984,0.548784017562866,-0.0609759986400604,-1056.30004882812,11.7000007629395,-978.900024414062,2.69866026732066,-0.370409896059137,0.249759980270963,ST
7.13333333333333,-3.31371212005615,-2.1269965171814,8.38536643981934,-0.807931959629059,-0.236281991004944,-0.510673999786377,-1056.30004882812,8.70000076293945,-952.500061035156,2.6991813694069,-0.365659796124971,0.250086085474212,ST
7.16666666666667,-3.39446139335632,-2.08093929290771,8.59950160980225,-0.320124000310898,-0.426831990480423,-0.3125019967556,-1056.30004882812,11.7000007629395,-966.900024414062,2.69553984352717,-0.365502216327491,0.239197130514042,ST
7.2,-3.47042560577393,-2.06299519538879,8.97453689575195,0.762199997901917,-0.533540010452271,-0.114329993724823,-1056.30004882812,15.9000005722046,-966.900024414062,2.6916999824725,-0.359872286530968,0.2256118148199,ST
7.23333333333333,-3.00088334083557,-2.09888362884521,8.65811920166016,1.44817996025085,-0.762199997901917,-0.266770005226135,-1058.70007324219,18.9000015258789,-966.900024414062,2.69663343678428,-0.326799120695095,0.234490873121382,ST
7.26666666666667,-2.96559286117554,-2.22389554977417,8.64137172698975,1.48628997802734,-0.830797970294952,-1.07470202445984,-1065.90002441406,18.9000015258789,-969.300048828125,2.70544410647142,-0.319720038765689,0.248400266601112,ST
7.3,-3.26346802711487,-2.1491277217865,9.17670917510986,1.50915598869324,-0.762199997901917,-1.6920839548111,-1053.90002441406,18.9000015258789,-966.900024414062,2.7060716004704,-0.330307981835322,0.230114306183122,ST
7.33333333333333,-2.86929178237915,-1.99301242828369,8.90335845947266,1.60824191570282,-1.16616594791412,-1.63872992992401,-1065.90002441406,12.3000001907349,-964.500061035156,2.70879667084966,-0.304635140784604,0.219241752520918,ST
7.36666666666667,-2.96678924560547,-1.73102581501007,8.80765533447266,1.55488801002502,-0.937505960464478,-1.15854394435883,-1077.90002441406,11.7000007629395,-952.500061035156,2.70603236942928,-0.31617882066728,0.19415914720823,ST
7.4,-2.87886214256287,-1.79203629493713,8.9117317199707,1.47866797447205,-0.121951997280121,-0.381099998950958,-1061.10009765625,9.90000057220459,-974.100036621094,2.70944880260453,-0.307111539406803,0.19591414598935,ST
7.43333333333333,-2.66592311859131,-1.81476581096649,8.82978630065918,1.2347639799118,0.0076219998300075,-0.365855991840363,-1070.70007324219,8.70000076293945,-966.900024414062,2.71350558285573,-0.288664566011976,0.20044181823242,ST
7.46666666666667,-2.8782639503479,-1.7166702747345,8.84115123748779,1.05945801734924,0.297257989645004,-0.556405961513519,-1075.5,20.1000003814697,-962.100036621094,2.71407446264602,-0.308207595908452,0.190965987506057,ST
7.5,-2.7963182926178,-1.71786665916443,8.59292221069336,1.15092194080353,0.426831990480423,-0.37347799539566,-1063.5,13.5000009536743,-959.700012207031,2.71830423153804,-0.309409949897341,0.195241418017789,ST
7.53333333333333,-2.96200394630432,-1.86740231513977,8.90335845947266,0.815553963184357,0.442075997591019,-0.46494197845459,-1063.5,12.3000001907349,-974.100036621094,2.72417260558734,-0.31495852539046,0.20491423219528,ST
7.56666666666667,-2.90996551513672,-1.80160665512085,8.90634918212891,0.983237981796265,-0.0762199983000755,-0.297257989645004,-1065.90002441406,16.5,-964.500061035156,2.72424052126007,-0.310125646639877,0.198597960992722,ST
7.6,-2.98892045021057,-1.68018364906311,8.12577247619629,0.503051996231079,0.221037998795509,0.175305992364883,-1065.90002441406,3.30000019073486,-959.700012207031,2.72568290668068,-0.343463633178924,0.202609764526355,ST
7.63333333333333,-3.46504211425781,-1.74897003173828,8.4057035446167,0.0381099991500378,0.846041977405548,0.846041977405548,-1063.5,12.9000005722046,-969.300048828125,2.72414117189484,-0.382177526992311,0.204471348462858,ST
7.66666666666667,-3.58766150474548,-1.96131074428558,8.58933353424072,-0.495429992675781,0.830797970294952,1.18140995502472,-1068.30004882812,6.30000019073486,-969.300048828125,2.7272702857133,-0.387995564488443,0.222839233865923,ST
7.7,-4.00875425338745,-2.25559711456299,8.85191822052002,-1.09756803512573,0.731711983680725,1.48628997802734,-1070.70007324219,9.90000057220459,-962.100036621094,2.73152699611293,-0.412932845381131,0.247945929501316,ST
7.73333333333333,-4.53571796417236,-2.29088759422302,9.65103721618652,-1.05945801734924,0.701223969459534,1.76068198680878,-1053.90002441406,13.5000009536743,-966.900024414062,2.71961798654828,-0.429321739449953,0.234869500577897,ST
7.76666666666667,-3.56194138526917,-2.2011661529541,9.09895133972168,-0.457319974899292,-0.815553963184357,1.81403601169586,-1065.90002441406,6.30000019073486,-950.100036621094,2.7134551658497,-0.368942670372554,0.236623172404703,ST
7.8,-2.78854250907898,-1.98404026031494,8.73528003692627,-0.0,-1.83690190315247,1.76068198680878,-1056.30004882812,15.9000005722046,-959.700012207031,2.70139241967324,-0.304137204837881,0.223111088921354,ST
7.83333333333333,-2.36027216911316,-1.82971930503845,8.12397766113281,0.228659987449646,-2.27897787094116,1.93598794937134,-1053.90002441406,6.90000009536743,-957.300048828125,2.6921513315246,-0.275182261762345,0.220147892460128,ST
7.86666666666667,-2.7502613067627,-2.02411580085754,8.21130657196045,0.449698001146317,-0.823175966739655,2.01220798492432,-1063.5,15.9000005722046,-969.300048828125,2.69063585855204,-0.310342524844543,0.237931213695385,ST
7.9,-2.8561327457428,-2.12639832496643,9.00564098358154,0.632625997066498,-0.0076219998300075,1.69970595836639,-1070.70007324219,15.9000005722046,-959.700012207031,2.68362725412426,-0.300984402937862,0.230592775881086,ST
7.93333333333333,-2.58876276016235,-1.96190893650055,8.71195220947266,1.18140995502472,-0.617381989955902,1.265251994133,-1073.10009765625,15.3000001907349,-974.100036621094,2.67702290631881,-0.283194601482412,0.219713407863138,ST
7.96666666666667,-2.94645237922668,-1.86680424213409,8.84294605255127,1.57013201713562,-0.594515979290009,1.18140995502472,-1061.10009765625,8.70000076293945,-966.900024414062,2.67037294667262,-0.311725185289417,0.205979786555305,ST
8.0,-2.91714334487915,-1.85424315929413,9.36512470245361,1.85976791381836,-0.617381989955902,1.12043392658234,-1053.90002441406,6.90000009536743,-957.300048828125,2.66433590333393,-0.297306143608535,0.192864119074504,ST
8.03333333333333,-3.00746297836304,-1.51988124847412,9.04272556304932,1.95885396003723,-0.945127964019775,1.05183601379395,-1073.10009765625,6.90000009536743,-969.300048828125,2.65409820513112,-0.313966381332434,0.165196476617182,ST
8.06666666666667,-3.89271450042725,-1.59763991832733,9.85620021820068,1.39482593536377,-0.259148001670837,1.12805593013763,-1065.90002441406,11.1000003814697,-966.900024414062,2.64963513422669,-0.366389028270077,0.158209960595141,ST
8.1,-3.15221357345581,-1.37871956825256,9.47817325592041,1.18140995502472,-0.724089980125427,1.17378795146942,-1061.10009765625,10.5,-962.100036621094,2.641525154272,-0.320721016123936,0.14287195636492,ST
8.13333333333333,-2.2711489200592,-1.16458439826965,8.72271919250488,1.08994603157043,-1.36433792114258,0.716467976570129,-1061.10009765625,14.1000003814697,-971.700012207031,2.6363713760579,-0.256744577329163,0.131513983009488,ST
8.16666666666667,-2.35130000114441,-1.16877138614655,8.78133678436279,1.09756803512573,-1.18140995502472,0.243903994560242,-1063.5,5.70000028610229,-976.500061035156,2.63571373304595,-0.257386142699842,0.130338169328408,ST
8.2,-2.54390215873718,-1.00129127502441,8.41946029663086,1.10518991947174,-0.434453994035721,0.487807989120483,-1080.30004882812,11.1000003814697,-962.100036621094,2.63144346270727,-0.288071261848773,0.117348190321403,ST
8.23333333333333,-2.93448948860168,-1.01624488830566,8.49721908569336,0.746955990791321,0.548784017562866,0.884151995182037,-1073.10009765625,15.3000001907349,-964.500061035156,2.62941730186718,-0.328197500523908,0.117259271282026,ST
8.26666666666667,-3.03079032897949,-0.999496877193451,8.39493656158447,0.327746003866196,0.571649968624115,0.87652999162674,-1070.70007324219,12.9000005722046,-957.300048828125,2.62722299850054,-0.343836766844745,0.11741586443134,ST
8.3,-3.65704607963562,-1.16398620605469,8.77715015411377,-0.144817993044853,0.335367977619171,1.06708002090454,-1068.30004882812,9.90000057220459,-974.100036621094,2.62830632842594,-0.388112641766677,0.130104216417361,ST
8.33333333333333,-4.04404449462891,-1.17714536190033,9.41297626495361,-0.548784017562866,0.0,1.10518991947174,-1063.5,9.90000057220459,-962.100036621094,2.62199339781298,-0.401969504678617,0.125021703285059,ST
8.36666666666667,-3.45248126983643,-1.22918379306793,9.2640380859375,-0.518296003341675,-0.899396002292633,1.22714197635651,-1077.90002441406,11.1000003814697,-974.100036621094,2.61885348534528,-0.355694473229148,0.131507243553317,ST
8.4,-3.35797452926636,-1.1597992181778,9.1509895324707,-0.46494197845459,-1.51677799224854,0.762199997901917,-1087.5,12.3000001907349,-971.700012207031,2.61320996531312,-0.347291041579584,0.126636297771201,ST
8.43333333333333,-3.04993104934692,-1.30813872814178,9.31787109375,-0.426831990480423,-1.32622802257538,0.297257989645004,-1068.30004882812,18.3000011444092,-969.300048828125,2.61512904558512,-0.314497609811578,0.13875502322994,ST
8.46666666666667,-2.65336227416992,-1.23097825050354,8.75920581817627,-0.198172003030777,-1.16616594791412,-0.0685980021953583,-1058.70007324219,11.1000003814697,-959.700012207031,2.61493083707792,-0.291671930420892,0.139812015249614,ST
8.5,-2.56722974777222,-1.13587355613708,8.57318305969238,-0.106707997620106,-0.6250039935112,-0.221037998795509,-1080.30004882812,14.1000003814697,-959.700012207031,2.61321936731942,-0.28772799695943,0.132518793057282,ST
8.53333333333333,-2.8322069644928,-1.22619307041168,9.0433235168457,-0.0838419944047928,-0.137196004390717,0.106707997620106,-1080.30004882812,12.9000005722046,-959.700012207031,2.61331849256332,-0.2997268285676,0.134672689379984,ST
8.56666666666667,-2.5678277015686,-1.37154185771942,9.04451942443848,-0.0990860015153885,0.0533539988100529,0.0533539988100529,-1073.10009765625,11.7000007629395,-971.700012207031,2.6172003913244,-0.276116887218682,0.14921297487032,ST
8.6,-2.98951864242554,-1.63651919364929,9.21558856964111,0.0152439996600151,0.647870004177094,-0.106707997620106,-1065.90002441406,16.5,-957.300048828125,2.62487211596491,-0.307164004853074,0.173406523443629,ST
8.63333333333333,-3.02540707588196,-1.65865051746368,9.25506591796875,0.182927995920181,0.853663980960846,-0.518296003341675,-1068.30004882812,14.1000003814697,-964.500061035156,2.62833750287538,-0.312119225055805,0.177023850566764,ST
8.66666666666667,-3.18690586090088,-1.52287197113037,8.94582653045654,0.457319974899292,0.67835795879364,-0.449698001146317,-1068.30004882812,12.9000005722046,-959.700012207031,2.62810612331824,-0.33636041265144,0.168961869464892,ST
8.7,-3.21920537948608,-1.66582822799683,9.06964206695557,0.221037998795509,0.724089980125427,-0.304879993200302,-1065.90002441406,17.1000003814697,-976.500061035156,2.63352478367461,-0.336967847830145,0.180386781429845,ST
8.73333333333333,-3.08940839767456,-1.65506160259247,8.89917087554932,0.0609759986400604,0.335367977619171,-0.358233988285065,-1070.70007324219,14.7000007629395,-969.300048828125,2.63602480046319,-0.330056793231847,0.183692617288775,ST
8.76666666666667,-2.93508744239807,-1.66523003578186,8.63539028167725,-0.0838419944047928,0.327746003866196,-0.365855991840363,-1063.5,8.70000076293945,-964.500061035156,2.6394104382571,-0.323239063834682,0.190243332980357,ST
8.8,-2.77957034111023,-1.71487593650818,8.71075630187988,-0.381099998950958,0.37347799539566,-0.396344006061554,-1077.90002441406,12.3000001907349,-969.300048828125,2.64194350869105,-0.30567344094005,0.194849213282564,ST
8.83333333333333,-2.72872829437256,-1.88773918151855,8.73288726806641,-0.37347799539566,0.297257989645004,-0.487807989120483,-1056.30004882812,12.9000005722046,-966.900024414062,2.64846691222401,-0.297557808083228,0.212117907805581,ST
8.86666666666667,-2.37462759017944,-1.91645002365112,8.57138919830322,-0.182927995920181,0.213415995240211,-0.754577994346619,-1080.30004882812,13.5000009536743,-966.900024414062,2.65306005732007,-0.267157403352881,0.219905196506006,ST
8.9,-2.80529046058655,-1.97327363491058,9.26463603973389,0.221037998795509,-0.442075997591019,-0.731711983680725,-1058.70007324219,14.7000007629395,-962.100036621094,2.65282391218954,-0.285115224136685,0.210704145325319,ST
8.93333333333333,-3.02181839942932,-2.19339036941528,9.45664024353027,0.46494197845459,-0.403965979814529,-0.137196004390717,-1085.10009765625,14.7000007629395,-962.100036621094,2.6578002223227,-0.299721940318539,0.225758127566568,ST
8.96666666666667,-2.81486082077026,-1.64429497718811,8.92848014831543,0.663114011287689,-0.190549999475479,0.297257989645004,-1063.5,12.3000001907349,-962.100036621094,2.64497527613614,-0.300398570137554,0.183878362561948,ST
9.0,-3.06009936332703,-1.61020088195801,8.76159858703613,0.815553963184357,0.114329993724823,1.01372599601746,-1065.90002441406,13.5000009536743,-950.100036621094,2.64140642765565,-0.328834427649275,0.180097481887356,ST
9.03333333333333,-2.97994828224182,-1.87099123001099,8.79329967498779,0.0304879993200302,0.0152439996600151,0.884151995182037,-1070.70007324219,17.1000003814697,-954.900024414062,2.6470008191143,-0.321054614210239,0.206911786481418,ST
9.06666666666667,-2.62584757804871,-1.84826183319092,8.15627765655518,-0.571649968624115,-0.457319974899292,0.243903994560242,-1053.90002441406,14.7000007629395,-966.900024414062,2.64995252344115,-0.304871140069401,0.222396005668274,ST
9.1,-2.79990720748901,-2.08093929290771,8.56899642944336,-0.952749967575073,-0.556405961513519,-0.205793991684914,-1063.5,14.7000007629395,-962.100036621094,2.65399942463117,-0.306285857800179,0.23834689286992,ST
9.13333333333333,-2.68745636940002,-2.31720590591431,8.97094821929932,-0.602137982845306,-0.731711983680725,-0.297257989645004,-1063.5,16.5,-969.300048828125,2.65789458752099,-0.283039395267126,0.252605852710817,ST
9.16666666666667,-3.00088334083557,-2.41709566116333,8.9595832824707,-0.152439996600151,-0.525918006896973,-0.365855991840363,-1063.5,10.5,-964.500061035156,2.66154146482898,-0.309547768398867,0.263032234691513,ST
9.2,-3.10316562652588,-2.40991806983948,9.16773700714111,0.0609759986400604,0.0381099991500378,-0.121951997280121,-1073.10009765625,18.9000015258789,-959.700012207031,2.6603477417907,-0.3159112608594,0.257434202358335,ST
9.23333333333333,-3.1468300819397,-2.37642192840576,8.88900279998779,0.396344006061554,-0.37347799539566,0.571649968624115,-1075.5,14.1000003814697,-974.100036621094,2.65935311574255,-0.328160041237566,0.259953072700092,ST
9.26666666666667,-3.35618019104004,-2.35369253158569,8.83576774597168,0.0990860015153885,0.0152439996600151,0.899396002292633,-1058.70007324219,12.9000005722046,-952.500061035156,2.65646416299347,-0.350216590881851,0.259647364274266,ST
9.3,-3.04753851890564,-2.18441820144653,9.01461315155029,0.0609759986400604,-0.365855991840363,1.36433792114258,-1073.10009765625,18.9000015258789,-976.500061035156,2.64469288764807,-0.319877920977102,0.238504419819086,ST
9.33333333333333,-2.9661910533905,-2.06299519538879,8.77356147766113,0.129574000835419,-0.746955990791321,1.92074394226074,-1080.30004882812,17.7000007629395,-966.900024414062,2.63557808993699,-0.31766485042859,0.230353018011821,ST
9.36666666666667,-2.62883830070496,-1.98703098297119,8.36144065856934,0.0152439996600151,-0.769822001457214,2.22562384605408,-1070.70007324219,16.5,-976.500061035156,2.62833301532036,-0.29834826005849,0.231865008643685,ST
9.4,-2.84237551689148,-2.21970868110657,8.61505317687988,-0.198172003030777,0.114329993724823,2.08842802047729,-1061.10009765625,19.5,-954.900024414062,2.6268500775151,-0.309249621405218,0.249637678635738,ST
9.43333333333333,-2.66951203346252,-2.11024832725525,8.42065715789795,0.0685980021953583,0.25152599811554,1.63110792636871,-1063.5,18.9000015258789,-957.300048828125,2.62021105536778,-0.300190038177241,0.244979441062133,ST
9.46666666666667,-3.11273598670959,-1.93858134746552,8.92788219451904,0.381099998950958,0.198172003030777,1.37958192825317,-1061.10009765625,15.9000005722046,-950.100036621094,2.60721707324695,-0.326632254510613,0.215368248095069,ST
9.5,-3.00327587127686,-2.15750169754028,9.22216796875,1.22714197635651,-0.434453994035721,1.15092194080353,-1070.70007324219,12.9000005722046,-969.300048828125,2.60783590839696,-0.308575480854615,0.225945870975333,ST
9.53333333333333,-2.47332119941711,-2.1951847076416,8.82500171661377,1.50153398513794,-0.967993974685669,0.327746003866196,-1073.10009765625,10.5,-964.500061035156,2.61136481985607,-0.268082333172295,0.239580185313375,ST
9.56666666666667,-3.61039090156555,-1.80818617343903,9.2281494140625,2.0731840133667,-0.365855991840363,0.472563982009888,-1073.10009765625,18.3000011444092,-976.500061035156,2.59786208061289,-0.357278537429346,0.19420801694673,ST
9.6,-3.23655152320862,-1.75196075439453,8.90275955200195,2.27897787094116,-0.0304879993200302,0.99848198890686,-1063.5,24.9000015258789,-971.700012207031,2.59595227413093,-0.34421397324723,0.190117441700011,ST
9.63333333333333,-3.14802646636963,-1.30574607849121,8.85371208190918,2.00458598136902,-0.236281991004944,1.10518991947174,-1068.30004882812,14.1000003814697,-978.900024414062,2.57983847590013,-0.338652127314319,0.146179702393098,ST
9.66666666666667,-2.77957034111023,-1.31352198123932,8.81722545623779,1.69970595836639,-0.945127964019775,1.39482593536377,-1056.30004882812,12.3000001907349,-964.500061035156,2.57609401655743,-0.304377985922344,0.144265370835939,ST
9.7,-2.53911685943604,-1.16877138614655,8.56839847564697,1.19665396213531,-1.09756803512573,1.27287399768829,-1061.10009765625,12.3000001907349,-947.700012207031,2.56957236328257,-0.28583700755531,0.133785775637739,ST
9.73333333333333,-2.44879722595215,-1.27045571804047,8.91113376617432,0.571649968624115,-0.823175966739655,0.990859985351562,-1063.5,11.1000003814697,-962.100036621094,2.56794986050189,-0.26620807899474,0.13957180278172,ST
9.76666666666667,-2.78076672554016,-1.35000872612,8.78971099853516,-0.304879993200302,-0.602137982845306,0.739333987236023,-1061.10009765625,9.30000019073486,-959.700012207031,2.56801914798488,-0.299745878130499,0.151599770356926,ST
9.8,-2.96140575408936,-1.66283750534058,9.86995697021484,-0.83841997385025,-0.320124000310898,0.807931959629059,-1061.10009765625,14.7000007629395,-969.300048828125,2.56868045222122,-0.288468595417506,0.166454306335499,ST
9.83333333333333,-2.70420432090759,-1.2698575258255,9.02119255065918,-0.556405961513519,-0.579271972179413,0.823175966739655,-1068.30004882812,20.1000003814697,-971.700012207031,2.55823509872923,-0.287829681449877,0.142508851559818,ST
9.86666666666667,-2.92252659797668,-1.44571161270142,9.43271446228027,-0.266770005226135,0.167683988809586,1.46342396736145,-1065.90002441406,15.3000001907349,-959.700012207031,2.5554336724625,-0.297098191289139,0.151090996419899,ST
9.9,-2.69642853736877,-1.36256968975067,9.52841758728027,-0.0304879993200302,-0.83841997385025,1.13567793369293,-1073.10009765625,13.5000009536743,-957.300048828125,2.54880503307149,-0.274246530846757,0.14233401445999,ST
9.93333333333333,-2.82861804962158,-1.05332982540131,9.20601844787598,0.739333987236023,-1.04421401023865,1.41769194602966,-1068.30004882812,15.3000001907349,-957.300048828125,2.53666465976186,-0.29292274705663,0.114610669831799,ST
9.96666666666667,-2.58936095237732,-0.994113624095917,8.42005825042725,0.87652999162674,-0.533540010452271,1.37958192825317,-1068.30004882812,14.1000003814697,-954.900024414062,2.53274147108885,-0.295543568758349,0.115183895104544,ST
10.0,-2.87706780433655,-1.00129127502441,8.43262004852295,0.693601965904236,0.297257989645004,0.914639949798584,-1063.5,14.7000007629395,-969.300048828125,2.53095996005456,-0.324487489470101,0.116351772965168,ST
10.0333333333333,-3.28918814659119,-1.12929391860962,8.66589546203613,0.693601965904236,0.586893975734711,0.46494197845459,-1065.90002441406,11.7000007629395,-976.500061035156,2.53407984946822,-0.357783177938798,0.127043213874679,ST
10.0666666666667,-3.47042560577393,-1.17116391658783,9.29813289642334,0.472563982009888,-0.243903994560242,-0.182927995920181,-1075.5,12.3000001907349,-957.300048828125,2.53435323124596,-0.354517753550992,0.124793728403867,ST
10.1,-3.31730103492737,-1.26447427272797,9.68513107299805,0.487807989120483,-1.34147191047668,-0.510673999786377,-1073.10009765625,8.70000076293945,-966.900024414062,2.53734318517373,-0.327647029702901,0.128783495815004,ST
10.1333333333333,-2.47332119941711,-0.769211888313293,8.48406028747559,0.830797970294952,-2.03507399559021,-0.602137982845306,-1068.30004882812,15.9000005722046,-962.100036621094,2.52860535420953,-0.283353797676276,0.0927201786384899,ST
10.1666666666667,-3.20544815063477,-1.12929391860962,9.23114013671875,0.663114011287689,-0.426831990480423,-0.37347799539566,-1068.30004882812,14.7000007629395,-964.500061035156,2.53802550634455,-0.326798332874288,0.118173596777376,ST
10.2,-2.77179455757141,-1.14245307445526,9.22994422912598,0.670735955238342,-0.221037998795509,-0.6250039935112,-1077.90002441406,10.5,-962.100036621094,2.54208999785427,-0.291723920629282,0.122020536003519,ST
10.2333333333333,-2.20654940605164,-1.23277270793915,8.70118618011475,0.533540010452271,-0.556405961513519,-1.34909391403198,-1075.5,9.30000019073486,-962.100036621094,2.55177436301298,-0.247955307120701,0.139141192618779,ST
10.2666666666667,-2.53014469146729,-1.18791198730469,8.65692329406738,0.243903994560242,-0.37347799539566,-1.51677799224854,-1065.90002441406,17.1000003814697,-969.300048828125,2.5562468255863,-0.277862791442732,0.136877601518561,ST
10.3,-3.04574394226074,-1.28481113910675,8.78552436828613,-0.213415995240211,-0.0533539988100529,-0.777444005012512,-1065.90002441406,15.9000005722046,-957.300048828125,2.56118746083522,-0.326217853448656,0.145322870942162,DLL
10.3333333333333,-3.07086610794067,-1.54500329494476,9.02657604217529,-0.472563982009888,0.266770005226135,-0.0685980021953583,-1073.10009765625,17.1000003814697,-969.300048828125,2.56831702584366,-0.324193437795384,0.168141335460352,DLL
10.3666666666667,-3.74736571311951,-1.75973665714264,9.66240119934082,-0.899396002292633,0.0457319989800453,0.297257989645004,-1068.30004882812,7.50000047683716,-971.700012207031,2.57042565784622,-0.361012804251169,0.180311189359505,DLL
10.4,-3.13666176795959,-1.42776727676392,8.62103462219238,-1.21189796924591,-0.975615978240967,0.67835795879364,-1068.30004882812,12.9000005722046,-964.500061035156,2.56135832947316,-0.344497820361692,0.16680608197444,DLL
10.4333333333333,-3.47700500488281,-1.51090919971466,8.89797496795654,-2.65245604515076,-2.01982998847961,2.88873791694641,-1068.30004882812,11.7000007629395,-952.500061035156,2.54907463830342,-0.363238965476962,0.170387754965022,DLL
10.4666666666667,-3.49016427993774,-1.68616509437561,8.98470592498779,-3.30794787406921,-2.99544596672058,4.95429992675781,-1082.70007324219,12.3000001907349,-959.700012207031,2.53311560219829,-0.361330384496707,0.186141424267236,DLL
10.5,-2.98293900489807,-1.66044485569,8.29325199127197,-4.29118585586548,-3.46038794517517,6.82931184768677,-1073.10009765625,14.7000007629395,-964.500061035156,2.50690671316823,-0.337412374075749,0.199431300826764,DLL
10.5333333333333,-3.25629043579102,-1.93259990215302,7.93496465682983,-6.17382001876831,-3.7805118560791,10.1753702163696,-1085.10009765625,18.3000011444092,-959.700012207031,2.4781506354773,-0.373458459914137,0.238543124313168,DLL
10.5666666666667,-2.30165410041809,-2.48229336738586,7.60837841033936,-7.38571786880493,-4.00154972076416,12.4314813613892,-1094.70007324219,21.3000011444092,-966.900024414062,2.45170569496152,-0.288272367762074,0.313781423763018,DLL
10.6,-2.65037155151367,-2.59833312034607,8.14730548858643,-8.01834392547607,-4.68753004074097,12.9192895889282,-1104.30004882812,27.9000015258789,-942.900024414062,2.3985741616615,-0.298698088334344,0.315246144606221,DLL
10.6333333333333,-3.67678475379944,-3.00925731658936,8.65572738647461,-8.23938179016113,-4.26832008361816,14.054967880249,-1089.90002441406,30.9000015258789,-933.300048828125,2.34826519256721,-0.374956487397316,0.337164972843991,DLL
10.6666666666667,-3.12230634689331,-3.34541368484497,8.50858402252197,-8.49090766906738,-4.5655779838562,14.9391193389893,-1099.5,31.5000019073486,-952.500061035156,2.30098442225336,-0.334981354675087,0.3759175203203,DLL
10.7,-2.68027853965759,-3.6313259601593,8.55583667755127,-9.01682567596436,-5.79271984100342,14.3903360366821,-1094.70007324219,27.3000011444092,-935.700012207031,2.24782667329789,-0.285631180754685,0.406182236830785,DLL
10.7333333333333,-3.01224803924561,-3.60680222511292,7.74236249923706,-9.17688751220703,-6.6235179901123,13.8186855316162,-1099.5,35.1000022888184,-933.300048828125,2.19418487375888,-0.334698226097736,0.440165792623457,DLL
10.7666666666667,-2.22987699508667,-4.0595965385437,8.08569622039795,-9.58085346221924,-6.2195520401001,13.8949060440063,-1101.90002441406,45.3000030517578,-930.900024414062,2.1400135969262,-0.249739014021569,0.472223019822042,DLL
10.8,-1.52885341644287,-4.50222206115723,7.86976718902588,-9.2302417755127,-6.55491971969604,11.6235494613647,-1104.30004882812,48.3000030517578,-911.700012207031,2.09524716767436,-0.172822887072508,0.52734916231423,DLL
10.8333333333333,-1.58926582336426,-4.52734422683716,7.73518466949463,-8.33084583282471,-6.16619777679443,10.0991497039795,-1094.70007324219,51.3000030517578,-904.500061035156,2.05197488283139,-0.175033983789318,0.539244579080835,DLL
10.8666666666667,-1.8045973777771,-4.70020723342896,8.28069114685059,-7.05034971237183,-5.20582580566406,8.80340957641602,-1109.10009765625,54.9000015258789,-894.900024414062,2.00682411737499,-0.186375975299657,0.52619331805934,DLL
10.9,-1.77768087387085,-5.26186370849609,9.29454326629639,-5.25918006896973,-4.47411394119263,6.76071405410767,-1106.70007324219,58.5000038146973,-906.900024414062,1.97355471711274,-0.165731539500356,0.522212223502282,DLL
10.9333333333333,-1.97506809234619,-5.36175346374512,9.56430625915527,-3.06404399871826,-3.60520601272583,4.55795574188232,-1094.70007324219,57.9000015258789,-878.100036621094,1.94833969402908,-0.175990365989289,0.515007875756715,DLL
10.9666666666667,-1.75435328483582,-5.00825119018555,8.51037788391113,-1.08232402801514,-1.94360995292664,2.12653803825378,-1106.70007324219,60.9000015258789,-868.500061035156,1.94066793433487,-0.174871233093249,0.531449762611665,DLL
11.0,-1.99600315093994,-4.54469013214111,8.27770042419434,-0.579271972179413,-1.34147191047668,1.77592599391937,-1097.10009765625,60.9000015258789,-880.500061035156,1.92694705700696,-0.20552320125282,0.504341390783478,DLL
11.0333333333333,-1.99241423606873,-4.47470760345459,7.89429092407227,-0.0228659994900227,-0.792688012123108,2.5152599811554,-1094.70007324219,55.5000038146973,-885.300048828125,1.91968289168936,-0.216212524617776,0.513946166944898,DLL
11.0666666666667,-1.70410931110382,-4.611083984375,8.51935005187988,0.777444005012512,-0.434453994035721,1.80641400814056,-1092.30004882812,61.5000038146973,-882.900024414062,1.91039331924359,-0.178384825445601,0.49578218145575,DLL
11.1,-1.65266907215118,-4.41967821121216,7.29136276245117,1.15092194080353,-0.762199997901917,0.0,-1101.90002441406,62.7000007629395,-880.500061035156,1.91779829744047,-0.189513249111099,0.539546648838548,DLL
11.1333333333333,-2.37343120574951,-4.21930074691772,8.19814777374268,1.28811800479889,0.0990860015153885,-0.121951997280121,-1092.30004882812,52.5000038146973,-878.100036621094,1.90623923892797,-0.246413598461141,0.47921999433108,DLL
11.1666666666667,-1.99361050128937,-4.54229784011841,8.17481994628906,1.06708002090454,-0.213415995240211,-0.724089980125427,-1092.30004882812,57.3000030517578,-875.700012207031,1.91454948182834,-0.211930522938529,0.503546704779602,DLL
11.2,-1.96609592437744,-4.56622362136841,8.23882102966309,0.564027965068817,-0.99848198890686,-1.02134799957275,-1101.90002441406,61.5000038146973,-892.500061035156,1.91666207292094,-0.2041563241831,0.505098225241914,DLL
11.2333333333333,-1.98762905597687,-4.37122869491577,7.83028984069824,1.12805593013763,-0.830797970294952,-0.967993974685669,-1099.5,56.1000022888184,-880.500061035156,1.91940177473853,-0.214953912017182,0.507144215861545,DLL
11.2666666666667,-2.07555603981018,-4.90656661987305,8.34289836883545,1.20427596569061,-0.0533539988100529,-1.06708002090454,-1094.70007324219,50.7000007629395,-882.900024414062,1.92768437537632,-0.210669301879669,0.527810622858451,DLL
11.3,-1.09699416160583,-5.18948841094971,7.00724506378174,-0.487807989120483,-1.55488801002502,-1.79879200458527,-1104.30004882812,62.7000007629395,-882.900024414062,1.94665538798297,-0.129437646664302,0.628532117767908,DLL
11.3333333333333,-2.7903368473053,-4.68944072723389,8.68144702911377,-0.46494197845459,-0.579271972179413,0.571649968624115,-1104.30004882812,55.5000038146973,-870.900024414062,1.91931404180412,-0.264503700353362,0.506170410286666,DLL
11.3666666666667,-1.49176859855652,-4.87546348571777,8.26932621002197,-0.0,-0.442075997591019,0.960371971130371,-1106.70007324219,51.9000015258789,-878.100036621094,1.92081152021146,-0.164363720769344,0.530088158365948,DLL
11.4,-1.61618232727051,-4.76959228515625,8.00614356994629,-0.342989981174469,-0.609759986400604,0.175305992364883,-1101.90002441406,57.9000015258789,-894.900024414062,1.92020103428895,-0.170362045354801,0.537050089774472,DLL
11.4333333333333,-2.01215291023254,-4.03088569641113,8.0653600692749,0.274392008781433,-0.25152599811554,0.160062000155449,-1097.10009765625,57.3000030517578,-870.900024414062,1.90659121386287,-0.21495606935067,0.469669909152096,DLL
11.4666666666667,-2.03787302970886,-4.09428882598877,8.74305534362793,1.39482593536377,0.129574000835419,0.640248000621796,-1099.5,62.1000022888184,-878.100036621094,1.89919460252124,-0.20924042560323,0.43816233732337,DLL
11.5,-0.970187902450562,-4.04882955551147,6.89120531082153,0.282013982534409,-0.426831990480423,-0.853663980960846,-1106.70007324219,57.3000030517578,-885.300048828125,1.91582473194963,-0.125719497099614,0.524545838365672,DLL
11.5333333333333,-2.74009299278259,-4.31739616394043,9.66718673706055,0.419209986925125,-0.274392008781433,0.0838419944047928,-1099.5,56.1000022888184,-885.300048828125,1.89788678329482,-0.241544917989701,0.429046661399621,DLL
11.5666666666667,-0.851157426834106,-4.5931396484375,8.02109718322754,0.952749967575073,-1.32622802257538,-0.777444005012512,-1116.30004882812,55.5000038146973,-880.500061035156,1.91264042999914,-0.103169468864613,0.510500881238604,DLL
11.6,-1.58388257026672,-4.29526472091675,7.8859167098999,0.221037998795509,-1.16616594791412,-1.2423859834671,-1121.10009765625,57.3000030517578,-878.100036621094,1.91315504896165,-0.166594008318691,0.499431772842685,DLL
11.6333333333333,-1.57371413707733,-4.37541580200195,8.06117248535156,0.327746003866196,0.0152439996600151,-0.266770005226135,-1111.5,60.3000030517578,-897.300048828125,1.91379202487044,-0.169464919887172,0.496999661187236,DLL
11.6666666666667,-1.77528834342957,-4.12778472900391,8.03664875030518,1.14329993724823,0.525918006896973,0.46494197845459,-1099.5,56.7000007629395,-880.500061035156,1.90991812143501,-0.192891819056638,0.474662360734548,DLL
11.7,-1.52227389812469,-4.02669858932495,7.8476357460022,0.434453994035721,0.891773998737335,0.442075997591019,-1111.5,53.7000007629395,-880.500061035156,1.91004370630235,-0.173905780185474,0.473410915292338,DLL
11.7333333333333,-1.98045134544373,-4.3903694152832,8.79389762878418,0.632625997066498,0.525918006896973,0.937505960464478,-1111.5,57.9000015258789,-885.300048828125,1.90625190829414,-0.198566894566238,0.462543322803192,DLL
11.7666666666667,-1.82134532928467,-4.23664665222168,8.728102684021,-0.0,0.144817993044853,0.137196004390717,-1106.70007324219,59.1000022888184,-870.900024414062,1.90413109294035,-0.186772160132675,0.45261269515641,DLL
11.8,-1.32548487186432,-4.38139724731445,8.11141681671143,-0.160062000155449,-0.0838419944047928,-0.0304879993200302,-1099.5,52.5000038146973,-882.900024414062,1.91048315749453,-0.146665984313796,0.491670159445515,DLL
11.8333333333333,-1.36496222019196,-4.68944072723389,8.09048175811768,-0.236281991004944,0.419209986925125,-0.388722002506256,-1106.70007324219,63.9000015258789,-878.100036621094,1.91701883677443,-0.145347366506226,0.523502882770862,DLL
11.8666666666667,-1.65924859046936,-4.58715867996216,8.01212501525879,0.182927995920181,1.33385002613068,-0.663114011287689,-1104.30004882812,60.3000030517578,-873.300048828125,1.92084075422234,-0.176198861203476,0.520345109214198,DLL
11.9,-1.72085738182068,-4.30961990356445,7.53540515899658,0.564027965068817,1.60061991214752,-0.106707997620106,-1094.70007324219,57.3000030517578,-894.900024414062,1.92396182533314,-0.196059409388505,0.518968415989021,DLL
11.9333333333333,-1.82014906406403,-4.59134531021118,7.99118995666504,0.350611984729767,1.42531394958496,0.564027965068817,-1101.90002441406,61.5000038146973,-880.500061035156,1.9252948480251,-0.19748958497641,0.520781380236571,DLL
11.9666666666667,-2.03847122192383,-4.298255443573,8.00734043121338,-0.144817993044853,0.861285984516144,0.548784017562866,-1085.10009765625,56.1000022888184,-897.300048828125,1.91960060153974,-0.220560181862299,0.494984679108442,DLL
12.0,-2.00497531890869,-4.25758171081543,7.7878212928772,0.815553963184357,1.39482593536377,0.510673999786377,-1097.10009765625,54.3000030517578,-892.500061035156,1.92189505397676,-0.224445539080962,0.498694094712904,DLL
12.0333333333333,-2.48408770561218,-4.28928327560425,8.71972846984863,0.907018005847931,1.83690190315247,-0.426831990480423,-1099.5,62.7000007629395,-885.300048828125,1.91769319796453,-0.250476198822795,0.459634977886706,DLL
12.0666666666667,-1.98703098297119,-4.88742637634277,8.44757270812988,0.449698001146317,0.945127964019775,-2.0731840133667,-1097.10009765625,57.9000015258789,-892.500061035156,1.93904378380728,-0.205133115376106,0.518756566361236,DLL
12.1,-1.93917953968048,-5.27921009063721,8.68683052062988,0.0533539988100529,0.609759986400604,-2.72867584228516,-1097.10009765625,55.5000038146973,-875.700012207031,1.95309444624065,-0.188624802500851,0.544345530626584,DLL
12.1333333333333,-1.11613476276398,-5.6464695930481,7.3164849281311,0.3125019967556,0.975615978240967,-4.50460195541382,-1089.90002441406,53.1000022888184,-887.700012207031,1.983886760699,-0.123634259712357,0.647522901027975,DLL
12.1666666666667,-2.66592311859131,-5.16735696792603,8.1843900680542,1.74543797969818,2.17989206314087,-3.44514393806458,-1106.70007324219,60.3000030517578,-885.300048828125,1.9841567275897,-0.255625887639362,0.56986527259465,DLL
12.2,-2.61089396476746,-5.07643938064575,7.60837841033936,2.4847719669342,2.38568592071533,-1.6844619512558,-1094.70007324219,52.5000038146973,-892.500061035156,1.99919695468578,-0.277730462679879,0.583960380205947,DLL
12.2333333333333,-2.107257604599,-5.06866359710693,6.53650617599487,0.670735955238342,1.57013201713562,-1.60824191570282,-1089.90002441406,55.5000038146973,-885.300048828125,2.02523381975351,-0.252589374556703,0.652638080465563,DLL
12.2666666666667,-3.36993741989136,-4.95920324325562,6.68006086349487,-0.221037998795509,1.69970595836639,0.114329993724823,-1094.70007324219,60.3000030517578,-880.500061035156,2.02430270310816,-0.375178209540392,0.640895828874219,DLL
12.3,-3.15460610389709,-4.89699649810791,7.10115337371826,0.37347799539566,1.22714197635651,0.830797970294952,-1094.70007324219,54.9000015258789,-892.500061035156,2.01259298163248,-0.355197918758217,0.606464914887485,DLL
12.3333333333333,-4.274329662323,-4.97415685653687,8.72630786895752,-0.198172003030777,0.594515979290009,1.83690190315247,-1087.5,50.1000022888184,-899.700012207031,1.97850476519428,-0.400542594871297,0.525683172114146,DLL
12.3666666666667,-3.58825969696045,-5.63211441040039,7.98520851135254,-0.259148001670837,0.243903994560242,1.27287399768829,-1092.30004882812,57.3000030517578,-885.300048828125,2.00501189263702,-0.357939750831262,0.606253860688277,DLL
12.4,-4.10385894775391,-5.21939563751221,7.50848865509033,-0.533540010452271,0.0914639979600906,0.701223969459534,-1089.90002441406,48.3000030517578,-897.300048828125,2.00321153566552,-0.41682149650562,0.607843977564313,DLL
12.4333333333333,-3.54459524154663,-4.88862228393555,7.44209480285645,0.37347799539566,-0.632625997066498,3.07928800582886,-1089.90002441406,51.3000030517578,-887.700012207031,1.98401461741791,-0.384160914018177,0.581077871604053,DLL
12.4666666666667,-2.89202117919922,-4.70260000228882,7.19506168365479,-0.144817993044853,-1.78354799747467,3.88721990585327,-1087.5,51.9000015258789,-885.300048828125,1.96867428298085,-0.330946608281851,0.576942921133927,DLL
12.5,-2.77358889579773,-4.6290283203125,7.73997020721436,-0.0152439996600151,-2.08842802047729,4.35216188430786,-1085.10009765625,53.1000022888184,-894.900024414062,1.94024592322936,-0.301591786878152,0.539389881278485,DLL
12.5333333333333,-2.03847122192383,-4.58117723464966,8.06356525421143,0.388722002506256,-2.02745199203491,2.9192259311676,-1085.10009765625,51.3000030517578,-885.300048828125,1.922844881467,-0.2235944847923,0.516702064975028,DLL
12.5666666666667,-2.26696181297302,-4.43702459335327,8.1126127243042,0.922261953353882,-2.38568592071533,2.37806391716003,-1075.5,53.7000007629395,-880.500061035156,1.90869801121489,-0.237405090480513,0.499260262595857,DLL
12.6,-2.40872168540955,-4.27133893966675,8.08749103546143,1.18140995502472,-1.59299790859222,1.86738991737366,-1085.10009765625,51.9000015258789,-885.300048828125,1.89800664092179,-0.254851191171417,0.484264802287397,DLL
12.6333333333333,-1.60661196708679,-4.60809326171875,8.23463439941406,0.617381989955902,-1.84452390670776,0.609759986400604,-1077.90002441406,60.3000030517578,-882.900024414062,1.89837057111768,-0.174376127725961,0.506479742409448,DLL
12.6666666666667,-0.322997212409973,-4.9454460144043,7.13943433761597,-0.0228659994900227,-2.26373386383057,-1.65397393703461,-1089.90002441406,54.9000015258789,-892.500061035156,1.90896491946603,-0.0453766900694007,0.596980223233571,DLL
12.7,-1.3841028213501,-4.55186796188354,7.76329755783081,0.6250039935112,-1.42531394958496,-1.65397393703461,-1089.90002441406,58.5000038146973,-885.300048828125,1.90568855854641,-0.139676121897399,0.535593724760557,DLL
12.7333333333333,-2.19638109207153,-3.98901557922363,7.70946455001831,3.39941191673279,1.44817996025085,-0.449698001146317,-1085.10009765625,52.5000038146973,-885.300048828125,1.90076554862705,-0.239798100899066,0.477857878161814,DLL
12.7666666666667,-2.64977335929871,-3.72164559364319,7.69929647445679,3.59758400917053,2.08842802047729,-0.327746003866196,-1087.5,58.5000038146973,-882.900024414062,1.90015752236873,-0.297752085884319,0.447644121688904,DLL
12.8,-3.8957052230835,-3.44470548629761,8.33871078491211,2.66770005226135,2.17989206314087,0.335367977619171,-1097.10009765625,54.9000015258789,-902.100036621094,1.8864550212312,-0.40282050366511,0.392177110439192,DLL
12.8333333333333,-2.68685817718506,-4.49743700027466,8.85191822052002,1.80641400814056,0.99848198890686,0.518296003341675,-1087.5,56.1000022888184,-887.700012207031,1.91168739962009,-0.275803027849111,0.46204014569876,DLL
12.8666666666667,-2.43085312843323,-4.62244892120361,8.6024923324585,-0.198172003030777,-1.31098401546478,0.137196004390717,-1080.30004882812,57.9000015258789,-897.300048828125,1.91631588764903,-0.244609284427529,0.490764869944006,DLL
12.9,-2.62644577026367,-4.65115976333618,8.95420074462891,0.388722002506256,-0.228659987449646,0.716467976570129,-1085.10009765625,52.5000038146973,-897.300048828125,1.91105411855704,-0.254168769204043,0.478939309208115,DLL
12.9333333333333,-1.65625786781311,-4.65773916244507,8.31478500366211,0.830797970294952,0.25152599811554,0.518296003341675,-1085.10009765625,55.5000038146973,-887.700012207031,1.916457805053,-0.179055846051156,0.506841075542665,DLL
12.9666666666667,-0.206957474350929,-4.39515447616577,6.59871339797974,0.830797970294952,-0.175305992364883,-0.426831990480423,-1082.70007324219,56.7000007629395,-887.700012207031,1.92552649423409,-0.0395559682281911,0.579108648331695,DLL
13.0,-0.985739588737488,-3.89271450042725,6.87266254425049,1.05945801734924,-0.0533539988100529,-0.160062000155449,-1087.5,51.9000015258789,-918.900024414062,1.92155881966976,-0.116362289688355,0.519521848491146,DLL
13.0333333333333,-1.22439861297607,-3.76172113418579,7.37091588973999,1.85214591026306,0.922261953353882,0.0990860015153885,-1080.30004882812,50.1000022888184,-909.300048828125,1.91757880884441,-0.145525322029508,0.473349522854168,DLL
13.0666666666667,-3.07624936103821,-3.1408486366272,8.47747993469238,1.87501192092896,0.922261953353882,0.274392008781433,-1077.90002441406,51.3000030517578,-906.900024414062,1.8937693008277,-0.315941045524865,0.361281053261434,DLL
13.1,-3.59424114227295,-3.46982741355896,9.25566387176514,1.36433792114258,0.739333987236023,0.807931959629059,-1089.90002441406,48.3000030517578,-904.500061035156,1.89208046251111,-0.348085427061244,0.356343608391077,DLL
13.1333333333333,-3.49973464012146,-3.41001296043396,9.09835243225098,-0.236281991004944,-0.663114011287689,-0.198172003030777,-1087.5,51.9000015258789,-902.100036621094,1.8924642165931,-0.344840407381604,0.358735618479961,DLL
13.1666666666667,-2.84177732467651,-3.58766150474548,8.77834606170654,-0.868907988071442,-1.37195992469788,-0.647870004177094,-1080.30004882812,48.9000015258789,-914.100036621094,1.90066263896071,-0.293623784710386,0.386796439944819,DLL
13.2,-2.49605059623718,-3.74317860603333,8.1371374130249,-1.43293595314026,-1.19665396213531,-1.45580196380615,-1092.30004882812,51.9000015258789,-906.900024414062,1.91411043388685,-0.271108124717547,0.429799246662665,DLL
13.2333333333333,-2.40453481674194,-3.69472908973694,7.60239696502686,-1.12043392658234,-0.846041977405548,-1.08232402801514,-1089.90002441406,50.1000022888184,-904.500061035156,1.92120005369563,-0.274653755873657,0.452382511197821,DLL
13.2666666666667,-2.44461035728455,-3.8478536605835,7.42953395843506,-0.914639949798584,-0.266770005226135,-0.571649968624115,-1087.5,57.9000015258789,-906.900024414062,1.92845098802851,-0.282613269974233,0.477190201519407,DLL
13.3,-2.66053986549377,-4.02191352844238,7.60718250274658,-1.00610399246216,0.350611984729767,-0.221037998795509,-1089.90002441406,54.3000030517578,-899.700012207031,1.93152904221475,-0.298632613705396,0.487282901341267,DLL
13.3333333333333,-2.91056370735168,-4.42147302627563,7.92300176620483,-1.41006994247437,0.442075997591019,-0.0762199983000755,-1094.70007324219,48.9000015258789,-887.700012207031,1.93772888526403,-0.310177876092403,0.509945765481023,DLL
13.3666666666667,-3.06309008598328,-4.81983613967896,8.2800931930542,-2.0579400062561,-0.144817993044853,0.701223969459534,-1080.30004882812,56.1000022888184,-887.700012207031,1.93872286997245,-0.309863949943269,0.52896206362212,DLL
13.4,-3.01523876190186,-5.0375599861145,8.29684162139893,-2.01982998847961,-0.525918006896973,1.12043392658234,-1085.10009765625,56.7000007629395,-887.700012207031,1.9379276114792,-0.302185262683501,0.546757358233211,DLL
13.4333333333333,-3.14623212814331,-4.95202589035034,8.33691692352295,-0.907018005847931,-0.0381099991500378,2.17989206314087,-1087.5,59.7000007629395,-892.500061035156,1.92792442645696,-0.314428856827978,0.537435211598311,DLL
13.4666666666667,-2.61926817893982,-4.96219396591187,7.90027236938477,-0.259148001670837,0.137196004390717,1.76068198680878,-1080.30004882812,53.7000007629395,-887.700012207031,1.92877583024389,-0.278216818626011,0.558989790562255,DLL
13.5,-2.47810626029968,-4.80847120285034,7.58146238327026,-0.472563982009888,-0.167683988809586,0.975615978240967,-1077.90002441406,54.3000030517578,-880.500061035156,1.92691997595545,-0.270729210420151,0.565000029242281,DLL
13.5333333333333,-2.52057456970215,-4.90716505050659,8.12397766113281,-0.495429992675781,-0.358233988285065,0.777444005012512,-1082.70007324219,54.3000030517578,-885.300048828125,1.91858503206524,-0.26075642186085,0.545752159001208,DLL
13.5666666666667,-1.89970207214355,-4.89221143722534,7.79021406173706,-0.190549999475479,-0.647870004177094,-0.182927995920181,-1087.5,63.3000030517578,-880.500061035156,1.92102653482391,-0.207804489712454,0.55965352311925,DLL
13.6,-2.02471399307251,-5.03576564788818,7.77107334136963,1.21951997280121,0.0076219998300075,-0.609759986400604,-1082.70007324219,59.1000022888184,-890.100036621094,1.92661341570645,-0.214270859340161,0.572204521372487,DLL
13.6333333333333,-2.09649109840393,-4.87307071685791,7.15319156646729,1.63110792636871,0.46494197845459,-1.76068198680878,-1082.70007324219,54.3000030517578,-890.100036621094,1.9384798983127,-0.234594431634866,0.593724933366641,DLL
13.6666666666667,-2.32378554344177,-4.52495145797729,7.44987058639526,1.6615959405899,0.731711983680725,-1.27287399768829,-1070.70007324219,48.3000030517578,-882.900024414062,1.93369456631125,-0.258143252159542,0.548157024156279,DLL
13.7,-3.13965249061584,-4.238440990448,7.62632274627686,0.914639949798584,-0.175305992364883,-0.480185985565186,-1082.70007324219,55.5000038146973,-887.700012207031,1.92442968029412,-0.336947412286281,0.509797678150013,DLL
13.7333333333333,-2.98652791976929,-4.63381338119507,8.20771789550781,0.67835795879364,-0.342989981174469,1.2423859834671,-1085.10009765625,56.7000007629395,-894.900024414062,1.92172170383567,-0.310065264753354,0.511865858069409,DLL
13.7666666666667,-2.47272300720215,-4.88024854660034,7.70348310470581,-0.46494197845459,-0.853663980960846,-0.213415995240211,-1089.90002441406,59.7000007629395,-894.900024414062,1.93429486833858,-0.267609166107079,0.560588831975227,DLL
13.8,-2.7903368473053,-4.82282686233521,7.67178153991699,-0.548784017562866,-0.586893975734711,-0.289635986089706,-1094.70007324219,58.5000038146973,-890.100036621094,1.93390881081647,-0.295098443312799,0.56201374710258,DLL
13.8333333333333,-2.65515661239624,-4.70200204849243,7.9098424911499,0.0914639979600906,-0.457319974899292,0.205793991684914,-1082.70007324219,58.5000038146973,-902.100036621094,1.92561346459154,-0.281431543792378,0.537740865377831,DLL
13.8666666666667,-2.24064350128174,-4.75045156478882,7.36134576797485,0.160062000155449,-1.09756803512573,0.106707997620106,-1089.90002441406,59.1000022888184,-887.700012207031,1.93185342744913,-0.251343339664972,0.569890659503316,DLL
13.9,-2.87766575813293,-4.76779747009277,7.84105634689331,0.914639949798584,0.0152439996600151,0.152439996600151,-1092.30004882812,54.3000030517578,-887.700012207031,1.92599499424311,-0.300071277376739,0.546593823650749,DLL
13.9333333333333,-2.7682056427002,-4.75583457946777,7.5850510597229,0.891773998737335,-0.0533539988100529,-0.304879993200302,-1097.10009765625,50.7000007629395,-887.700012207031,1.93112465925206,-0.299559746871251,0.557778708266656,DLL
13.9666666666667,-3.03497743606567,-4.77916240692139,8.01870441436768,0.327746003866196,-0.495429992675781,0.78506600856781,-1094.70007324219,61.5000038146973,-904.500061035156,1.92215212642245,-0.313300264570473,0.537857063068723,DLL
14.0,-3.04036068916321,-4.72712373733521,8.49063968658447,0.602137982845306,-0.304879993200302,1.44055795669556,-1085.10009765625,54.3000030517578,-894.900024414062,1.90940496861538,-0.304842935699337,0.509033447218897,DLL
14.0333333333333,-1.94336652755737,-5.0590934753418,7.01023578643799,0.0457319989800453,-1.2576299905777,0.259148001670837,-1092.30004882812,52.5000038146973,-887.700012207031,1.93446263971637,-0.225642868273958,0.616839970512533,DLL
14.0666666666667,-3.05770683288574,-4.76121807098389,8.07253742218018,0.823175966739655,-0.617381989955902,1.36433792114258,-1104.30004882812,50.7000007629395,-899.700012207031,1.90836745201173,-0.310175098774004,0.53618964368715,DLL
14.1,-1.84826183319092,-4.82641553878784,7.00186157226562,1.20427596569061,-0.579271972179413,1.54726600646973,-1080.30004882812,50.7000007629395,-880.500061035156,1.91953936557949,-0.223423466891402,0.595043383001629,DLL
14.1333333333333,-2.79990720748901,-4.40113592147827,7.86079502105713,1.12805593013763,-0.0685980021953583,1.71494996547699,-1101.90002441406,55.5000038146973,-887.700012207031,1.89514573060568,-0.295698391871836,0.515726755253897,DLL
14.1666666666667,-2.31002807617188,-4.6708984375,8.04203224182129,1.6844619512558,-0.144817993044853,1.38720393180847,-1087.5,54.9000015258789,-894.900024414062,1.89406005084804,-0.248692302869563,0.52211562148713,DLL
14.2,-1.95712375640869,-4.65594482421875,7.62512636184692,0.937505960464478,-0.960371971130371,0.426831990480423,-1087.5,56.7000007629395,-887.700012207031,1.89689284456272,-0.216955939973343,0.544566135677825,DLL
14.2333333333333,-3.43334054946899,-4.20494508743286,8.74425220489502,1.09756803512573,-0.846041977405548,0.990859985351562,-1080.30004882812,55.5000038146973,-894.900024414062,1.86907064513826,-0.329603606706885,0.454112057815332,DLL
14.2666666666667,-2.32438349723816,-4.58416795730591,8.39134788513184,1.41006994247437,-0.0762199983000755,1.71494996547699,-1080.30004882812,54.3000030517578,-894.900024414062,1.87632657955392,-0.247943170060976,0.493063480776325,DLL
14.3,-1.92901110649109,-4.43582820892334,7.71305370330811,0.442075997591019,-0.87652999162674,0.602137982845306,-1092.30004882812,54.3000030517578,-885.300048828125,1.87926163523886,-0.215887747704526,0.518281953160081,DLL
14.3333333333333,-1.96609592437744,-4.29646110534668,7.69391298294067,0.548784017562866,-0.754577994346619,0.937505960464478,-1075.5,51.3000030517578,-885.300048828125,1.87337081575413,-0.218917955413376,0.508654909627529,DLL
14.3666666666667,-1.43973016738892,-4.42506170272827,7.46960926055908,0.556405961513519,-0.823175966739655,0.868907988071442,-1089.90002441406,56.7000007629395,-899.700012207031,1.8740546249109,-0.168427261904988,0.531458802001978,DLL
14.4,-1.84527111053467,-4.29047966003418,8.41228294372559,0.960371971130371,-0.556405961513519,0.967993974685669,-1094.70007324219,51.9000015258789,-892.500061035156,1.86044378682797,-0.191094912505611,0.474269879920295,DLL
14.4333333333333,-1.90209460258484,-4.36345291137695,8.77356147766113,1.75305998325348,0.160062000155449,0.861285984516144,-1077.90002441406,58.5000038146973,-892.500061035156,1.8564501216543,-0.192513252745117,0.459671946154998,DLL
14.4666666666667,-1.83151376247406,-4.17563629150391,8.64914703369141,2.09605002403259,0.716467976570129,-0.487807989120483,-1085.10009765625,59.1000022888184,-899.700012207031,1.85807775877453,-0.189490746076016,0.447573949883426,DLL
14.5,-1.91944074630737,-3.90647172927856,8.68563365936279,1.81403601169586,0.518296003341675,-1.96647596359253,-1085.10009765625,46.5,-892.500061035156,1.86128864774181,-0.197489713326904,0.422666482526479,DLL
14.5333333333333,-2.02232146263123,-3.68874764442444,8.18379211425781,2.4923939704895,0.983237981796265,-1.96647596359253,-1104.30004882812,53.7000007629395,-894.900024414062,1.87000067384307,-0.219555179456935,0.420198208804073,DLL
14.5666666666667,-1.96908664703369,-3.45726633071899,8.13833332061768,2.75154185295105,1.78354799747467,-2.24086785316467,-1092.30004882812,47.1000022888184,-916.500061035156,1.87698944361297,-0.220362235224028,0.39999817154944,DLL
14.6,-2.02830290794373,-3.44231271743774,8.06595802307129,2.41617393493652,2.09605002403259,-2.27135586738586,-1085.10009765625,57.9000015258789,-909.300048828125,1.88871244382672,-0.228318987927193,0.400293164374821,DLL
14.6333333333333,-2.71437287330627,-3.30055284500122,8.52892017364502,1.80641400814056,1.82165801525116,-1.96647596359253,-1075.5,49.5000038146973,-906.900024414062,1.89203428143477,-0.286365394551936,0.369416196382518,DLL
14.6666666666667,-2.29985976219177,-3.5673246383667,8.46013450622559,1.47104597091675,1.49391198158264,-1.265251994133,-1077.90002441406,50.1000022888184,-906.900024414062,1.90586568246744,-0.250594274278797,0.394784795232609,DLL
14.7,-2.17544603347778,-3.58467078208923,8.25856018066406,1.12805593013763,1.2500079870224,-1.81403601169586,-1089.90002441406,56.7000007629395,-897.300048828125,1.91705912565336,-0.239007712933072,0.407240002086422,DLL
14.7333333333333,-2.84716057777405,-3.74437499046326,8.58574390411377,1.12043392658234,2.02745199203491,-1.53964400291443,-1092.30004882812,46.5,-911.700012207031,1.92729383304858,-0.293620010207489,0.410224695914979,DLL
14.7666666666667,-2.44700288772583,-4.04464292526245,8.19455909729004,0.78506600856781,1.63872992992401,-1.97409796714783,-1089.90002441406,41.7000007629395,-914.100036621094,1.94909303059609,-0.265093599861896,0.454726981907261,DLL
14.8,-3.2245888710022,-3.87955522537231,8.1604642868042,0.152439996600151,1.37958192825317,-1.85976791381836,-1089.90002441406,48.9000015258789,-923.700012207031,1.95408095622898,-0.336452653383406,0.44577496683357,DLL
14.8333333333333,-3.07983827590942,-4.33952713012695,8.17900657653809,0.160062000155449,1.57775402069092,-0.899396002292633,-1085.10009765625,49.5000038146973,-909.300048828125,1.97280518631861,-0.323715350692892,0.485766634724531,DLL
14.8666666666667,-2.9422652721405,-4.21870231628418,8.19934368133545,-0.190549999475479,0.647870004177094,-1.11281192302704,-1089.90002441406,50.1000022888184,-921.300048828125,1.97432597404552,-0.310094041066166,0.476965065591709,DLL
14.9,-3.08163261413574,-4.12778472900391,8.32734680175781,0.685979962348938,0.762199997901917,0.0,-1082.70007324219,51.9000015258789,-911.700012207031,1.97118038048526,-0.320332698999197,0.460803849482541,DLL
14.9333333333333,-2.44640469551086,-4.3425178527832,8.04263019561768,0.6250039935112,0.663114011287689,0.0,-1085.10009765625,50.1000022888184,-916.500061035156,1.98160385713769,-0.267812595010925,0.491190166107549,DLL
14.9666666666667,-2.54270577430725,-4.13077545166016,8.09167766571045,0.137196004390717,0.282013982534409,0.0152439996600151,-1087.5,47.7000007629395,-906.900024414062,1.97736991592957,-0.272932131431691,0.473288090576999,DLL
15.0,-3.03437924385071,-4.11701822280884,8.25856018066406,0.175305992364883,1.09756803512573,0.617381989955902,-1080.30004882812,56.1000022888184,-916.500061035156,1.97440971765992,-0.315643588054569,0.463146512237641,DLL
15.0333333333333,-2.34950566291809,-4.38678073883057,8.49662113189697,0.663114011287689,1.08994603157043,0.282013982534409,-1082.70007324219,51.3000030517578,-911.700012207031,1.97923023349745,-0.247419894287586,0.474809590845917,DLL
15.0666666666667,-2.9320969581604,-4.0476336479187,8.28128910064697,0.975615978240967,0.846041977405548,-0.533540010452271,-1075.5,53.7000007629395,-926.100036621094,1.97783117439748,-0.304263265452333,0.455018287093051,DLL
15.1,-2.15451097488403,-4.46992254257202,7.78662538528442,1.78354799747467,1.55488801002502,-0.960371971130371,-1061.10009765625,48.3000030517578,-909.300048828125,2.00135332856235,-0.24178226830914,0.514433402214623,DLL
15.1333333333333,-2.90577864646912,-3.9459490776062,7.50430154800415,1.97409796714783,1.47866797447205,-1.94360995292664,-1070.70007324219,48.9000015258789,-928.500061035156,2.00329335479662,-0.323510705738928,0.484747747565197,DLL
15.1666666666667,-2.84476804733276,-3.9878191947937,7.49772214889526,3.31556987762451,2.62196803092957,-1.72257196903229,-1073.10009765625,43.5,-918.900024414062,2.01590881058264,-0.325669563529898,0.484658244066595,DLL
15.2,-3.36036729812622,-4.45377254486084,8.62582015991211,4.62655401229858,3.47563195228577,-2.60672402381897,-1056.30004882812,48.9000015258789,-923.700012207031,2.03085297001131,-0.335738514162102,0.471955208531148,DLL
15.2333333333333,-1.61797678470612,-5.74157428741455,8.49542427062988,4.6494197845459,1.2500079870224,-6.00613594055176,-1085.10009765625,42.9000015258789,-928.500061035156,2.08063663761484,-0.169864647972077,0.578196243177336,DLL
15.2666666666667,-3.72044920921326,-4.25219821929932,8.41347885131836,5.23631381988525,1.14329993724823,-8.8643856048584,-1056.30004882812,35.7000007629395,-930.900024414062,2.08758172567085,-0.355330992247353,0.473025487356727,DLL
15.3,-3.45786452293396,-3.99260425567627,7.78961610794067,7.36285161972046,4.00154972076416,-7.01223993301392,-1080.30004882812,33.9000015258789,-926.100036621094,2.12259242576606,-0.3752957920041,0.466772964354866,DLL
15.3333333333333,-2.70360612869263,-4.0476336479187,7.05270385742188,6.95126390457153,2.90398192405701,-7.44669389724731,-1077.90002441406,36.3000030517578,-940.500061035156,2.17109834321693,-0.324355331254261,0.509542054903369,DLL
15.3666666666667,-3.00925731658936,-3.59005403518677,6.76320266723633,6.51680994033813,3.14788603782654,-7.82779359817505,-1070.70007324219,38.7000007629395,-962.100036621094,2.19756987228967,-0.368485750048451,0.484633033817692,DLL
15.4,-2.22688627243042,-3.13725996017456,6.86727952957153,7.1418137550354,3.17837381362915,-7.88114786148071,-1073.10009765625,30.3000011444092,-945.300048828125,2.21794452123263,-0.291244882608705,0.424666479414771,DLL
15.4333333333333,-2.25679349899292,-3.14982080459595,7.33143854141235,6.81406784057617,2.43141794204712,-9.20737552642822,-1077.90002441406,29.1000003814697,-942.900024414062,2.24905264077559,-0.274812817367127,0.400948552183888,DLL
15.4666666666667,-5.3659405708313,-3.28739380836487,10.302414894104,9.45127964019775,5.434485912323,-9.17688751220703,-1068.30004882812,27.9000015258789,-945.300048828125,2.26250862668569,-0.447263587646817,0.310073897045347,DLL
15.5,-4.01952075958252,-3.51289367675781,9.37050819396973,9.14639949798584,2.70580983161926,-9.67231750488281,-1061.10009765625,29.1000003814697,-959.700012207031,2.3215855813212,-0.386876831077892,0.346613787725405,DLL
15.5333333333333,-3.32447862625122,-2.5738091468811,8.46073246002197,6.48632192611694,0.945127964019775,-10.1067714691162,-1061.10009765625,30.3000011444092,-964.500061035156,2.34296868879898,-0.358669221091856,0.29564541397586,DLL
15.5666666666667,-3.59424114227295,-1.66044485569,8.76997184753418,6.28052806854248,1.10518991947174,-8.33846759796143,-1075.5,21.3000011444092,-962.100036621094,2.34047189737101,-0.379698945943718,0.192325242264115,DLL
15.6,-2.44939541816711,-1.41221559047699,8.10364055633545,5.0152759552002,0.868907988071442,-6.50918769836426,-1065.90002441406,14.1000003814697,-962.100036621094,2.35999439519221,-0.297166807143598,0.169734944745596,DLL
15.6333333333333,-2.57919239997864,-1.32249414920807,7.36493444442749,3.71191382408142,0.937505960464478,-4.32167387008667,-1053.90002441406,17.1000003814697,-971.700012207031,2.3796184950582,-0.3290721027901,0.173387918860648,DLL
15.6666666666667,-2.78435564041138,-1.65266907215118,8.548659324646,1.46342396736145,1.89025592803955,-1.89025592803955,-1068.30004882812,20.1000003814697,-978.900024414062,2.39311009419881,-0.31368256256199,0.188217531760469,DLL
15.7,-2.67130661010742,-1.88773918151855,8.28906536102295,0.503051996231079,1.38720393180847,-1.14329993724823,-1073.10009765625,19.5,-959.700012207031,2.40886266808768,-0.306909779931443,0.221387365868627,DLL
15.7333333333333,-3.49016427993774,-1.97267556190491,8.98530387878418,0.0457319989800453,1.79879200458527,-0.304879993200302,-1061.10009765625,14.1000003814697,-962.100036621094,2.40980714777549,-0.36114333540191,0.216855872669154,DLL
15.7666666666667,-3.81914281845093,-2.04265832901001,9.91960334777832,-0.0228659994900227,1.37958192825317,0.205793991684914,-1058.70007324219,20.7000007629395,-964.500061035156,2.40558923264002,-0.3628985182547,0.204205841110436,DLL
15.8,-2.94346165657043,-1.64549136161804,9.11689472198486,0.731711983680725,-0.472563982009888,0.914639949798584,-1053.90002441406,16.5,-959.700012207031,2.39489954403215,-0.312172759364178,0.179163049159624,DLL
15.8333333333333,-2.84716057777405,-1.61737859249115,8.66948413848877,1.09756803512573,-0.564027965068817,1.36433792114258,-1046.70007324219,16.5,-966.900024414062,2.39202727937881,-0.311779552213549,0.18148088068121,ST
15.8666666666667,-2.84177732467651,-1.35718643665314,8.47030258178711,1.05945801734924,-0.236281991004944,1.2500079870224,-1061.10009765625,15.3000001907349,-957.300048828125,2.38188176960613,-0.319120112992125,0.158580676016436,ST
15.9,-3.39745211601257,-1.57550859451294,8.52951908111572,1.08232402801514,0.846041977405548,1.98171997070312,-1049.10009765625,14.1000003814697,-957.300048828125,2.38356844194169,-0.371144694087515,0.177948173297375,ST
15.9333333333333,-3.89151811599731,-1.9026927947998,9.53081035614014,0.411587983369827,0.480185985565186,0.952749967575073,-1037.10009765625,15.3000001907349,-969.300048828125,2.3873142376514,-0.381022245717617,0.194124812115711,ST
15.9666666666667,-3.06069755554199,-1.57790112495422,9.08160495758057,0.472563982009888,-1.31860601902008,0.259148001670837,-1044.30004882812,3.90000009536743,-971.700012207031,2.37896570930039,-0.324078617640962,0.172971693363686,ST
16.0,-2.92671346664429,-1.70590376853943,9.27779579162598,0.800309956073761,-2.21800184249878,0.175305992364883,-1061.10009765625,10.5,-978.900024414062,2.37995464446979,-0.299525096755596,0.179489218866113,ST
16.0333333333333,-2.62943649291992,-1.47083353996277,9.26164531707764,0.975615978240967,-2.78202986717224,-0.0914639979600906,-1070.70007324219,12.3000001907349,-971.700012207031,2.37334017192436,-0.270493520799319,0.157101849027956,ST
16.0666666666667,-2.00019001960754,-1.83211195468903,8.67546558380127,1.07470202445984,-1.54726600646973,-0.106707997620106,-1058.70007324219,17.7000007629395,-959.700012207031,2.38465693420462,-0.223463690253407,0.202159736218786,ST
16.1,-2.2232973575592,-1.57790112495422,8.30760765075684,0.967993974685669,-0.0381099991500378,-0.449698001146317,-1046.70007324219,14.1000003814697,-966.900024414062,2.38360350083133,-0.254593637801183,0.18730655084508,ST
16.1333333333333,-2.42666602134705,-1.75554966926575,8.48764896392822,0.556405961513519,1.20427596569061,-0.228659987449646,-1056.30004882812,15.9000005722046,-954.900024414062,2.38940993335665,-0.273131219448198,0.201765353164468,ST
16.1666666666667,-3.59842801094055,-1.73939979076385,8.99068737030029,0.564027965068817,1.64635193347931,-0.0381099991500378,-1049.10009765625,12.9000005722046,-954.900024414062,2.38793707995841,-0.367798406720348,0.191415741856218,ST
16.2,-4.10146617889404,-1.77528834342957,8.92848014831543,0.617381989955902,1.28811800479889,0.342989981174469,-1049.10009765625,15.9000005722046,-957.300048828125,2.389775362043,-0.420398676674841,0.194781320271545,ST
16.2333333333333,-4.17264556884766,-2.10067820549011,9.29155254364014,-0.152439996600151,1.07470202445984,0.495429992675781,-1053.90002441406,13.5000009536743,-947.700012207031,2.39913259813426,-0.415224402683129,0.220697972790545,ST
16.2666666666667,-3.91125679016113,-2.03129363059998,9.02238845825195,-0.274392008781433,0.129574000835419,0.457319974899292,-1039.5,12.9000005722046,-952.500061035156,2.39761604217678,-0.401514798742007,0.221551496952562,ST
16.3,-3.19408345222473,-1.86680424213409,8.22984886169434,-0.83841997385025,-0.518296003341675,0.0304879993200302,-1056.30004882812,15.3000001907349,-974.100036621094,2.39697891727693,-0.364019977371167,0.224206788373427,ST
16.3333333333333,-2.7801685333252,-1.9648996591568,8.45116233825684,-1.37195992469788,-1.05945801734924,-0.0762199983000755,-1044.30004882812,12.9000005722046,-954.900024414062,2.39686001827426,-0.31330256198814,0.230151049284748,ST
16.3666666666667,-2.40513277053833,-2.06419134140015,7.93616104125977,-1.06708002090454,-1.17378795146942,0.327746003866196,-1061.10009765625,20.7000007629395,-954.900024414062,2.40070278910384,-0.28593079026329,0.25388281650469,ST
16.4,-2.64857697486877,-2.3937680721283,8.53250980377197,-0.754577994346619,0.594515979290009,0.762199997901917,-1056.30004882812,20.1000003814697,-957.300048828125,2.40331269202476,-0.291338119661506,0.272973722639259,ST
16.4333333333333,-2.57919239997864,-2.47870445251465,8.72271919250488,-0.457319974899292,0.564027965068817,0.632625997066498,-1051.5,21.3000011444092,-952.500061035156,2.40235188327513,-0.279248693763993,0.277131216863008,ST
16.4666666666667,-3.43094801902771,-2.72872829437256,9.53559494018555,0.426831990480423,0.0533539988100529,0.472563982009888,-1039.5,17.1000003814697,-957.300048828125,2.40142030221688,-0.329632856216107,0.277673196653792,ST
16.5,-2.97037792205811,-2.81127190589905,9.42673301696777,0.442075997591019,-0.769822001457214,-0.396344006061554,-1056.30004882812,20.1000003814697,-969.300048828125,2.40579578699032,-0.294376147183148,0.288366048193413,ST
16.5333333333333,-2.14434266090393,-2.37642192840576,7.93855333328247,0.739333987236023,-1.33385002613068,-0.495429992675781,-1061.10009765625,19.5,-962.100036621094,2.40710133517183,-0.254689525757039,0.289510288158929,ST
16.5666666666667,-3.06667900085449,-2.32438349723816,7.5467700958252,0.632625997066498,0.663114011287689,0.388722002506256,-1056.30004882812,19.5,-959.700012207031,2.40938932318489,-0.361129794975496,0.296814065884991,ST
16.6,-3.21920537948608,-2.37163686752319,8.54387378692627,0.327746003866196,1.43293595314026,0.92988395690918,-1044.30004882812,17.1000003814697,-966.900024414062,2.39962494429842,-0.3520255410249,0.272292289366448,ST
16.6333333333333,-3.35139513015747,-2.34950566291809,8.75202751159668,-0.182927995920181,-0.449698001146317,1.02134799957275,-1053.90002441406,12.9000005722046,-959.700012207031,2.39255308548399,-0.353770456501179,0.262820391473054,ST
16.6666666666667,-3.42317223548889,-2.60551071166992,8.74245738983154,-0.403965979814529,-1.05183601379395,1.05183601379395,-1053.90002441406,23.7000007629395,-952.500061035156,2.39630517197402,-0.357387838655011,0.287084687180938,ST
16.7,-3.3388340473175,-2.9201340675354,8.32136535644531,-0.807931959629059,-0.914639949798584,0.640248000621796,-1039.5,12.3000001907349,-959.700012207031,2.40880773744932,-0.360501723221528,0.33366542126159,ST
16.7333333333333,-3.44350910186768,-2.88125467300415,9.43809795379639,-0.899396002292633,-1.01372599601746,0.152439996600151,-1046.70007324219,19.5,-962.100036621094,2.3947210424141,-0.336144505634852,0.300279719369044,ST
16.7666666666667,-3.17972803115845,-2.81187009811401,9.00085544586182,-0.144817993044853,-1.6615959405899,0.685979962348938,-1049.10009765625,22.5,-962.100036621094,2.3911920118786,-0.323817323839457,0.302211655241619,ST
16.8,-2.1712589263916,-2.38419795036316,8.04920959472656,0.396344006061554,-1.53964400291443,0.586893975734711,-1056.30004882812,20.7000007629395,-966.900024414062,2.3839685405018,-0.256324079710646,0.28794650456657,ST
16.8333333333333,-2.4236752986908,-2.57141661643982,7.93317031860352,0.967993974685669,-0.67835795879364,1.58537602424622,-1058.70007324219,21.3000011444092,-957.300048828125,2.38427952252913,-0.280907866707388,0.309458622648559,ST
16.8666666666667,-3.12589526176453,-2.67728805541992,8.38835716247559,0.716467976570129,0.25152599811554,1.47104597091675,-1051.5,9.90000057220459,-964.500061035156,2.37997389829586,-0.336767730455831,0.307147781660437,ST
16.9,-3.6492702960968,-2.7921314239502,9.21319580078125,0.609759986400604,0.99848198890686,1.265251994133,-1058.70007324219,20.1000003814697,-974.100036621094,2.37320092416952,-0.362125395990701,0.293922452296487,ST
16.9333333333333,-3.40582609176636,-2.75504660606384,9.35435771942139,0.266770005226135,-0.541162014007568,0.685979962348938,-1044.30004882812,21.9000015258789,-969.300048828125,2.36814193481877,-0.337652072382823,0.2861476365621,ST
16.9666666666667,-3.28201055526733,-2.61209034919739,9.32684326171875,0.632625997066498,-1.2500079870224,0.914639949798584,-1046.70007324219,17.7000007629395,-964.500061035156,2.36003458476282,-0.325908618884074,0.272259342680225,ST
17.0,-2.78973889350891,-2.45717144012451,8.87225437164307,1.06708002090454,-1.12043392658234,0.99848198890686,-1058.70007324219,20.1000003814697,-954.900024414062,2.35540454939594,-0.29508392642761,0.267954390024739,ST
17.0333333333333,-2.539715051651,-2.1210150718689,8.30760765075684,1.01372599601746,-1.05183601379395,1.05183601379395,-1058.70007324219,19.5,-957.300048828125,2.34682177568844,-0.287422007858538,0.249379495638882,ST
17.0666666666667,-2.95482635498047,-2.25798964500427,8.560622215271,1.15854394435883,0.129574000835419,1.48628997802734,-1051.5,11.7000007629395,-959.700012207031,2.3449379361558,-0.319780377951126,0.254547927490096,ST
17.1,-2.69702672958374,-2.20415687561035,8.58155727386475,0.746955990791321,-0.0533539988100529,0.807931959629059,-1065.90002441406,17.1000003814697,-959.700012207031,2.34174951859868,-0.297923547468211,0.250117423409184,ST
17.1333333333333,-2.37283325195312,-1.91824448108673,8.23941898345947,0.67835795879364,-0.731711983680725,0.518296003341675,-1046.70007324219,12.3000001907349,-959.700012207031,2.33418306429799,-0.274535881494891,0.229099709639836,ST
17.1666666666667,-3.47461247444153,-1.97746062278748,8.92309665679932,0.419209986925125,-0.0457319989800453,0.990859985351562,-1053.90002441406,17.1000003814697,-954.900024414062,2.32772388905018,-0.356878683091056,0.217707789653468,ST
17.2,-2.93149876594543,-2.11264085769653,8.78971099853516,0.327746003866196,-0.381099998950958,0.990859985351562,-1058.70007324219,18.9000015258789,-959.700012207031,2.3297779386626,-0.317274871067211,0.233179511165711,ST
17.2333333333333,-3.08761405944824,-1.92960917949677,9.28258037567139,-0.0381099991500378,-0.92988395690918,0.602137982845306,-1051.5,9.30000019073486,-952.500061035156,2.31907140666817,-0.313822406396334,0.207161962235582,ST
17.2666666666667,-2.64977335929871,-1.88175773620605,9.47398662567139,0.442075997591019,-1.18903195858002,0.907018005847931,-1058.70007324219,12.3000001907349,-962.100036621094,2.3125201768159,-0.270345470046276,0.195852047241027,ST
17.3,-2.08393001556396,-1.76212918758392,8.56241703033447,0.884151995182037,-0.830797970294952,1.08232402801514,-1058.70007324219,16.5,-959.700012207031,2.31032598316773,-0.236353336393164,0.200443455096553,ST
17.3333333333333,-2.91594696044922,-1.6544634103775,8.78731822967529,0.922261953353882,0.320124000310898,1.15854394435883,-1051.5,17.7000007629395,-966.900024414062,2.30345710891869,-0.30956432537894,0.185308890999047,ST
17.3666666666667,-3.17793369293213,-1.32069969177246,8.67905426025391,0.907018005847931,0.434453994035721,1.35671591758728,-1061.10009765625,20.1000003814697,-959.700012207031,2.28924063015943,-0.345523936268759,0.151439954305203,ST
17.4,-2.98473334312439,-1.18851006031036,8.52772426605225,0.175305992364883,-0.228659987449646,1.265251994133,-1056.30004882812,12.3000001907349,-962.100036621094,2.28098901138751,-0.334685386581649,0.138652876488519,ST
17.4333333333333,-2.89680647850037,-1.36556041240692,9.02597713470459,-0.114329993724823,-0.952749967575073,0.990859985351562,-1053.90002441406,13.5000009536743,-964.500061035156,2.28038156304332,-0.308493609650728,0.14872668492123,ST
17.4666666666667,-2.71078395843506,-1.37094366550446,8.9177131652832,-0.106707997620106,-1.31098401546478,0.434453994035721,-1056.30004882812,15.9000005722046,-954.900024414062,2.27901437803216,-0.29101027788877,0.152142122913512,ST
17.5,-3.12888598442078,-1.43973016738892,8.85251617431641,0.388722002506256,0.0457319989800453,-0.182927995920181,-1056.30004882812,15.3000001907349,-974.100036621094,2.28241723329901,-0.331647214104723,0.159870869488879,ST
17.5333333333333,-3.44350910186768,-1.3900842666626,9.0732307434082,0.602137982845306,0.121951997280121,-0.609759986400604,-1065.90002441406,23.7000007629395,-954.900024414062,2.28253756314112,-0.35647733895284,0.152146472533882,ST
17.5666666666667,-3.32507681846619,-1.62395811080933,8.64077377319336,0.594515979290009,-0.152439996600151,-0.78506600856781,-1058.70007324219,11.1000003814697,-952.500061035156,2.29623549488052,-0.360668160862146,0.182224054120269,ST
