seconds,sensor_accX_m_s_,sensor_accY_m_s_,sensor_accZ_m_s_,sensor_gyroX___s_,sensor_gyroY___s_,sensor_gyroZ___s_,sensor_magX__T_,sensor_magY__T_,sensor_magZ__T_,sensor_yaw___,sensor_pitch___,sensor_roll___,label5
0.0,-0.0053832866251468,-2.02949905395508,9.37828350067139,0.411587983369827,-0.221037998795509,0.381099998950958,-1164.30004882812,15.9000005722046,-938.100036621094,2.41093288081959,-0.0003240786848827,0.212399297622727,DLL
0.0333333333333333,-0.0293090064078569,-2.03787302970886,9.36691856384277,0.426831990480423,-0.213415995240211,0.46494197845459,-1157.10009765625,18.9000015258789,-940.500061035156,2.40310396277521,-0.0028653096594579,0.213474906626756,DLL
0.0666666666666667,0.0622068680822849,-2.04624700546265,9.33641338348389,0.396344006061554,-0.213415995240211,0.426831990480423,-1145.10009765625,17.7000007629395,-935.700012207031,2.39640922055729,0.0067127397718845,0.215070564271899,DLL
0.1,0.0322997197508812,-2.01813435554504,9.38905048370361,0.411587983369827,-0.3125019967556,0.358233988285065,-1147.5,6.90000009536743,-940.500061035156,2.39041803013034,0.0037658196024459,0.211008640068442,DLL
0.133333333333333,0.0663938671350479,-2.0492377281189,9.36512470245361,0.442075997591019,-0.304879993200302,0.358233988285065,-1169.10009765625,16.5,-940.500061035156,2.38438041629754,0.0073120777588511,0.214654098668695,DLL
0.166666666666667,0.0442625805735588,-2.01693820953369,9.35316181182861,0.419209986925125,-0.25152599811554,0.350611984729767,-1152.30004882812,8.70000076293945,-921.300048828125,2.37849602089304,0.0049267132982388,0.2116619191156,DLL
0.2,0.0550291538238525,-2.00676965713501,9.37708759307861,0.419209986925125,-0.205793991684914,0.403965979814529,-1154.70007324219,15.9000005722046,-930.900024414062,2.37216212569983,0.005942661358828,0.210100526367887,DLL
0.233333333333333,0.0538328662514687,-1.99660122394562,9.37230205535889,0.426831990480423,-0.198172003030777,0.426831990480423,-1154.70007324219,15.9000005722046,-914.100036621094,2.36492339376497,0.0058013727884449,0.209154137271858,DLL
0.266666666666667,0.0131591456010938,-2.00916218757629,9.34478759765625,0.396344006061554,-0.190549999475479,0.426831990480423,-1166.70007324219,15.3000001907349,-921.300048828125,2.35832008410658,0.0015460166734575,0.211088908853186,DLL
0.3,0.0592161528766155,-2.00676965713501,9.32026386260986,0.342989981174469,-0.167683988809586,0.403965979814529,-1164.30004882812,15.9000005722046,-933.300048828125,2.35209604961002,0.0063489993272496,0.211480977729146,DLL
0.333333333333333,0.0107665732502937,-2.02411580085754,9.37469482421875,0.358233988285065,-0.190549999475479,0.342989981174469,-1161.90002441406,15.3000001907349,-942.900024414062,2.34618628944314,0.0013218275011873,0.212023999485373,DLL
0.366666666666667,0.0275145769119263,-2.02471399307251,9.36751747131348,0.403965979814529,-0.182927995920181,0.335367977619171,-1169.10009765625,11.7000007629395,-938.100036621094,2.34041271369503,0.003059762242322,0.212164344184823,DLL
0.4,-0.0299071483314037,-2.00497531890869,9.35734844207764,0.411587983369827,-0.190549999475479,0.358233988285065,-1152.30004882812,11.1000003814697,-942.900024414062,2.33480788292718,-0.0029302114666483,0.21035560788662,DLL
0.433333333333333,-0.0047851437702775,-2.04026556015015,9.38486289978027,0.381099998950958,-0.205793991684914,0.37347799539566,-1164.30004882812,15.9000005722046,-940.500061035156,2.3289332307477,-0.0002853760978583,0.213403123094355,DLL
0.466666666666667,-0.0011962859425693,-2.02112507820129,9.36093711853027,0.396344006061554,-0.236281991004944,0.37347799539566,-1171.5,15.9000005722046,-940.500061035156,2.32241577932873,0.0001411128649965,0.21195467936982,DLL
0.5,-0.0071777156554162,-2.01693820953369,9.35854530334473,0.388722002506256,-0.25152599811554,0.37347799539566,-1166.70007324219,11.1000003814697,-947.700012207031,2.3160344906359,-0.0004574312925818,0.211592769278468,DLL
0.533333333333333,0.0077758585102856,-2.01634001731873,9.36512470245361,0.388722002506256,-0.259148001670837,0.388722002506256,-1173.90002441406,14.1000003814697,-928.500061035156,2.30939400370514,0.0011115508758369,0.21138820308901,DLL
0.566666666666667,0.0197387188673019,-2.01873254776001,9.35555458068848,0.37347799539566,-0.25152599811554,0.37347799539566,-1157.10009765625,14.1000003814697,-942.900024414062,2.30299656492858,0.0023544525713705,0.211870513902776,DLL
0.6,0.0281127188354731,-2.00976037979126,9.377685546875,0.358233988285065,-0.266770005226135,0.365855991840363,-1164.30004882812,14.7000007629395,-933.300048828125,2.29702926606595,0.0032531295257375,0.210496633152677,DLL
0.633333333333333,0.0233275759965181,-2.01933073997498,9.36512470245361,0.365855991840363,-0.259148001670837,0.358233988285065,-1149.90002441406,21.3000011444092,-945.300048828125,2.29118370752832,0.0027457608575025,0.211734330134262,DLL
0.666666666666667,0.0107665732502937,-2.03189158439636,9.35435771942139,0.358233988285065,-0.236281991004944,0.37347799539566,-1145.10009765625,14.1000003814697,-942.900024414062,2.28519668347149,0.0013898880739012,0.213266469089762,DLL
0.7,-0.0,-2.00198459625244,9.35076904296875,0.335367977619171,-0.213415995240211,0.350611984729767,-1154.70007324219,10.5,-938.100036621094,2.2796175703393,0.0002365658145079,0.210329183681336,DLL
0.733333333333333,0.0263182912021875,-2.0432562828064,9.35675048828125,0.335367977619171,-0.205793991684914,0.327746003866196,-1149.90002441406,14.1000003814697,-940.500061035156,2.27435734499011,0.002977117404888,0.214413711781542,DLL
0.766666666666667,0.009570287540555,-2.04445266723633,9.36452674865723,0.327746003866196,-0.182927995920181,0.304879993200302,-1145.10009765625,9.90000057220459,-930.900024414062,2.26950074814753,0.0011972974467361,0.214374873564951,DLL
0.8,-0.0077758585102856,-2.06299519538879,9.38605976104736,0.358233988285065,-0.137196004390717,0.335367977619171,-1152.30004882812,13.5000009536743,-930.900024414062,2.26374023180118,-0.0007005046618761,0.215727664814995,DLL
0.833333333333333,-0.0161498598754406,-1.99241423606873,9.36332988739014,0.403965979814529,-0.175305992364883,0.350611984729767,-1159.5,20.1000003814697,-935.700012207031,2.25811212002487,-0.001514627628667,0.208956100378866,DLL
0.866666666666667,-0.0442625805735588,-2.01873254776001,9.35675048828125,0.381099998950958,-0.182927995920181,0.388722002506256,-1149.90002441406,10.5,-933.300048828125,2.25211750192755,-0.0044544888576473,0.211825769870415,DLL
0.9,0.0233275759965181,-2.06478953361511,9.34538555145264,0.335367977619171,-0.221037998795509,0.342989981174469,-1147.5,15.9000005722046,-923.700012207031,2.2464390818707,0.0026850989528299,0.216865079517355,DLL
0.933333333333333,0.0005981429712846,-2.05462121963501,9.377685546875,0.358233988285065,-0.228659987449646,0.297257989645004,-1159.5,12.3000001907349,-947.700012207031,2.24155363972824,0.000341586276897,0.215063713837308,DLL
0.966666666666667,-0.0185424312949181,-2.03009724617004,9.35555458068848,0.381099998950958,-0.213415995240211,0.297257989645004,-1159.5,18.9000015258789,-940.500061035156,2.23628776916695,-0.0016824795194683,0.213014969224809,DLL
1.0,-0.0179442893713713,-2.01394748687744,9.31547832489014,0.388722002506256,-0.190549999475479,0.335367977619171,-1157.10009765625,12.9000005722046,-938.100036621094,2.23083665781924,-0.0016809723393933,0.212237304268073,DLL
1.03333333333333,-0.0197387188673019,-2.02890086174011,9.37050819396973,0.335367977619171,-0.236281991004944,0.411587983369827,-1161.90002441406,21.9000015258789,-928.500061035156,2.22433481712992,-0.0018072564679503,0.212641606245307,DLL
1.06666666666667,0.0257201474159956,-2.0552191734314,9.37110614776611,0.342989981174469,-0.266770005226135,0.419209986925125,-1164.30004882812,12.9000005722046,-933.300048828125,2.21760442830021,0.0029792303035758,0.215299993447006,DLL
1.1,0.0005981429712846,-2.02830290794373,9.32923603057861,0.350611984729767,-0.243903994560242,0.381099998950958,-1159.5,12.3000001907349,-940.500061035156,2.21075590555044,0.0003377984514077,0.213470310689241,DLL
1.13333333333333,0.0221312902867794,-2.04146194458008,9.35495567321777,0.297257989645004,-0.213415995240211,0.327746003866196,-1154.70007324219,16.5,-933.300048828125,2.20500039442374,0.0025535913184988,0.214337044301753,DLL
1.16666666666667,0.0131591456010938,-2.07435989379883,9.3717041015625,0.289635986089706,-0.198172003030777,0.304879993200302,-1152.30004882812,10.5,-945.300048828125,2.19978804162374,0.0015939817245457,0.217326189062446,DLL
1.2,0.0053832866251468,-2.095294713974,9.38426494598389,0.320124000310898,-0.167683988809586,0.274392008781433,-1161.90002441406,9.30000019073486,-952.500061035156,2.19540089080473,0.0007414738058629,0.219115875235506,DLL
1.23333333333333,-0.0251220054924488,-2.07196736335754,9.35914325714111,0.37347799539566,-0.190549999475479,0.289635986089706,-1166.70007324219,15.3000001907349,-940.500061035156,2.19018205687013,-0.0024049139461989,0.217217123445531,DLL
1.26666666666667,-0.0346922911703587,-2.06179881095886,9.33461952209473,0.388722002506256,-0.213415995240211,0.342989981174469,-1147.5,15.3000001907349,-942.900024414062,2.18471463911063,-0.0033939305698976,0.216705573030034,DLL
1.3,-0.0149535741657019,-2.04146194458008,9.35615253448486,0.358233988285065,-0.228659987449646,0.381099998950958,-1152.30004882812,15.9000005722046,-935.700012207031,2.17865403543225,-0.0013130328581442,0.214201502376403,DLL
1.33333333333333,0.0011962859425693,-2.06419134140015,9.34418964385986,0.350611984729767,-0.25152599811554,0.365855991840363,-1157.10009765625,18.9000015258789,-930.900024414062,2.17201259269137,0.0004163622761163,0.216803032709888,DLL
1.36666666666667,0.0011962859425693,-2.0552191734314,9.34299278259277,0.365855991840363,-0.243903994560242,0.320124000310898,-1145.10009765625,12.3000001907349,-945.300048828125,2.16627755037953,0.0004211791520183,0.215887616525024,DLL
1.4,-0.061608724296093,-2.03906941413879,9.34658241271973,0.37347799539566,-0.282013982534409,0.320124000310898,-1161.90002441406,12.9000005722046,-938.100036621094,2.16093309466871,-0.0060774878410887,0.214140790601071,DLL
1.43333333333333,-0.03828115016222,-2.0612006187439,9.35136699676514,0.358233988285065,-0.266770005226135,0.342989981174469,-1157.10009765625,24.3000011444092,-938.100036621094,2.1553165990896,-0.0036715038413478,0.216320199981849,DLL
1.46666666666667,-0.0263182912021875,-2.09170603752136,9.37648963928223,0.350611984729767,-0.259148001670837,0.381099998950958,-1159.5,9.90000057220459,-930.900024414062,2.1491712050737,-0.002442458371778,0.218872197503405,DLL
1.5,-0.0053832866251468,-2.06598591804504,9.35316181182861,0.388722002506256,-0.266770005226135,0.403965979814529,-1154.70007324219,16.5,-938.100036621094,2.14207223239247,-0.0002589303818378,0.21671696206112,DLL
1.53333333333333,-0.0173461455851793,-2.06598591804504,9.33820819854736,0.37347799539566,-0.274392008781433,0.426831990480423,-1154.70007324219,12.9000005722046,-952.500061035156,2.134812023146,-0.0015064388621878,0.217079715280621,DLL
1.56666666666667,-0.0005981429712846,-2.0492377281189,9.36931133270264,0.358233988285065,-0.282013982534409,0.411587983369827,-1130.70007324219,16.5,-940.500061035156,2.12815364242428,0.0002654138444092,0.214702306011173,DLL
1.6,0.0077758585102856,-2.05880808830261,9.3358154296875,0.388722002506256,-0.3125019967556,0.396344006061554,-1159.5,12.3000001907349,-945.300048828125,2.12160671272284,0.001197514361731,0.216376228110924,DLL
1.63333333333333,0.0101684303954244,-2.04744338989258,9.34359169006348,0.388722002506256,-0.335367977619171,0.365855991840363,-1161.90002441406,17.7000007629395,-940.500061035156,2.11467255731079,0.001498646840689,0.215041172700969,DLL
1.66666666666667,-0.0197387188673019,-2.07376170158386,9.35435771942139,0.365855991840363,-0.282013982534409,0.365855991840363,-1161.90002441406,17.1000003814697,-942.900024414062,2.10829580323632,-0.0017172131821763,0.217521263000605,DLL
1.7,0.0155517170205712,-2.06359314918518,9.377685546875,0.365855991840363,-0.282013982534409,0.335367977619171,-1166.70007324219,15.9000005722046,-952.500061035156,2.10236097456536,0.0019748932056546,0.215964221780175,DLL
1.73333333333333,-0.0239257179200649,-2.05581736564636,9.39921855926514,0.442075997591019,-0.320124000310898,0.358233988285065,-1147.5,13.5000009536743,-923.700012207031,2.09598453791298,-0.002073832293084,0.214558068864116,DLL
1.76666666666667,-0.0155517170205712,-2.07854676246643,9.32803916931152,0.480185985565186,-0.236281991004944,0.419209986925125,-1145.10009765625,12.3000001907349,-942.900024414062,2.08876999504512,-0.001383232723338,0.218406724733705,DLL
1.8,-0.0711790099740028,-1.99959194660187,9.37409687042236,0.487807989120483,-0.198172003030777,0.495429992675781,-1161.90002441406,21.9000015258789,-938.100036621094,2.08052034873551,-0.0072672027511577,0.209302673340353,DLL
1.83333333333333,-0.105871304869652,-1.99301242828369,9.33162879943848,0.495429992675781,-0.25152599811554,0.602137982845306,-1157.10009765625,14.1000003814697,-945.300048828125,2.07136287930235,-0.0108837801143542,0.209537830353621,DLL
1.86666666666667,-0.0693845823407173,-2.00019001960754,9.36033916473389,0.411587983369827,-0.297257989645004,0.655492007732391,-1169.10009765625,15.3000001907349,-942.900024414062,2.06128601720768,-0.0069798176557203,0.209794616842322,DLL
1.9,-0.042468149214983,-2.02591013908386,9.34598350524902,0.434453994035721,-0.3125019967556,0.670735955238342,-1157.10009765625,13.5000009536743,-940.500061035156,2.04999784288557,-0.0041548608435672,0.212701865328068,DLL
1.93333333333333,-0.0358885787427425,-2.03667688369751,9.3477783203125,0.388722002506256,-0.358233988285065,0.564027965068817,-1161.90002441406,9.30000019073486,-933.300048828125,2.04099012381309,-0.0033491812395673,0.21384335469779,DLL
1.96666666666667,-0.0550291538238525,-2.03428435325623,9.35076904296875,0.388722002506256,-0.335367977619171,0.510673999786377,-1154.70007324219,8.70000076293945,-938.100036621094,2.03280730560533,-0.0053671588009255,0.213530931660782,DLL
2.0,-0.0215331465005875,-2.02591013908386,9.34598350524902,0.388722002506256,-0.396344006061554,0.457319974899292,-1157.10009765625,17.1000003814697,-928.500061035156,2.02517441421633,-0.0017442692568986,0.21278538493508,DLL
2.03333333333333,-0.0251220054924488,-2.04445266723633,9.36153602600098,0.388722002506256,-0.411587983369827,0.449698001146317,-1157.10009765625,14.1000003814697,-938.100036621094,2.01760158817779,-0.0020867326785861,0.21433232143733,DLL
2.06666666666667,-0.0388792939484119,-2.03548049926758,9.34837627410889,0.365855991840363,-0.442075997591019,0.434453994035721,-1166.70007324219,9.90000057220459,-926.100036621094,2.01015295314582,-0.0034704692181831,0.213748386414102,DLL
2.1,0.028710862621665,-2.06419134140015,9.36213397979736,0.350611984729767,-0.457319974899292,0.403965979814529,-1147.5,12.3000001907349,-930.900024414062,2.00261403061748,0.0036227926653729,0.216402071641305,DLL
2.13333333333333,0.0394774377346039,-2.02949905395508,9.34837627410889,0.365855991840363,-0.411587983369827,0.396344006061554,-1157.10009765625,13.5000009536743,-938.100036621094,1.99576999758138,0.004682495054147,0.213144568739882,DLL
2.16666666666667,0.080151155591011,-2.03129363059998,9.33641338348389,0.365855991840363,-0.396344006061554,0.396344006061554,-1164.30004882812,9.90000057220459,-952.500061035156,1.98893575743483,0.0089175652881577,0.213597027629855,DLL
2.2,0.0269164331257343,-1.99779748916626,9.37648963928223,0.335367977619171,-0.297257989645004,0.503051996231079,-1161.90002441406,10.5,-945.300048828125,1.9640127222129,0.0031326497334524,0.209343149449744,DLL
2.23333333333333,-0.235070183873177,-1.80758810043335,9.36093711853027,0.259148001670837,0.167683988809586,1.22714197635651,-1161.90002441406,14.1000003814697,-940.500061035156,1.94700198660126,-0.0253424595853599,0.190247960942411,DLL
2.26666666666667,-1.89372062683105,-1.05691862106323,8.75322437286377,-0.830797970294952,0.327746003866196,3.55185198783875,-1161.90002441406,13.5000009536743,-945.300048828125,1.88709336324969,-0.212874140114715,0.120302911238879,DLL
2.3,-1.50193703174591,-1.7166702747345,8.53370571136475,-3.05642199516296,-0.297257989645004,9.33694934844971,-1159.5,11.1000003814697,-935.700012207031,1.75554029388543,-0.173603422155962,0.201026262735959,DLL
2.33333333333333,-1.07605922222137,-2.24243807792664,8.99487400054932,-5.95278167724609,-1.47866797447205,13.5138053894043,-1159.5,20.7000007629395,-935.700012207031,1.54714031079322,-0.118934232313742,0.251896873835465,DLL
2.36666666666667,-0.964206457138062,-3.40343356132507,8.92429351806641,-6.66162776947021,-1.13567793369293,16.8827304840088,-1154.70007324219,22.5,-916.500061035156,1.30318808030711,-0.109485230558911,0.372855366289654,DLL
2.4,-0.119030453264713,-3.99140810966492,9.19405555725098,-5.90704965591431,-0.899396002292633,16.7760219573975,-1149.90002441406,32.7000007629395,-928.500061035156,1.07677514685824,-0.0223533886620927,0.419264279543213,DLL
2.43333333333333,0.35410064458847,-4.01054859161377,9.49372482299805,-4.65704202651978,-1.60061991214752,14.0930776596069,-1142.70007324219,24.3000011444092,-930.900024414062,0.882671868569119,0.0271442049081284,0.408471235719186,DLL
2.46666666666667,-0.327184200286865,-3.74198246002197,9.2281494140625,-3.29270386695862,-2.32470989227295,11.0518999099731,-1125.90002441406,32.1000022888184,-926.100036621094,0.721227643459196,-0.0364245623071597,0.390275830641355,DLL
2.5,-0.200377896428108,-3.8717794418335,9.02597713470459,-1.60061991214752,-1.52439999580383,8.12505149841309,-1121.10009765625,36.3000030517578,-926.100036621094,0.604974652304092,-0.0235779897942018,0.407679884051966,DLL
2.53333333333333,-0.52337509393692,-3.5392119884491,9.1509895324707,-0.525918006896973,-1.07470202445984,5.36588764190674,-1140.30004882812,40.5,-911.700012207031,0.520835568034296,-0.0549234860851859,0.369439637469185,DLL
2.56666666666667,-1.28481113910675,-3.17613911628723,8.94343376159668,0.617381989955902,-0.701223969459534,3.91770792007446,-1128.30004882812,39.3000030517578,-909.300048828125,0.462967974929914,-0.135675849971439,0.339231907496245,DLL
2.6,-1.46066510677338,-3.08342695236206,8.88840484619141,1.06708002090454,-0.647870004177094,3.66618180274963,-1128.30004882812,30.9000015258789,-916.500061035156,0.411777646154179,-0.155037364163427,0.331049710238113,DLL
2.63333333333333,-1.64608943462372,-2.76461672782898,8.92130279541016,1.41006994247437,-0.434453994035721,3.42989993095398,-1121.10009765625,40.5,-926.100036621094,0.36136725220141,-0.175479063394265,0.296991667832687,DLL
2.66666666666667,-1.95054423809052,-2.47272300720215,8.86148834228516,1.29574000835419,-0.92988395690918,2.9420919418335,-1135.5,31.5000019073486,-916.500061035156,0.312677925074924,-0.208720776275535,0.268718662215551,DLL
2.7,-2.07376170158386,-2.45059180259705,8.84533786773682,0.792688012123108,-1.12043392658234,3.04117798805237,-1128.30004882812,40.5,-909.300048828125,0.269555463269572,-0.221723067786101,0.267615936310057,DLL
2.73333333333333,-1.64250063896179,-2.47691011428833,8.90754508972168,0.198172003030777,-1.50915598869324,2.80489587783813,-1121.10009765625,40.5,-921.300048828125,0.225204362699771,-0.174587807463846,0.269914608206342,DLL
2.76666666666667,-1.48937594890594,-2.59115529060364,8.97633171081543,-0.190549999475479,-1.76830399036407,2.4923939704895,-1125.90002441406,35.1000022888184,-911.700012207031,0.185527157703098,-0.15632318711628,0.280564265391299,DLL
2.8,-1.09400343894958,-2.7622241973877,8.94582653045654,-0.3125019967556,-1.90549993515015,1.98934197425842,-1135.5,38.1000022888184,-914.100036621094,0.152376701062626,-0.114169860472814,0.299536878863416,DLL
2.83333333333333,-1.29378318786621,-2.7801685333252,8.92788219451904,-0.297257989645004,-1.56251001358032,1.2500079870224,-1130.70007324219,39.9000015258789,-902.100036621094,0.125519119146444,-0.135533625403553,0.302009245759151,DLL
2.86666666666667,-1.20406174659729,-2.97277045249939,8.91113376617432,-0.388722002506256,-1.02897000312805,1.29574000835419,-1135.5,39.9000015258789,-916.500061035156,0.10388435285139,-0.126492698710399,0.322325101157303,DLL
2.9,-1.26806306838989,-2.96499466896057,8.90096569061279,-0.289635986089706,-0.419209986925125,0.99848198890686,-1135.5,40.5,-906.900024414062,0.087851495207203,-0.134204406647486,0.321800024090014,DLL
2.93333333333333,-1.39905643463135,-2.99609804153442,8.85789966583252,-0.0304879993200302,-0.335367977619171,0.891773998737335,-1128.30004882812,40.5,-906.900024414062,0.0748113351286278,-0.148459196032444,0.325964721367354,DLL
2.96666666666667,-1.59883618354797,-2.97277045249939,8.80286979675293,0.175305992364883,-0.190549999475479,0.670735955238342,-1137.90002441406,38.7000007629395,-918.900024414062,0.064646146562062,-0.170468675020309,0.325164422259234,DLL
3.0,-1.80639171600342,-2.8603196144104,8.85131931304932,0.266770005226135,0.0076219998300075,0.78506600856781,-1125.90002441406,44.1000022888184,-899.700012207031,0.0524393336887337,-0.192238643971051,0.311841370958812,DLL
3.03333333333333,-1.67061328887939,-2.85912346839905,8.77954292297363,0.46494197845459,-0.0381099991500378,0.83841997385025,-1130.70007324219,39.3000030517578,-911.700012207031,0.0425354437542055,-0.179384873057611,0.313758803154529,DLL
3.06666666666667,-1.89551508426666,-2.70061540603638,8.69101715087891,0.556405961513519,-0.0685980021953583,0.609759986400604,-1133.10009765625,41.1000022888184,-911.700012207031,0.0326150379937241,-0.205541068308681,0.30008726022769,DLL
3.1,-1.83450448513031,-2.61388468742371,8.66649341583252,0.685979962348938,-0.205793991684914,0.365855991840363,-1135.5,34.5,-906.900024414062,0.0270909530358614,-0.199792562724289,0.29158979295741,DLL
3.13333333333333,-2.12580013275146,-2.51459312438965,8.77057075500488,0.78506600856781,-0.129574000835419,0.274392008781433,-1142.70007324219,36.3000030517578,-921.300048828125,0.0224650119361531,-0.228820707182233,0.277726864004297,DLL
3.16666666666667,-1.90987050533295,-2.53313541412354,8.52174282073975,0.739333987236023,-0.190549999475479,0.198172003030777,-1125.90002441406,38.7000007629395,-911.700012207031,0.0234341648442215,-0.211391034552191,0.287554754592493,DLL
3.2,-2.06179881095886,-2.47810626029968,8.58993148803711,0.350611984729767,-0.457319974899292,0.388722002506256,-1128.30004882812,36.9000015258789,-909.300048828125,0.0159058299619687,-0.226077033959154,0.280051254897587,DLL
3.23333333333333,-1.65745413303375,-2.74128913879395,8.79808521270752,0.0228659994900227,-0.815553963184357,0.602137982845306,-1123.5,41.1000022888184,-921.300048828125,0.0087611549041311,-0.176912541408114,0.301748624480837,DLL
3.26666666666667,-0.948056638240814,-3.08821225166321,9.11390399932861,-0.381099998950958,-1.57775402069092,-0.106707997620106,-1133.10009765625,39.3000030517578,-921.300048828125,0.0059112912975385,-0.0955401875786492,0.327300152357768,DLL
3.3,-0.619077980518341,-3.3268711566925,8.83098316192627,-0.320124000310898,-1.50153398513794,-0.846041977405548,-1128.30004882812,39.9000015258789,-914.100036621094,0.0124222972595614,-0.0625354729290166,0.360870949370852,DLL
3.33333333333333,-0.554478526115417,-3.4853789806366,8.9057502746582,-0.259148001670837,-0.792688012123108,-1.74543797969818,-1140.30004882812,38.7000007629395,-918.900024414062,0.0321956464561133,-0.0555142615094847,0.373619737344756,DLL
3.36666666666667,-0.563450694084167,-3.46085524559021,9.19106483459473,-0.182927995920181,-0.533540010452271,-2.27135586738586,-1152.30004882812,39.9000015258789,-906.900024414062,0.0591527624906452,-0.0550387117654487,0.360631223113987,DLL
3.4,-0.601133704185486,-3.41180753707886,9.15278339385986,0.160062000155449,-0.297257989645004,-2.78965187072754,-1145.10009765625,42.9000015258789,-909.300048828125,0.0984331620335486,-0.0592768340513102,0.356787614594919,DLL
3.43333333333333,-0.517991840839386,-3.61697053909302,9.37708759307861,0.495429992675781,0.365855991840363,-3.41465592384338,-1149.90002441406,41.1000022888184,-911.700012207031,0.151481216869965,-0.0499478130589262,0.367564105568686,DLL
3.46666666666667,-0.940280735492706,-3.65704607963562,9.70785999298096,1.59299790859222,1.6692179441452,-5.32015609741211,-1137.90002441406,44.7000007629395,-921.300048828125,0.240094067000721,-0.0898633139678564,0.35836414684569,DLL
3.5,-1.11015331745148,-3.42257404327393,9.30710506439209,2.5076379776001,2.5000159740448,-6.92839765548706,-1147.5,36.3000030517578,-921.300048828125,0.351834446496333,-0.111444715834026,0.3494508912502,DLL
3.53333333333333,-1.40743041038513,-3.48896789550781,9.01222038269043,2.98020195960999,3.24697184562683,-8.58999347686768,-1145.10009765625,37.5,-916.500061035156,0.490871220623048,-0.14453506824636,0.366499609309495,DLL
3.56666666666667,-1.76990509033203,-3.46324777603149,8.89079666137695,3.13264203071594,3.55947399139404,-9.0625581741333,-1157.10009765625,38.7000007629395,-918.900024414062,0.637180914696753,-0.183493492768466,0.369135785417099,DLL
3.6,-2.07735061645508,-3.35917091369629,9.00504207611084,3.38416790962219,3.52136397361755,-9.05493545532227,-1149.90002441406,27.3000011444092,-918.900024414062,0.78119456447332,-0.213132639332461,0.354808346077733,DLL
3.63333333333333,-2.46255469322205,-3.23595356941223,8.82799243927002,3.63569402694702,3.3689239025116,-7.69059801101685,-1135.5,28.5000019073486,-923.700012207031,0.909588590971428,-0.2570868573584,0.348847705285786,DLL
3.66666666666667,-2.4176938533783,-3.01344418525696,8.68443775177002,3.46800994873047,3.11739802360535,-6.17382001876831,-1140.30004882812,28.5000019073486,-930.900024414062,1.01970372067161,-0.258825860751388,0.331109525441232,DLL
3.7,-2.5696222782135,-2.80529046058655,8.78672027587891,3.07928800582886,2.62196803092957,-3.82624387741089,-1142.70007324219,20.1000003814697,-947.700012207031,1.09321789498004,-0.274053500590677,0.305841848107054,DLL
3.73333333333333,-2.57919239997864,-2.65216588973999,8.81602954864502,2.76678586006165,2.42379593849182,-2.25611186027527,-1130.70007324219,23.7000007629395,-947.700012207031,1.14052336293076,-0.27608641259148,0.28880751124776,DLL
3.76666666666667,-2.27533578872681,-2.49485445022583,8.84533786773682,2.33995389938354,1.83690190315247,-1.32622802257538,-1135.5,26.7000007629395,-933.300048828125,1.17212036336968,-0.245165095933284,0.271602912445161,DLL
3.8,-2.1730535030365,-2.38359975814819,8.86089038848877,2.25611186027527,1.86738991737366,-0.647870004177094,-1123.5,30.3000011444092,-938.100036621094,1.19370355481356,-0.235399790278842,0.259309242178419,DLL
3.83333333333333,-2.15869808197021,-2.20595121383667,9.1569709777832,2.15702605247498,1.55488801002502,-0.495429992675781,-1123.5,20.1000003814697,-933.300048828125,1.20769564306489,-0.22773835984479,0.232977562193868,DLL
3.86666666666667,-2.2711489200592,-1.97805881500244,9.30889892578125,2.05031800270081,1.34147191047668,-0.198172003030777,-1133.10009765625,21.9000015258789,-942.900024414062,1.21539872859909,-0.236488096885654,0.205998102474199,DLL
3.9,-2.02052688598633,-1.75315701961517,9.25147724151611,1.85976791381836,1.01372599601746,-0.0152439996600151,-1123.5,18.9000015258789,-950.100036621094,1.2191159335726,-0.21311278622174,0.184111557000139,DLL
3.93333333333333,-1.57849931716919,-1.45767438411713,9.22635555267334,1.18903195858002,0.586893975734711,-0.182927995920181,-1118.70007324219,20.7000007629395,-940.500061035156,1.22037460697855,-0.168373411704374,0.154701931117962,DLL
3.96666666666667,-1.66223931312561,-1.12749946117401,9.15876483917236,1.08994603157043,0.586893975734711,-0.259148001670837,-1113.90002441406,18.3000011444092,-950.100036621094,1.22194943902453,-0.179182817288936,0.12069294889155,DLL
4.0,-1.25251138210297,-1.57969558238983,9.45664024353027,0.480185985565186,0.800309956073761,-0.960371971130371,-1121.10009765625,18.3000011444092,-945.300048828125,1.24604991957309,-0.131005709806026,0.164927078211136,DLL
4.03333333333333,-1.33684957027435,-1.40025269985199,9.69470119476318,0.670735955238342,0.823175966739655,-2.24086785316467,-1111.5,17.1000003814697,-938.100036621094,1.27773530642041,-0.13650554961694,0.142833128634099,DLL
4.06666666666667,-1.88415038585663,-1.39128053188324,10.02308177948,1.265251994133,1.21951997280121,-2.5152599811554,-1116.30004882812,23.1000003814697,-945.300048828125,1.31763987307029,-0.185596421828396,0.136589662674079,DLL
4.1,-1.87458002567291,-1.46126329898834,9.60198879241943,1.89787793159485,1.73019397258759,-3.10215401649475,-1104.30004882812,20.1000003814697,-945.300048828125,1.37209490679668,-0.192844833078122,0.148845666814757,DLL
4.13333333333333,-1.91345942020416,-1.29318511486053,9.20601844787598,1.81403601169586,1.85214591026306,-3.55947399139404,-1109.10009765625,21.9000015258789,-947.700012207031,1.4284880457599,-0.205340910001164,0.137768077731734,DLL
4.16666666666667,-2.29328012466431,-1.26925933361053,9.18568134307861,1.32622802257538,1.85214591026306,-3.73477983474731,-1094.70007324219,13.5000009536743,-945.300048828125,1.49528687064943,-0.244756586246454,0.136717365566299,DLL
4.2,-2.02531218528748,-1.34223282337189,9.12168025970459,0.868907988071442,1.29574000835419,-3.63569402694702,-1106.70007324219,17.1000003814697,-952.500061035156,1.5533031753276,-0.217547597949135,0.146042851827965,DLL
4.23333333333333,-1.81895279884338,-1.49236667156219,9.25028133392334,0.586893975734711,0.853663980960846,-3.54422998428345,-1104.30004882812,13.5000009536743,-954.900024414062,1.60912379607902,-0.192227448671711,0.16016371340336,DLL
4.26666666666667,-1.96609592437744,-1.51509618759155,9.42733097076416,0.746955990791321,0.78506600856781,-3.02593398094177,-1106.70007324219,17.1000003814697,-947.700012207031,1.65496697383889,-0.203587061289906,0.159168289914278,DLL
4.3,-2.05342483520508,-1.64668762683868,9.39204120635986,1.10518991947174,1.37195992469788,-2.43141794204712,-1097.10009765625,18.3000011444092,-940.500061035156,1.69810560323924,-0.213739636690117,0.172631367061351,DLL
4.33333333333333,-2.20236253738403,-1.54201257228851,9.39323711395264,1.21951997280121,1.62348592281342,-1.93598794937134,-1104.30004882812,19.5,-945.300048828125,1.73009419572123,-0.229617696923615,0.161469402309784,DLL
4.36666666666667,-2.40154409408569,-1.50074076652527,8.85670280456543,1.31860601902008,2.21800184249878,-1.42531394958496,-1092.30004882812,12.3000001907349,-954.900024414062,1.76083245172319,-0.264639408978158,0.166390801491002,DLL
4.4,-3.36156344413757,-1.65506160259247,9.02956676483154,1.37195992469788,2.95733594894409,-0.503051996231079,-1092.30004882812,13.5000009536743,-962.100036621094,1.78534199458967,-0.355936909629518,0.179553094705676,DLL
4.43333333333333,-3.23057007789612,-1.72504436969757,9.06366062164307,1.27287399768829,2.72867584228516,-0.746955990791321,-1089.90002441406,11.1000003814697,-964.500061035156,1.81070471702194,-0.341243274589194,0.186625124694267,ST
4.46666666666667,-3.31371212005615,-1.80579364299774,8.77595329284668,1.12805593013763,2.11891603469849,-0.78506600856781,-1085.10009765625,18.9000015258789,-952.500061035156,1.83759789692488,-0.357588633625809,0.20174414300278,ST
4.5,-3.06667900085449,-1.48937594890594,8.85431003570557,1.09756803512573,1.41006994247437,-1.28049600124359,-1061.10009765625,15.3000001907349,-950.100036621094,1.85099808930413,-0.3311876124867,0.165633362099323,ST
4.53333333333333,-2.77717781066895,-1.64788389205933,8.63359546661377,0.899396002292633,1.05183601379395,-1.08232402801514,-1080.30004882812,13.5000009536743,-962.100036621094,1.87912289095918,-0.307492409314817,0.187728191548604,ST
4.56666666666667,-2.40333843231201,-1.21482837200165,8.83875846862793,0.564027965068817,0.769822001457214,-1.31860601902008,-1080.30004882812,11.7000007629395,-952.500061035156,1.88706263214487,-0.264150380586027,0.136270900560295,ST
4.6,-2.00078821182251,-1.06290006637573,8.71853160858154,0.259148001670837,0.670735955238342,-1.05183601379395,-1068.30004882812,10.5,-945.300048828125,1.9000787269295,-0.224919697627341,0.121311837285508,ST
4.63333333333333,-2.00676965713501,-0.992319166660309,8.75442028045654,-0.0533539988100529,1.07470202445984,-0.891773998737335,-1068.30004882812,11.1000003814697,-950.100036621094,1.91228463028914,-0.225637636898828,0.113365875308966,ST
4.66666666666667,-2.31780409812927,-1.18013608455658,8.88481616973877,-0.282013982534409,2.24848985671997,-1.02134799957275,-1056.30004882812,12.3000001907349,-950.100036621094,1.93628228174304,-0.256710168672027,0.133144718266887,ST
4.7,-2.57620167732239,-1.60302317142487,9.11809158325195,-0.480185985565186,2.88111591339111,-1.43293595314026,-1063.5,15.3000001907349,-959.700012207031,1.97199787543962,-0.275916492666193,0.175808547873197,ST
4.73333333333333,-2.89860081672668,-1.95353496074677,9.15637302398682,-0.754577994346619,2.33995389938354,-2.69056582450867,-1049.10009765625,12.9000005722046,-954.900024414062,2.02474238127249,-0.303237342736108,0.213220636179458,ST
4.76666666666667,-3.47102355957031,-2.17544603347778,8.45714378356934,-0.358233988285065,2.63721203804016,-2.32470989227295,-1046.70007324219,16.5,-950.100036621094,2.07567091697718,-0.381767148009692,0.25443437465296,ST
4.8,-3.93697714805603,-2.57321095466614,8.82201099395752,-0.289635986089706,2.75916385650635,-1.77592599391937,-1039.5,15.3000001907349,-959.700012207031,2.12087465264353,-0.40850460905924,0.286183555788442,ST
4.83333333333333,-3.58646535873413,-2.79691648483276,8.39732933044434,-0.152439996600151,1.6768399477005,-1.44055795669556,-1056.30004882812,13.5000009536743,-947.700012207031,2.15956153969271,-0.386968137498308,0.323128825744612,ST
4.86666666666667,-3.21561670303345,-2.64139938354492,7.81473779678345,-0.0533539988100529,0.846041977405548,-1.16616594791412,-1049.10009765625,15.9000005722046,-957.300048828125,2.17914367258276,-0.372441507318523,0.326977661311632,ST
4.9,-3.57031536102295,-2.66771769523621,8.18498802185059,-0.297257989645004,0.685979962348938,-0.823175966739655,-1037.10009765625,12.3000001907349,-966.900024414062,2.18678355987489,-0.393830437018328,0.316312177840118,ST
4.93333333333333,-3.63192415237427,-2.79751467704773,8.62103462219238,-0.198172003030777,0.365855991840363,-0.213415995240211,-1039.5,14.7000007629395,-952.500061035156,2.18948265634762,-0.381616349865487,0.314345605918007,ST
4.96666666666667,-3.31131958961487,-2.9542281627655,8.668288230896,-0.617381989955902,-0.152439996600151,-0.449698001146317,-1029.90002441406,11.1000003814697,-947.700012207031,2.19701279026822,-0.346451012806703,0.329777313937237,ST
5.0,-3.68874764442444,-3.03079032897949,8.84533786773682,-1.12043392658234,-0.0076219998300075,-0.487807989120483,-1051.5,18.3000011444092,-954.900024414062,2.1982194438889,-0.375474973550691,0.332376631929955,ST
5.03333333333333,-3.50990295410156,-2.99370551109314,8.68084907531738,-1.2576299905777,0.221037998795509,-0.350611984729767,-1034.70007324219,18.3000011444092,-945.300048828125,2.19794584906287,-0.365264152576288,0.334555523329522,ST
5.06666666666667,-4.11043834686279,-2.90278792381287,8.19216632843018,-1.30336201190948,0.350611984729767,0.152439996600151,-1041.90002441406,23.7000007629395,-945.300048828125,2.19295564451313,-0.442429475507121,0.342785783462143,ST
5.1,-3.52485656738281,-2.96379852294922,7.55873250961304,-1.76830399036407,0.403965979814529,0.83841997385025,-1032.30004882812,16.5,-942.900024414062,2.18707894907463,-0.410788531934603,0.376283992196634,ST
5.13333333333333,-3.52904343605042,-3.23057007789612,7.70886659622192,-2.15702605247498,-0.548784017562866,0.868907988071442,-1029.90002441406,21.3000011444092,-942.900024414062,2.17081264918931,-0.399218497202835,0.399856172964377,ST
5.16666666666667,-3.45786452293396,-3.70968270301819,7.8859167098999,-2.29422187805176,-0.975615978240967,0.861285984516144,-1034.70007324219,12.3000001907349,-959.700012207031,2.1588868439208,-0.376832212704183,0.442880676371031,ST
5.2,-3.58347463607788,-3.9938006401062,8.43142318725586,-1.82927989959717,-1.2576299905777,0.990859985351562,-1039.5,23.1000003814697,-947.700012207031,2.12989738616717,-0.365489472388711,0.444605943744755,ST
5.23333333333333,-3.51169729232788,-4.3365364074707,8.32076644897461,-0.87652999162674,-1.6768399477005,1.22714197635651,-1041.90002441406,17.1000003814697,-945.300048828125,2.11316599825717,-0.356518678070403,0.480756930785861,ST
5.26666666666667,-3.63252234458923,-3.96508979797363,7.92958116531372,0.327746003866196,-0.800309956073761,1.47866797447205,-1044.30004882812,26.1000003814697,-954.900024414062,2.08563230049249,-0.388763638665061,0.46190519741479,ST
5.3,-3.74018788337708,-3.8957052230835,7.93795537948608,0.907018005847931,-0.762199997901917,2.17227005958557,-1032.30004882812,24.3000011444092,-942.900024414062,2.05692749101779,-0.400626290097721,0.452963368766112,ST
5.33333333333333,-3.6271390914917,-3.89450883865356,7.9816198348999,0.960371971130371,-0.792688012123108,2.40092992782593,-1041.90002441406,24.3000011444092,-945.300048828125,2.02613356061562,-0.388318183256446,0.450483694456509,ST
5.36666666666667,-3.73301029205322,-3.5093047618866,8.23642826080322,1.10518991947174,-0.67835795879364,2.5000159740448,-1037.10009765625,21.3000011444092,-947.700012207031,1.97677815577113,-0.39564903494422,0.398979197720547,ST
5.4,-3.36036729812622,-3.60560584068298,8.58275318145752,0.922261953353882,-0.983237981796265,2.5000159740448,-1049.10009765625,25.5000019073486,-942.900024414062,1.94340432121406,-0.346507029466432,0.394409918026538,ST
5.43333333333333,-3.08342695236206,-3.54280090332031,8.67785835266113,0.899396002292633,-1.22714197635651,2.12653803825378,-1046.70007324219,20.7000007629395,-940.500061035156,1.91106822147047,-0.317221233141626,0.384641213419713,ST
5.46666666666667,-2.81785154342651,-3.54878234863281,8.70178413391113,0.853663980960846,-0.731711983680725,1.79879200458527,-1044.30004882812,18.3000011444092,-950.100036621094,1.8871942713568,-0.291313270789923,0.384725278452356,ST
5.5,-3.06966972351074,-3.24432754516602,8.55165004730225,0.952749967575073,0.25152599811554,1.94360995292664,-1041.90002441406,16.5,-940.500061035156,1.86038269232992,-0.325408237525321,0.359926058085384,ST
5.53333333333333,-3.52784729003906,-3.04634213447571,8.02408790588379,0.945127964019775,1.57775402069092,2.65245604515076,-1046.70007324219,15.3000001907349,-952.500061035156,1.83849932922445,-0.394187764820882,0.359797535972927,ST
5.56666666666667,-4.35388278961182,-2.83639407157898,7.97384405136108,0.823175966739655,2.65245604515076,3.19361782073975,-1037.10009765625,17.1000003814697,-954.900024414062,1.80554755538613,-0.481353363285661,0.33838552308851,ST
5.6,-4.60928964614868,-2.68446564674377,8.00913429260254,0.647870004177094,2.4847719669342,3.50611996650696,-1034.70007324219,15.3000001907349,-952.500061035156,1.7691970296047,-0.505553943147336,0.319828921011891,ST
5.63333333333333,-4.79531240463257,-2.5558648109436,7.99477910995483,0.541162014007568,1.36433792114258,3.59758400917053,-1029.90002441406,19.5,-947.700012207031,1.72831384019398,-0.523225842549949,0.305447774131102,ST
5.66666666666667,-4.82880830764771,-2.25380277633667,7.67955780029297,0.175305992364883,0.0228659994900227,3.62807202339172,-1032.30004882812,15.3000001907349,-947.700012207031,1.67074016424969,-0.54467194950889,0.281485865115858,ST
5.7,-4.85452842712402,-2.0911078453064,7.70946455001831,-0.0152439996600151,-0.342989981174469,3.60520601272583,-1017.90002441406,16.5,-954.900024414062,1.61477411513516,-0.547128894286399,0.26109908502841,ST
5.73333333333333,-4.6768798828125,-2.22568988800049,8.24719524383545,-0.571649968624115,-0.945127964019775,3.29270386695862,-1032.30004882812,17.1000003814697,-971.700012207031,1.56632169348866,-0.500814648772382,0.26131859436861,ST
5.76666666666667,-4.16845846176147,-2.28430795669556,7.93436670303345,-0.6250039935112,-1.18903195858002,2.77440786361694,-1022.70001220703,18.3000011444092,-950.100036621094,1.53193530680455,-0.466867314588374,0.278775121716298,ST
5.8,-4.27492761611938,-2.24542880058289,7.91103887557983,-0.663114011287689,-0.503051996231079,2.43141794204712,-1027.5,23.7000007629395,-959.700012207031,1.49436218132101,-0.479702500003995,0.275470447705989,ST
5.83333333333333,-4.68525409698486,-2.29866337776184,8.35665512084961,-0.403965979814529,0.243903994560242,2.19513607025146,-1027.5,12.9000005722046,-947.700012207031,1.46170498359602,-0.497005994012956,0.267194200472364,ST
5.86666666666667,-4.49145555496216,-2.26636362075806,7.90326309204102,0.0076219998300075,0.503051996231079,1.92836594581604,-1032.30004882812,11.7000007629395,-952.500061035156,1.44373890958982,-0.501754545518868,0.277613504659748,ST
5.9,-4.62005615234375,-2.18561434745789,8.13594055175781,-0.0076219998300075,-0.297257989645004,1.53202199935913,-1029.90002441406,25.5000019073486,-969.300048828125,1.41422941189263,-0.501813668811281,0.260963916250124,ST
5.93333333333333,-4.3401255607605,-2.15750169754028,8.12397766113281,0.0685980021953583,-0.67835795879364,1.38720393180847,-1027.5,20.7000007629395,-947.700012207031,1.39341296633054,-0.476107092542374,0.258097208011951,ST
5.96666666666667,-3.83947968482971,-2.13776302337646,8.16883850097656,0.0838419944047928,-1.00610399246216,0.853663980960846,-1013.10003662109,15.9000005722046,-947.700012207031,1.37842835065868,-0.425436934943143,0.254956476605578,ST
6.0,-3.04036068916321,-2.01334929466248,7.80157899856567,0.342989981174469,-1.18903195858002,0.342989981174469,-1032.30004882812,21.3000011444092,-942.900024414062,1.37045710999815,-0.358969631027871,0.251548327777504,ST
6.03333333333333,-2.99131298065186,-1.93020737171173,7.57069540023804,0.541162014007568,-0.419209986925125,0.243903994560242,-1029.90002441406,17.7000007629395,-957.300048828125,1.36757312527172,-0.365047345835079,0.248468202322277,ST
6.06666666666667,-2.77657961845398,-2.24064350128174,8.01870441436768,0.701223969459534,0.442075997591019,-0.0533539988100529,-1029.90002441406,20.1000003814697,-938.100036621094,1.38083727796988,-0.322610443032574,0.27135192473248,ST
6.1,-2.89082503318787,-2.38001084327698,8.1251745223999,1.09756803512573,0.342989981174469,-0.609759986400604,-1025.10009765625,15.9000005722046,-957.300048828125,1.39908688720038,-0.329305552278691,0.283437446455306,ST
6.13333333333333,-3.10017490386963,-2.58397769927979,8.20293235778809,1.51677799224854,0.403965979814529,-1.07470202445984,-1025.10009765625,29.1000003814697,-947.700012207031,1.42854703571163,-0.346086861029633,0.303240160951063,ST
6.16666666666667,-3.13785791397095,-2.76880383491516,8.2621488571167,1.89025592803955,0.487807989120483,-1.71494996547699,-1029.90002441406,23.7000007629395,-947.700012207031,1.46796789368285,-0.345511333312198,0.321175914977115,ST
6.2,-3.69173836708069,-2.7741870880127,8.35486125946045,2.14178204536438,0.617381989955902,-2.0731840133667,-1015.50006103516,25.5000019073486,-954.900024414062,1.50749753661709,-0.396966942520553,0.318434262089808,ST
6.23333333333333,-4.61287879943848,-2.74786877632141,8.96197605133057,2.22562384605408,0.769822001457214,-2.05031800270081,-1029.90002441406,16.5,-947.700012207031,1.54026807343474,-0.457551634208923,0.295508969334166,ST
6.26666666666667,-5.04055070877075,-2.65037155151367,9.6462516784668,2.35519790649414,0.365855991840363,-1.72257196903229,-1034.70007324219,17.1000003814697,-947.700012207031,1.56475262370476,-0.466563824289181,0.265576152340106,ST
6.3,-4.92929601669312,-2.17544603347778,8.92429351806641,2.95733594894409,-0.350611984729767,-0.640248000621796,-1020.30004882812,15.3000001907349,-940.500061035156,1.57887518292978,-0.49167079567095,0.23444655953748,ST
6.33333333333333,-4.85572481155396,-1.76511991024017,8.49123764038086,2.73629784584045,0.0,0.388722002506256,-1020.30004882812,17.1000003814697,-950.100036621094,1.57661686547336,-0.510538083966152,0.199810337565766,ST
6.36666666666667,-4.59074735641479,-1.53064787387848,8.1491003036499,2.26373386383057,0.213415995240211,1.31860601902008,-1022.70001220703,11.1000003814697,-950.100036621094,1.56720674223039,-0.506435866287627,0.180500399062765,ST
6.4,-4.20434713363647,-1.47860944271088,7.67716503143311,1.12805593013763,0.541162014007568,1.91312193870544,-1032.30004882812,9.30000019073486,-959.700012207031,1.55444258169646,-0.494948030673738,0.186626310369139,ST
6.43333333333333,-4.20434713363647,-1.29079258441925,7.64785623550415,0.381099998950958,0.609759986400604,1.60824191570282,-1013.10003662109,16.5,-954.900024414062,1.52755255094726,-0.498250522555463,0.165128756279165,ST
6.46666666666667,-4.44958543777466,-1.30694234371185,7.93197393417358,-0.0762199983000755,0.411587983369827,1.6692179441452,-1001.10003662109,9.30000019073486,-942.900024414062,1.50493132043875,-0.506708841036233,0.161904135153288,ST
6.5,-4.754638671875,-1.47741317749023,8.50140571594238,-0.190549999475479,-0.175305992364883,1.6920839548111,-1013.10003662109,12.3000001907349,-947.700012207031,1.48649153421739,-0.503825081907902,0.170765499242115,ST
6.53333333333333,-5.02141046524048,-1.76153099536896,9.02418327331543,-0.198172003030777,-0.670735955238342,1.37195992469788,-1022.70001220703,11.1000003814697,-947.700012207031,1.47535794411551,-0.49917579181877,0.191718904487526,ST
6.56666666666667,-4.74985313415527,-1.66582822799683,8.82500171661377,0.243903994560242,-1.03659200668335,1.08994603157043,-1017.90002441406,12.9000005722046,-947.700012207031,1.45643281812624,-0.485061383200927,0.184979497591606,ST
6.6,-4.78275108337402,-1.41819703578949,8.85371208190918,0.396344006061554,-1.27287399768829,0.975615978240967,-1017.90002441406,12.9000005722046,-950.100036621094,1.43121050939253,-0.488079994981,0.157062115370493,ST
6.63333333333333,-4.61527109146118,-1.36376595497131,8.62940883636475,0.487807989120483,-1.21189796924591,1.17378795146942,-1022.70001220703,17.7000007629395,-959.700012207031,1.41619692821558,-0.484236926747801,0.154651369653371,ST
6.66666666666667,-4.34371423721313,-1.33684957027435,8.37280559539795,0.518296003341675,-0.952749967575073,1.22714197635651,-1008.30004882812,14.1000003814697,-957.300048828125,1.40288616992977,-0.472130639023322,0.156210720709566,ST
6.7,-4.36225652694702,-1.22619307041168,8.36443138122559,0.663114011287689,-0.503051996231079,1.30336201190948,-1017.90002441406,15.9000005722046,-947.700012207031,1.3838638020852,-0.475829490920789,0.143177093092347,ST
6.73333333333333,-3.94654726982117,-1.07366669178009,7.81832695007324,1.05183601379395,0.259148001670837,1.20427596569061,-1034.70007324219,11.1000003814697,-952.500061035156,1.3706947697224,-0.464448134396322,0.133625210540555,ST
6.76666666666667,-4.02789497375488,-1.13348090648651,7.69989442825317,1.04421401023865,0.289635986089706,0.442075997591019,-1025.10009765625,15.3000001907349,-952.500061035156,1.37744616791648,-0.478187246367659,0.143977529696508,ST
6.8,-4.65175771713257,-0.925925314426422,8.26155090332031,0.685979962348938,0.0,-0.304879993200302,-1025.10009765625,14.7000007629395,-954.900024414062,1.37026823730987,-0.510091475564166,0.110710805037108,ST
6.83333333333333,-5.05012130737305,-0.875083148479462,8.26872825622559,0.739333987236023,-0.0457319989800453,0.25152599811554,-1015.50006103516,13.5000009536743,-947.700012207031,1.36946033514206,-0.545778344578463,0.103877427413681,ST
6.86666666666667,-4.98791408538818,-1.31770896911621,8.60548305511475,0.213415995240211,-0.0228659994900227,-0.0381099991500378,-1017.90002441406,18.3000011444092,-947.700012207031,1.3957944737402,-0.520237696976799,0.151604870637712,ST
6.9,-5.17333841323853,-1.21004319190979,9.07622146606445,-0.0381099991500378,-0.221037998795509,-0.823175966739655,-1015.50006103516,12.3000001907349,-950.100036621094,1.39636556376406,-0.513705273346861,0.133380701244155,ST
6.93333333333333,-4.78873252868652,-1.5001425743103,9.1450080871582,0.182927995920181,-0.228659987449646,-1.31860601902008,-1029.90002441406,12.3000001907349,-954.900024414062,1.42799961120272,-0.476181868113435,0.163408958896993,ST
6.96666666666667,-4.26296472549438,-1.60481762886047,9.04093074798584,0.792688012123108,-0.365855991840363,-2.31708788871765,-1015.50006103516,15.3000001907349,-962.100036621094,1.47141282885953,-0.4333128637459,0.176083102730357,ST
7.0,-3.70609378814697,-1.44032824039459,8.67606353759766,1.12805593013763,-0.685979962348938,-2.94971394538879,-1022.70001220703,5.70000028610229,-952.500061035156,1.51279675669764,-0.396789365162677,0.164589019781686,ST
7.03333333333333,-3.10914707183838,-1.39546751976013,8.12696838378906,0.960371971130371,-0.640248000621796,-3.17075204849243,-1025.10009765625,15.9000005722046,-964.500061035156,1.56042096503369,-0.358531468965623,0.170346852948738,ST
7.06666666666667,-3.17494297027588,-1.21542656421661,8.07851886749268,0.990859985351562,0.182927995920181,-2.54574799537659,-1013.10003662109,14.1000003814697,-930.900024414062,1.59222956517646,-0.370325783284011,0.149327646139918,ST
7.1,-3.21980357170105,-1.19508969783783,8.06476211547852,0.78506600856781,0.87652999162674,-1.47104597091675,-1025.10009765625,14.7000007629395,-950.100036621094,1.61898221765312,-0.377266174481792,0.146841130811388,ST
7.13333333333333,-3.66781258583069,-1.50373148918152,8.18797874450684,0.144817993044853,1.37195992469788,-0.891773998737335,-1015.50006103516,10.5,-952.500061035156,1.64829920815503,-0.417065895551995,0.182242714193471,ST
7.16666666666667,-3.61218547821045,-1.4020471572876,7.94991827011108,-0.388722002506256,1.47866797447205,-0.685979962348938,-1020.30004882812,14.1000003814697,-952.500061035156,1.65663815894176,-0.423073068808606,0.175976163928296,ST
7.2,-4.11821413040161,-1.50732028484344,8.0952672958374,-0.891773998737335,1.265251994133,-0.0228659994900227,-1005.90002441406,12.3000001907349,-950.100036621094,1.65825067004909,-0.465908955396057,0.185868889586025,ST
7.23333333333333,-4.14931774139404,-1.60302317142487,8.36802005767822,-0.899396002292633,0.823175966739655,0.503051996231079,-1013.10003662109,11.7000007629395,-962.100036621094,1.64994533622671,-0.454770378840444,0.190552528347234,ST
7.26666666666667,-4.12778472900391,-1.61020088195801,8.33452415466309,-1.01372599601746,-0.6250039935112,0.731711983680725,-1010.70001220703,15.3000001907349,-940.500061035156,1.63174588963936,-0.45177753149469,0.191905713690289,ST
7.3,-4.22528171539307,-1.72624063491821,8.1485013961792,-1.20427596569061,-0.716467976570129,1.04421401023865,-1025.10009765625,23.1000003814697,-952.500061035156,1.61547743362747,-0.46860815548413,0.209828960031102,ST
7.33333333333333,-4.16546773910522,-1.80220472812653,8.18618488311768,-1.2500079870224,-0.0304879993200302,0.830797970294952,-1003.50006103516,13.5000009536743,-969.300048828125,1.59952104116483,-0.461459777469168,0.218166933660254,ST
7.36666666666667,-3.96449160575867,-1.94934797286987,8.02109718322754,-1.13567793369293,0.571649968624115,0.175305992364883,-996.300048828125,15.9000005722046,-947.700012207031,1.60169289687609,-0.448789280436673,0.2403571473309,ST
7.4,-4.27074098587036,-2.17544603347778,8.08091163635254,-0.228659987449646,2.03507399559021,-0.594515979290009,-996.300048828125,11.1000003814697,-945.300048828125,1.62500879767164,-0.475032642415365,0.264361692610171,ST
7.43333333333333,-3.86161112785339,-2.59115529060364,7.90445947647095,-0.0076219998300075,2.5152599811554,-1.44055795669556,-1001.10003662109,14.7000007629395,-945.300048828125,1.67671487451712,-0.438007534754949,0.318541145849204,ST
7.46666666666667,-4.82342481613159,-2.44879722595215,7.76628828048706,-0.114329993724823,2.01982998847961,-2.56099200248718,-1003.50006103516,19.5,-938.100036621094,1.71164284890215,-0.53675661956966,0.308811031898944,ST
7.5,-5.10574817657471,-2.6096978187561,7.38706588745117,-0.579271972179413,1.92836594581604,-2.0731840133667,-991.500061035156,20.7000007629395,-957.300048828125,1.75692253432842,-0.579521701412174,0.343569424342929,ST
7.53333333333333,-5.25887298583984,-2.72155046463013,7.36373805999756,-1.41006994247437,1.72257196903229,-1.73019397258759,-989.100036621094,21.3000011444092,-945.300048828125,1.78124928936982,-0.591976896657451,0.35908370689583,ST
7.56666666666667,-5.26066732406616,-3.26645874977112,8.31657981872559,-1.59299790859222,0.640248000621796,-1.12805593013763,-996.300048828125,21.3000011444092,-957.300048828125,1.79559815210744,-0.532436516479485,0.378353427020217,ST
7.6,-4.60749530792236,-3.5954372882843,8.05758380889893,-0.884151995182037,-0.861285984516144,-1.265251994133,-993.900024414062,16.5,-959.700012207031,1.82159938419857,-0.478969218289234,0.421976071808327,ST
7.63333333333333,-4.87247276306152,-3.58048391342163,8.07253742218018,0.556405961513519,-1.28811800479889,-1.34909391403198,-984.300048828125,21.9000015258789,-950.100036621094,1.83332091643923,-0.501175493787812,0.417176585230666,ST
7.66666666666667,-4.94843673706055,-3.43752765655518,7.85002851486206,1.47866797447205,-0.46494197845459,-0.922261953353882,-1003.50006103516,14.1000003814697,-950.100036621094,1.85016443023145,-0.522275592529291,0.410826835443486,ST
7.7,-5.3061261177063,-3.16357827186584,7.94034814834595,1.28049600124359,-0.167683988809586,-0.167683988809586,-998.700012207031,20.1000003814697,-940.500061035156,1.84360340705064,-0.555186696157751,0.377010000767969,ST
7.73333333333333,-5.60041284561157,-3.07206225395203,8.07971572875977,1.2500079870224,0.282013982534409,0.907018005847931,-984.300048828125,14.1000003814697,-940.500061035156,1.83538822260224,-0.575912939825438,0.360310046703526,ST
7.76666666666667,-5.03875637054443,-3.1587929725647,8.51994895935059,1.02897000312805,0.0914639979600906,1.00610399246216,-1003.50006103516,21.9000015258789,-947.700012207031,1.82704172482039,-0.507067849382307,0.35236222271231,ST
7.8,-4.44121170043945,-2.87886214256287,7.9397497177124,1.19665396213531,-0.724089980125427,0.777444005012512,-991.500061035156,24.3000011444092,-947.700012207031,1.81909571050352,-0.483395949375929,0.344861235730123,ST
7.83333333333333,-3.99619317054749,-2.82861804962158,7.60478973388672,1.20427596569061,-0.99848198890686,0.777444005012512,-1008.30004882812,20.1000003814697,-947.700012207031,1.81664705366707,-0.456480704068867,0.353070814187176,ST
7.86666666666667,-4.25698375701904,-2.94764852523804,8.07193946838379,0.975615978240967,-0.792688012123108,0.716467976570129,-996.300048828125,17.7000007629395,-954.900024414062,1.80808613863407,-0.459074326136183,0.347609085400706,ST
7.9,-4.26775026321411,-2.88843250274658,8.1066312789917,1.12805593013763,-0.480185985565186,0.800309956073761,-993.900024414062,13.5000009536743,-959.700012207031,1.79990571800713,-0.460049209271131,0.339520748603902,ST
7.93333333333333,-3.98722100257874,-2.65575480461121,7.84105634689331,1.35671591758728,-0.221037998795509,1.27287399768829,-1003.50006103516,15.3000001907349,-945.300048828125,1.78368445257267,-0.449185855480325,0.323129752300803,ST
7.96666666666667,-4.10565328598022,-2.65336227416992,7.97922706604004,1.57013201713562,-0.175305992364883,1.50153398513794,-998.700012207031,18.3000011444092,-942.900024414062,1.77176878794665,-0.454736746131034,0.317027603546786,ST
8.0,-4.41309881210327,-2.59833312034607,8.21310138702393,1.76068198680878,-0.121951997280121,1.62348592281342,-991.500061035156,12.9000005722046,-942.900024414062,1.75591155281457,-0.474080693158667,0.301909957942397,ST
8.03333333333333,-4.66970205307007,-2.63840866088867,8.1544828414917,1.62348592281342,-0.327746003866196,1.47866797447205,-998.700012207031,17.1000003814697,-954.900024414062,1.75013611442372,-0.499119580590223,0.308654524920341,ST
8.06666666666667,-4.95561456680298,-2.23406410217285,7.77107334136963,1.2347639799118,0.205793991684914,1.77592599391937,-1010.70001220703,15.3000001907349,-945.300048828125,1.72165036769611,-0.55102670328452,0.276011425240641,ST
8.1,-4.85751914978027,-2.32557988166809,8.3100004196167,0.617381989955902,0.0685980021953583,2.0731840133667,-998.700012207031,16.5,-942.900024414062,1.69816834510328,-0.513785404590222,0.269847026845971,ST
8.13333333333333,-4.250403881073,-2.1491277217865,7.75372743606567,0.411587983369827,-0.807931959629059,2.12653803825378,-991.500061035156,15.9000005722046,-947.700012207031,1.67107886057,-0.485622539689751,0.267581065047551,ST
8.16666666666667,-4.64936542510986,-1.9146556854248,7.66161346435547,0.289635986089706,-1.04421401023865,2.9420919418335,-993.900024414062,18.9000015258789,-957.300048828125,1.61938891436626,-0.531552536326006,0.241193063521441,ST
8.2,-4.31081628799438,-1.64130425453186,7.73339033126831,0.236281991004944,-0.724089980125427,3.353679895401,-1001.10003662109,14.7000007629395,-954.900024414062,1.56011920690325,-0.499175443387253,0.205457315885396,ST
8.23333333333333,-4.20554304122925,-1.68197798728943,7.75851249694824,0.0838419944047928,-0.739333987236023,3.32319188117981,-1003.50006103516,15.9000005722046,-952.500061035156,1.51962976102515,-0.487113317758889,0.210194143163925,ST
8.26666666666667,-4.4142951965332,-1.78007352352142,8.10364055633545,-0.37347799539566,-0.83841997385025,2.60672402381897,-1003.50006103516,8.10000038146973,-938.100036621094,1.48438897006226,-0.488491833371171,0.214352726934732,ST
8.3,-4.41250085830688,-1.76870882511139,8.0533971786499,-0.426831990480423,-0.594515979290009,1.93598794937134,-1001.10003662109,14.7000007629395,-954.900024414062,1.45618291570308,-0.491078775752932,0.215051544607501,ST
8.33333333333333,-4.54528856277466,-2.03847122192383,8.79449653625488,-0.365855991840363,-0.67835795879364,0.815553963184357,-1001.10003662109,15.9000005722046,-940.500061035156,1.44740395404392,-0.465600520552785,0.22757419664706,ST
8.36666666666667,-4.61646747589111,-1.96370339393616,8.69879341125488,0.411587983369827,-1.42531394958496,0.0990860015153885,-993.900024414062,19.5,-950.100036621094,1.44161668639682,-0.475298588834565,0.220935805101768,ST
8.4,-4.61527109146118,-1.86680424213409,8.6981954574585,0.846041977405548,-1.86738991737366,0.0457319989800453,-1003.50006103516,19.5,-942.900024414062,1.43640085651439,-0.475393699733378,0.209544295009095,ST
8.43333333333333,-4.17503786087036,-1.44092643260956,8.21609210968018,1.12043392658234,-2.0579400062561,0.37347799539566,-1005.90002441406,16.5,-940.500061035156,1.41684863089469,-0.460632845038414,0.17103262537864,ST
8.46666666666667,-4.03387641906738,-1.57909739017487,8.06715393066406,1.12043392658234,-1.61586391925812,0.823175966739655,-1015.50006103516,12.3000001907349,-947.700012207031,1.4176619975999,-0.453703939842207,0.190392315988699,ST
8.5,-4.14931774139404,-1.67599666118622,8.16285705566406,1.12043392658234,-0.556405961513519,0.670735955238342,-1020.30004882812,12.3000001907349,-942.900024414062,1.41895752053787,-0.461271916301491,0.199882763526106,ST
8.53333333333333,-4.2563853263855,-1.75196075439453,8.4828634262085,0.990859985351562,-0.228659987449646,-0.106707997620106,-1001.10003662109,17.1000003814697,-952.500061035156,1.42758230350169,-0.456309974620909,0.201986389347785,ST
8.56666666666667,-4.48487615585327,-1.35060679912567,8.48944282531738,1.06708002090454,-0.266770005226135,-0.25152599811554,-1015.50006103516,8.70000076293945,-942.900024414062,1.41654493002176,-0.480349272371413,0.156097769736937,ST
8.6,-4.42685604095459,-1.64010798931122,8.80107593536377,0.701223969459534,-0.480185985565186,0.0381099991500378,-1017.90002441406,12.9000005722046,-954.900024414062,1.43157272434634,-0.45840929214391,0.182906709325459,ST
8.63333333333333,-4.214515209198,-1.40982294082642,8.52592945098877,0.983237981796265,-0.586893975734711,0.320124000310898,-1015.50006103516,6.30000019073486,-945.300048828125,1.42324074288135,-0.452835101565458,0.161808938434784,ST
8.66666666666667,-3.86220908164978,-1.52945160865784,8.32734680175781,0.693601965904236,-0.236281991004944,0.160062000155449,-1010.70001220703,17.7000007629395,-950.100036621094,1.43276184352779,-0.427616711347818,0.180271616970072,ST
8.7,-4.60988807678223,-1.34223282337189,8.6623067855835,0.602137982845306,0.419209986925125,0.106707997620106,-1017.90002441406,16.5,-942.900024414062,1.42427049970441,-0.484904292482103,0.152640143633837,ST
8.73333333333333,-4.27672243118286,-1.43434679508209,8.39074993133545,0.487807989120483,0.518296003341675,0.236281991004944,-1005.90002441406,7.50000047683716,-940.500061035156,1.43273792620119,-0.466533386296599,0.168327283638368,ST
8.76666666666667,-4.01413726806641,-1.3960657119751,8.24839115142822,0.274392008781433,0.0304879993200302,0.0,-1010.70001220703,14.7000007629395,-947.700012207031,1.4340202625223,-0.447437391352749,0.167189549582323,ST
8.8,-4.00396919250488,-1.56474196910858,8.27949523925781,-0.0076219998300075,-0.556405961513519,-0.243903994560242,-1017.90002441406,13.5000009536743,-940.500061035156,1.44425303073118,-0.442569355232703,0.186912166751678,ST
8.83333333333333,-3.75334715843201,-1.84407472610474,8.26454162597656,-0.342989981174469,-0.701223969459534,-0.800309956073761,-1001.10003662109,21.3000011444092,-964.500061035156,1.4653241787177,-0.415727521865046,0.220617198122933,ST
8.86666666666667,-3.87716269493103,-2.0432562828064,8.05160236358643,-0.198172003030777,-0.617381989955902,-1.2423859834671,-1025.10009765625,9.90000057220459,-945.300048828125,1.49106216095786,-0.435111208240899,0.249723089103659,ST
8.9,-4.14871978759766,-2.11802434921265,8.08509826660156,-0.213415995240211,-0.510673999786377,-1.37958192825317,-1010.70001220703,11.7000007629395,-942.900024414062,1.5099850020783,-0.459273478885117,0.257621690649485,ST
8.93333333333333,-4.35687351226807,-2.32019662857056,8.51097679138184,-0.289635986089706,-1.04421401023865,-1.18140995502472,-1015.50006103516,18.3000011444092,-947.700012207031,1.5236418742504,-0.456444626951214,0.26739154360387,ST
8.96666666666667,-3.89869594573975,-2.38599228858948,8.67905426025391,0.175305992364883,-2.69818782806396,-1.41769194602966,-1008.30004882812,17.1000003814697,-971.700012207031,1.53486835714447,-0.403546783293332,0.268465858356062,ST
9.0,-3.39027428627014,-2.5618462562561,8.55045413970947,0.46494197845459,-4.39027214050293,-1.60061991214752,-1017.90002441406,14.1000003814697,-945.300048828125,1.54925974086967,-0.35485070566061,0.290468004525485,ST
9.03333333333333,-3.54280090332031,-2.61149215698242,8.62761402130127,1.10518991947174,-6.18906402587891,-2.02745199203491,-1020.30004882812,12.9000005722046,-952.500061035156,1.55833975540565,-0.363115714455,0.292091557808982,ST
9.06666666666667,-3.51109933853149,-2.13895916938782,8.35486125946045,1.29574000835419,-5.5030837059021,-2.58385801315308,-1037.10009765625,15.9000005722046,-952.500061035156,1.56460070473408,-0.376205184064271,0.249155748229017,ST
9.1,-3.29397344589233,-2.01155471801758,8.22984886169434,1.62348592281342,-2.24086785316467,-0.617381989955902,-1056.30004882812,15.9000005722046,-947.700012207031,1.57065840865996,-0.366762184331585,0.236933723948791,ST
9.13333333333333,-2.86869359016418,-2.24841952323914,8.23283958435059,1.08994603157043,-1.37958192825317,0.175305992364883,-1044.30004882812,12.9000005722046,-950.100036621094,1.57781087562808,-0.322028645010591,0.26438878312073,ST
9.16666666666667,-3.18212056159973,-2.4637508392334,9.10134315490723,0.167683988809586,-0.990859985351562,0.647870004177094,-1039.5,9.30000019073486,-950.100036621094,1.56625007227694,-0.32410743718449,0.263554807989699,ST
9.2,-2.50681710243225,-2.32677626609802,8.49542427062988,-0.350611984729767,-1.72257196903229,0.716467976570129,-1051.5,12.9000005722046,-945.300048828125,1.55013145502488,-0.27469944626701,0.267378078575282,ST
9.23333333333333,-2.79572033882141,-2.7562427520752,8.96795749664307,-0.762199997901917,-1.17378795146942,1.08232402801514,-1049.10009765625,15.3000001907349,-957.300048828125,1.53606607568581,-0.288208466442839,0.29879578514984,ST
9.26666666666667,-2.90099334716797,-2.74487805366516,8.81244087219238,-0.800309956073761,-0.487807989120483,1.05945801734924,-1053.90002441406,20.1000003814697,-952.500061035156,1.51729015279728,-0.304261384215528,0.302715996447193,ST
9.3,-3.18690586090088,-2.73889660835266,8.99786472320557,-0.533540010452271,-0.0838419944047928,0.952749967575073,-1051.5,15.9000005722046,-950.100036621094,1.49809326708004,-0.327038310285285,0.295860353923494,ST
9.33333333333333,-2.82742190361023,-2.92073202133179,8.53011703491211,-0.205793991684914,0.342989981174469,0.945127964019775,-1061.10009765625,20.7000007629395,-974.100036621094,1.49696625635888,-0.304979329967346,0.329817749250734,ST
9.36666666666667,-3.07325863838196,-2.72394299507141,8.73946666717529,0.0381099991500378,0.0381099991500378,0.87652999162674,-1070.70007324219,15.9000005722046,-952.500061035156,1.47646030213205,-0.324417816796081,0.301589932440826,ST
9.4,-2.69583034515381,-2.8441698551178,8.57079029083252,0.0457319989800453,-0.815553963184357,0.792688012123108,-1051.5,22.5,-962.100036621094,1.46701183322736,-0.289190925616718,0.319805873678571,ST
9.43333333333333,-2.86450672149658,-2.67788600921631,8.512770652771,0.274392008781433,-0.655492007732391,1.02897000312805,-1058.70007324219,14.7000007629395,-947.700012207031,1.44544331923712,-0.310044032326838,0.30363456034351,ST
9.46666666666667,-3.04215526580811,-2.69164347648621,8.75621509552002,0.541162014007568,0.106707997620106,1.31860601902008,-1070.70007324219,14.1000003814697,-950.100036621094,1.42889541976663,-0.321483412692767,0.29657153646808,ST
9.5,-2.99669623374939,-2.70779323577881,9.02717399597168,0.617381989955902,0.160062000155449,1.18903195858002,-1051.5,19.5,-957.300048828125,1.41449853033854,-0.308719494505536,0.289734747446019,ST
9.53333333333333,-3.07266044616699,-2.41231060028076,8.83337497711182,0.907018005847931,0.0,1.03659200668335,-1058.70007324219,13.5000009536743,-959.700012207031,1.39710028087812,-0.324225126036535,0.264421619148976,ST
9.56666666666667,-2.86869359016418,-2.1012761592865,8.39433860778809,1.16616594791412,0.190549999475479,1.27287399768829,-1046.70007324219,14.7000007629395,-952.500061035156,1.37923243950447,-0.320968934130454,0.242556403815673,ST
9.6,-2.68087673187256,-2.07376170158386,8.27112102508545,0.92988395690918,0.221037998795509,1.35671591758728,-1049.10009765625,14.7000007629395,-959.700012207031,1.36618416792547,-0.30555564426817,0.243341283547109,ST
9.63333333333333,-3.12469887733459,-2.0970892906189,8.86328220367432,0.731711983680725,0.609759986400604,1.33385002613068,-1046.70007324219,15.9000005722046,-954.900024414062,1.34898524826574,-0.33205738339405,0.230358128803062,ST
9.66666666666667,-2.97994828224182,-2.09768748283386,8.52533149719238,0.556405961513519,0.708845973014832,1.33385002613068,-1049.10009765625,19.5,-957.300048828125,1.33881554606851,-0.328970519097706,0.239618669361241,ST
9.7,-2.96379852294922,-2.25858783721924,8.71195220947266,0.274392008781433,0.87652999162674,1.08232402801514,-1041.90002441406,12.9000005722046,-945.300048828125,1.3325825186089,-0.320081205622582,0.252708776482703,ST
9.73333333333333,-3.29696416854858,-2.16587567329407,9.26942157745361,0.0152439996600151,-0.114329993724823,0.594515979290009,-1025.10009765625,16.5,-938.100036621094,1.31685380556808,-0.333462605382382,0.22914866860274,ST
9.76666666666667,-3.2108314037323,-2.03009724617004,8.9715461730957,0.0914639979600906,-0.419209986925125,0.594515979290009,-1056.30004882812,15.3000001907349,-947.700012207031,1.30472868983243,-0.335356714770077,0.221965549848306,ST
9.8,-3.04993104934692,-1.97626435756683,8.28069114685059,-0.0914639979600906,0.480185985565186,1.21951997280121,-1029.90002441406,11.7000007629395,-959.700012207031,1.29317807732235,-0.345319563587871,0.233761482957442,ST
9.83333333333333,-2.97576117515564,-1.85185062885284,8.29145812988281,-0.213415995240211,0.823175966739655,0.937505960464478,-1034.70007324219,15.9000005722046,-957.300048828125,1.27679185134071,-0.338669738387039,0.219658647359602,ST
9.86666666666667,-3.55655813217163,-2.24243807792664,9.2167854309082,0.152439996600151,0.960371971130371,0.891773998737335,-1051.5,6.30000019073486,-957.300048828125,1.27445585224989,-0.360714239426151,0.237974996449778,ST
9.9,-3.41001296043396,-2.01334929466248,9.31547832489014,0.510673999786377,-0.144817993044853,0.388722002506256,-1034.70007324219,18.3000011444092,-957.300048828125,1.26223081129615,-0.343500585745808,0.211708683119379,ST
9.93333333333333,-2.81725335121155,-1.69334280490875,9.1031379699707,1.22714197635651,-2.00458598136902,-0.221037998795509,-1034.70007324219,18.3000011444092,-966.900024414062,1.25604934730976,-0.291853956008156,0.181696249568167,ST
9.96666666666667,-2.8842453956604,-1.11972367763519,7.69869804382324,1.75305998325348,-1.99696397781372,0.129574000835419,-1041.90002441406,14.1000003814697,-957.300048828125,1.24604944195292,-0.351610770091937,0.14110654375223,ST
10.0,-4.03447437286377,-1.83390629291534,9.39383506774902,0.853663980960846,0.533540010452271,0.655492007732391,-1041.90002441406,11.1000003814697,-959.700012207031,1.26151142563234,-0.400053894332055,0.190909722531713,ST
10.0333333333333,-3.45906090736389,-1.50193703174591,9.0074348449707,1.01372599601746,0.152439996600151,0.403965979814529,-1046.70007324219,16.5,-959.700012207031,1.25142859673172,-0.362471383713182,0.163208856821686,ST
10.0666666666667,-2.96260213851929,-1.52227389812469,8.57617378234863,0.792688012123108,-0.426831990480423,0.0228659994900227,-1037.10009765625,18.3000011444092,-962.100036621094,1.25777633793312,-0.327128286030327,0.174229522759529,ST
10.1,-3.44291090965271,-1.1436493396759,9.20781326293945,0.724089980125427,-1.01372599601746,-0.297257989645004,-1046.70007324219,8.70000076293945,-942.900024414062,1.24627904850296,-0.353492228864538,0.1224194636392,ST
10.1333333333333,-3.44709801673889,-1.18551933765411,8.98530387878418,1.09756803512573,-0.708845973014832,0.487807989120483,-1044.30004882812,12.9000005722046,-945.300048828125,1.24619929217622,-0.362328306224866,0.128885092798668,ST
10.1666666666667,-3.63371849060059,-1.25430583953857,9.42314434051514,0.777444005012512,-0.106707997620106,0.46494197845459,-1046.70007324219,17.7000007629395,-957.300048828125,1.2444344580194,-0.36502860353019,0.130657399934649,ST
10.2,-3.36874127388,-1.12869584560394,9.27899169921875,0.884151995182037,0.0990860015153885,0.564027965068817,-1049.10009765625,8.70000076293945,-947.700012207031,1.23736141310864,-0.346194399049679,0.119157658147713,ST
10.2333333333333,-2.02949905395508,-1.45348739624023,8.72032642364502,-0.297257989645004,-0.388722002506256,-0.983237981796265,-1039.5,14.1000003814697,-938.100036621094,1.26264350326125,-0.224706308673661,0.166038676587626,ST
10.2666666666667,-3.14264321327209,-1.39307498931885,9.03435134887695,-0.236281991004944,-0.0762199983000755,-1.51677799224854,-1046.70007324219,8.10000038146973,-952.500061035156,1.27985826320851,-0.330593042641921,0.154296177666141,ST
10.3,-3.50093078613281,-1.59883618354797,8.46252632141113,-0.0533539988100529,1.44817996025085,-1.01372599601746,-1044.30004882812,15.3000001907349,-954.900024414062,1.32478068032216,-0.388255831801588,0.187726507140854,ST
10.3333333333333,-3.13068032264709,-2.19757723808289,8.31538391113281,-0.259148001670837,1.56251001358032,-0.716467976570129,-1029.90002441406,14.1000003814697,-950.100036621094,1.36403073445008,-0.351405216726556,0.259519310599035,ST
10.3666666666667,-3.74078607559204,-2.19159579277039,8.83397388458252,-0.205793991684914,1.09756803512573,-1.10518991947174,-1049.10009765625,17.7000007629395,-954.900024414062,1.3753254981996,-0.391339319780255,0.244500248318578,ST
10.4,-3.75155282020569,-2.44221782684326,8.72570991516113,0.205793991684914,0.716467976570129,-0.952749967575073,-1039.5,9.90000057220459,-957.300048828125,1.40224013827682,-0.393298421088849,0.273348256404847,DLL
10.4333333333333,-3.63072776794434,-2.31062626838684,8.88720798492432,0.0685980021953583,0.0685980021953583,-1.34909391403198,-1029.90002441406,18.3000011444092,-945.300048828125,1.41346888641403,-0.376047422627824,0.255155823809548,DLL
10.4666666666667,-3.49674391746521,-2.32258915901184,8.85431003570557,0.381099998950958,-1.04421401023865,-0.640248000621796,-1039.5,9.30000019073486,-938.100036621094,1.42074543278862,-0.362844728475663,0.25610179806193,DLL
10.5,-3.12469887733459,-2.16587567329407,8.58813667297363,0.297257989645004,-1.57013201713562,-0.800309956073761,-1037.10009765625,19.5,-950.100036621094,1.42468572933009,-0.336162631671588,0.246762930315717,DLL
10.5333333333333,-2.30883193016052,-2.01933073997498,8.3757963180542,0.0228659994900227,-1.92074394226074,-0.884151995182037,-1037.10009765625,18.3000011444092,-942.900024414062,1.42748276507814,-0.258208200353806,0.236725735043464,DLL
10.5666666666667,-2.27533578872681,-2.0911078453064,8.00734043121338,0.320124000310898,-0.99848198890686,0.0304879993200302,-1041.90002441406,17.7000007629395,-950.100036621094,1.42924798253921,-0.26663336417675,0.254750560388055,DLL
10.6,-2.78674817085266,-2.19578289985657,8.43680667877197,0.289635986089706,0.320124000310898,0.556405961513519,-1044.30004882812,18.9000015258789,-942.900024414062,1.42364827956188,-0.310177880431319,0.253852147727737,DLL
10.6333333333333,-3.47221994400024,-2.31062626838684,8.66051197052002,0.449698001146317,0.533540010452271,0.914639949798584,-1037.10009765625,12.9000005722046,-940.500061035156,1.41775697207728,-0.370882986619951,0.259435493691884,DLL
10.6666666666667,-4.08591461181641,-2.5857720375061,8.47149848937988,0.236281991004944,0.670735955238342,1.35671591758728,-1037.10009765625,17.7000007629395,-940.500061035156,1.41857122732989,-0.434019144377192,0.294944537105613,DLL
10.7,-4.74925518035889,-2.40154409408569,9.44527530670166,-0.99848198890686,-0.114329993724823,1.47866797447205,-1029.90002441406,14.7000007629395,-952.500061035156,1.3738378008488,-0.453889416450528,0.249483524699676,DLL
10.7333333333333,-3.80000233650208,-2.37582397460938,8.09706115722656,-2.00458598136902,-3.33081388473511,3.84910988807678,-1041.90002441406,14.1000003814697,-945.300048828125,1.31641927297656,-0.419433324397443,0.28530086902621,DLL
10.7666666666667,-4.62005615234375,-2.29328012466431,7.28179264068604,-3.98630595207214,-4.12350177764893,6.2043080329895,-1039.5,16.5,-954.900024414062,1.20738379070245,-0.540580274454242,0.30456339890713,DLL
10.8,-4.87845420837402,-2.43743252754211,7.13823843002319,-6.96650791168213,-3.55947399139404,12.3857498168945,-1029.90002441406,18.3000011444092,-959.700012207031,0.989421542702167,-0.575134151684189,0.326653741048096,DLL
10.8333333333333,-4.54229784011841,-3.23116827011108,7.44628190994263,-8.97871589660645,-4.16161203384399,16.5930938720703,-1056.30004882812,19.5,-945.300048828125,0.730865605172863,-0.514999868833201,0.408419260654217,DLL
10.8666666666667,-3.94953799247742,-3.9656879901886,7.60359334945679,-10.609824180603,-6.12046575546265,19.1617069244385,-1053.90002441406,27.9000015258789,-923.700012207031,0.441089479185396,-0.437661811011546,0.483075900670678,DLL
10.9,-3.68874764442444,-4.42087459564209,8.1491003036499,-11.0823879241943,-8.11742973327637,20.6632423400879,-1044.30004882812,30.3000011444092,-935.700012207031,0.0939561974788424,-0.38357074244241,0.500888166126549,DLL
10.9333333333333,-2.95602250099182,-4.76420879364014,7.75731611251831,-11.0366554260254,-8.88725185394287,20.6708641052246,-1044.30004882812,37.5,-933.300048828125,-0.241159175020048,-0.319901747588859,0.557141472002253,DLL
10.9666666666667,-3.5433988571167,-4.49085760116577,8.51217269897461,-10.0000638961792,-9.75615978240967,19.1693286895752,-1046.70007324219,45.9000015258789,-918.900024414062,-0.603387642928925,-0.353478602520959,0.489053551028593,DLL
11.0,-2.1090521812439,-4.90178155899048,8.704176902771,-8.20127201080322,-9.03207015991211,17.6906623840332,-1058.70007324219,42.9000015258789,-916.500061035156,-0.899311043186616,-0.209754574410658,0.519801879297639,DLL
11.0333333333333,-0.908579170703888,-4.80667686462402,8.27470970153809,-7.43907165527344,-8.80340957641602,13.1479501724243,-1053.90002441406,33.3000030517578,-899.700012207031,-1.13404468970412,-0.0932127284526938,0.536640297921464,DLL
11.0666666666667,-0.888242304325104,-4.56084012985229,9.02179050445557,-3.98630595207214,-5.9222936630249,7.98023366928101,-1056.30004882812,48.9000015258789,-906.900024414062,-1.2852275135327,-0.084800919984633,0.473568621461916,DLL
11.1,-0.715378999710083,-4.64278554916382,9.63668155670166,-1.30336201190948,-3.99392795562744,3.49849796295166,-1039.5,48.9000015258789,-899.700012207031,-1.35843707624785,-0.0631660123483359,0.450702975812855,DLL
11.1333333333333,-1.90388906002045,-2.88723611831665,8.71733570098877,0.990859985351562,-3.28508186340332,0.426831990480423,-1056.30004882812,44.7000007629395,-902.100036621094,-1.39583038190759,-0.199215016791692,0.317600748183197,DLL
11.1666666666667,-2.70480251312256,-3.01045346260071,8.62582015991211,2.10367202758789,-1.03659200668335,1.35671591758728,-1058.70007324219,45.3000030517578,-892.500061035156,-1.40753397776296,-0.286896492716837,0.331280595031238,DLL
11.2,-1.61857485771179,-3.44590163230896,8.59292221069336,0.221037998795509,-1.55488801002502,-0.0457319989800453,-1068.30004882812,42.9000015258789,-894.900024414062,-1.40353746344822,-0.170532057215899,0.380834151739256,DLL
11.2333333333333,-3.30055284500122,-2.57799625396729,9.186279296875,-0.350611984729767,-1.34147191047668,0.92988395690918,-1046.70007324219,47.1000022888184,-887.700012207031,-1.4509144729694,-0.331224086996931,0.273456503502363,DLL
11.2666666666667,-0.903794050216675,-3.59364295005798,8.26573753356934,-0.739333987236023,-0.144817993044853,0.99848198890686,-1056.30004882812,44.1000022888184,-899.700012207031,-1.43629210005976,-0.100416525607675,0.411224520859963,DLL
11.3,-1.78126978874207,-3.21202778816223,8.44398403167725,-1.08994603157043,-0.518296003341675,0.0152439996600151,-1056.30004882812,46.5,-897.300048828125,-1.44889611746919,-0.193833202258808,0.365325660481485,DLL
11.3333333333333,-2.08751893043518,-3.26047730445862,8.6503438949585,-0.403965979814529,0.228659987449646,0.0914639979600906,-1046.70007324219,52.5000038146973,-887.700012207031,-1.45108580246778,-0.222517720052314,0.361155145417586,DLL
11.3666666666667,-1.04196500778198,-3.78265619277954,7.78423261642456,-0.503051996231079,-0.0152439996600151,-0.78506600856781,-1063.5,48.9000015258789,-880.500061035156,-1.42624817072019,-0.119197891052155,0.453355205919132,DLL
11.4,-1.96011447906494,-3.19049453735352,8.04083633422852,-0.670735955238342,-0.602137982845306,-1.21189796924591,-1077.90002441406,44.7000007629395,-906.900024414062,-1.42756647955502,-0.221061265483471,0.37925988990429,LD
11.4333333333333,-2.16348314285278,-3.44709801673889,9.22396278381348,0.243903994560242,0.37347799539566,-0.0533539988100529,-1065.90002441406,47.1000022888184,-885.300048828125,-1.42893189964115,-0.216851200298019,0.357284738098669,LD
11.4666666666667,-1.54619956016541,-3.60560584068298,8.60907173156738,-0.579271972179413,-0.0457319989800453,-0.807931959629059,-1075.5,45.9000015258789,-887.700012207031,-1.41177199402902,-0.1635495546203,0.397839720846828,LD
11.5,-1.86800050735474,-3.52066946029663,8.80945014953613,-1.37195992469788,-0.167683988809586,-1.60824191570282,-1073.10009765625,56.1000022888184,-892.500061035156,-1.39642822682998,-0.193095554612682,0.383084998860903,LD
11.5333333333333,-2.2232973575592,-3.72583246231079,8.85909557342529,-1.43293595314026,0.396344006061554,-0.792688012123108,-1061.10009765625,50.7000007629395,-887.700012207031,-1.38437684130549,-0.227433803511196,0.400966602856934,LD
11.5666666666667,-2.01155471801758,-3.74736571311951,8.46731185913086,-1.17378795146942,1.37958192825317,-0.533540010452271,-1061.10009765625,50.1000022888184,-902.100036621094,-1.36931499755763,-0.215740300908557,0.419104728194924,LD
11.6,-2.2071475982666,-3.50152897834778,7.68793153762817,-0.472563982009888,2.59910202026367,-0.365855991840363,-1058.70007324219,46.5,-894.900024414062,-1.34906496707159,-0.259415157065872,0.428860845130918,LD
11.6333333333333,-2.50442457199097,-3.64029812812805,7.97384405136108,-0.266770005226135,2.98020195960999,-0.632625997066498,-1058.70007324219,53.7000007629395,-887.700012207031,-1.3218570534152,-0.282568154273195,0.429655046116851,LD
11.6666666666667,-2.73590588569641,-3.52784729003906,7.75492382049561,-0.3125019967556,2.0579400062561,-0.381099998950958,-1058.70007324219,46.5,-892.500061035156,-1.30719151194847,-0.313716668218532,0.428159768388805,LD
11.7,-3.02062201499939,-3.78445053100586,7.59222888946533,-0.640248000621796,1.89787793159485,-0.37347799539566,-1053.90002441406,43.5,-887.700012207031,-1.28263086825851,-0.344743675916199,0.464273647117496,LD
11.7333333333333,-2.97157430648804,-4.28330183029175,8.09407043457031,-0.571649968624115,1.45580196380615,0.243903994560242,-1044.30004882812,50.7000007629395,-890.100036621094,-1.27095175044174,-0.316219429119943,0.487989040315389,LD
11.7666666666667,-3.31311392784119,-4.87307071685791,8.80765533447266,-1.27287399768829,1.16616594791412,-0.556405961513519,-1037.10009765625,54.3000030517578,-890.100036621094,-1.25600971363413,-0.319281689588123,0.508182766484881,LD
11.8,-2.92491912841797,-4.79949903488159,7.90087032318115,-2.11129403114319,-0.266770005226135,-1.15854394435883,-1051.5,48.9000015258789,-890.100036621094,-1.24047960854187,-0.304981913101935,0.550042085762278,LD
11.8333333333333,-3.08761405944824,-4.56502723693848,8.09167766571045,-1.96647596359253,-0.449698001146317,-0.320124000310898,-1041.90002441406,57.9000015258789,-892.500061035156,-1.25921357677712,-0.319897914843732,0.517118321828286,LD
11.8666666666667,-2.41410493850708,-4.79650831222534,8.13773536682129,-1.49391198158264,-0.297257989645004,-0.0838419944047928,-1041.90002441406,54.9000015258789,-880.500061035156,-1.26090090194101,-0.249692131801388,0.53517227755173,LD
11.9,-1.19927668571472,-4.60151386260986,6.57119846343994,-1.97409796714783,-0.67835795879364,-1.21189796924591,-1061.10009765625,60.3000030517578,-897.300048828125,-1.24075773280599,-0.146213308685159,0.614495993725302,LD
11.9333333333333,-1.63950991630554,-4.62005615234375,6.59452629089355,-2.33233189582825,-0.274392008781433,-0.83841997385025,-1061.10009765625,53.1000022888184,-890.100036621094,-1.23957941581952,-0.199636682287719,0.615379089870438,LD
11.9666666666667,-2.14135193824768,-4.9932975769043,7.44927263259888,-1.6692179441452,0.571649968624115,0.297257989645004,-1051.5,56.7000007629395,-880.500061035156,-1.24917609789224,-0.235506460572228,0.593461959480343,LD
12.0,-2.84297347068787,-5.23315286636353,8.48824691772461,-0.586893975734711,1.32622802257538,0.0,-1056.30004882812,54.3000030517578,-868.500061035156,-1.25180959343164,-0.279700574286473,0.553851283834114,LD
12.0333333333333,-2.8782639503479,-5.62074947357178,8.17721271514893,0.236281991004944,1.97409796714783,-1.77592599391937,-1063.5,54.9000015258789,-885.300048828125,-1.19929800133552,-0.283401154365269,0.603095646263982,LD
12.0666666666667,-3.79760980606079,-5.44728803634644,8.02767658233643,0.495429992675781,1.89025592803955,-1.94360995292664,-1049.10009765625,47.1000022888184,-868.500061035156,-1.15921570715648,-0.373934771422418,0.597156654373739,LD
12.1,-3.58407258987427,-5.32048177719116,7.40022468566895,0.807931959629059,1.22714197635651,-1.52439999580383,-1046.70007324219,54.9000015258789,-866.100036621094,-1.11922279996111,-0.374847445704712,0.623269394848177,LD
12.1333333333333,-3.66781258583069,-5.42336225509644,7.35656023025513,0.480185985565186,0.823175966739655,-0.83841997385025,-1046.70007324219,58.5000038146973,-880.500061035156,-1.09668039127166,-0.381924002663016,0.635244712998751,LD
12.1666666666667,-3.28021597862244,-5.44848442077637,7.3583550453186,1.01372599601746,0.541162014007568,-0.335367977619171,-1051.5,51.9000015258789,-870.900024414062,-1.08342257997137,-0.344429194926525,0.635961217351216,LD
12.2,-3.32029151916504,-5.44190454483032,7.14003276824951,1.33385002613068,0.0685980021953583,0.167683988809586,-1053.90002441406,51.3000030517578,-873.300048828125,-1.07295422955703,-0.354519694445393,0.648855813734351,LD
12.2333333333333,-3.70071053504944,-5.41797924041748,7.49114274978638,1.47866797447205,0.663114011287689,0.480185985565186,-1046.70007324219,47.7000007629395,-880.500061035156,-1.07417874502774,-0.382184528216835,0.623581069932539,LD
12.2666666666667,-2.76461672782898,-5.23674154281616,7.04432964324951,1.31860601902008,-0.46494197845459,0.381099998950958,-1049.10009765625,53.1000022888184,-873.300048828125,-1.07205415611747,-0.304872319619752,0.63664059671569,LD
12.3,-2.67369914054871,-4.92690372467041,6.32715654373169,-0.457319974899292,-2.03507399559021,1.41769194602966,-1049.10009765625,60.9000015258789,-878.100036621094,-1.10104458028073,-0.320537589047636,0.661036875274761,LD
12.3333333333333,-2.99131298065186,-4.89580011367798,6.75662279129028,-0.746955990791321,-1.56251001358032,2.43141794204712,-1044.30004882812,50.1000022888184,-873.300048828125,-1.15632269005359,-0.34450823953966,0.626538036994326,LD
12.3666666666667,-3.32806754112244,-4.59971952438354,7.33383083343506,1.70732796192169,0.297257989645004,2.52288198471069,-1056.30004882812,51.3000030517578,-882.900024414062,-1.20035450893781,-0.369787706388221,0.555855896234875,LD
12.4,-3.72643065452576,-4.25279664993286,7.41936540603638,2.68294382095337,0.701223969459534,2.46952795982361,-1058.70007324219,53.1000022888184,-870.900024414062,-1.22528502533044,-0.41413147054544,0.514423889347839,LD
12.4333333333333,-3.49614572525024,-4.85153770446777,8.07672500610352,1.71494996547699,-0.411587983369827,1.58537602424622,-1039.5,60.9000015258789,-882.900024414062,-1.22923333463583,-0.356122752387677,0.536906122430342,LD
12.4666666666667,-3.21382212638855,-5.52444839477539,7.9816198348999,-0.46494197845459,-2.29422187805176,0.190549999475479,-1049.10009765625,51.3000030517578,-875.700012207031,-1.22849820372294,-0.316622524840224,0.605407456966333,LD
12.5,-4.06079244613647,-5.10873889923096,8.38596439361572,-1.30336201190948,-2.73629784584045,0.25152599811554,-1049.10009765625,46.5,-878.100036621094,-1.2772955669121,-0.388275559261993,0.548265083673573,LD
12.5333333333333,-2.86450672149658,-5.46463441848755,8.04861164093018,0.266770005226135,-1.89787793159485,1.36433792114258,-1058.70007324219,52.5000038146973,-873.300048828125,-1.29082972067582,-0.284950611789557,0.594870585065637,LD
12.5666666666667,-1.01325416564941,-5.39285707473755,6.58675050735474,0.190549999475479,-2.24848985671997,0.685979962348938,-1051.5,57.3000030517578,-875.700012207031,-1.29986838567454,-0.116196707057592,0.685330358622455,LD
12.6,-1.04794645309448,-4.69661855697632,5.87974548339844,-0.0228659994900227,-2.44666194915771,0.6250039935112,-1049.10009765625,54.3000030517578,-880.500061035156,-1.33103368769486,-0.135709681907214,0.673555803138046,LD
12.6333333333333,-1.30155909061432,-4.53751277923584,6.08670282363892,0.907018005847931,-0.823175966739655,2.16464805603027,-1051.5,51.9000015258789,-873.300048828125,-1.36761953596627,-0.170887207168115,0.638348236480687,LD
12.6666666666667,-2.45896577835083,-4.06497955322266,7.46602058410645,1.50915598869324,0.403965979814529,2.69818782806396,-1039.5,53.7000007629395,-873.300048828125,-1.42411597033965,-0.284427804824454,0.494844988352672,LD
12.7,-2.54091143608093,-4.50222206115723,8.54746341705322,2.79727387428284,1.15092194080353,2.30946588516235,-1049.10009765625,57.9000015258789,-878.100036621094,-1.4392079441435,-0.260835944478602,0.479219909755576,LD
12.7333333333333,-2.91774129867554,-4.46274471282959,8.36622619628906,2.04269599914551,0.114329993724823,0.411587983369827,-1034.70007324219,45.3000030517578,-878.100036621094,-1.43299828297893,-0.299028503417511,0.48629584387085,LD
12.7666666666667,-3.55057668685913,-4.56921434402466,8.81423473358154,1.02134799957275,-0.967993974685669,-0.518296003341675,-1041.90002441406,56.1000022888184,-894.900024414062,-1.43071079044824,-0.34153639392942,0.476478110666302,LD
12.8,-2.94645237922668,-4.74925518035889,8.58993148803711,0.0609759986400604,-1.73781597614288,-0.175305992364883,-1051.5,51.3000030517578,-882.900024414062,-1.43110945276192,-0.288827087758278,0.504592227200117,LD
12.8333333333333,-2.27772831916809,-4.72832012176514,7.9277868270874,-0.609759986400604,-1.71494996547699,0.388722002506256,-1053.90002441406,51.9000015258789,-880.500061035156,-1.4412870643355,-0.239701882597405,0.538331145335697,LD
12.8666666666667,-2.31242084503174,-4.29406833648682,7.96905899047852,0.0228659994900227,-0.46494197845459,1.20427596569061,-1041.90002441406,50.7000007629395,-873.300048828125,-1.47152768039239,-0.250382696545533,0.493625642148758,LD
12.9,-1.97028291225433,-4.38917303085327,7.89309453964233,0.807931959629059,0.586893975734711,1.53964400291443,-1041.90002441406,55.5000038146973,-878.100036621094,-1.48113643839485,-0.216993989036131,0.505678585750468,LD
12.9333333333333,-2.29208397865295,-4.28569459915161,7.84823369979858,1.41006994247437,1.18140995502472,1.02134799957275,-1068.30004882812,45.9000015258789,-887.700012207031,-1.48274070530066,-0.25358323062196,0.497211856044736,LD
12.9666666666667,-2.89800262451172,-4.09309244155884,8.03306007385254,1.2423859834671,1.15854394435883,-0.0762199983000755,-1041.90002441406,54.9000015258789,-887.700012207031,-1.47570275596205,-0.312749954872855,0.469410329570817,LD
13.0,-3.27602910995483,-3.94056582450867,7.69869804382324,1.05183601379395,0.922261953353882,-0.0304879993200302,-1037.10009765625,50.1000022888184,-887.700012207031,-1.46368118281109,-0.363500426883441,0.471542308270673,LD
13.0333333333333,-3.2688512802124,-4.12898111343384,7.9493203163147,0.800309956073761,1.18903195858002,-0.236281991004944,-1044.30004882812,50.1000022888184,-887.700012207031,-1.44630544175069,-0.351558578911856,0.478145261021337,LD
13.0666666666667,-3.45547199249268,-4.30961990356445,8.08988380432129,0.541162014007568,0.952749967575073,-0.830797970294952,-1037.10009765625,57.3000030517578,-894.900024414062,-1.42375357767988,-0.361291401985186,0.489311315698449,LD
13.1,-3.2347571849823,-4.43941736221313,8.02707862854004,0.0990860015153885,0.358233988285065,-1.39482593536377,-1034.70007324219,44.7000007629395,-897.300048828125,-1.39690439302774,-0.338394406596849,0.505868676349647,LD
13.1333333333333,-3.19827055931091,-4.47710037231445,7.62572479248047,-0.182927995920181,0.0914639979600906,-1.50153398513794,-1051.5,53.1000022888184,-885.300048828125,-1.3708199285879,-0.345848729113272,0.532045249322686,LD
13.1666666666667,-3.37771344184875,-4.44779109954834,7.76748466491699,-0.137196004390717,0.358233988285065,-1.17378795146942,-1056.30004882812,54.9000015258789,-873.300048828125,-1.35871465102498,-0.360364480947777,0.521067942473818,LD
13.2,-2.90099334716797,-4.52016639709473,7.13046216964722,-0.0,0.960371971130371,-0.556405961513519,-1061.10009765625,56.7000007629395,-875.700012207031,-1.32984391372703,-0.33187445555013,0.565580885859661,LD
13.2333333333333,-2.6156792640686,-4.59971952438354,6.93726205825806,-0.396344006061554,0.952749967575073,-0.655492007732391,-1046.70007324219,53.1000022888184,-887.700012207031,-1.31021907593506,-0.305228369963952,0.586772067677139,LD
13.2666666666667,-2.98054647445679,-4.64278554916382,7.2124080657959,-0.548784017562866,0.381099998950958,-0.495429992675781,-1049.10009765625,52.5000038146973,-890.100036621094,-1.30818372783821,-0.334519714928951,0.57328510774287,LD
13.3,-2.76581311225891,-5.07045793533325,7.55275106430054,-0.442075997591019,0.236281991004944,-0.388722002506256,-1039.5,53.1000022888184,-885.300048828125,-1.29766183555212,-0.295122645111159,0.592242758065938,LD
13.3333333333333,-3.07385683059692,-5.17214250564575,7.78722333908081,-0.213415995240211,0.114329993724823,-0.983237981796265,-1037.10009765625,51.9000015258789,-885.300048828125,-1.28773180044179,-0.316890993602467,0.587158843761486,LD
13.3666666666667,-3.16836333274841,-5.06686925888062,7.30930709838867,-0.0914639979600906,0.609759986400604,-0.571649968624115,-1041.90002441406,50.1000022888184,-899.700012207031,-1.27071505619755,-0.342531896557643,0.606820202562755,LD
13.4,-2.78375744819641,-5.53521490097046,7.30691432952881,0.167683988809586,0.807931959629059,-0.144817993044853,-1039.5,48.3000030517578,-875.700012207031,-1.24759483064297,-0.29580074239712,0.648331405331098,LD
13.4333333333333,-3.08940839767456,-5.17034769058228,6.95281410217285,0.0838419944047928,0.304879993200302,-0.396344006061554,-1037.10009765625,51.9000015258789,-882.900024414062,-1.24313733313698,-0.342517136868678,0.63957946591856,LD
13.4666666666667,-3.71207523345947,-4.76241445541382,6.82002592086792,0.830797970294952,1.2423859834671,0.640248000621796,-1039.5,50.1000022888184,-890.100036621094,-1.24681620337886,-0.422153712036467,0.608279665170786,LD
13.5,-3.56014704704285,-4.9514274597168,7.34160661697388,1.00610399246216,1.00610399246216,0.807931959629059,-1039.5,51.3000030517578,-890.100036621094,-1.24908105181782,-0.384506547237243,0.591529172914731,LD
13.5333333333333,-3.77129149436951,-4.77676963806152,7.26205396652222,0.739333987236023,0.0,0.716467976570129,-1051.5,54.9000015258789,-890.100036621094,-1.25721137376106,-0.410043506927525,0.580074875567853,LD
13.5666666666667,-3.72822523117065,-4.94724035263062,7.44747829437256,0.571649968624115,-0.579271972179413,0.663114011287689,-1039.5,49.5000038146973,-885.300048828125,-1.26380020782508,-0.394858693120724,0.584718357644742,LD
13.6,-3.44590163230896,-4.93049240112305,7.19924879074097,-0.381099998950958,-1.32622802257538,0.37347799539566,-1034.70007324219,49.5000038146973,-885.300048828125,-1.27405408315644,-0.374571206506937,0.600432545857975,LD
13.6333333333333,-3.95851016044617,-4.98791408538818,7.5671067237854,0.0381099991500378,-1.28811800479889,1.10518991947174,-1039.5,51.9000015258789,-892.500061035156,-1.3045955552785,-0.41097869764305,0.581478268866,LD
13.6666666666667,-3.16238188743591,-5.18350696563721,7.17891216278076,0.213415995240211,-1.2423859834671,1.20427596569061,-1029.90002441406,48.9000015258789,-880.500061035156,-1.31222208452347,-0.342493235595242,0.623935605651625,LD
13.7,-3.27244019508362,-4.71755361557007,7.27102613449097,0.952749967575073,-1.15092194080353,1.17378795146942,-1046.70007324219,53.1000022888184,-892.500061035156,-1.34674812382119,-0.360435131374031,0.572821497510976,LD
13.7333333333333,-3.20185923576355,-4.78634023666382,7.46123552322388,1.54726600646973,-0.807931959629059,1.13567793369293,-1034.70007324219,49.5000038146973,-880.500061035156,-1.3600723703116,-0.346495592140925,0.566794987087008,LD
13.7666666666667,-3.35797452926636,-4.86708927154541,7.66400575637817,0.304879993200302,-1.55488801002502,-0.190549999475479,-1046.70007324219,53.1000022888184,-878.100036621094,-1.36922917307088,-0.351793420655205,0.564836366927006,LD
13.8,-3.99140810966492,-4.98013830184937,8.20054054260254,0.419209986925125,-1.12805593013763,0.236281991004944,-1053.90002441406,50.7000007629395,-882.900024414062,-1.38485606604976,-0.392766705694803,0.544465246248915,LD
13.8333333333333,-2.81187009811401,-5.02081203460693,7.44807624816895,0.701223969459534,-1.50153398513794,-0.228659987449646,-1051.5,50.7000007629395,-887.700012207031,-1.37443816823792,-0.300987284449139,0.591559069078298,LD
13.8666666666667,-2.98174262046814,-5.06387853622437,7.62751913070679,0.556405961513519,-1.49391198158264,-0.396344006061554,-1044.30004882812,44.1000022888184,-878.100036621094,-1.38080850452644,-0.312290799072178,0.584831556135457,LD
13.9,-2.20056796073914,-4.85931348800659,6.91273832321167,0.46494197845459,-1.35671591758728,-0.37347799539566,-1046.70007324219,48.3000030517578,-873.300048828125,-1.37811162127183,-0.252459626049612,0.611677083052115,LD
13.9333333333333,-2.55706119537354,-4.77736806869507,7.42295408248901,1.16616594791412,-0.724089980125427,0.457319974899292,-1063.5,47.7000007629395,-885.300048828125,-1.39596057411256,-0.281321451521937,0.569432262739543,LD
13.9666666666667,-2.5917534828186,-4.96398830413818,7.89847803115845,1.72257196903229,0.121951997280121,0.495429992675781,-1049.10009765625,51.9000015258789,-875.700012207031,-1.39734803325273,-0.271627827724091,0.557915289007836,LD
14.0,-3.00088334083557,-4.64936542510986,8.06894874572754,2.31708788871765,0.396344006061554,0.198172003030777,-1068.30004882812,56.1000022888184,-897.300048828125,-1.39816734195846,-0.312505438693265,0.518711472207479,LD
14.0333333333333,-2.60790324211121,-4.69542217254639,7.69271659851074,1.92836594581604,0.114329993724823,0.0609759986400604,-1044.30004882812,54.3000030517578,-885.300048828125,-1.38240897763751,-0.281900447283015,0.544648757979416,LD
14.0666666666667,-2.86749744415283,-4.70499277114868,7.55753660202026,0.541162014007568,-0.259148001670837,0.137196004390717,-1058.70007324219,53.1000022888184,-892.500061035156,-1.38037303600156,-0.311350982906635,0.555753175952256,LD
14.1,-3.08282876014709,-4.36823797225952,7.84464502334595,0.266770005226135,-0.0914639979600906,0.739333987236023,-1041.90002441406,50.7000007629395,-885.300048828125,-1.40385321418532,-0.331218502840357,0.50720416596859,LD
14.1333333333333,-1.96370339393616,-4.85034132003784,7.21599674224854,-0.0533539988100529,0.266770005226135,1.2423859834671,-1051.5,45.3000030517578,-870.900024414062,-1.39329338845843,-0.223726424748288,0.591538509019825,LD
14.1666666666667,-2.89979720115662,-4.29347038269043,7.64067840576172,0.274392008781433,0.548784017562866,1.48628997802734,-1041.90002441406,49.5000038146973,-887.700012207031,-1.42772367859485,-0.321625111761997,0.510878456982779,LD
14.2,-2.60072565078735,-4.71336650848389,7.92419815063477,1.20427596569061,1.41006994247437,1.92836594581604,-1053.90002441406,53.1000022888184,-894.900024414062,-1.42986874371121,-0.278763693559468,0.534022110701154,LD
14.2333333333333,-2.8782639503479,-4.52854061126709,7.35057878494263,1.02897000312805,1.01372599601746,0.861285984516144,-1037.10009765625,50.1000022888184,-890.100036621094,-1.42323728847152,-0.32408537838207,0.550243990139584,LD
14.2666666666667,-3.5733060836792,-4.30902194976807,7.99896574020386,0.701223969459534,0.762199997901917,0.815553963184357,-1041.90002441406,50.1000022888184,-892.500061035156,-1.44404419345075,-0.376548629120587,0.492656920138433,LD
14.3,-3.43453693389893,-4.64876699447632,8.17063331604004,0.388722002506256,-0.342989981174469,1.05945801734924,-1037.10009765625,51.3000030517578,-890.100036621094,-1.44896029936744,-0.350680702512373,0.515908080445952,LD
14.3333333333333,-2.87646961212158,-4.52973651885986,7.54856443405151,-0.144817993044853,-0.739333987236023,0.922261953353882,-1039.5,47.1000022888184,-890.100036621094,-1.45771185025553,-0.31553319984642,0.540061951473891,LD
14.3666666666667,-3.00088334083557,-4.44300603866577,7.82670068740845,-0.259148001670837,-0.442075997591019,1.08232402801514,-1037.10009765625,44.1000022888184,-887.700012207031,-1.48223638111348,-0.322104323441852,0.516088239691349,LD
14.4,-2.7903368473053,-4.46154832839966,7.66280937194824,0.228659987449646,0.152439996600151,0.960371971130371,-1041.90002441406,47.7000007629395,-894.900024414062,-1.48839305614333,-0.305949182593682,0.526438987589005,LD
14.4333333333333,-3.27244019508362,-4.03806304931641,7.57847166061401,0.37347799539566,0.83841997385025,0.975615978240967,-1041.90002441406,40.5,-885.300048828125,-1.50572532432397,-0.36618624283083,0.488604171373137,LD
14.4666666666667,-3.36216163635254,-4.20614147186279,7.55035877227783,0.823175966739655,1.31860601902008,0.823175966739655,-1025.10009765625,51.3000030517578,-906.900024414062,-1.49575831419849,-0.373705288475088,0.506771315801055,LD
14.5,-3.87656450271606,-4.13974761962891,7.88890743255615,0.685979962348938,1.20427596569061,0.602137982845306,-1029.90002441406,53.7000007629395,-894.900024414062,-1.50052210718418,-0.412763081610111,0.482078574188726,LD
14.5333333333333,-4.25877809524536,-4.0356707572937,7.63589334487915,0.914639949798584,1.2500079870224,0.510673999786377,-1041.90002441406,47.7000007629395,-885.300048828125,-1.49125458847324,-0.460457359999893,0.48471550617131,LD
14.5666666666667,-3.86041474342346,-4.51538133621216,7.86677646636963,0.472563982009888,1.08994603157043,0.434453994035721,-1027.5,45.9000015258789,-899.700012207031,-1.47100522030905,-0.404406191203027,0.520366803291768,LD
14.6,-3.59842801094055,-4.58177518844604,7.65503358840942,-0.327746003866196,0.213415995240211,-0.503051996231079,-1027.5,40.5,-897.300048828125,-1.45790812298716,-0.383256285256464,0.540290689908885,LD
14.6333333333333,-3.84247040748596,-4.04344654083252,6.93486976623535,0.0228659994900227,0.198172003030777,-0.449698001146317,-1037.10009765625,44.1000022888184,-882.900024414062,-1.45625288041979,-0.446330036143169,0.528239078351312,LD
14.6666666666667,-3.38907814025879,-4.13496255874634,6.8959903717041,0.388722002506256,0.708845973014832,0.87652999162674,-1025.10009765625,47.7000007629395,-894.900024414062,-1.45469107775706,-0.40074430338996,0.53917358554464,LD
14.7,-3.22937393188477,-4.88922071456909,7.8057656288147,-0.602137982845306,-0.0914639979600906,-0.0457319989800453,-1032.30004882812,49.5000038146973,-880.500061035156,-1.44999342104089,-0.337049209965586,0.560620813756687,LD
14.7333333333333,-1.60302317142487,-5.62792730331421,7.17472505569458,-1.89025592803955,-2.080806016922,-1.77592599391937,-1022.70001220703,51.3000030517578,-885.300048828125,-1.42581679888997,-0.169254902288764,0.66849063783307,LD
14.7666666666667,-3.54160451889038,-4.72652578353882,7.32485866546631,-1.34147191047668,-1.50153398513794,-2.24086785316467,-1037.10009765625,54.9000015258789,-878.100036621094,-1.44303742365315,-0.381567517850131,0.576135470588474,LD
14.8,-3.15041899681091,-5.10395383834839,7.66699647903442,0.579271972179413,0.236281991004944,-0.304879993200302,-1027.5,48.9000015258789,-909.300048828125,-1.43068970774589,-0.329621790529345,0.586554692914066,LD
14.8333333333333,-2.72394299507141,-5.07105588912964,7.00305795669556,0.434453994035721,-0.327746003866196,-1.02134799957275,-1039.5,53.1000022888184,-885.300048828125,-1.40762868074245,-0.303691587874306,0.626318541998321,LD
14.8666666666667,-2.90338587760925,-4.73729228973389,6.62323713302612,0.289635986089706,-0.434453994035721,-1.2500079870224,-1034.70007324219,50.1000022888184,-894.900024414062,-1.39760200347901,-0.340608610000309,0.620857114913132,LD
14.9,-3.29038453102112,-4.75762939453125,6.90615892410278,0.907018005847931,-0.167683988809586,-0.411587983369827,-1034.70007324219,46.5,-887.700012207031,-1.39626482082774,-0.373247086624289,0.601819494365701,LD
14.9333333333333,-5.15539407730103,-4.79770469665527,8.76040172576904,1.54726600646973,0.6250039935112,0.640248000621796,-1034.70007324219,45.9000015258789,-878.100036621094,-1.43149574250061,-0.477978816994197,0.498107640147079,LD
14.9666666666667,-3.18331694602966,-5.76011657714844,8.36024475097656,1.93598794937134,0.129574000835419,-0.777444005012512,-1037.10009765625,49.5000038146973,-878.100036621094,-1.37230097269904,-0.303267282935161,0.600306553778482,LD
15.0,-3.29816031455994,-4.88742637634277,6.8421573638916,0.716467976570129,-0.67835795879364,-2.19513607025146,-1046.70007324219,46.5,-880.500061035156,-1.34197328034891,-0.370611022459222,0.619958805796478,LD
15.0333333333333,-3.6014187335968,-4.82103252410889,6.65254592895508,0.365855991840363,-0.556405961513519,-0.236281991004944,-1049.10009765625,48.3000030517578,-885.300048828125,-1.33919540454855,-0.412098474700434,0.626363063714746,LD
15.0666666666667,-2.72274684906006,-4.87187433242798,6.35347461700439,-0.37347799539566,-0.518296003341675,1.03659200668335,-1037.10009765625,50.7000007629395,-880.500061035156,-1.34634416792319,-0.328190753459999,0.654143794350102,LD
15.1,-3.49435114860535,-4.7247314453125,6.75781917572021,0.114329993724823,-0.0762199983000755,1.88263392448425,-1034.70007324219,48.3000030517578,-894.900024414062,-1.38292199763448,-0.402603644889116,0.608778622446182,LD
15.1333333333333,-3.31730103492737,-4.9873161315918,7.2566704750061,0.937505960464478,0.670735955238342,2.27135586738586,-1041.90002441406,46.5,-899.700012207031,-1.40160797315748,-0.363502285528751,0.599506813368732,LD
15.1666666666667,-4.21750593185425,-4.91613721847534,7.56591033935547,0.304879993200302,0.152439996600151,2.00458598136902,-1037.10009765625,51.9000015258789,-882.900024414062,-1.43045224155692,-0.439372236308587,0.574375000495163,LD
15.2,-4.47111892700195,-5.02081203460693,7.64426708221436,0.289635986089706,0.0381099991500378,2.57623600959778,-1029.90002441406,49.5000038146973,-880.500061035156,-1.45432271168236,-0.457226117836954,0.578808749724927,LD
15.2333333333333,-3.84964823722839,-5.21700286865234,7.26384830474854,-0.365855991840363,-0.975615978240967,2.35519790649414,-1032.30004882812,49.5000038146973,-894.900024414062,-1.47124966206052,-0.407494953168149,0.621612175196917,LD
15.2666666666667,-4.43044519424438,-4.93288516998291,7.62811708450317,-0.487807989120483,-1.47104597091675,2.45428395271301,-1032.30004882812,48.3000030517578,-897.300048828125,-1.53187812258472,-0.453930116042597,0.572449182966032,LD
15.3,-3.79162836074829,-4.99509191513062,7.40560817718506,0.396344006061554,-1.56251001358032,3.21648383140564,-1032.30004882812,52.5000038146973,-887.700012207031,-1.56908717559576,-0.402278719759406,0.590083958408446,LD
15.3333333333333,-3.4973418712616,-4.14931774139404,6.76679134368896,0.914639949798584,-1.70732796192169,3.53660798072815,-1027.5,54.9000015258789,-892.500061035156,-1.63300931441969,-0.415669288323571,0.545454610606679,LD
15.3666666666667,-3.70310306549072,-4.07455015182495,7.49174070358276,1.94360995292664,-1.34147191047668,4.30642986297607,-1029.90002441406,47.7000007629395,-885.300048828125,-1.70619109794636,-0.411148645959122,0.491366874874532,LD
15.4,-2.45118999481201,-4.49683904647827,7.74595165252686,1.28049600124359,-2.90398192405701,2.19513607025146,-1020.30004882812,50.7000007629395,-882.900024414062,-1.73954442509761,-0.264655132554857,0.522163922650104,LD
15.4333333333333,-2.53851866722107,-4.46035194396973,7.84285068511963,-0.0762199983000755,-4.42075967788696,0.945127964019775,-1029.90002441406,50.7000007629395,-885.300048828125,-1.78322492612098,-0.268366700612283,0.515787696377699,LD
15.4666666666667,-1.97387182712555,-4.59254169464111,7.73219442367554,-1.05183601379395,-4.55795574188232,0.0228659994900227,-1037.10009765625,48.9000015258789,-878.100036621094,-1.81438235605685,-0.20924568733919,0.53692368993504,LD
15.5,-2.20954012870789,-4.53392362594604,8.42723655700684,-0.350611984729767,-2.34757590293884,0.663114011287689,-1041.90002441406,54.3000030517578,-890.100036621094,-1.84876087500704,-0.223857375743423,0.493529556336036,LD
15.5333333333333,-1.48160016536713,-4.49025917053223,7.98520851135254,1.22714197635651,-0.708845973014832,0.907018005847931,-1039.5,56.1000022888184,-885.300048828125,-1.85883990037688,-0.160034817548891,0.509791079301132,LD
15.5666666666667,-1.6664263010025,-4.15828990936279,7.76808261871338,1.265251994133,-0.350611984729767,0.129574000835419,-1046.70007324219,46.5,-897.300048828125,-1.86302842036471,-0.186486840448133,0.48919128560717,LD
15.6,-2.63900685310364,-3.6953272819519,7.92599248886108,1.89787793159485,0.92988395690918,0.472563982009888,-1051.5,48.9000015258789,-899.700012207031,-1.86926429140446,-0.294895508212946,0.432939042344636,LD
15.6333333333333,-2.74906516075134,-3.92501425743103,8.55583667755127,1.87501192092896,1.51677799224854,0.167683988809586,-1058.70007324219,56.7000007629395,-911.700012207031,-1.85540848476723,-0.286673964999227,0.427083327288312,LD
15.6666666666667,-3.12828779220581,-4.07335376739502,9.258056640625,2.16464805603027,1.87501192092896,-1.82927989959717,-1051.5,48.9000015258789,-892.500061035156,-1.81714066099466,-0.301674703443631,0.412030734549034,LD
15.7,-2.88304901123047,-4.10984039306641,8.88302135467529,2.71343183517456,2.15702605247498,-2.83538389205933,-1037.10009765625,47.7000007629395,-894.900024414062,-1.75265766289415,-0.287816021561756,0.430393238673915,LD
15.7333333333333,-2.5456964969635,-4.09847545623779,8.53908920288086,3.70429182052612,3.26221585273743,-3.7957558631897,-1041.90002441406,51.9000015258789,-902.100036621094,-1.66793663151148,-0.26486874449236,0.443312181117969,LD
15.7666666666667,-1.59165847301483,-4.22827243804932,7.6149582862854,5.51070594787598,5.06100797653198,-5.73936605453491,-1037.10009765625,48.9000015258789,-909.300048828125,-1.53459803984908,-0.183707839660228,0.499669931879445,LD
15.8,-2.67489528656006,-3.89151811599731,7.3344292640686,6.16619777679443,5.75461006164551,-7.91925764083862,-1037.10009765625,47.7000007629395,-916.500061035156,-1.37921556860355,-0.314150350532619,0.482535866062683,LD
15.8333333333333,-2.77897214889526,-3.93338823318481,6.66749954223633,6.29577207565308,6.18906402587891,-8.48328590393066,-1037.10009765625,45.3000030517578,-904.500061035156,-1.19198571328606,-0.34652211658911,0.528569237068618,LD
15.8666666666667,-3.52485656738281,-4.52196073532104,8.19575500488281,6.57778596878052,6.41010189056396,-10.1296377182007,-1039.5,43.5,-918.900024414062,-1.00678517571958,-0.361481751532483,0.500584840468359,LD
15.9,-3.55655813217163,-4.88084650039673,8.33631896972656,7.11132574081421,5.38875389099121,-12.934534072876,-1034.70007324219,36.3000030517578,-921.300048828125,-0.774401165597328,-0.349578832847176,0.526091840849578,LD
15.9333333333333,-3.05770683288574,-4.90656661987305,8.1251745223999,8.20889377593994,5.15247201919556,-15.5260133743286,-1034.70007324219,39.9000015258789,-928.500061035156,-0.514998842699789,-0.305508351608007,0.537706280708788,LD
15.9666666666667,-3.78385233879089,-4.0715594291687,7.51985359191895,9.35219383239746,4.44362592697144,-17.3781604766846,-1027.5,31.5000019073486,-930.900024414062,-0.221582602666581,-0.409070019324421,0.493080848229386,LD
16.0,-3.81794667243958,-3.90886425971985,6.07174921035767,9.85524559020996,5.09911775588989,-14.1235656738281,-1039.5,35.7000007629395,-930.900024414062,0.0711426171147775,-0.480597969489009,0.568101839761357,LD
16.0333333333333,-4.50401639938354,-3.36036729812622,8.12337970733643,7.30949783325195,3.58234000205994,-10.2058582305908,-1034.70007324219,27.3000011444092,-942.900024414062,0.175110109385269,-0.472502862852415,0.389117286920878,LD
16.0666666666667,-4.09189605712891,-3.13725996017456,7.95709609985352,6.12046575546265,1.39482593536377,-6.2043080329895,-1034.70007324219,21.9000015258789,-938.100036621094,0.286455580927311,-0.444580671194694,0.370102638192131,LD
16.1,-3.57988572120667,-2.99191117286682,8.23941898345947,4.71039581298828,0.586893975734711,-3.62045001983643,-1041.90002441406,18.9000015258789,-933.300048828125,0.349339924350562,-0.386568911020285,0.342656805840055,LD
16.1333333333333,-3.45726633071899,-2.64977335929871,8.75561714172363,3.49849796295166,-0.259148001670837,-1.07470202445984,-1039.5,18.9000015258789,-938.100036621094,0.360278656668063,-0.360379751793489,0.288397886282139,LD
16.1666666666667,-3.06189393997192,-2.80110359191895,8.56839847564697,3.14788603782654,-0.663114011287689,0.556405961513519,-1037.10009765625,26.1000003814697,-940.500061035156,0.372883306930986,-0.326631800872429,0.31003049040993,LD
16.2,-1.75136256217957,-2.86988997459412,8.25856018066406,2.20275783538818,-1.02897000312805,0.708845973014832,-1029.90002441406,21.9000015258789,-950.100036621094,0.370238179920344,-0.196406085294379,0.330255461476881,LD
16.2333333333333,-2.46016192436218,-2.83041262626648,7.94692754745483,2.02745199203491,-0.37347799539566,1.21189796924591,-1037.10009765625,24.3000011444092,-947.700012207031,0.362113475837098,-0.283845456645764,0.337972018998374,LD
16.2666666666667,-3.22399067878723,-3.40762042999268,8.49542427062988,1.97409796714783,1.56251001358032,1.45580196380615,-1034.70007324219,16.5,-957.300048828125,0.372869224127482,-0.342123704453023,0.377540680196746,LD
16.3,-3.73839354515076,-3.36634874343872,8.87404918670654,1.79879200458527,1.87501192092896,1.07470202445984,-1029.90002441406,21.3000011444092,-940.500061035156,0.371438025271025,-0.378946680315726,0.359201658695231,LD
16.3333333333333,-3.85084438323975,-2.99968695640564,9.29454326629639,1.86738991737366,0.0609759986400604,0.685979962348938,-1034.70007324219,14.7000007629395,-952.500061035156,0.354261600177554,-0.376038747264806,0.30848768804134,LD
16.3666666666667,-3.24014043807983,-2.88185286521912,8.33272933959961,2.080806016922,-0.937505960464478,1.32622802257538,-1020.30004882812,19.5,-928.500061035156,0.350049216882626,-0.35137009716975,0.328340521682296,LD
16.4,-3.22219610214233,-2.85074949264526,7.92240381240845,1.2576299905777,-0.25152599811554,1.57013201713562,-1034.70007324219,17.7000007629395,-950.100036621094,0.338991293297272,-0.366009502889455,0.342168090041998,LD
16.4333333333333,-3.38608741760254,-2.900395154953,8.05878067016602,0.731711983680725,0.724089980125427,1.72257196903229,-1037.10009765625,18.3000011444092,-942.900024414062,0.324365849784702,-0.378691988360109,0.343239047730368,LD
16.4666666666667,-3.1767373085022,-2.8561327457428,8.24181175231934,0.0838419944047928,0.78506600856781,1.17378795146942,-1032.30004882812,14.7000007629395,-938.100036621094,0.309598447295608,-0.351228525180516,0.332899977589184,LD
16.5,-3.59902620315552,-2.81785154342651,8.34708499908447,0.0533539988100529,0.457319974899292,0.92988395690918,-1015.50006103516,16.5,-940.500061035156,0.296347878550007,-0.389104707468569,0.324953463808389,LD
16.5333333333333,-3.73241209983826,-2.95303177833557,8.59531402587891,0.67835795879364,-0.152439996600151,1.12805593013763,-1025.10009765625,24.9000015258789,-940.500061035156,0.285686600572594,-0.390061286785638,0.328943747464641,LD
16.5666666666667,-3.54220271110535,-2.89740467071533,8.46970462799072,0.609759986400604,-0.708845973014832,0.914639949798584,-1034.70007324219,17.1000003814697,-957.300048828125,0.273850758358525,-0.376143725708793,0.32779222963896,LD
16.6,-3.55057668685913,-2.69702672958374,9.49013614654541,0.769822001457214,-1.6844619512558,1.16616594791412,-1022.70001220703,23.1000003814697,-938.100036621094,0.235234900310776,-0.343174745107015,0.274562463442813,LD
16.6333333333333,-2.68685817718506,-2.3997495174408,8.52951908111572,1.55488801002502,-2.59148001670837,1.43293595314026,-1029.90002441406,14.7000007629395,-938.100036621094,0.21060821151815,-0.290733932443033,0.27045614937278,LD
16.6666666666667,-2.71796154975891,-2.15032386779785,8.21908283233643,1.42531394958496,-1.51677799224854,1.52439999580383,-1037.10009765625,15.9000005722046,-945.300048828125,0.185949626939356,-0.307733578499916,0.25237242177832,LD
16.7,-2.37941265106201,-1.96190893650055,8.78313159942627,1.14329993724823,-0.815553963184357,1.54726600646973,-1029.90002441406,9.90000057220459,-954.900024414062,0.156894421827035,-0.257671612603762,0.216994462071297,LD
16.7333333333333,-2.5917534828186,-1.59046220779419,8.55523872375488,1.08994603157043,-1.15092194080353,1.14329993724823,-1037.10009765625,10.5,-952.500061035156,0.131921256934723,-0.287858584289614,0.181215375843631,LD
16.7666666666667,-2.31840205192566,-1.58448076248169,8.77834606170654,0.823175966739655,-1.14329993724823,0.823175966739655,-1032.30004882812,20.7000007629395,-930.900024414062,0.118955908866727,-0.252568177680845,0.176683026673972,LD
16.8,-2.68984889984131,-1.48638522624969,8.81602954864502,0.769822001457214,-0.304879993200302,0.99848198890686,-1037.10009765625,17.1000003814697,-942.900024414062,0.104699436708575,-0.292008384270102,0.165143256182294,LD
16.8333333333333,-3.18690586090088,-1.64250063896179,9.28078651428223,0.762199997901917,0.259148001670837,1.2576299905777,-1034.70007324219,14.7000007629395,-935.700012207031,0.0939134252723985,-0.326887133828763,0.173128208425101,LD
16.8666666666667,-3.04514575004578,-1.93977761268616,9.76169300079346,0.594515979290009,-0.282013982534409,0.731711983680725,-1037.10009765625,10.5,-940.500061035156,0.092448099862691,-0.296687146241891,0.194707128228117,LD
16.9,-2.41231060028076,-1.41879510879517,8.62103462219238,0.792688012123108,-0.960371971130371,0.0609759986400604,-1029.90002441406,19.5,-947.700012207031,0.0832604095754412,-0.267755539589109,0.161626020015483,LD
16.9333333333333,-3.3029453754425,-1.49655365943909,8.80885124206543,0.701223969459534,1.06708002090454,0.769822001457214,-1032.30004882812,15.3000001907349,-940.500061035156,0.0803463981235834,-0.356137391339747,0.166684419977596,LD
16.9666666666667,-3.34302115440369,-1.7405960559845,9.41477012634277,0.525918006896973,1.06708002090454,0.762199997901917,-1034.70007324219,17.7000007629395,-940.500061035156,0.0803430230442737,-0.338004205110502,0.181555695419178,LD
17.0,-3.40104103088379,-1.83928966522217,8.85789966583252,0.106707997620106,0.67835795879364,0.388722002506256,-1046.70007324219,14.7000007629395,-950.100036621094,0.0851468916983943,-0.360888406032577,0.204388201533592,LD
17.0333333333333,-2.93867635726929,-1.59165847301483,8.91651725769043,0.289635986089706,0.800309956073761,0.609759986400604,-1020.30004882812,16.5,-942.900024414062,0.0704504128354102,-0.315295095647947,0.175879580104389,LD
17.0666666666667,-3.10914707183838,-1.39486944675446,8.09765911102295,0.37347799539566,0.92988395690918,0.434453994035721,-1032.30004882812,18.3000011444092,-952.500061035156,0.0666492648241349,-0.363459486950301,0.169750864158586,LD
17.1,-3.5093047618866,-1.47202980518341,8.14730548858643,0.320124000310898,1.63110792636871,0.350611984729767,-1027.5,12.9000005722046,-957.300048828125,0.0708190534592315,-0.403820824035147,0.178148363561116,LD
17.1333333333333,-3.40582609176636,-1.75913846492767,8.53370571136475,-0.37347799539566,1.21189796924591,-0.518296003341675,-1027.5,12.3000001907349,-933.300048828125,0.0888597427378786,-0.374512286189883,0.204459204575894,LD
17.1666666666667,-3.66482210159302,-2.14673519134521,8.90156364440918,-0.861285984516144,0.0228659994900227,-1.78354799747467,-1015.50006103516,15.3000001907349,-957.300048828125,0.122084821718337,-0.380007627075727,0.239360311440489,LD
17.2,-3.77966547012329,-2.2310733795166,8.40630149841309,-1.05183601379395,0.236281991004944,-1.84452390670776,-1025.10009765625,14.7000007629395,-935.700012207031,0.149445792824782,-0.409517837373593,0.262655253469824,LD
17.2333333333333,-4.02849292755127,-2.40274024009705,8.572585105896,-1.60824191570282,0.754577994346619,-1.37958192825317,-1034.70007324219,12.9000005722046,-957.300048828125,0.165980286148618,-0.425532612873535,0.277288212653858,LD
17.2666666666667,-3.26586055755615,-2.73291516304016,8.35007572174072,-1.50153398513794,0.320124000310898,-0.846041977405548,-1013.10003662109,20.7000007629395,-930.900024414062,0.186536281140097,-0.355958829261107,0.31950900641311,LD
17.3,-2.85254383087158,-2.83998274803162,8.1072301864624,-1.46342396736145,-0.205793991684914,-0.579271972179413,-1013.10003662109,18.3000011444092,-942.900024414062,0.193066228181379,-0.319936510312486,0.339774921642812,LD
17.3333333333333,-3.04394960403442,-3.03677177429199,8.03605079650879,-1.04421401023865,0.182927995920181,-0.213415995240211,-1022.70001220703,24.3000011444092,-954.900024414062,0.199251696155139,-0.340693889424045,0.363290372356357,LD
17.3666666666667,-3.80000233650208,-3.31909537315369,8.95180797576904,-0.3125019967556,0.655492007732391,0.0076219998300075,-1010.70001220703,20.1000003814697,-938.100036621094,0.198039859411671,-0.379873010525281,0.355759668548238,LD
17.4,-3.08163261413574,-3.09000658988953,8.34768295288086,0.449698001146317,-0.548784017562866,-0.403965979814529,-1022.70001220703,15.9000005722046,-935.700012207031,0.202375920086077,-0.332146385591005,0.353852178335051,LD
17.4333333333333,-3.60620403289795,-2.97037792205811,8.644362449646,0.670735955238342,-0.78506600856781,-0.0228659994900227,-1013.10003662109,17.7000007629395,-935.700012207031,0.194336738172903,-0.374472501595833,0.329650305402075,LD
17.4666666666667,-2.83938479423523,-2.7562427520752,8.48406028747559,1.09756803512573,-1.45580196380615,0.510673999786377,-1029.90002441406,15.9000005722046,-945.300048828125,0.180429683367134,-0.30601634181408,0.311686375774072,LD
17.5,-2.92970418930054,-2.79691648483276,7.54258298873901,1.19665396213531,-1.13567793369293,0.556405961513519,-1034.70007324219,17.7000007629395,-950.100036621094,0.186970545595922,-0.347733302191912,0.352427938774302,LD
17.5333333333333,-3.17135405540466,-2.96798539161682,8.50260257720947,0.746955990791321,0.25152599811554,0.335367977619171,-1022.70001220703,15.3000001907349,-942.900024414062,0.181318091978108,-0.339195009451877,0.334397358391857,LD
