seconds,sensor_accX_m_s_,sensor_accY_m_s_,sensor_accZ_m_s_,sensor_gyroX___s_,sensor_gyroY___s_,sensor_gyroZ___s_,sensor_magX__T_,sensor_magY__T_,sensor_magZ__T_,sensor_yaw___,sensor_pitch___,sensor_roll___,label4
0.0,-3.20544815063477,-2.44879722595215,8.63479232788086,0.37347799539566,-0.289635986089706,0.167683988809586,-1053.90002441406,19.5,-942.900024414062,1.95744010250398,-0.34261497813218,0.275540989450725,ST
0.0333333333333333,-3.19827055931091,-2.46494722366333,8.63957691192627,0.365855991840363,-0.236281991004944,0.266770005226135,-1061.10009765625,18.3000011444092,-942.900024414062,1.95598917932682,-0.341726210911356,0.277085924878299,ST
0.0666666666666667,-3.1946816444397,-2.47691011428833,8.56241703033447,0.403965979814529,-0.213415995240211,0.381099998950958,-1046.70007324219,28.5000019073486,-959.700012207031,1.95428417663062,-0.34397285492843,0.280617597693134,ST
0.1,-3.21023321151733,-2.4595639705658,8.53490161895752,0.37347799539566,-0.152439996600151,0.449698001146317,-1051.5,20.1000003814697,-957.300048828125,1.95045287729466,-0.346773514055778,0.279624688723483,ST
0.133333333333333,-3.2407386302948,-2.47033047676086,8.62342739105225,0.37347799539566,-0.152439996600151,0.487807989120483,-1053.90002441406,28.5000019073486,-952.500061035156,1.94603850779735,-0.346661719042761,0.278022570257738,ST
0.166666666666667,-3.22399067878723,-2.47810626029968,8.63359546661377,0.426831990480423,-0.259148001670837,0.434453994035721,-1056.30004882812,19.5,-957.300048828125,1.94273097706192,-0.344383695214141,0.278464861888897,ST
0.2,-3.23415899276733,-2.46494722366333,8.61744594573975,0.442075997591019,-0.282013982534409,0.403965979814529,-1049.10009765625,20.7000007629395,-962.100036621094,1.93926098209399,-0.346011323060918,0.277537870061471,ST
0.233333333333333,-3.24971079826355,-2.42846035957336,8.59531402587891,0.457319974899292,-0.282013982534409,0.403965979814529,-1049.10009765625,25.5000019073486,-950.100036621094,1.93506764634793,-0.34866379452403,0.274264223973907,ST
0.266666666666667,-3.22040176391602,-2.43982529640198,8.66469955444336,0.426831990480423,-0.297257989645004,0.426831990480423,-1056.30004882812,24.3000011444092,-952.500061035156,1.93129773975497,-0.343272693250955,0.273424167329534,ST
0.3,-3.22159814834595,-2.40632915496826,8.59830474853516,0.457319974899292,-0.282013982534409,0.449698001146317,-1063.5,22.5,-952.500061035156,1.92719105539834,-0.346012036770934,0.271762038612011,ST
0.333333333333333,-3.21800923347473,-2.38120722770691,8.60787582397461,0.480185985565186,-0.266770005226135,0.426831990480423,-1063.5,17.7000007629395,-957.300048828125,1.92288416418586,-0.34558143096749,0.268741961534346,ST
0.366666666666667,-3.18032622337341,-2.39197373390198,8.66051197052002,0.480185985565186,-0.236281991004944,0.411587983369827,-1056.30004882812,18.3000011444092,-945.300048828125,1.91959000642215,-0.340000666135633,0.268353339547779,ST
0.4,-3.21501851081848,-2.34711313247681,8.60189437866211,0.46494197845459,-0.221037998795509,0.403965979814529,-1065.90002441406,18.3000011444092,-952.500061035156,1.91566594232607,-0.345874454462297,0.265283958626574,ST
0.433333333333333,-3.21980357170105,-2.36266469955444,8.58275318145752,0.442075997591019,-0.221037998795509,0.434453994035721,-1039.5,21.3000011444092,-952.500061035156,1.91316672225257,-0.346882381824081,0.267552993935752,ST
0.466666666666667,-3.23057007789612,-2.35309433937073,8.62402534484863,0.350611984729767,-0.228659987449646,0.335367977619171,-1061.10009765625,20.1000003814697,-962.100036621094,1.90982924080498,-0.346554414764016,0.26551662282547,ST
0.5,-3.16776514053345,-2.3937680721283,8.65811920166016,0.350611984729767,-0.3125019967556,0.25152599811554,-1058.70007324219,23.1000003814697,-952.500061035156,1.90870677926338,-0.338619553279913,0.268925702695004,ST
0.533333333333333,-3.17853164672852,-2.40931987762451,8.68443775177002,0.442075997591019,-0.37347799539566,0.182927995920181,-1075.5,22.5,-969.300048828125,1.90760522276457,-0.338519286840333,0.269682169452181,ST
0.566666666666667,-3.24372935295105,-2.31720590591431,8.57916450500488,0.419209986925125,-0.350611984729767,0.236281991004944,-1061.10009765625,16.5,-940.500061035156,1.90347864392278,-0.34950044859766,0.262869164923471,ST
0.6,-3.21561670303345,-2.35608506202698,8.58753871917725,0.350611984729767,-0.236281991004944,0.37347799539566,-1051.5,15.9000005722046,-938.100036621094,1.90171388939188,-0.346310730276276,0.266892324033741,ST
0.633333333333333,-3.14802646636963,-2.36924433708191,8.6862325668335,0.37347799539566,-0.266770005226135,0.396344006061554,-1037.10009765625,21.3000011444092,-942.900024414062,1.89767992611137,-0.336091571103009,0.265353801864622,ST
0.666666666666667,-3.15759682655334,-2.40872168540955,8.62223052978516,0.426831990480423,-0.289635986089706,0.320124000310898,-1063.5,17.1000003814697,-959.700012207031,1.89725895597816,-0.338749540192611,0.271431290973367,ST
0.7,-3.20843887329102,-2.4176938533783,8.63180160522461,0.3125019967556,-0.228659987449646,0.160062000155449,-1070.70007324219,22.5,-947.700012207031,1.89641631376182,-0.343407355547089,0.272413203634326,ST
0.733333333333333,-3.17015767097473,-2.45477867126465,8.61983871459961,0.304879993200302,-0.213415995240211,0.190549999475479,-1046.70007324219,24.9000015258789,-952.500061035156,1.89640931483422,-0.339710675924701,0.276755503200756,ST
0.766666666666667,-3.1468300819397,-2.4416196346283,8.63718414306641,0.335367977619171,-0.243903994560242,0.213415995240211,-1049.10009765625,16.5,-945.300048828125,1.8941527495778,-0.336898481151393,0.274748173745971,ST
0.8,-3.20185923576355,-2.43324565887451,8.57378101348877,0.37347799539566,-0.190549999475479,0.282013982534409,-1053.90002441406,21.3000011444092,-942.900024414062,1.89250825361502,-0.344710511378569,0.275674760630719,ST
0.833333333333333,-3.19049453735352,-2.44221782684326,8.620436668396,0.335367977619171,-0.152439996600151,0.358233988285065,-1058.70007324219,20.7000007629395,-969.300048828125,1.88961554465866,-0.342008405837352,0.275246237509971,ST
0.866666666666667,-3.16298007965088,-2.46195650100708,8.67008209228516,0.350611984729767,-0.236281991004944,0.365855991840363,-1070.70007324219,20.7000007629395,-945.300048828125,1.88677722947288,-0.337292394641653,0.275809878618764,ST
0.9,-3.18152236938477,-2.45836758613586,8.620436668396,0.388722002506256,-0.289635986089706,0.304879993200302,-1053.90002441406,19.5,-945.300048828125,1.88442222208933,-0.340707569587013,0.276895526253406,ST
0.933333333333333,-3.19527983665466,-2.44939541816711,8.58335208892822,0.381099998950958,-0.266770005226135,0.3125019967556,-1056.30004882812,21.9000015258789,-954.900024414062,1.8820366240589,-0.343461379360859,0.277078974530098,ST
0.966666666666667,-3.18750381469727,-2.41589951515198,8.61505317687988,0.396344006061554,-0.221037998795509,0.358233988285065,-1053.90002441406,21.3000011444092,-957.300048828125,1.87768818581877,-0.342029004620524,0.272463811978741,ST
1.0,-3.18690586090088,-2.43264746665955,8.63359546661377,0.396344006061554,-0.228659987449646,0.365855991840363,-1056.30004882812,12.9000005722046,-950.100036621094,1.87528325834423,-0.341172286802443,0.273695883954804,ST
1.03333333333333,-3.19228911399841,-2.43623638153076,8.6264181137085,0.381099998950958,-0.25152599811554,0.327746003866196,-1056.30004882812,20.1000003814697,-950.100036621094,1.8727101402287,-0.341857602961958,0.274343808267194,ST
1.06666666666667,-3.2066445350647,-2.43384385108948,8.61146450042725,0.411587983369827,-0.243903994560242,0.320124000310898,-1039.5,18.3000011444092,-942.900024414062,1.87042056337844,-0.343819541679574,0.274491902698475,ST
1.1,-3.24313116073608,-2.42606782913208,8.61505317687988,0.388722002506256,-0.274392008781433,0.266770005226135,-1049.10009765625,20.7000007629395,-947.700012207031,1.86816124769902,-0.34730237357419,0.273611947551492,ST
1.13333333333333,-3.20544815063477,-2.4236752986908,8.57796859741211,0.442075997591019,-0.358233988285065,0.243903994560242,-1063.5,19.5,-954.900024414062,1.86664431099493,-0.344721059741246,0.274388452114267,ST
1.16666666666667,-3.26107549667358,-2.41589951515198,8.7101583480835,0.510673999786377,-0.434453994035721,0.221037998795509,-1049.10009765625,28.5000019073486,-959.700012207031,1.86348443521118,-0.345616191575067,0.269468605435986,ST
1.2,-3.21501851081848,-2.43025493621826,8.73348522186279,0.571649968624115,-0.564027965068817,0.160062000155449,-1061.10009765625,23.1000003814697,-935.700012207031,1.8626515374202,-0.339940060440121,0.270215961435102,ST
1.23333333333333,-3.09957695007324,-2.42188096046448,8.70357799530029,0.533540010452271,-0.617381989955902,0.205793991684914,-1056.30004882812,26.7000007629395,-957.300048828125,1.86068964011411,-0.329567659974476,0.270248583005728,ST
1.26666666666667,-3.03856635093689,-2.41829204559326,8.62402534484863,0.518296003341675,-0.525918006896973,0.274392008781433,-1061.10009765625,20.1000003814697,-942.900024414062,1.85895075022878,-0.326314142475107,0.27224647374514,ST
1.3,-3.07445478439331,-2.36924433708191,8.57557582855225,0.46494197845459,-0.289635986089706,0.411587983369827,-1068.30004882812,21.9000015258789,-966.900024414062,1.85418375447075,-0.332422139253859,0.268457916315805,ST
1.33333333333333,-3.10795092582703,-2.34232783317566,8.54566860198975,0.37347799539566,-0.129574000835419,0.503051996231079,-1065.90002441406,25.5000019073486,-950.100036621094,1.84954293874816,-0.337353827185016,0.26655608308847,ST
1.36666666666667,-3.22937393188477,-2.36266469955444,8.55703353881836,0.327746003866196,-0.114329993724823,0.449698001146317,-1068.30004882812,18.3000011444092,-957.300048828125,1.8466522104584,-0.348910009932798,0.268528403448788,ST
1.4,-3.2927770614624,-2.49006915092468,8.59950160980225,0.365855991840363,-0.25152599811554,0.320124000310898,-1061.10009765625,21.9000015258789,-952.500061035156,1.8483537985222,-0.352170845367464,0.280965961997104,ST
1.43333333333333,-3.5613431930542,-2.51339673995972,8.51815414428711,0.457319974899292,-0.327746003866196,-0.0762199983000755,-1065.90002441406,17.7000007629395,-954.900024414062,1.85199318228423,-0.380773381354777,0.286108802730025,ST
1.46666666666667,-3.58706331253052,-2.53492999076843,8.31179428100586,0.579271972179413,-0.121951997280121,-0.297257989645004,-1053.90002441406,18.9000015258789,-933.300048828125,1.86033929524019,-0.391125823866445,0.295182653726148,ST
1.5,-3.6654200553894,-2.62345504760742,8.34230041503906,0.724089980125427,-0.114329993724823,-0.480185985565186,-1063.5,27.9000015258789,-940.500061035156,1.87117842120186,-0.396454368048653,0.303726873163743,ST
1.53333333333333,-3.85084438323975,-2.47750806808472,8.49422836303711,0.922261953353882,-0.609759986400604,-0.693601965904236,-1044.30004882812,13.5000009536743,-952.500061035156,1.87211073691219,-0.409126025528063,0.282569716287076,ST
1.56666666666667,-3.85503149032593,-2.21372723579407,8.62103462219238,1.32622802257538,-1.11281192302704,-0.3125019967556,-1061.10009765625,22.5,-947.700012207031,1.86515602040696,-0.406708466062056,0.249065653299145,ST
1.6,-3.72702884674072,-2.00676965713501,8.48944282531738,1.83690190315247,-1.99696397781372,0.381099998950958,-1061.10009765625,23.1000003814697,-950.100036621094,1.856493666027,-0.400531061626977,0.228311366681659,ST
1.63333333333333,-3.90826606750488,-1.80818617343903,8.42843246459961,1.92836594581604,-2.03507399559021,0.937505960464478,-1063.5,21.3000011444092,-957.300048828125,1.8426785849406,-0.422523742080084,0.20691536903004,ST
1.66666666666667,-3.8998920917511,-1.77229762077332,8.74066352844238,1.6920839548111,-1.95123195648193,1.48628997802734,-1063.5,18.3000011444092,-957.300048828125,1.82709834200379,-0.409399224600579,0.19570781669713,ST
1.7,-3.66960716247559,-1.79622340202332,8.54566860198975,1.6692179441452,-1.95123195648193,1.43293595314026,-1068.30004882812,12.9000005722046,-945.300048828125,1.81888592846261,-0.395001049918091,0.202945763678289,ST
1.73333333333333,-3.47760319709778,-1.7364090681076,7.92718887329102,1.34147191047668,-1.53964400291443,0.99848198890686,-1073.10009765625,13.5000009536743,-947.700012207031,1.81451488900695,-0.402600002059444,0.212325893949415,ST
1.76666666666667,-3.55835247039795,-1.68556690216064,8.1485013961792,1.20427596569061,-1.13567793369293,0.846041977405548,-1063.5,17.7000007629395,-952.500061035156,1.80462922870939,-0.402454472073311,0.201096380725373,ST
1.8,-3.60680222511292,-1.57491040229797,8.60189437866211,1.09756803512573,-1.45580196380615,0.647870004177094,-1070.70007324219,17.7000007629395,-950.100036621094,1.79126021731181,-0.388897135029904,0.178532593044402,ST
1.83333333333333,-2.64020299911499,-2.12580013275146,9.93276214599609,1.2347639799118,-2.09605002403259,0.609759986400604,-1080.30004882812,18.9000015258789,-952.500061035156,1.79350028751607,-0.251004469041914,0.208205387718995,ST
1.86666666666667,-1.70231485366821,-2.36685180664062,10.6738615036011,1.83690190315247,-3.97106194496155,-1.02897000312805,-1075.5,21.3000011444092,-952.500061035156,1.79988051178728,-0.147360021108291,0.21504050557737,ST
1.9,-1.1095552444458,-1.58627510070801,10.5685882568359,3.11739802360535,-5.47259569168091,-2.11129403114319,-1082.70007324219,17.7000007629395,-962.100036621094,1.80934968540809,-0.0934873512394252,0.143768966485663,ST
1.93333333333333,-1.16219174861908,-1.33026993274689,8.77176666259766,3.70429182052612,-3.7805118560791,-1.42531394958496,-1089.90002441406,14.7000007629395,-945.300048828125,1.82362005204584,-0.123353053375682,0.144223125959628,ST
1.96666666666667,-1.40683221817017,-1.90927231311798,9.17670917510986,1.84452390670776,0.0457319989800453,-0.853663980960846,-1106.70007324219,11.7000007629395,-952.500061035156,1.84355350928932,-0.148746175294287,0.202102469772761,ST
2.0,-1.88235592842102,-1.83809340000153,8.82619762420654,1.65397393703461,0.846041977405548,-1.05183601379395,-1094.70007324219,13.5000009536743,-945.300048828125,1.86062752037675,-0.206887889198071,0.202872510944353,ST
2.03333333333333,-2.29208397865295,-1.7166702747345,8.95539665222168,2.15702605247498,0.861285984516144,-0.533540010452271,-1109.10009765625,10.5,-954.900024414062,1.87091551297383,-0.24756355772265,0.18593500948759,ST
2.06666666666667,-2.30165410041809,-1.62156558036804,8.28188800811768,2.86587190628052,-0.472563982009888,-0.259148001670837,-1106.70007324219,14.7000007629395,-945.300048828125,1.88144269215098,-0.265359001146921,0.18842487260172,ST
2.1,-2.98951864242554,-1.78964376449585,8.64974594116211,2.88873791694641,-1.34909391403198,0.586893975734711,-1097.10009765625,5.10000038146973,-962.100036621094,1.88550443261792,-0.324231082294326,0.198480309025465,ST
2.13333333333333,-3.38967633247375,-1.54380702972412,8.75681304931641,2.75916385650635,-1.51677799224854,0.983237981796265,-1109.10009765625,5.70000028610229,-950.100036621094,1.87344352071102,-0.361870549567047,0.168890125181788,ST
2.16666666666667,-3.55237102508545,-1.68496870994568,8.99487400054932,1.69970595836639,-0.754577994346619,2.33995389938354,-1113.90002441406,9.90000057220459,-950.100036621094,1.85943608146188,-0.369713247876643,0.180557470253094,ST
2.2,-3.14503574371338,-1.84347665309906,9.40101337432861,1.08994603157043,-1.34909391403198,2.0731840133667,-1104.30004882812,7.50000047683716,-957.300048828125,1.8427997640501,-0.315605430919286,0.190421301021396,ST
2.23333333333333,-2.88185286521912,-1.72683870792389,8.86926364898682,1.02134799957275,-1.46342396736145,1.83690190315247,-1101.90002441406,2.10000014305115,-952.500061035156,1.82417568603222,-0.306838712400877,0.18935959833226,ST
2.26666666666667,-2.31002807617188,-1.84826183319092,8.95539665222168,0.891773998737335,-1.47866797447205,1.21189796924591,-1123.5,8.70000076293945,-947.700012207031,1.81340869746884,-0.245358661229118,0.201318259212904,ST
2.3,-2.47391939163208,-1.38111209869385,8.90096569061279,1.59299790859222,-1.73781597614288,0.937505960464478,-1106.70007324219,8.10000038146973,-947.700012207031,1.79242555017962,-0.265281111144248,0.150616131562155,ST
2.33333333333333,-2.75684094429016,-1.20226740837097,9.82689094543457,2.18751406669617,-2.43141794204712,1.74543797969818,-1104.30004882812,15.3000001907349,-940.500061035156,1.76664965147953,-0.267727379626389,0.116956013561602,ST
2.36666666666667,-2.33634638786316,-0.801511585712433,8.91412448883057,2.4847719669342,-3.30032587051392,1.99696397781372,-1113.90002441406,9.90000057220459,-952.500061035156,1.73984381980422,-0.249905980547124,0.0843280418611612,ST
2.4,-2.38359975814819,-0.714780867099762,8.49721908569336,2.27135586738586,-2.9420919418335,2.66770005226135,-1130.70007324219,6.30000019073486,-938.100036621094,1.71431740620957,-0.267811995323747,0.0785694307987545,ST
2.43333333333333,-2.32737421989441,-1.01564681529999,9.03853797912598,1.89787793159485,-2.86587190628052,2.60672402381897,-1135.5,5.70000028610229,-938.100036621094,1.69612602646328,-0.246035671693567,0.107296585019095,ST
2.46666666666667,-2.14135193824768,-1.05093717575073,8.73348522186279,1.78354799747467,-3.18599581718445,1.96647596359253,-1130.70007324219,-2.10000014305115,-940.500061035156,1.67801176904314,-0.233668435634106,0.115672025760028,ST
2.5,-1.92183339595795,-1.14065861701965,8.37101078033447,1.75305998325348,-3.21648383140564,1.08232402801514,-1137.90002441406,3.90000009536743,-942.900024414062,1.66993547861884,-0.21836540565925,0.131777552066948,ST
2.53333333333333,-1.86321532726288,-1.08383500576019,9.24908447265625,1.63872992992401,-3.02593398094177,0.259148001670837,-1137.90002441406,2.10000014305115,-940.500061035156,1.66319160860471,-0.192289956259011,0.11359256392637,ST
2.56666666666667,-1.75016629695892,-1.17594909667969,9.92139720916748,2.15702605247498,-3.52136397361755,-0.327746003866196,-1140.30004882812,5.70000028610229,-923.700012207031,1.66650801659038,-0.167259879095733,0.114184884271502,ST
2.6,-1.35479378700256,-0.391185492277145,9.25087928771973,3.14026403427124,-2.74391984939575,-0.670735955238342,-1133.10009765625,-0.300000011920929,-947.700012207031,1.66674214321968,-0.140465470237057,0.0369289579958952,ST
2.63333333333333,-0.644798099994659,0.388792932033539,10.1863746643066,3.12502002716064,-2.58385801315308,-0.0457319989800453,-1152.30004882812,3.30000019073486,-947.700012207031,1.66299960788973,-0.058681362818232,-0.0435765171255066,ST
2.66666666666667,-0.430064797401428,0.733323276042938,10.3203592300415,3.19361782073975,-3.18599581718445,0.0,-1154.70007324219,-0.900000035762787,-926.100036621094,1.66530622437047,-0.0360101362287711,-0.0764802139976834,ST
2.7,-0.0963010191917419,1.27643704414368,9.95549201965332,2.80489587783813,-2.69818782806396,0.46494197845459,-1157.10009765625,-2.10000014305115,-926.100036621094,1.66305278254358,-0.0048347450247739,-0.13238746269329,ST
2.73333333333333,0.053234726190567,1.66343557834625,10.0864849090576,1.95885396003723,-1.37958192825317,0.861285984516144,-1154.70007324219,-0.300000011920929,-930.900024414062,1.65610200499194,0.007825087130414,-0.166839364883416,ST
2.76666666666667,-0.0023925718851387,2.03906941413879,10.2832736968994,1.70732796192169,-0.899396002292633,0.967993974685669,-1152.30004882812,-6.90000009536743,-930.900024414062,1.64770248731729,0.0016470443771951,-0.198712484437616,ST
2.8,0.160302311182022,1.93020737171173,10.5679903030396,1.52439999580383,-0.533540010452271,1.02897000312805,-1171.5,5.10000038146973,-923.700012207031,1.63734512819722,0.0161565976047447,-0.183297734354511,ST
2.83333333333333,0.0089721446856856,1.76153099536896,10.0876808166504,1.10518991947174,0.152439996600151,-0.0762199983000755,-1169.10009765625,0.300000011920929,-938.100036621094,1.63776563209966,0.0005987370924579,-0.174812064401921,ST
2.86666666666667,-0.361876487731934,1.35778450965881,10.3556489944458,0.952749967575073,0.762199997901917,-1.05945801734924,-1159.5,-2.10000014305115,-926.100036621094,1.6491651455714,-0.0361785825852975,-0.131995943586058,ST
2.9,-0.705808699131012,1.40085089206696,10.0338487625122,1.15092194080353,0.685979962348938,-2.19513607025146,-1164.30004882812,-2.10000014305115,-933.300048828125,1.67222846504779,-0.0712591070602786,-0.14046175932595,ST
2.93333333333333,-1.23337078094482,1.62455630302429,10.1002426147461,1.49391198158264,0.647870004177094,-2.11129403114319,-1145.10009765625,0.300000011920929,-928.500061035156,1.69359138819521,-0.12166829710819,-0.161651853379981,ST
2.96666666666667,-0.997104346752167,1.71726846694946,9.5206413269043,1.33385002613068,0.365855991840363,-1.80641400814056,-1159.5,-9.90000057220459,-918.900024414062,1.71166911066281,-0.103907827846158,-0.180460980102761,ST
3.0,-0.769810020923615,1.63412654399872,9.29633808135986,0.990859985351562,0.46494197845459,-1.73781597614288,-1145.10009765625,-3.90000009536743,-921.300048828125,1.73082430603207,-0.0827166162825061,-0.175499566084246,ST
3.03333333333333,-0.750071287155151,1.53662931919098,9.27241230010986,0.67835795879364,0.358233988285065,-1.97409796714783,-1164.30004882812,1.5,-940.500061035156,1.75284969918691,-0.0808198992321418,-0.165149912518986,ST
3.06666666666667,-0.872690618038177,1.44750595092773,9.25446796417236,0.6250039935112,0.495429992675781,-2.31708788871765,-1154.70007324219,-5.10000038146973,-928.500061035156,1.77837197696478,-0.0943739741139792,-0.155884402328736,ST
3.1,-0.940878868103027,1.3960657119751,9.04631423950195,0.807931959629059,0.579271972179413,-2.61434602737427,-1135.5,-10.5,-935.700012207031,1.80659735874647,-0.104124839201955,-0.154072141386114,ST
3.13333333333333,-1.25669836997986,1.43195426464081,9.65941047668457,0.975615978240967,0.259148001670837,-3.02593398094177,-1135.5,-9.30000019073486,-938.100036621094,1.84066898055981,-0.129205870883084,-0.148208321949262,ST
3.16666666666667,-1.61558413505554,1.56354570388794,9.21917724609375,1.21189796924591,0.655492007732391,-2.74391984939575,-1142.70007324219,-5.70000028610229,-947.700012207031,1.86862768959733,-0.173003575507325,-0.169314367958837,ST
3.2,-2.0671820640564,1.63711726665497,9.78083419799805,0.945127964019775,1.02897000312805,-2.18751406669617,-1142.70007324219,0.300000011920929,-933.300048828125,1.89388727773821,-0.207902636548511,-0.166761325014523,ST
3.23333333333333,-1.98404026031494,1.44331896305084,9.84782600402832,0.411587983369827,0.807931959629059,-1.93598794937134,-1133.10009765625,-2.70000004768372,-930.900024414062,1.9182914990566,-0.198651463235388,-0.145622819409882,ST
3.26666666666667,-2.06359314918518,1.41999137401581,9.92917346954346,0.152439996600151,0.937505960464478,-1.76068198680878,-1133.10009765625,-9.30000019073486,-916.500061035156,1.93719010672672,-0.204958339553538,-0.141732078110081,ST
3.3,-1.64070618152618,1.09340536594391,10.2318334579468,-0.0381099991500378,0.708845973014832,-1.89787793159485,-1118.70007324219,-10.5,-938.100036621094,1.96489301135369,-0.159704292088377,-0.105890217054078,ST
3.33333333333333,-1.45946884155273,1.22738933563232,9.56370830535889,-0.205793991684914,0.503051996231079,-2.4847719669342,-1128.30004882812,-9.30000019073486,-928.500061035156,1.98965653447919,-0.151643362923804,-0.126636444529657,ST
3.36666666666667,-1.91764640808105,1.27404451370239,9.6402702331543,-0.396344006061554,1.02897000312805,-2.16464805603027,-1133.10009765625,-5.70000028610229,-940.500061035156,2.01051937114938,-0.196960909271282,-0.130003974176096,ST
3.4,-1.50193703174591,1.04375946521759,9.72759914398193,-0.609759986400604,1.28049600124359,-2.21037983894348,-1125.90002441406,-7.50000047683716,-928.500061035156,2.03664029076154,-0.154973081888512,-0.105272171654594,ST
3.43333333333333,-1.22499680519104,0.775193274021149,9.36213397979736,-0.487807989120483,1.12805593013763,-2.77440786361694,-1121.10009765625,-13.5000009536743,-945.300048828125,2.06829316954125,-0.13203476577538,-0.0811531062785197,ST
3.46666666666667,-1.34941053390503,0.691453278064728,8.96197605133057,-0.228659987449646,1.2576299905777,-3.59758400917053,-1121.10009765625,-11.1000003814697,-930.900024414062,2.10646178736645,-0.151665345051984,-0.0756742896664747,ST
3.5,-1.79981219768524,0.699827253818512,8.66110992431641,0.0685980021953583,2.0579400062561,-3.39178991317749,-1109.10009765625,-6.90000009536743,-945.300048828125,2.14462417692738,-0.208282584593226,-0.0795591816859489,ST
3.53333333333333,-2.14733338356018,0.578404247760773,9.06665134429932,-0.144817993044853,2.24848985671997,-2.78202986717224,-1094.70007324219,-15.9000005722046,-935.700012207031,2.17605288566012,-0.236304316542147,-0.062357780250125,ST
3.56666666666667,-2.27952289581299,0.250023752450943,9.51226806640625,-0.442075997591019,1.86738991737366,-2.62196803092957,-1101.90002441406,-9.90000057220459,-940.500061035156,2.21108569743981,-0.238496411473433,-0.024434077658575,ST
3.6,-2.20954012870789,0.169872596859932,9.533203125,-1.15092194080353,1.08994603157043,-2.76678586006165,-1106.70007324219,-8.70000076293945,-930.900024414062,2.24133476447349,-0.229693262070515,-0.0146898695321034,ST
3.63333333333333,-1.57251787185669,-0.0077758585102856,9.24370193481445,-1.53964400291443,0.708845973014832,-2.89635992050171,-1097.10009765625,-5.10000038146973,-940.500061035156,2.27330474830075,-0.169750511867006,0.0043868313385321,ST
3.66666666666667,-2.13477230072021,-0.321800917387009,10.0332498550415,-1.96647596359253,0.358233988285065,-2.56099200248718,-1097.10009765625,-7.50000047683716,-952.500061035156,2.30255347379317,-0.209983139120134,0.0364344076358081,ST
3.7,-2.08692073822021,-0.578404247760773,9.61215782165527,-2.080806016922,0.213415995240211,-2.33233189582825,-1080.30004882812,-7.50000047683716,-952.500061035156,2.33053395438777,-0.213530402210251,0.0646135371729201,ST
3.73333333333333,-2.26576566696167,-0.432457357645035,9.11629676818848,-2.32470989227295,0.78506600856781,-1.56251001358032,-1085.10009765625,0.300000011920929,-945.300048828125,2.33870616731558,-0.244554521867569,0.0521617308317388,ST
3.76666666666667,-2.27174711227417,-0.296678900718689,9.14441013336182,-2.39330792427063,0.975615978240967,0.236281991004944,-1085.10009765625,-2.10000014305115,-935.700012207031,2.32543012372884,-0.245096132308276,0.0365226279820356,ST
3.8,-1.45946884155273,-0.461168229579926,8.63957691192627,-2.41617393493652,0.548784017562866,1.41006994247437,-1082.70007324219,-1.5,-942.900024414062,2.31007429751817,-0.168250545687694,0.057125188012072,ST
3.83333333333333,-1.7065018415451,-0.765622973442078,8.95121002197266,-2.36281991004944,0.266770005226135,1.76068198680878,-1094.70007324219,-5.10000038146973,-947.700012207031,2.29088571914232,-0.188446430112158,0.0888641124842918,ST
3.86666666666667,-2.52236890792847,-0.981552600860596,9.10373592376709,-2.13416004180908,1.17378795146942,1.94360995292664,-1077.90002441406,-2.70000004768372,-940.500061035156,2.26760443452578,-0.271203271053059,0.110249035807304,ST
3.9,-2.72334504127502,-1.25011885166168,8.93326568603516,-1.96647596359253,2.03507399559021,1.89025592803955,-1077.90002441406,-3.90000009536743,-947.700012207031,2.25207524061844,-0.297185557250136,0.141610583997217,ST
3.93333333333333,-2.64558625221252,-1.5683308839798,9.28138446807861,-1.89025592803955,2.11129403114319,1.10518991947174,-1075.5,0.900000035762787,-950.100036621094,2.24587140977142,-0.277954268048261,0.17031826956767,ST
3.96666666666667,-2.53612613677979,-1.41640257835388,9.09416580200195,-1.49391198158264,1.37195992469788,0.548784017562866,-1077.90002441406,5.70000028610229,-940.500061035156,2.23395260510549,-0.271396643853148,0.156957406364509,ST
4.0,-2.65814733505249,-1.56892895698547,8.87105846405029,-1.6920839548111,0.899396002292633,0.0076219998300075,-1065.90002441406,-2.70000004768372,-969.300048828125,2.23601893423809,-0.288463900018796,0.178071730539504,ST
4.03333333333333,-2.84716057777405,-1.63532292842865,8.65273666381836,-1.6692179441452,0.670735955238342,-0.144817993044853,-1073.10009765625,5.10000038146973,-945.300048828125,2.23673370704502,-0.313805673177249,0.189850326497045,ST
4.06666666666667,-3.03916454315186,-1.92123520374298,9.35316181182861,-1.6844619512558,1.2423859834671,0.137196004390717,-1073.10009765625,2.70000004768372,-952.500061035156,2.23713785229728,-0.31032469130366,0.205589094898391,ST
4.1,-2.88962864875793,-1.94815170764923,9.78322601318359,-1.76830399036407,0.25152599811554,-0.0304879993200302,-1068.30004882812,-5.10000038146973,-952.500061035156,2.2303657777244,-0.282387276220024,0.199688103823902,ST
4.13333333333333,-2.97635936737061,-1.92960917949677,9.34478759765625,-1.15092194080353,-0.983237981796265,0.228659987449646,-1063.5,0.300000011920929,-954.900024414062,2.22313908998087,-0.300758201580315,0.205407220414987,ST
4.16666666666667,-2.65216588973999,-2.12161302566528,9.26702880859375,-1.38720393180847,-1.6920839548111,0.823175966739655,-1063.5,5.10000038146973,-954.900024414062,2.21266417697401,-0.269520082062919,0.226904675341111,ST
4.2,-2.67070841789246,-2.07017278671265,9.27839374542236,-1.2347639799118,-1.92836594581604,1.11281192302704,-1065.90002441406,4.5,-964.500061035156,2.19035030124581,-0.271016015376943,0.220948359344091,ST
4.23333333333333,-2.54390215873718,-1.96609592437744,9.05588436126709,-0.685979962348938,-1.63110792636871,1.76830399036407,-1080.30004882812,12.9000005722046,-952.500061035156,2.16244075387332,-0.265790763432345,0.214002300014418,ST
4.26666666666667,-2.39436626434326,-1.8105788230896,8.71913051605225,-0.46494197845459,-1.31098401546478,2.10367202758789,-1073.10009765625,10.5,-952.500061035156,2.13403541773464,-0.261169934844158,0.204476908181507,ST
4.3,-2.20774579048157,-1.81416761875153,8.54626655578613,-0.602137982845306,-0.846041977405548,2.22562384605408,-1085.10009765625,12.9000005722046,-952.500061035156,2.10863800049666,-0.246885144846487,0.209184465060537,ST
4.33333333333333,-2.3877866268158,-2.09649109840393,9.10612869262695,-0.945127964019775,-0.548784017562866,1.51677799224854,-1077.90002441406,10.5,-954.900024414062,2.09176125710119,-0.249841401771517,0.227218131173589,ST
4.36666666666667,-2.62584757804871,-2.16348314285278,9.23114013671875,-0.823175966739655,-0.548784017562866,0.99848198890686,-1080.30004882812,9.90000057220459,-954.900024414062,2.07880167305339,-0.269635984052158,0.231118496009172,ST
4.4,-2.84775876998901,-2.28729867935181,9.12766170501709,-0.533540010452271,-0.487807989120483,0.746955990791321,-1077.90002441406,11.7000007629395,-954.900024414062,2.07179762395982,-0.293357332742049,0.246016265639707,ST
4.43333333333333,-2.8842453956604,-2.17006278038025,8.70477485656738,-0.457319974899292,-0.213415995240211,0.975615978240967,-1077.90002441406,4.5,-954.900024414062,2.05943199473837,-0.311105770432195,0.244554462815532,ST
4.46666666666667,-2.83340334892273,-2.29328012466431,8.74784088134766,-0.579271972179413,-0.0076219998300075,1.42531394958496,-1070.70007324219,14.1000003814697,-935.700012207031,2.04676573503601,-0.304244555498176,0.25663278219656,ST
4.5,-2.66053986549377,-2.21851229667664,8.55583667755127,-0.724089980125427,-0.297257989645004,1.49391198158264,-1082.70007324219,8.70000076293945,-950.100036621094,2.02671193703467,-0.29253729037977,0.254175470449895,ST
4.53333333333333,-2.57261300086975,-2.2591860294342,8.45355415344238,-0.655492007732391,-0.335367977619171,1.60824191570282,-1075.5,12.3000001907349,-959.700012207031,2.00953393991136,-0.286110929684092,0.261442142921748,ST
4.56666666666667,-2.51459312438965,-2.28550434112549,8.74006462097168,-0.266770005226135,-0.114329993724823,1.52439999580383,-1068.30004882812,9.30000019073486,-950.100036621094,1.9897540599267,-0.271959425167451,0.255504973349182,ST
4.6,-2.70958757400513,-2.36027216911316,9.16055965423584,-0.198172003030777,-0.121951997280121,1.44055795669556,-1075.5,12.9000005722046,-952.500061035156,1.97314941256746,-0.279381016864354,0.25180516870226,ST
4.63333333333333,-2.86869359016418,-2.3997495174408,9.17252254486084,0.259148001670837,0.0,1.31860601902008,-1082.70007324219,11.7000007629395,-962.100036621094,1.96066445650144,-0.294384331457715,0.254760250596084,ST
4.66666666666667,-3.07684755325317,-2.42487168312073,9.48236083984375,0.419209986925125,0.304879993200302,1.34909391403198,-1075.5,12.3000001907349,-950.100036621094,1.94745572573982,-0.305673539740912,0.248952135932479,ST
4.7,-2.8902268409729,-2.32916879653931,9.23891639709473,0.67835795879364,0.350611984729767,1.30336201190948,-1092.30004882812,6.90000009536743,-962.100036621094,1.9361678679383,-0.295669891799604,0.245149555351469,ST
4.73333333333333,-2.87706780433655,-2.12340760231018,8.98649978637695,0.746955990791321,0.640248000621796,1.52439999580383,-1073.10009765625,13.5000009536743,-952.500061035156,1.9194727933162,-0.303734489617614,0.230002332106823,ST
4.76666666666667,-2.74607443809509,-2.10426688194275,8.85789966583252,0.716467976570129,0.945127964019775,1.60061991214752,-1082.70007324219,11.7000007629395,-950.100036621094,1.90809673158079,-0.295193187475601,0.231273195866156,ST
4.8,-2.7562427520752,-2.06957459449768,8.75442028045654,0.442075997591019,1.265251994133,1.44055795669556,-1077.90002441406,7.50000047683716,-945.300048828125,1.8977372275686,-0.300035869191342,0.230770381244863,ST
4.83333333333333,-2.88544178009033,-2.11682796478271,8.76279449462891,0.503051996231079,1.55488801002502,1.265251994133,-1065.90002441406,18.3000011444092,-947.700012207031,1.89184557287268,-0.312920561602508,0.235660200065168,ST
4.86666666666667,-2.8262255191803,-2.12938904762268,8.70537281036377,0.548784017562866,1.62348592281342,1.08232402801514,-1068.30004882812,14.1000003814697,-954.900024414062,1.8875902574001,-0.308686504497965,0.238566132287272,ST
4.9,-2.89261937141418,-2.01574182510376,8.61146450042725,0.617381989955902,1.56251001358032,0.907018005847931,-1073.10009765625,9.90000057220459,-952.500061035156,1.88113362202881,-0.319106320157276,0.228560198783752,ST
4.93333333333333,-3.01763129234314,-2.11204290390015,8.84115123748779,0.670735955238342,1.34909391403198,1.08994603157043,-1061.10009765625,14.7000007629395,-959.700012207031,1.87703856550983,-0.323256379380193,0.232883696779639,ST
4.96666666666667,-2.90518045425415,-2.1592960357666,8.74963569641113,0.823175966739655,0.975615978240967,0.952749967575073,-1063.5,7.50000047683716,-954.900024414062,1.87487150422054,-0.31389943293175,0.24012037905038,ST
5.0,-3.10615634918213,-2.28610253334045,8.84593677520752,0.800309956073761,0.967993974685669,0.746955990791321,-1065.90002441406,13.5000009536743,-969.300048828125,1.87610467782135,-0.329666437764175,0.251213711732758,ST
5.03333333333333,-2.91774129867554,-2.19937181472778,9.19465351104736,1.05945801734924,0.472563982009888,0.510673999786377,-1061.10009765625,6.30000019073486,-962.100036621094,1.86979378869449,-0.300366466692445,0.232736441012823,ST
5.06666666666667,-3.27184200286865,-1.92901110649109,8.84234714508057,1.47104597091675,0.144817993044853,0.548784017562866,-1056.30004882812,16.5,-966.900024414062,1.8633166717394,-0.34732446600058,0.21191452015959,ST
5.1,-3.18451309204102,-1.71188521385193,8.63180160522461,1.50153398513794,0.541162014007568,1.05945801734924,-1068.30004882812,11.1000003814697,-947.700012207031,1.85272460289415,-0.34850086134139,0.192579256728052,ST
5.13333333333333,-3.31550645828247,-1.36675667762756,8.53370571136475,1.45580196380615,0.510673999786377,1.41006994247437,-1051.5,5.70000028610229,-964.500061035156,1.83198069014589,-0.36756924406587,0.155407394992156,ST
5.16666666666667,-3.27244019508362,-1.31172752380371,8.53490161895752,1.2500079870224,0.426831990480423,1.65397393703461,-1063.5,8.70000076293945,-952.500061035156,1.81858905434748,-0.363415550092156,0.149275881883779,ST
5.2,-3.23834609985352,-1.3039516210556,8.79987907409668,0.78506600856781,0.182927995920181,1.21189796924591,-1049.10009765625,11.7000007629395,-954.900024414062,1.80718142326908,-0.349738568004972,0.144992508232823,ST
5.23333333333333,-3.17015767097473,-1.23935222625732,8.63539028167725,0.891773998737335,0.365855991840363,0.78506600856781,-1049.10009765625,3.90000009536743,-952.500061035156,1.8014071641127,-0.349377284585034,0.140530848557464,ST
5.26666666666667,-3.23176646232605,-1.32668113708496,8.6144552230835,0.769822001457214,1.00610399246216,0.0457319989800453,-1051.5,12.3000001907349,-947.700012207031,1.80958707140331,-0.356816728664042,0.151530185712589,ST
5.3,-3.46623849868774,-1.30335354804993,9.01222038269043,0.99848198890686,0.884151995182037,-0.518296003341675,-1061.10009765625,5.70000028610229,-945.300048828125,1.81676041667486,-0.365114738133685,0.14231343230897,ST
5.33333333333333,-3.97047305107117,-1.1155366897583,9.66778469085693,1.88263392448425,0.434453994035721,-0.602137982845306,-1056.30004882812,6.90000009536743,-954.900024414062,1.82080879406868,-0.388000956476302,0.112063818385883,ST
5.36666666666667,-3.76830077171326,-0.820053994655609,9.35017108917236,2.23324584960938,0.175305992364883,-0.579271972179413,-1034.70007324219,2.70000004768372,-959.700012207031,1.82587451605427,-0.382004234158548,0.0840090189300834,ST
5.4,-3.38728356361389,-0.583787560462952,8.27052307128906,2.23324584960938,0.685979962348938,-0.586893975734711,-1051.5,12.9000005722046,-952.500061035156,1.83514759985502,-0.388974837037607,0.0670336942066878,ST
5.43333333333333,-3.79043197631836,-0.602329969406128,8.54028511047363,1.84452390670776,1.18903195858002,-0.556405961513519,-1056.30004882812,11.7000007629395,-957.300048828125,1.8498913316514,-0.418782962849684,0.0676877845945878,ST
5.46666666666667,-3.96209907531738,-0.560459971427917,8.85251617431641,1.61586391925812,0.815553963184357,-0.419209986925125,-1046.70007324219,8.10000038146973,-957.300048828125,1.85898093528897,-0.421459975321015,0.0607773585063432,ST
5.5,-4.09787750244141,-0.753660142421722,8.71733570098877,1.38720393180847,0.243903994560242,-0.129574000835419,-1039.5,9.30000019073486,-957.300048828125,1.87699651283823,-0.438399212164232,0.0839360123226086,ST
5.53333333333333,-4.51358699798584,-0.723752975463867,8.89199352264404,1.01372599601746,0.259148001670837,0.106707997620106,-1041.90002441406,4.5,-950.100036621094,1.8791245800674,-0.468830057872718,0.0793722272305066,ST
5.56666666666667,-4.58656024932861,-0.674705266952515,8.89857292175293,0.46494197845459,0.129574000835419,0.640248000621796,-1044.30004882812,9.90000057220459,-950.100036621094,1.87256058778893,-0.475054132695846,0.0743019485874501,ST
5.6,-4.32098484039307,-0.782969176769257,8.60368824005127,0.106707997620106,0.0457319989800453,0.937505960464478,-1039.5,6.90000009536743,-945.300048828125,1.87098091180144,-0.464005655634268,0.0897481556661619,ST
5.63333333333333,-3.91424751281738,-0.75545459985733,8.51217269897461,-0.381099998950958,-0.289635986089706,0.78506600856781,-1017.90002441406,5.10000038146973,-964.500061035156,1.86039183305513,-0.429151065449484,0.0885384358410661,ST
5.66666666666667,-3.74198246002197,-0.82962429523468,8.440993309021,-0.495429992675781,-0.525918006896973,0.701223969459534,-1039.5,5.70000028610229,-952.500061035156,1.8546831433181,-0.414712789466167,0.0982545875971172,ST
5.7,-3.90647172927856,-0.857138872146606,8.59292221069336,-0.426831990480423,-0.327746003866196,0.503051996231079,-1025.10009765625,6.90000009536743,-952.500061035156,1.84783314193589,-0.424337787620344,0.0997446340309093,ST
5.73333333333333,-3.9238178730011,-0.791941285133362,8.62223052978516,-0.236281991004944,0.0152439996600151,0.731711983680725,-1025.10009765625,1.5,-947.700012207031,1.83583708660779,-0.42563291196051,0.0914318744206001,ST
5.76666666666667,-3.93637895584106,-0.852353751659393,8.61565113067627,-0.0914639979600906,0.3125019967556,0.685979962348938,-1027.5,6.90000009536743,-942.900024414062,1.83174358821474,-0.427387906202514,0.098248055960136,ST
5.8,-4.25578737258911,-0.992319166660309,8.88481616973877,-0.0838419944047928,0.6250039935112,0.411587983369827,-1037.10009765625,6.90000009536743,-942.900024414062,1.83340368734461,-0.445447819149601,0.111083026842039,ST
5.83333333333333,-4.08531665802002,-1.35299944877625,8.89857292175293,0.175305992364883,0.823175966739655,-0.411587983369827,-1029.90002441406,5.70000028610229,-954.900024414062,1.85629969006926,-0.427398634078021,0.150987397415715,ST
5.86666666666667,-4.15171051025391,-1.15022897720337,8.66529750823975,0.6250039935112,1.20427596569061,-1.13567793369293,-1032.30004882812,2.70000004768372,-947.700012207031,1.86391507686401,-0.445223777311932,0.131956383866832,ST
5.9,-3.86280727386475,-0.993515491485596,8.49662113189697,0.861285984516144,1.08994603157043,-1.47866797447205,-1017.90002441406,3.30000019073486,-964.500061035156,1.87826533620569,-0.425739389214315,0.116166059364491,ST
5.93333333333333,-3.91664028167725,-0.811081886291504,8.59531402587891,1.05183601379395,0.701223969459534,-1.42531394958496,-1025.10009765625,6.90000009536743,-947.700012207031,1.88961918564479,-0.426876138774969,0.0934341252975638,ST
5.96666666666667,-4.10684967041016,-0.964804589748383,9.15338230133057,1.09756803512573,0.914639949798584,-0.739333987236023,-1022.70001220703,0.900000035762787,-938.100036621094,1.93383438305988,-0.421142077733645,0.103750714338996,ST
6.0,-3.98662281036377,-0.994113624095917,8.72391510009766,1.01372599601746,1.16616594791412,-0.92988395690918,-1029.90002441406,0.900000035762787,-942.900024414062,1.95253580826492,-0.42804370148299,0.112530451127322,ST
6.03333333333333,-4.08950328826904,-1.07725548744202,8.4236478805542,0.518296003341675,1.28049600124359,-0.960371971130371,-1005.90002441406,2.70000004768372,-950.100036621094,1.97221550296792,-0.450777547648817,0.127224074845366,ST
6.06666666666667,-4.3520884513855,-1.21841728687286,8.45654487609863,0.708845973014832,1.22714197635651,-1.05945801734924,-1022.70001220703,9.90000057220459,-947.700012207031,1.99511245579462,-0.472972742376758,0.142944637917725,ST
6.1,-4.19118785858154,-1.08443319797516,7.91044092178345,0.419209986925125,1.2423859834671,-1.13567793369293,-1015.50006103516,3.30000019073486,-935.700012207031,2.00691766580907,-0.485256284950055,0.136701821215357,ST
6.13333333333333,-4.70140361785889,-0.952841758728027,7.97444200515747,0.205793991684914,1.04421401023865,-0.518296003341675,-998.700012207031,3.30000019073486,-950.100036621094,2.00561817291913,-0.531290252617521,0.119227543964632,ST
6.16666666666667,-4.7127685546875,-0.984543323516846,7.58923816680908,0.266770005226135,0.891773998737335,0.144817993044853,-989.100036621094,4.5,-945.300048828125,2.01176657843227,-0.553542205600127,0.128509643476388,ST
6.2,-4.57100868225098,-0.75246387720108,7.78064393997192,-0.716467976570129,0.182927995920181,0.731711983680725,-1008.30004882812,6.30000019073486,-954.900024414062,1.98482623260487,-0.529589115213643,0.0969495097337979,ST
6.23333333333333,-4.98372745513916,-0.994711756706238,8.35665512084961,-1.11281192302704,-0.297257989645004,1.2500079870224,-1003.50006103516,6.30000019073486,-957.300048828125,1.97728674939634,-0.534404700736032,0.119090507140265,ST
6.26666666666667,-4.20973014831543,-1.13647162914276,8.33751487731934,-2.30946588516235,-0.670735955238342,1.07470202445984,-1005.90002441406,6.30000019073486,-947.700012207031,1.9617301291672,-0.462993558775072,0.138493110423089,ST
6.3,-3.53861379623413,-1.21542656421661,7.98221778869629,-2.46952795982361,-1.97409796714783,0.647870004177094,-998.700012207031,14.7000007629395,-959.700012207031,1.94820923306762,-0.409846839143939,0.154696759584563,ST
6.33333333333333,-3.78923583030701,-1.51449799537659,8.02648067474365,-3.22410583496094,-1.85976791381836,0.78506600856781,-1003.50006103516,7.50000047683716,-954.900024414062,1.93737732455262,-0.431423918811627,0.191207533638705,ST
6.36666666666667,-3.53622126579285,-2.00258255004883,8.46312522888184,-3.26983785629272,-2.26373386383057,1.11281192302704,-1010.70001220703,2.70000004768372,-952.500061035156,1.92566755951628,-0.382833694314449,0.236907250003457,ST
6.4,-3.50033259391785,-2.44819927215576,8.49602317810059,-2.66770005226135,-1.17378795146942,1.19665396213531,-1005.90002441406,9.90000057220459,-950.100036621094,1.91510932762867,-0.375578618180449,0.284188916178363,ST
6.43333333333333,-4.01832437515259,-2.64020299911499,8.76399040222168,-1.31098401546478,0.129574000835419,0.655492007732391,-1003.50006103516,12.3000001907349,-945.300048828125,1.90743017884078,-0.414211165636269,0.294438835680312,ST
6.46666666666667,-4.04284811019897,-2.33455204963684,8.55523872375488,0.25152599811554,0.792688012123108,0.754577994346619,-1005.90002441406,8.10000038146973,-952.500061035156,1.8916038180205,-0.42941412191077,0.265554483696861,ST
6.5,-4.65415048599243,-2.50143384933472,8.28846740722656,0.99848198890686,0.327746003866196,1.15092194080353,-1005.90002441406,12.3000001907349,-957.300048828125,1.89757282178644,-0.494363709039034,0.290409084095587,ST
6.53333333333333,-4.51777362823486,-2.61388468742371,8.18797874450684,0.342989981174469,-0.0381099991500378,0.792688012123108,-1005.90002441406,12.3000001907349,-952.500061035156,1.8996810952046,-0.48429421534454,0.307700879159164,ST
6.56666666666667,-5.10036516189575,-2.51040601730347,8.88242340087891,0.106707997620106,-0.0152439996600151,0.792688012123108,-1008.30004882812,6.90000009536743,-940.500061035156,1.8767210557312,-0.505153473666859,0.274525277256792,ST
6.6,-4.52554988861084,-2.31600952148438,8.80167388916016,0.182927995920181,-0.411587983369827,0.907018005847931,-1003.50006103516,6.90000009536743,-940.500061035156,1.85949476972074,-0.461167867543978,0.256138096965212,ST
6.63333333333333,-4.04225015640259,-2.14972591400146,7.85780429840088,0.6250039935112,-0.746955990791321,1.44817996025085,-1010.70001220703,9.90000057220459,-950.100036621094,1.8380746016466,-0.459999484930392,0.264574993739747,ST
6.66666666666667,-3.92621040344238,-2.18202567100525,7.8356728553772,0.769822001457214,-0.289635986089706,1.51677799224854,-1020.30004882812,14.7000007629395,-942.900024414062,1.82746965457508,-0.449933106918114,0.268950718484516,ST
6.7,-4.37302303314209,-2.08452820777893,8.21669006347656,0.853663980960846,-0.121951997280121,1.35671591758728,-1015.50006103516,11.7000007629395,-947.700012207031,1.80824544712579,-0.476621005387424,0.245762491318,ST
6.73333333333333,-4.32876062393188,-1.94934797286987,8.20652198791504,0.693601965904236,-0.602137982845306,1.28049600124359,-1010.70001220703,11.7000007629395,-942.900024414062,1.7913673102144,-0.473641415610947,0.230772153542353,ST
6.76666666666667,-4.18341207504272,-1.77050316333771,8.18379211425781,0.46494197845459,-1.02897000312805,1.21189796924591,-1017.90002441406,9.90000057220459,-954.900024414062,1.77101347121841,-0.462040462423003,0.211038664374266,ST
6.8,-4.16187858581543,-1.50672209262848,8.22207355499268,0.350611984729767,-1.34909391403198,1.51677799224854,-1025.10009765625,10.5,-959.700012207031,1.7414805867616,-0.460117050377199,0.179145375736599,ST
6.83333333333333,-4.21391725540161,-1.56294763088226,8.31897258758545,0.228659987449646,-1.04421401023865,2.00458598136902,-1015.50006103516,4.5,-940.500061035156,1.72209576930444,-0.460759262704279,0.183438518233787,ST
6.86666666666667,-4.63859891891479,-1.67599666118622,8.88900279998779,0.266770005226135,-0.282013982534409,2.14178204536438,-1020.30004882812,10.5,-942.900024414062,1.70262694695149,-0.474029515463244,0.18396240445171,ST
6.9,-4.53212928771973,-1.33565330505371,8.81124401092529,0.434453994035721,-0.0685980021953583,2.11891603469849,-1015.50006103516,5.10000038146973,-952.500061035156,1.66781421617159,-0.47089206283419,0.147828859356886,ST
6.93333333333333,-3.78564691543579,-1.44331896305084,8.81124401092529,0.480185985565186,-0.853663980960846,2.01220798492432,-1010.70001220703,10.5,-940.500061035156,1.65141620551743,-0.400112942129304,0.159954560581138,ST
6.96666666666667,-3.30832886695862,-1.60302317142487,8.46372318267822,0.525918006896973,-1.86738991737366,1.07470202445984,-1032.30004882812,9.30000019073486,-942.900024414062,1.647614368178,-0.36383631088658,0.185326178642164,ST
7.0,-3.13606357574463,-1.42477655410767,7.68553924560547,0.67835795879364,-1.2576299905777,0.342989981174469,-1020.30004882812,9.30000019073486,-957.300048828125,1.64319710763198,-0.37949408991731,0.181726192076214,ST
7.03333333333333,-3.37412452697754,-1.67958545684814,8.76997184753418,1.01372599601746,0.335367977619171,0.0304879993200302,-1022.70001220703,2.70000004768372,-950.100036621094,1.64995284601678,-0.361872481432698,0.1874756746027,ST
7.06666666666667,-4.04344654083252,-1.51090919971466,8.40749740600586,1.58537602424622,0.297257989645004,-0.388722002506256,-1017.90002441406,10.5,-954.900024414062,1.65678812529274,-0.44245502757367,0.175410182665519,ST
7.1,-4.72891855239868,-1.36496222019196,8.405104637146,1.49391198158264,1.46342396736145,0.457319974899292,-1029.90002441406,0.900000035762787,-942.900024414062,1.65516379659006,-0.509576489534298,0.158176094380133,ST
7.13333333333333,-4.6170654296875,-1.64549136161804,8.67546558380127,0.891773998737335,1.15854394435883,0.701223969459534,-1005.90002441406,6.30000019073486,-947.700012207031,1.66808456288927,-0.484003762156818,0.185444678572887,ST
7.16666666666667,-4.45078182220459,-1.39905643463135,8.59411811828613,0.266770005226135,-0.0762199983000755,0.3125019967556,-1001.10003662109,15.9000005722046,-947.700012207031,1.65471115501333,-0.472492631585499,0.160630129827181,ST
7.2,-4.26176881790161,-1.33505511283875,8.56002426147461,0.37347799539566,-0.541162014007568,0.579271972179413,-1001.10003662109,6.30000019073486,-947.700012207031,1.64675789167077,-0.456391660297612,0.153506340417614,ST
7.23333333333333,-3.95492124557495,-1.275838971138,8.28727054595947,0.525918006896973,-0.914639949798584,0.983237981796265,-1003.50006103516,15.9000005722046,-940.500061035156,1.63634734607868,-0.439413100016579,0.150923540681214,ST
7.26666666666667,-3.38788175582886,-1.29916656017303,8.08629512786865,0.243903994560242,-0.830797970294952,0.571649968624115,-1017.90002441406,6.90000009536743,-952.500061035156,1.63338597972104,-0.390977015050465,0.158371067054526,ST
7.3,-4.23903942108154,-0.91276615858078,9.12287616729736,0.205793991684914,-0.777444005012512,0.754577994346619,-1013.10003662109,18.3000011444092,-942.900024414062,1.6021236305102,-0.431838268704212,0.0987255624865495,ST
7.33333333333333,-4.18101930618286,-1.10477006435394,8.77415943145752,-0.327746003866196,0.365855991840363,1.45580196380615,-1029.90002441406,4.5,-950.100036621094,1.57953402243537,-0.442586497684656,0.124667872279866,ST
7.36666666666667,-4.28988122940063,-1.2698575258255,8.78552436828613,-0.25152599811554,0.365855991840363,1.08994603157043,-1008.30004882812,14.7000007629395,-962.100036621094,1.57617258977573,-0.451071362804453,0.14310782361246,ST
7.4,-4.39934158325195,-1.35898077487946,8.54447269439697,-0.121951997280121,0.282013982534409,0.46494197845459,-1005.90002441406,11.1000003814697,-940.500061035156,1.57794298275133,-0.471015685954557,0.15756374729474,ST
7.43333333333333,-4.58297157287598,-1.33445692062378,8.49542427062988,0.221037998795509,0.327746003866196,0.160062000155449,-1008.30004882812,9.90000057220459,-938.100036621094,1.57700185434948,-0.490241233470218,0.155321779931775,ST
7.46666666666667,-4.53870868682861,-1.3458217382431,8.488844871521,0.350611984729767,0.0533539988100529,-0.0609759986400604,-1008.30004882812,4.5,-952.500061035156,1.58009691498441,-0.485929810833408,0.156682033571496,ST
7.5,-4.27612400054932,-1.04675018787384,8.15328693389893,0.365855991840363,-0.0990860015153885,-0.0990860015153885,-1010.70001220703,6.30000019073486,-930.900024414062,1.56905951639059,-0.479483992758831,0.127139172402562,ST
7.53333333333333,-4.35687351226807,-1.04914271831512,7.94393682479858,0.434453994035721,0.144817993044853,-0.0381099991500378,-1005.90002441406,10.5,-942.900024414062,1.57349121616497,-0.498250375109385,0.130602285004169,ST
7.56666666666667,-4.66611337661743,-1.28839993476868,8.48226547241211,-0.0,0.579271972179413,0.0533539988100529,-996.300048828125,2.70000004768372,-938.100036621094,1.58348772124901,-0.499133583061034,0.150770613530566,ST
7.6,-4.48487615585327,-1.32847559452057,8.20951271057129,-0.0990860015153885,0.564027965068817,-0.403965979814529,-1015.50006103516,9.30000019073486,-947.700012207031,1.59257963151231,-0.495441657254404,0.161059734796091,ST
7.63333333333333,-4.44121170043945,-1.40443968772888,8.00674152374268,-0.167683988809586,0.83841997385025,-0.815553963184357,-1013.10003662109,12.9000005722046,-947.700012207031,1.60837776621077,-0.501223890779824,0.174837901362079,ST
7.66666666666667,-4.35747146606445,-1.50193703174591,8.1072301864624,-0.472563982009888,0.548784017562866,-1.15092194080353,-1020.30004882812,12.3000001907349,-947.700012207031,1.62359450452969,-0.486752153906576,0.185142496045457,ST
7.7,-4.44838905334473,-1.67779099941254,8.35904788970947,-0.205793991684914,0.0076219998300075,-1.21951997280121,-1008.30004882812,10.5,-950.100036621094,1.64084958572548,-0.480497127528928,0.19952475648389,ST
7.73333333333333,-4.15709352493286,-1.81715834140778,8.24719524383545,-0.190549999475479,-0.358233988285065,-1.28811800479889,-1003.50006103516,11.1000003814697,-940.500061035156,1.66026640955879,-0.456343993516685,0.218208863108323,ST
7.76666666666667,-3.72762703895569,-1.71367967128754,7.81354141235352,-0.144817993044853,-0.685979962348938,-1.34909391403198,-1003.50006103516,12.9000005722046,-962.100036621094,1.67070798306304,-0.434411518360626,0.217104867111567,ST
7.8,-4.11163473129272,-1.77648460865021,8.51456546783447,-0.663114011287689,-0.975615978240967,-1.05945801734924,-1005.90002441406,16.5,-947.700012207031,1.67183857591056,-0.439533157544616,0.207539639136318,ST
7.83333333333333,-4.21212291717529,-1.82254159450531,8.41826438903809,-0.548784017562866,-0.685979962348938,-0.419209986925125,-1005.90002441406,9.90000057220459,-952.500061035156,1.67478205913305,-0.453497598153739,0.214387446866213,ST
7.86666666666667,-3.8957052230835,-1.99839568138123,8.86627292633057,-0.739333987236023,-0.510673999786377,-0.0609759986400604,-1005.90002441406,6.90000009536743,-957.300048828125,1.67457086808265,-0.404074929151076,0.22293514647583,ST
7.9,-3.96508979797363,-2.02052688598633,8.57796859741211,0.121951997280121,-0.647870004177094,0.0304879993200302,-1008.30004882812,7.50000047683716,-940.500061035156,1.67642150351418,-0.421702752238025,0.230977976589756,ST
7.93333333333333,-3.99619317054749,-2.00736784934998,8.49721908569336,0.282013982534409,-0.304879993200302,-0.152439996600151,-1015.50006103516,9.90000057220459,-940.500061035156,1.67872027901804,-0.428653040285031,0.231554964403803,ST
7.96666666666667,-3.74258065223694,-2.02591013908386,8.2322416305542,0.160062000155449,-0.403965979814529,-0.510673999786377,-1003.50006103516,16.5,-945.300048828125,1.68800191280391,-0.414828418007146,0.241325725411494,ST
8.0,-3.75155282020569,-2.08811712265015,8.40749740600586,-0.266770005226135,-0.807931959629059,-1.05945801734924,-1020.30004882812,12.3000001907349,-945.300048828125,1.69648721005171,-0.406864753809474,0.244528920125208,ST
8.03333333333333,-3.8998920917511,-2.39855337142944,8.81961822509766,-0.297257989645004,-0.87652999162674,-1.18140995502472,-1008.30004882812,13.5000009536743,-923.700012207031,1.71312576152853,-0.401281997346171,0.266716329789036,ST
8.06666666666667,-3.79222655296326,-2.53313541412354,8.14790344238281,-0.129574000835419,-0.297257989645004,-1.10518991947174,-1017.90002441406,8.10000038146973,-947.700012207031,1.73646167700481,-0.417143649846165,0.3023774082242,ST
8.1,-4.20135641098022,-2.42666602134705,8.35844993591309,0.0228659994900227,0.899396002292633,-0.640248000621796,-996.300048828125,13.5000009536743,-947.700012207031,1.73814327576679,-0.450914426832487,0.283251611105655,ST
8.13333333333333,-4.35747146606445,-2.60670709609985,8.84055328369141,0.198172003030777,0.800309956073761,-0.198172003030777,-996.300048828125,16.5,-957.300048828125,1.74468861619082,-0.442875159824709,0.286729786542123,ST
8.16666666666667,-4.09907388687134,-2.47870445251465,8.04322814941406,0.205793991684914,-0.0304879993200302,-0.0304879993200302,-1010.70001220703,10.5,-945.300048828125,1.75108181548949,-0.453147116878447,0.298592461689001,ST
8.2,-4.3664436340332,-2.53552794456482,8.17123126983643,0.152439996600151,0.0457319989800453,0.518296003341675,-1010.70001220703,21.9000015258789,-945.300048828125,1.7474873423925,-0.472242795374974,0.300183185567128,ST
8.23333333333333,-4.3664436340332,-2.70779323577881,8.41228294372559,0.198172003030777,0.129574000835419,0.663114011287689,-1015.50006103516,8.70000076293945,-940.500061035156,1.74686676710582,-0.459480243829855,0.310553649336102,ST
8.26666666666667,-3.9878191947937,-2.70181179046631,8.32914066314697,0.472563982009888,-0.320124000310898,0.510673999786377,-1010.70001220703,15.9000005722046,-940.500061035156,1.74367791821643,-0.427099788309727,0.312382089251826,ST
8.3,-3.73899173736572,-2.32976698875427,7.57428455352783,0.891773998737335,-0.78506600856781,0.518296003341675,-1010.70001220703,16.5,-938.100036621094,1.73384158959345,-0.439804662327998,0.29625983285504,ST
8.33333333333333,-4.13077545166016,-2.2532045841217,8.05399513244629,0.99848198890686,-0.548784017562866,1.08232402801514,-996.300048828125,6.90000009536743,-947.700012207031,1.71555585007545,-0.45834549139611,0.270033950970015,ST
8.36666666666667,-4.22229146957397,-2.46315264701843,8.27052307128906,0.975615978240967,-0.266770005226135,1.53964400291443,-1008.30004882812,18.3000011444092,-945.300048828125,1.71222668711127,-0.455354182097765,0.286421340758406,ST
8.4,-4.55605506896973,-2.32857060432434,9.06007194519043,0.87652999162674,-0.0533539988100529,1.39482593536377,-1015.50006103516,19.5,-950.100036621094,1.68598378325223,-0.453739716030896,0.248889102870069,ST
8.43333333333333,-3.69771981239319,-2.119220495224,8.07792091369629,0.975615978240967,-0.586893975734711,1.08232402801514,-1017.90002441406,17.1000003814697,-957.300048828125,1.68056184325859,-0.416330350377866,0.253937168035745,ST
8.46666666666667,-3.82512426376343,-1.96669411659241,8.30102825164795,0.937505960464478,-0.46494197845459,0.815553963184357,-1010.70001220703,9.30000019073486,-942.900024414062,1.66613413768263,-0.421046741424459,0.230303793907805,ST
8.5,-3.74258065223694,-1.92183339595795,8.94223785400391,0.640248000621796,-1.18903195858002,0.617381989955902,-1010.70001220703,7.50000047683716,-945.300048828125,1.65218229874208,-0.386612041855816,0.209982186234311,DLL
8.53333333333333,-3.74676752090454,-1.55218100547791,8.01391983032227,1.14329993724823,-1.28049600124359,1.20427596569061,-1015.50006103516,11.1000003814697,-954.900024414062,1.63442338556375,-0.428493856154331,0.188195792003531,DLL
8.56666666666667,-3.47999572753906,-1.64668762683868,7.92300176620483,0.403965979814529,-0.541162014007568,1.79879200458527,-1010.70001220703,12.3000001907349,-947.700012207031,1.6233224775898,-0.405848368021409,0.202803203628265,DLL
8.6,-3.97884702682495,-1.72743690013885,8.62402534484863,-0.0685980021953583,0.137196004390717,1.92836594581604,-998.700012207031,12.3000001907349,-952.500061035156,1.60121941135714,-0.425716988819488,0.196336319919206,DLL
8.63333333333333,-4.11821413040161,-2.01634001731873,9.07502555847168,-0.221037998795509,-0.129574000835419,1.65397393703461,-1022.70001220703,11.1000003814697,-945.300048828125,1.5925575810597,-0.417418874494914,0.217737756519043,DLL
8.66666666666667,-4.01712799072266,-1.04256319999695,7.32186794281006,-1.37195992469788,-3.25459384918213,1.99696397781372,-1013.10003662109,6.90000009536743,-959.700012207031,1.49737736191176,-0.492450806948453,0.141553832795413,DLL
8.7,-5.52205610275269,-1.29198884963989,7.60957479476929,-2.9192259311676,-3.20886182785034,5.18296003341675,-1015.50006103516,9.90000057220459,-935.700012207031,1.44148425165931,-0.616918496477587,0.166280507958394,DLL
8.73333333333333,-5.97365379333496,-1.57969558238983,8.75800895690918,-4.60368776321411,-2.80489587783813,8.81865406036377,-1022.70001220703,18.9000015258789,-938.100036621094,1.33536493766037,-0.589046010023081,0.175785794002729,DLL
8.76666666666667,-4.26475954055786,-1.42776727676392,7.35955095291138,-5.80034208297729,-4.83997011184692,11.722635269165,-1017.90002441406,14.1000003814697,-940.500061035156,1.18837797234179,-0.512797575585364,0.189529020186824,DLL
8.8,-4.24322605133057,-1.32967185974121,6.82660579681396,-7.85065984725952,-6.25004005432129,13.8263072967529,-1029.90002441406,18.9000015258789,-935.700012207031,1.00027334529167,-0.541654483179395,0.190581190783208,DLL
8.83333333333333,-5.15778684616089,-1.74358677864075,7.96128273010254,-9.94670963287354,-6.68449401855469,17.9879188537598,-1029.90002441406,17.1000003814697,-940.500061035156,0.777254815268964,-0.559414032865918,0.212211656043124,DLL
8.86666666666667,-4.87665987014771,-2.4936580657959,8.43022727966309,-10.6784219741821,-7.14943599700928,19.8553104400635,-1034.70007324219,29.1000003814697,-940.500061035156,0.556200725927828,-0.504261609176393,0.285917633975483,DLL
8.9,-4.37780857086182,-3.37233018875122,8.61505317687988,-10.9909238815308,-7.09608173370361,20.3888492584229,-1039.5,28.5000019073486,-933.300048828125,0.315286235457507,-0.443462981560235,0.37438802573946,DLL
8.93333333333333,-2.1012761592865,-3.66841077804565,8.02588272094727,-11.2043399810791,-7.40096187591553,17.606819152832,-1020.30004882812,31.5000019073486,-935.700012207031,0.0962810323738873,-0.235257519251816,0.440246156971003,DLL
8.96666666666667,-2.32199096679688,-3.901686668396,8.72331714630127,-9.88573360443115,-6.95126390457153,14.4589338302612,-1039.5,37.5,-923.700012207031,-0.107863787490912,-0.237901312144195,0.431050715130954,DLL
9.0,-2.20236253738403,-3.91664028167725,8.98410701751709,-6.96650791168213,-5.69363403320312,10.7470197677612,-1041.90002441406,39.9000015258789,-904.500061035156,-0.257003855588172,-0.219604617671426,0.418548056007242,DLL
9.03333333333333,-2.09649109840393,-3.73899173736572,8.90036773681641,-5.23631381988525,-4.74850606918335,8.0640754699707,-1041.90002441406,44.1000022888184,-902.100036621094,-0.37161960416414,-0.211757933031809,0.403372985425551,DLL
9.06666666666667,-2.32199096679688,-3.30653429031372,8.2621488571167,-3.59758400917053,-3.43752193450928,5.44972991943359,-1029.90002441406,36.9000015258789,-894.900024414062,-0.452953581900262,-0.253214485728305,0.384108637229817,DLL
9.1,-2.88364720344543,-3.09598803520203,8.66110992431641,-1.76068198680878,-1.60061991214752,3.49849796295166,-1034.70007324219,46.5,-887.700012207031,-0.513792203927101,-0.30323030784689,0.344292254380582,DLL
9.13333333333333,-2.80708503723145,-3.26526236534119,8.75621509552002,-0.640248000621796,-0.861285984516144,1.82165801525116,-1027.5,45.3000030517578,-911.700012207031,-0.53312273492408,-0.291510443525671,0.356994704518228,DLL
9.16666666666667,-2.83160877227783,-3.39266681671143,8.57916450500488,-0.731711983680725,-0.815553963184357,0.3125019967556,-1053.90002441406,53.7000007629395,-882.900024414062,-0.535669369194464,-0.296676422312999,0.377533268843341,DLL
9.2,-3.85144257545471,-3.12051177024841,8.21011066436768,-1.27287399768829,-0.800309956073761,-0.327746003866196,-1022.70001220703,43.5,-894.900024414062,-0.545140324944368,-0.411701726096744,0.365461804204109,DLL
9.23333333333333,-4.03208160400391,-3.15520405769348,8.30700969696045,-1.53202199935913,-0.403965979814529,0.685979962348938,-1041.90002441406,42.3000030517578,-882.900024414062,-0.560026969169089,-0.425734504147956,0.365046542875006,DLL
9.26666666666667,-2.78136491775513,-3.65644788742065,7.68075370788574,-2.09605002403259,-0.922261953353882,1.44817996025085,-1034.70007324219,45.9000015258789,-885.300048828125,-0.555354395964673,-0.315702124648248,0.446953473999814,DLL
9.3,-2.70001745223999,-3.72463631629944,7.71783876419067,-2.61434602737427,-1.96647596359253,1.53964400291443,-1039.5,47.7000007629395,-904.500061035156,-0.588442530395931,-0.303318354207423,0.452968657889303,DLL
9.33333333333333,-2.68925070762634,-3.92501425743103,7.87215948104858,-1.89787793159485,-2.03507399559021,2.23324584960938,-1037.10009765625,50.7000007629395,-880.500061035156,-0.622689881650315,-0.295270910182529,0.464287086536,DLL
9.36666666666667,-3.23057007789612,-3.82691884040833,8.54028511047363,-1.12805593013763,-1.10518991947174,2.01982998847961,-1037.10009765625,50.7000007629395,-873.300048828125,-0.665212292531634,-0.332067424997718,0.421873998943695,DLL
9.4,-3.11213779449463,-3.76531004905701,8.71913051605225,0.266770005226135,-0.388722002506256,2.11129403114319,-1049.10009765625,48.3000030517578,-890.100036621094,-0.691093042994352,-0.317496383948202,0.405995689091771,DLL
9.43333333333333,-3.13486742973328,-3.5631377696991,8.07313537597656,-0.129574000835419,-0.144817993044853,0.609759986400604,-1037.10009765625,51.3000030517578,-873.300048828125,-0.694856046543792,-0.341527580708623,0.415482631166303,DLL
9.46666666666667,-2.99669623374939,-3.63431668281555,7.54617166519165,-1.20427596569061,-0.381099998950958,-0.129574000835419,-1037.10009765625,51.3000030517578,-880.500061035156,-0.688042342565653,-0.342894502039319,0.450886532903045,DLL
9.5,-3.59902620315552,-3.64388704299927,7.85481357574463,-1.82165801525116,-0.884151995182037,0.457319974899292,-1046.70007324219,45.3000030517578,-887.700012207031,-0.708526724313079,-0.392837498311526,0.436974691898531,DLL
9.53333333333333,-3.63551306724548,-3.95910835266113,8.48824691772461,-1.37958192825317,-1.18903195858002,1.40244793891907,-1027.5,52.5000038146973,-861.300048828125,-0.734001182895974,-0.369415901502933,0.437635266629025,DLL
9.56666666666667,-2.82801985740662,-4.28509616851807,7.9433388710022,-1.34147191047668,-1.59299790859222,0.746955990791321,-1041.90002441406,50.1000022888184,-868.500061035156,-0.733815331109182,-0.301858074795579,0.496257075121756,DLL
9.6,-3.39266681671143,-3.96449160575867,8.51516342163086,-0.640248000621796,-1.6615959405899,-0.0152439996600151,-1051.5,50.7000007629395,-878.100036621094,-0.762378854916274,-0.343955723839088,0.436452632321286,DLL
9.63333333333333,-2.78734636306763,-4.25758171081543,8.17601585388184,-0.3125019967556,-1.40244793891907,-0.129574000835419,-1041.90002441406,50.7000007629395,-870.900024414062,-0.75514250764202,-0.291386032258853,0.480346808610807,DLL
9.66666666666667,-2.53732252120972,-4.36883640289307,7.92001104354858,-0.617381989955902,-0.937505960464478,-0.815553963184357,-1041.90002441406,48.3000030517578,-882.900024414062,-0.747233849519039,-0.271377644967149,0.505281303270741,DLL
9.7,-2.71556901931763,-4.07395172119141,7.58086395263672,0.411587983369827,0.0076219998300075,-0.861285984516144,-1032.30004882812,49.5000038146973,-875.700012207031,-0.740915233912064,-0.304940045329382,0.492821378509489,DLL
9.73333333333333,-2.69941926002502,-4.41369676589966,8.27770042419434,0.167683988809586,0.190549999475479,-0.830797970294952,-1032.30004882812,53.1000022888184,-868.500061035156,-0.732574476369691,-0.279811024690573,0.48997751343371,DLL
9.76666666666667,-2.86749744415283,-4.71575927734375,7.64007997512817,-0.320124000310898,-0.708845973014832,-0.701223969459534,-1046.70007324219,48.3000030517578,-873.300048828125,-0.712759162988538,-0.307433155800592,0.553650342325524,DLL
9.8,-3.27961802482605,-4.60809326171875,8.52054691314697,0.693601965904236,0.0,-0.236281991004944,-1063.5,50.7000007629395,-870.900024414062,-0.726580351392281,-0.326247168446716,0.494710410612894,DLL
9.83333333333333,-2.78256106376648,-4.358069896698,8.30342102050781,1.58537602424622,-0.0304879993200302,-0.510673999786377,-1046.70007324219,53.7000007629395,-868.500061035156,-0.721162329863344,-0.28800885592062,0.480797712077343,DLL
9.86666666666667,-2.96977996826172,-3.98722100257874,8.02229309082031,1.58537602424622,-0.114329993724823,-0.282013982534409,-1044.30004882812,52.5000038146973,-875.700012207031,-0.719646014565159,-0.319700275916706,0.45861293362972,DLL
9.9,-3.21202778816223,-4.10027027130127,8.67486763000488,2.13416004180908,0.25152599811554,-0.114329993724823,-1049.10009765625,48.3000030517578,-868.500061035156,-0.716581585153625,-0.323345069610957,0.437946765356557,DLL
9.93333333333333,-1.61259341239929,-4.45496892929077,6.76140832901001,1.6920839548111,-0.266770005226135,-1.28811800479889,-1053.90002441406,55.5000038146973,-882.900024414062,-0.665896591112914,-0.195029752838722,0.579893185865219,DLL
9.96666666666667,-4.18520641326904,-3.86519980430603,9.5266227722168,2.30946588516235,-0.0762199983000755,-1.04421401023865,-1046.70007324219,48.3000030517578,-878.100036621094,-0.704657524526883,-0.385704956826057,0.382170791201893,DLL
10.0,-1.8105788230896,-4.16307497024536,7.5790696144104,2.21037983894348,-0.0762199983000755,-1.63110792636871,-1061.10009765625,57.3000030517578,-878.100036621094,-0.647266820401977,-0.204953054429296,0.498925843458417,DLL
10.0333333333333,-2.44879722595215,-3.90288281440735,7.97204971313477,1.78354799747467,-0.967993974685669,-2.16464805603027,-1058.70007324219,54.9000015258789,-875.700012207031,-0.637082342042087,-0.26598663672485,0.452900983328756,DLL
10.0666666666667,-2.66532516479492,-3.55356740951538,8.0115270614624,2.02745199203491,-1.15854394435883,-1.44817996025085,-1056.30004882812,51.3000030517578,-885.300048828125,-0.632477665956425,-0.292345060492681,0.414411816856602,DLL
10.1,-1.31352198123932,-3.9357807636261,7.05629253387451,1.37958192825317,-0.777444005012512,-0.731711983680725,-1051.5,48.9000015258789,-909.300048828125,-0.605742225006816,-0.159392589207983,0.506428754152333,DLL
10.1333333333333,-3.19767236709595,-3.16896152496338,8.83217906951904,0.769822001457214,-0.541162014007568,-0.0914639979600906,-1063.5,44.7000007629395,-875.700012207031,-0.643981385924661,-0.327409324246482,0.343174914420918,DLL
10.1666666666667,-2.54629468917847,-3.41898512840271,8.86268424987793,1.36433792114258,-0.0914639979600906,1.36433792114258,-1061.10009765625,42.9000015258789,-880.500061035156,-0.647334300896276,-0.262628708782619,0.365176989140337,DLL
10.2,-1.98045134544373,-3.40044283866882,8.35366439819336,0.548784017562866,-0.632625997066498,0.221037998795509,-1056.30004882812,53.1000022888184,-880.500061035156,-0.645911632729981,-0.215295828941315,0.385440750830439,DLL
10.2333333333333,-2.30823373794556,-3.32627296447754,8.08569622039795,-0.0076219998300075,-0.632625997066498,-0.342989981174469,-1049.10009765625,42.3000030517578,-902.100036621094,-0.643921641061469,-0.256855296692489,0.390322869229857,DLL
10.2666666666667,-2.55945372581482,-3.72702884674072,8.39254379272461,-0.327746003866196,-0.25152599811554,-0.175305992364883,-1065.90002441406,47.1000022888184,-868.500061035156,-0.636892438490966,-0.271288579549543,0.418512913840773,DLL
10.3,-2.19219398498535,-4.00396919250488,8.25556945800781,-0.823175966739655,-0.792688012123108,-0.0228659994900227,-1065.90002441406,50.7000007629395,-885.300048828125,-0.633876735697524,-0.233284210896228,0.452862299868145,DLL
10.3333333333333,-2.33335566520691,-3.90049028396606,8.15209102630615,-1.07470202445984,-0.967993974685669,0.221037998795509,-1070.70007324219,39.3000030517578,-878.100036621094,-0.644529616866596,-0.251312648451522,0.447873393977946,DLL
10.3666666666667,-1.92243146896362,-4.15230846405029,8.20652198791504,-1.12805593013763,-1.15092194080353,1.02897000312805,-1065.90002441406,48.9000015258789,-885.300048828125,-0.657521848281647,-0.205101681615594,0.469852963489622,DLL
10.4,-2.10965037345886,-3.83888149261475,8.3997220993042,-0.274392008781433,-0.670735955238342,1.76068198680878,-1051.5,44.1000022888184,-866.100036621094,-0.687082458472169,-0.224780599303468,0.428429768406289,DLL
10.4333333333333,-2.48468589782715,-3.47640705108643,8.68204498291016,1.31098401546478,0.6250039935112,2.5076379776001,-1063.5,48.9000015258789,-870.900024414062,-0.719485718092581,-0.262302359290589,0.377603317099314,DLL
10.4666666666667,-2.92731165885925,-3.10316562652588,8.81902027130127,1.91312193870544,1.79117000102997,2.14178204536438,-1053.90002441406,53.7000007629395,-882.900024414062,-0.740574677079456,-0.307608700457012,0.33422837639756,DLL
10.5,-3.20245742797852,-3.70429944992065,9.87175178527832,0.792688012123108,1.38720393180847,1.22714197635651,-1044.30004882812,50.7000007629395,-882.900024414062,-0.738171618085992,-0.297894801773632,0.357233695150906,DLL
10.5333333333333,-2.03428435325623,-3.75992679595947,7.55933094024658,-0.571649968624115,0.655492007732391,-0.952749967575073,-1049.10009765625,46.5,-868.500061035156,-0.699603277339365,-0.236755511946729,0.462984997925716,DLL
10.5666666666667,-3.54459524154663,-3.93039751052856,8.91891002655029,-0.0838419944047928,1.41006994247437,-0.525918006896973,-1039.5,44.1000022888184,-878.100036621094,-0.702565560491267,-0.350630899642954,0.415917806972931,DLL
10.6,-2.17544603347778,-4.27911472320557,7.64905214309692,0.167683988809586,0.731711983680725,-0.457319974899292,-1053.90002441406,44.7000007629395,-885.300048828125,-0.665437573158111,-0.244032273907377,0.510076992085184,DLL
10.6333333333333,-1.62216377258301,-4.05301666259766,6.65493869781494,-0.37347799539566,0.3125019967556,-0.571649968624115,-1077.90002441406,45.9000015258789,-890.100036621094,-0.650529070599582,-0.205208615657589,0.547906168827401,DLL
10.6666666666667,-2.10067820549011,-4.38259363174438,7.17412662506104,0.236281991004944,0.87652999162674,0.0381099991500378,-1046.70007324219,46.5,-887.700012207031,-0.64487581618,-0.246194549789455,0.54816117078318,DLL
10.7,-3.8598165512085,-4.346107006073,8.84174919128418,0.342989981174469,1.34909391403198,0.304879993200302,-1061.10009765625,48.3000030517578,-878.100036621094,-0.668143072505913,-0.375678353131988,0.456529978919224,DLL
10.7333333333333,-3.35259127616882,-4.55007362365723,8.82260894775391,1.18903195858002,1.59299790859222,0.487807989120483,-1051.5,45.9000015258789,-878.100036621094,-0.654742329996005,-0.328589394163471,0.474244172586283,DLL
10.7666666666667,-3.45307946205139,-3.98482847213745,8.34648704528809,0.945127964019775,0.594515979290009,-0.830797970294952,-1041.90002441406,49.5000038146973,-882.900024414062,-0.650855079661238,-0.357621532396695,0.444446840732044,DLL
10.8,-3.17434477806091,-3.9357807636261,8.21250343322754,0.571649968624115,0.282013982534409,-0.556405961513519,-1032.30004882812,48.3000030517578,-880.500061035156,-0.641710762309815,-0.335431683856257,0.446285061787114,DLL
10.8333333333333,-3.11333417892456,-4.11462545394897,8.0055456161499,-0.106707997620106,0.190549999475479,-0.670735955238342,-1049.10009765625,43.5,-882.900024414062,-0.625488977081166,-0.332766296045665,0.475346766455815,DLL
10.8666666666667,-2.69343781471252,-4.2563853263855,7.52463865280151,-0.0,0.739333987236023,-1.28811800479889,-1044.30004882812,48.9000015258789,-882.900024414062,-0.597434561847345,-0.302056607259041,0.515574658535011,DLL
10.9,-3.31610465049744,-4.32636833190918,7.69570732116699,1.18903195858002,1.81403601169586,-1.17378795146942,-1044.30004882812,50.7000007629395,-878.100036621094,-0.574681694753491,-0.361040243480398,0.511331945684183,DLL
10.9333333333333,-3.65584993362427,-4.48248338699341,7.94812393188477,1.28811800479889,1.56251001358032,-1.01372599601746,-1044.30004882812,48.3000030517578,-899.700012207031,-0.552301056598566,-0.382558576681471,0.51241350310184,DLL
10.9666666666667,-3.65584993362427,-4.53631639480591,8.0354528427124,0.701223969459534,0.861285984516144,-0.937505960464478,-1053.90002441406,43.5,-882.900024414062,-0.536428331958064,-0.377726303084511,0.513570178432708,DLL
11.0,-2.71855974197388,-4.78275108337402,7.42534685134888,-0.78506600856781,-1.39482593536377,-0.297257989645004,-1051.5,45.9000015258789,-882.900024414062,-0.52440589313205,-0.29630728861253,0.573296202271864,DLL
11.0333333333333,-3.3627598285675,-4.18520641326904,7.1406307220459,-0.342989981174469,-1.02134799957275,0.807931959629059,-1046.70007324219,51.9000015258789,-882.900024414062,-0.552653614159699,-0.385047923777385,0.529908158517745,DLL
11.0666666666667,-3.13486742973328,-3.95133256912231,7.06287240982056,1.28049600124359,0.792688012123108,1.95885396003723,-1034.70007324219,48.9000015258789,-878.100036621094,-0.569483025504696,-0.372434622529205,0.506945068633819,DLL
11.1,-3.5631377696991,-3.41360187530518,6.61905002593994,1.73781597614288,1.82165801525116,1.59299790859222,-1037.10009765625,45.9000015258789,-887.700012207031,-0.580752060853469,-0.450319028764617,0.472637410758323,DLL
11.1333333333333,-4.27732038497925,-3.40163898468018,7.84524297714233,2.20275783538818,2.02745199203491,1.6920839548111,-1044.30004882812,46.5,-897.300048828125,-0.606913567418276,-0.468235547850357,0.404637262727997,DLL
11.1666666666667,-3.6893458366394,-3.86220908164978,7.7997841835022,1.47104597091675,-0.342989981174469,0.411587983369827,-1044.30004882812,44.1000022888184,-892.500061035156,-0.583685079199997,-0.4007412469678,0.456797425047643,DLL
11.2,-4.69003915786743,-3.76650619506836,9.03255653381348,0.846041977405548,-0.87652999162674,0.304879993200302,-1041.90002441406,39.3000030517578,-894.900024414062,-0.612170780087577,-0.445677468953279,0.393100295740717,DLL
11.2333333333333,-3.40163898468018,-4.09010171890259,8.26693439483643,1.6615959405899,-1.43293595314026,1.39482593536377,-1027.5,43.5,-892.500061035156,-0.601750682814669,-0.352175182120509,0.455320023834112,DLL
11.2666666666667,-2.46733975410461,-3.84605932235718,7.66699647903442,0.640248000621796,-2.14178204536438,0.769822001457214,-1039.5,44.1000022888184,-885.300048828125,-0.615985721472353,-0.277359644392048,0.463018952876082,DLL
11.3,-1.77229762077332,-3.76710438728333,7.12986421585083,0.0914639979600906,-2.42379593849182,1.47866797447205,-1041.90002441406,45.9000015258789,-892.500061035156,-0.637937392781255,-0.21382129481363,0.484983000206706,DLL
11.3333333333333,-1.63293027877808,-3.51468801498413,6.37141895294189,-0.586893975734711,-2.10367202758789,1.6844619512558,-1053.90002441406,45.9000015258789,-892.500061035156,-0.662634317000218,-0.218956554925682,0.504145993986637,DLL
11.3666666666667,-3.59304475784302,-3.38249850273132,8.26035404205322,0.365855991840363,-0.0152439996600151,3.39178991317749,-1034.70007324219,41.7000007629395,-890.100036621094,-0.731238065487078,-0.384859959796739,0.385822731125076,DLL
11.4,-3.29995489120483,-3.73181390762329,8.58753871917725,-0.144817993044853,-0.99848198890686,1.79117000102997,-1046.70007324219,50.1000022888184,-878.100036621094,-0.746548970296045,-0.338494782337378,0.40893507773408,DLL
11.4333333333333,-3.49853825569153,-3.6074001789093,8.87165641784668,-0.891773998737335,-2.25611186027527,0.807931959629059,-1032.30004882812,52.5000038146973,-897.300048828125,-0.77383672541725,-0.34712504805997,0.386759203920504,DLL
11.4666666666667,-3.04634213447571,-3.86220908164978,8.81842136383057,-1.05945801734924,-3.20123982429504,0.114329993724823,-1041.90002441406,50.1000022888184,-878.100036621094,-0.783636035169746,-0.301446525311262,0.413890249459193,DLL
11.5,-2.73770046234131,-4.07933521270752,9.03794002532959,-1.49391198158264,-3.87959790229797,0.0838419944047928,-1032.30004882812,49.5000038146973,-885.300048828125,-0.803635116110212,-0.263285726968848,0.425798473181857,DLL
11.5333333333333,-2.28191542625427,-3.89032196998596,8.83277702331543,-1.27287399768829,-3.72715783119202,0.99848198890686,-1056.30004882812,50.1000022888184,-882.900024414062,-0.83763586982219,-0.226928916025306,0.416126044141474,DLL
11.5666666666667,-1.8446729183197,-3.5493803024292,8.73647594451904,-0.967993974685669,-2.46190595626831,1.97409796714783,-1061.10009765625,45.3000030517578,-885.300048828125,-0.877385386073878,-0.190509409860222,0.386670473005383,DLL
11.6,-1.71607220172882,-3.59065222740173,9.14441013336182,-0.609759986400604,-1.54726600646973,1.93598794937134,-1063.5,52.5000038146973,-878.100036621094,-0.906261980124582,-0.171667443844777,0.37451693927246,DLL
11.6333333333333,-1.58866775035858,-3.69353294372559,8.62761402130127,-0.571649968624115,-0.967993974685669,0.67835795879364,-1058.70007324219,45.3000030517578,-890.100036621094,-0.91403176396793,-0.166603098733377,0.405194906243439,DLL
11.6666666666667,-2.57201480865479,-3.22159814834595,8.79509449005127,-0.167683988809586,0.0152439996600151,0.46494197845459,-1053.90002441406,48.3000030517578,-887.700012207031,-0.931139585182588,-0.268273253515463,0.351214465324456,DLL
11.7,-2.32258915901184,-3.2108314037323,8.46551704406738,0.746955990791321,0.609759986400604,0.983237981796265,-1061.10009765625,47.1000022888184,-887.700012207031,-0.93454981758401,-0.252717497953762,0.360898200226062,DLL
11.7333333333333,-1.90030026435852,-3.12768959999084,8.03724670410156,0.586893975734711,0.655492007732391,0.586893975734711,-1056.30004882812,57.3000030517578,-878.100036621094,-0.934384801024093,-0.218325261275802,0.369970108926694,DLL
11.7666666666667,-2.72334504127502,-3.10256767272949,8.63000679016113,0.37347799539566,1.11281192302704,0.175305992364883,-1046.70007324219,44.7000007629395,-880.500061035156,-0.937373785213315,-0.290560434091308,0.34459242069294,DLL
11.8,-2.1090521812439,-3.40462970733643,7.98102188110352,0.0076219998300075,1.15092194080353,-0.655492007732391,-1046.70007324219,54.9000015258789,-873.300048828125,-0.909378504545183,-0.239847781032414,0.403645125609136,DLL
11.8333333333333,-2.69642853736877,-3.62773704528809,8.51336860656738,-0.190549999475479,1.21189796924591,-1.12043392658234,-1046.70007324219,55.5000038146973,-880.500061035156,-0.893095694710683,-0.284691570588805,0.403922224297467,DLL
11.8666666666667,-2.11204290390015,-4.13077545166016,7.93197393417358,-0.632625997066498,0.769822001457214,-1.55488801002502,-1056.30004882812,51.9000015258789,-878.100036621094,-0.855329242125243,-0.231863145120577,0.481927048294349,DLL
11.9,-2.35488891601562,-4.17503786087036,8.01212501525879,-0.602137982845306,0.853663980960846,-1.58537602424622,-1063.5,49.5000038146973,-878.100036621094,-0.836222117231546,-0.255009761286765,0.482246669064348,DLL
11.9333333333333,-2.2310733795166,-4.37362146377563,7.70168876647949,0.0457319989800453,1.73781597614288,-1.04421401023865,-1039.5,47.7000007629395,-870.900024414062,-0.807580718073315,-0.248506006229346,0.517158193480209,DLL
11.9666666666667,-2.85493636131287,-4.47710037231445,8.45116233825684,-0.221037998795509,1.6920839548111,-1.29574000835419,-1039.5,52.5000038146973,-873.300048828125,-0.794292710079556,-0.291627713356914,0.488580652581992,DLL
12.0,-2.34890747070312,-4.24382448196411,7.60419178009033,0.0685980021953583,1.44817996025085,-1.41769194602966,-1046.70007324219,48.3000030517578,-885.300048828125,-0.76650338551536,-0.264469749696991,0.509826378751192,DLL
12.0333333333333,-2.25559711456299,-4.34790134429932,7.49353504180908,0.0685980021953583,0.815553963184357,-1.63872992992401,-1039.5,47.1000022888184,-885.300048828125,-0.742110998854257,-0.254497639376591,0.526452075732546,DLL
12.0666666666667,-2.72155046463013,-4.56861591339111,7.88890743255615,-0.6250039935112,-0.0914639979600906,-1.37195992469788,-1051.5,52.5000038146973,-892.500061035156,-0.731998806943846,-0.288755405654561,0.526606609142449,DLL
12.1,-2.924320936203,-4.56741952896118,7.71185731887817,-0.442075997591019,0.388722002506256,-1.20427596569061,-1032.30004882812,52.5000038146973,-890.100036621094,-0.717771745715747,-0.314875741630326,0.536176621510936,DLL
12.1333333333333,-3.24432754516602,-4.79291963577271,7.96726417541504,0.182927995920181,1.11281192302704,-1.32622802257538,-1041.90002441406,53.1000022888184,-878.100036621094,-0.697472191136985,-0.336183773928323,0.542298259880561,DLL
12.1666666666667,-3.16537261009216,-4.74626445770264,7.16395854949951,-0.46494197845459,0.480185985565186,-1.47104597091675,-1051.5,48.3000030517578,-890.100036621094,-0.655271539089845,-0.352197685057928,0.586894278517533,DLL
12.2,-3.50751042366028,-4.6409912109375,7.4953293800354,-0.266770005226135,0.289635986089706,-0.221037998795509,-1046.70007324219,54.9000015258789,-878.100036621094,-0.66422317876693,-0.378877909794738,0.555124416373586,DLL
12.2333333333333,-3.43513512611389,-4.90596866607666,7.43970251083374,0.259148001670837,0.449698001146317,0.259148001670837,-1046.70007324219,46.5,-875.700012207031,-0.652895598560128,-0.368823276167946,0.582531600078545,DLL
12.2666666666667,-3.5493803024292,-4.82641553878784,7.33741998672485,1.20427596569061,0.983237981796265,0.510673999786377,-1034.70007324219,44.1000022888184,-894.900024414062,-0.647834733937785,-0.385989034579428,0.579805796159423,DLL
12.3,-3.72044920921326,-4.57041025161743,7.6209397315979,1.04421401023865,0.0,0.617381989955902,-1034.70007324219,51.9000015258789,-875.700012207031,-0.664838353833615,-0.397048010840656,0.538008159628245,DLL
12.3333333333333,-3.3388340473175,-4.55186796188354,7.39005661010742,0.480185985565186,-1.14329993724823,1.2347639799118,-1041.90002441406,48.3000030517578,-861.300048828125,-0.675237764107541,-0.36667465260945,0.550110349743279,DLL
12.3666666666667,-3.31131958961487,-4.64458036422729,7.4091968536377,0.297257989645004,-0.0533539988100529,1.76830399036407,-1039.5,50.7000007629395,-887.700012207031,-0.701657309432635,-0.363540632805496,0.558408011447604,DLL
12.4,-2.34412240982056,-4.51657772064209,6.7560248374939,0.0990860015153885,-1.38720393180847,0.571649968624115,-1032.30004882812,45.3000030517578,-892.500061035156,-0.72256433896557,-0.279364351173839,0.588491649381244,DLL
12.4333333333333,-3.13905429840088,-4.64398193359375,7.89608526229858,0.46494197845459,-0.434453994035721,0.884151995182037,-1044.30004882812,48.3000030517578,-870.900024414062,-0.749400212966182,-0.330248743710186,0.530264402211859,DLL
12.4666666666667,-3.2706458568573,-5.04832649230957,8.4415922164917,0.731711983680725,0.0990860015153885,0.365855991840363,-1041.90002441406,50.1000022888184,-887.700012207031,-0.747269229440429,-0.321497877000982,0.537536175463982,DLL
12.5,-2.84895491600037,-4.56682157516479,7.84404706954956,1.60061991214752,-0.655492007732391,0.396344006061554,-1037.10009765625,54.3000030517578,-890.100036621094,-0.753244242383047,-0.303502406691948,0.524072704676919,DLL
12.5333333333333,-2.82921624183655,-4.27373170852661,7.96905899047852,2.080806016922,-0.746955990791321,1.10518991947174,-1041.90002441406,54.9000015258789,-875.700012207031,-0.771111356993736,-0.302980016787546,0.487919085763842,DLL
12.5666666666667,-2.5295467376709,-4.24262809753418,7.93496465682983,1.57013201713562,-0.350611984729767,0.434453994035721,-1034.70007324219,50.7000007629395,-870.900024414062,-0.772130958948975,-0.273881289768341,0.487992021588946,DLL
12.6,-2.51937818527222,-4.29406833648682,8.15986633300781,1.12805593013763,-0.396344006061554,0.0228659994900227,-1034.70007324219,55.5000038146973,-875.700012207031,-0.772530077379936,-0.266128926668516,0.482357045763036,DLL
12.6333333333333,-2.89441394805908,-4.10924243927002,8.41347885131836,1.18903195858002,-0.777444005012512,0.0381099991500378,-1041.90002441406,53.1000022888184,-870.900024414062,-0.781155145307587,-0.298596952602631,0.452072387838568,DLL
12.6666666666667,-2.98892045021057,-4.16786003112793,8.50320053100586,1.20427596569061,-0.769822001457214,-0.0914639979600906,-1049.10009765625,54.3000030517578,-892.500061035156,-0.779377367856604,-0.30445470942994,0.453495109659759,DLL
12.7,-2.44640469551086,-4.19776725769043,7.69810009002686,1.13567793369293,-0.525918006896973,-0.746955990791321,-1039.5,47.1000022888184,-890.100036621094,-0.759196243519363,-0.270676949443365,0.49741902810049,DLL
12.7333333333333,-3.16298007965088,-3.68874764442444,7.73219442367554,0.87652999162674,-0.259148001670837,-1.02134799957275,-1046.70007324219,51.9000015258789,-875.700012207031,-0.764024859109702,-0.3524651431744,0.444147581240106,DLL
12.7666666666667,-3.24313116073608,-4.02131509780884,8.42544174194336,0.350611984729767,-0.449698001146317,0.503051996231079,-1053.90002441406,47.1000022888184,-892.500061035156,-0.769390090527072,-0.334019348929797,0.4443045637192,DLL
12.8,-2.76342058181763,-4.18042135238647,8.56480884552002,-0.533540010452271,-1.2347639799118,0.731711983680725,-1056.30004882812,46.5,-892.500061035156,-0.780989839321716,-0.28085819318163,0.454399860070631,DLL
12.8333333333333,-2.02471399307251,-4.3305549621582,7.90206670761108,-0.87652999162674,-0.990859985351562,0.685979962348938,-1061.10009765625,47.1000022888184,-887.700012207031,-0.78311622055284,-0.22010865835226,0.502418946199506,DLL
12.8666666666667,-2.31002807617188,-4.29107761383057,8.23343753814697,-0.449698001146317,0.106707997620106,0.990859985351562,-1065.90002441406,45.9000015258789,-892.500061035156,-0.798647796301282,-0.244810512673272,0.480874617566233,DLL
12.9,-2.4595639705658,-4.39754724502563,8.44219017028809,0.190549999475479,0.823175966739655,1.05945801734924,-1046.70007324219,48.3000030517578,-868.500061035156,-0.804359437479809,-0.254980496792142,0.479642043466607,DLL
12.9333333333333,-2.98951864242554,-4.13795328140259,8.09287452697754,0.754577994346619,1.52439999580383,0.914639949798584,-1051.5,48.9000015258789,-894.900024414062,-0.805416060851426,-0.320827591457651,0.471269574081273,DLL
12.9666666666667,-3.81375956535339,-4.02011871337891,8.59591293334961,0.861285984516144,1.91312193870544,1.07470202445984,-1037.10009765625,46.5,-890.100036621094,-0.815661099254895,-0.385937000184445,0.435848521660624,DLL
13.0,-2.82682371139526,-4.31201267242432,7.34818649291992,0.411587983369827,1.47104597091675,-0.0609759986400604,-1041.90002441406,50.1000022888184,-870.900024414062,-0.772403796491054,-0.322534932501115,0.530394403957885,DLL
13.0333333333333,-3.98064136505127,-3.84725570678711,8.16166114807129,0.25152599811554,1.31098401546478,-0.0762199983000755,-1041.90002441406,44.1000022888184,-878.100036621094,-0.797334104671941,-0.417450371851112,0.440584951707362,DLL
13.0666666666667,-3.28500127792358,-3.87656450271606,7.12208843231201,-0.0457319989800453,0.807931959629059,0.87652999162674,-1039.5,53.1000022888184,-878.100036621094,-0.778935577091964,-0.386895643300945,0.498236434003826,DLL
13.1,-3.99858570098877,-3.82273173332214,7.92659044265747,-0.129574000835419,0.861285984516144,1.74543797969818,-1034.70007324219,51.9000015258789,-890.100036621094,-0.811411460561643,-0.429144875454068,0.448649115380721,DLL
13.1333333333333,-1.88594484329224,-4.88144493103027,7.05210542678833,-0.990859985351562,-0.640248000621796,0.655492007732391,-1037.10009765625,48.9000015258789,-892.500061035156,-0.774266488897906,-0.216213594260462,0.606829295288762,DLL
13.1666666666667,-3.1988685131073,-4.43762254714966,7.80636405944824,-1.60061991214752,-1.31098401546478,-0.701223969459534,-1032.30004882812,53.1000022888184,-875.700012207031,-0.804356639534785,-0.339570082310583,0.519722801920668,DLL
13.2,-2.48827481269836,-4.98552179336548,7.75552177429199,-0.518296003341675,-1.22714197635651,-0.0990860015153885,-1034.70007324219,53.1000022888184,-887.700012207031,-0.796418629283601,-0.261749408585386,0.571929565405354,DLL
13.2333333333333,-2.73231720924377,-4.40352869033813,7.34220504760742,-0.6250039935112,-1.60824191570282,-1.08994603157043,-1037.10009765625,52.5000038146973,-873.300048828125,-0.80602726723771,-0.305525305580925,0.541398493989366,DLL
13.2666666666667,-2.4637508392334,-4.47889471054077,6.9199161529541,0.388722002506256,-0.693601965904236,-0.144817993044853,-1051.5,52.5000038146973,-878.100036621094,-0.798085802503449,-0.289291524563015,0.573617400568802,DLL
13.3,-3.96329522132874,-4.05062437057495,8.14551067352295,0.823175966739655,-0.0076219998300075,0.213415995240211,-1056.30004882812,49.5000038146973,-880.500061035156,-0.835607689179558,-0.410979596739818,0.459931694762229,DLL
13.3333333333333,-3.78265619277954,-4.611083984375,8.51815414428711,1.55488801002502,0.495429992675781,0.670735955238342,-1044.30004882812,51.9000015258789,-875.700012207031,-0.820237215972769,-0.373646070360091,0.493185842423161,DLL
13.3666666666667,-3.10196948051453,-4.82462120056152,7.87275791168213,0.304879993200302,-0.556405961513519,-1.45580196380615,-1034.70007324219,44.7000007629395,-882.900024414062,-0.78988251273741,-0.32197230915198,0.549790205794578,DLL
13.4,-4.62962675094604,-4.35149002075195,7.85541152954102,0.167683988809586,-0.449698001146317,-0.884151995182037,-1053.90002441406,50.1000022888184,-873.300048828125,-0.800567215960715,-0.474491638872668,0.506097775829229,DLL
13.4333333333333,-3.83708715438843,-4.87785577774048,7.8715615272522,0.0533539988100529,-0.144817993044853,0.647870004177094,-1049.10009765625,53.1000022888184,-861.300048828125,-0.786738910431118,-0.393222255132256,0.554205019204545,DLL
13.4666666666667,-2.94585418701172,-4.76361083984375,6.81643724441528,-0.289635986089706,-0.739333987236023,0.800309956073761,-1044.30004882812,47.7000007629395,-875.700012207031,-0.778971088530944,-0.340214972631692,0.609759279244068,DLL
13.5,-2.65635299682617,-4.78634023666382,6.72551965713501,0.419209986925125,-0.716467976570129,1.52439999580383,-1044.30004882812,54.9000015258789,-882.900024414062,-0.792516209737279,-0.311863987391642,0.616846217837358,DLL
13.5333333333333,-2.8621141910553,-4.89041709899902,6.9438419342041,0.823175966739655,-0.518296003341675,1.98171997070312,-1039.5,50.1000022888184,-875.700012207031,-0.811384621502865,-0.326277135784357,0.611026541583029,DLL
13.5666666666667,-3.54997849464417,-4.83239698410034,7.90087032318115,2.24848985671997,0.579271972179413,2.00458598136902,-1046.70007324219,50.1000022888184,-878.100036621094,-0.83979305512407,-0.368690419103945,0.544086099910173,DLL
13.6,-3.76889896392822,-4.54229784011841,7.90266513824463,2.38568592071533,-0.129574000835419,1.2347639799118,-1041.90002441406,55.5000038146973,-875.700012207031,-0.851563206103083,-0.392933016697239,0.516698059031143,DLL
13.6333333333333,-4.22348737716675,-4.27552604675293,8.04083633422852,2.0579400062561,-0.693601965904236,1.73019397258759,-1032.30004882812,44.1000022888184,-878.100036621094,-0.873952997049713,-0.434562090366551,0.483629265122827,DLL
13.6666666666667,-3.54579162597656,-3.99140810966492,7.40381383895874,1.29574000835419,-1.07470202445984,1.97409796714783,-1032.30004882812,54.9000015258789,-875.700012207031,-0.889226502677337,-0.39893243361932,0.490520033277741,DLL
13.7,-4.06019449234009,-4.10984039306641,8.38357162475586,0.891773998737335,-0.807931959629059,2.33995389938354,-1032.30004882812,46.5,-887.700012207031,-0.926280398667867,-0.410709637611713,0.452384320235246,DLL
13.7333333333333,-2.90996551513672,-4.2563853263855,7.74475526809692,0.3125019967556,-1.27287399768829,1.60061991214752,-1049.10009765625,44.1000022888184,-880.500061035156,-0.928681763149718,-0.317538761768552,0.500796862376864,DLL
13.7666666666667,-2.12639832496643,-4.33474206924438,7.16216373443604,-0.396344006061554,-2.09605002403259,0.846041977405548,-1039.5,47.1000022888184,-873.300048828125,-0.93674673576895,-0.24640580445926,0.54413028218193,DLL
13.8,-2.40752553939819,-3.99320244789124,7.43850612640381,-0.175305992364883,-2.19513607025146,0.777444005012512,-1044.30004882812,47.1000022888184,-880.500061035156,-0.96952604883648,-0.275046282041828,0.492151416027854,DLL
13.8333333333333,-2.25679349899292,-3.69652366638184,7.59880828857422,0.830797970294952,-1.43293595314026,1.29574000835419,-1046.70007324219,54.9000015258789,-885.300048828125,-0.997155121164983,-0.259720269685489,0.45049704602188,DLL
13.8666666666667,-2.18561434745789,-3.73600101470947,7.8918981552124,1.02134799957275,-1.48628997802734,0.960371971130371,-1051.5,51.9000015258789,-885.300048828125,-1.01307184927837,-0.243647881304418,0.439709655850291,DLL
13.9,-3.14623212814331,-3.24552369117737,9.27001953125,1.37958192825317,-2.19513607025146,1.21189796924591,-1061.10009765625,45.9000015258789,-887.700012207031,-1.05738448399865,-0.307048906732009,0.33338467053051,DLL
13.9333333333333,-2.73949480056763,-3.14862465858459,8.57677173614502,1.34147191047668,-2.27897787094116,1.02897000312805,-1056.30004882812,48.3000030517578,-875.700012207031,-1.06824743110603,-0.288192372031253,0.348585368369637,DLL
13.9666666666667,-3.05471611022949,-3.39625573158264,8.79030895233154,1.18140995502472,-1.07470202445984,0.525918006896973,-1053.90002441406,48.9000015258789,-882.900024414062,-1.0682465300891,-0.312034859536849,0.366130964787639,DLL
14.0,-3.18092441558838,-3.82871317863464,9.29932880401611,0.701223969459534,-0.518296003341675,-0.472563982009888,-1044.30004882812,48.3000030517578,-882.900024414062,-1.05631097847648,-0.305196731892664,0.389464589005347,DLL
14.0333333333333,-2.59713673591614,-3.60620403289795,8.26693439483643,-0.137196004390717,-1.34909391403198,-0.868907988071442,-1046.70007324219,51.3000030517578,-880.500061035156,-1.04758435286458,-0.277618845446242,0.411692170873224,DLL
14.0666666666667,-1.87697267532349,-3.78803944587708,7.78901767730713,-0.602137982845306,-1.47866797447205,0.0838419944047928,-1058.70007324219,54.3000030517578,-882.900024414062,-1.04654648662034,-0.211185246256506,0.453412616539924,DLL
14.1,-1.59524726867676,-3.86101293563843,7.99118995666504,-0.335367977619171,-0.78506600856781,0.518296003341675,-1068.30004882812,46.5,-880.500061035156,-1.05648973499449,-0.177023317476485,0.450418269807635,DLL
14.1333333333333,-1.82194352149963,-3.66362571716309,8.0827054977417,0.663114011287689,0.617381989955902,0.175305992364883,-1046.70007324219,45.9000015258789,-880.500061035156,-1.05884670071305,-0.203591145517032,0.424454303861593,DLL
14.1666666666667,-2.20595121383667,-3.80897450447083,8.15926837921143,0.769822001457214,1.60824191570282,-0.282013982534409,-1063.5,53.7000007629395,-902.100036621094,-1.04407966615882,-0.242572516132218,0.435815612678418,DLL
14.2,-2.95781707763672,-4.02071714401245,8.67905426025391,0.388722002506256,2.01220798492432,-0.617381989955902,-1056.30004882812,53.7000007629395,-882.900024414062,-1.02765131991103,-0.302618336193152,0.433919393742683,DLL
14.2333333333333,-2.14194989204407,-4.17862701416016,7.54557371139526,-0.144817993044853,1.82927989959717,-1.78354799747467,-1039.5,51.3000030517578,-894.900024414062,-0.982412520555415,-0.244718094735006,0.507028674323392,DLL
14.2666666666667,-3.16597080230713,-3.6714015007019,7.75611972808838,0.152439996600151,2.11891603469849,-1.36433792114258,-1056.30004882812,51.9000015258789,-887.700012207031,-0.978470761538286,-0.355714664722536,0.443258346975135,DLL
14.3,-2.68745636940002,-4.33833074569702,7.59043407440186,0.731711983680725,3.20123982429504,0.663114011287689,-1039.5,48.9000015258789,-894.900024414062,-0.940690029904397,-0.303666508779531,0.518495838561807,DLL
14.3333333333333,-3.01583695411682,-4.36345291137695,8.17601585388184,-0.0762199983000755,2.40092992782593,0.0304879993200302,-1039.5,51.9000015258789,-875.700012207031,-0.937766498397943,-0.318324918411134,0.491015741778469,DLL
14.3666666666667,-3.31431031227112,-4.80248975753784,8.04442501068115,-0.403965979814529,1.50153398513794,-0.663114011287689,-1034.70007324219,54.3000030517578,-892.500061035156,-0.909319951833193,-0.341662271261495,0.53972537826229,DLL
14.4,-3.66841077804565,-4.70499277114868,7.82789707183838,-0.792688012123108,0.99848198890686,-1.18903195858002,-1039.5,47.1000022888184,-875.700012207031,-0.895495370893101,-0.382337611894051,0.543651960402947,DLL
14.4333333333333,-2.80349612236023,-4.98970890045166,6.73269748687744,-0.739333987236023,0.792688012123108,-0.884151995182037,-1044.30004882812,51.3000030517578,-875.700012207031,-0.852693333636482,-0.323057270785498,0.639725780933558,DLL
14.4666666666667,-4.00337076187134,-4.9095573425293,7.40680456161499,-0.960371971130371,0.342989981174469,-0.487807989120483,-1046.70007324219,47.1000022888184,-882.900024414062,-0.869870679040869,-0.423260085861385,0.58752363596188,DLL
14.5,-4.08591461181641,-5.38687562942505,7.55454587936401,0.358233988285065,0.952749967575073,0.541162014007568,-1039.5,53.7000007629395,-897.300048828125,-0.854428590363708,-0.4167194364435,0.618886307948241,DLL
14.5333333333333,-4.50700712203979,-4.96877384185791,8.20054054260254,1.03659200668335,0.396344006061554,-0.37347799539566,-1032.30004882812,42.9000015258789,-887.700012207031,-0.875781786197894,-0.439643972146257,0.543411564983917,DLL
14.5666666666667,-4.02490425109863,-4.91135215759277,7.23154830932617,1.29574000835419,-0.602137982845306,0.327746003866196,-1034.70007324219,49.5000038146973,-887.700012207031,-0.854612691689263,-0.430944149289751,0.593838580477968,DLL
14.6,-4.41010808944702,-4.50880193710327,7.58624744415283,0.579271972179413,-1.16616594791412,1.02897000312805,-1051.5,42.9000015258789,-885.300048828125,-0.892244792252406,-0.46257930895358,0.533977437293102,DLL
14.6333333333333,-3.60560584068298,-4.39276218414307,6.99767446517944,0.106707997620106,-1.63110792636871,1.74543797969818,-1034.70007324219,44.1000022888184,-870.900024414062,-0.90755299082786,-0.410694580352561,0.55859833873147,DLL
14.6666666666667,-3.66900897026062,-4.25518894195557,7.33741998672485,0.114329993724823,-1.60061991214752,2.28659987449646,-1041.90002441406,45.3000030517578,-875.700012207031,-0.949060015503753,-0.407837536208139,0.523251624228308,DLL
14.7,-3.10914707183838,-4.45257616043091,7.07543325424194,0.0762199983000755,-1.52439999580383,2.34757590293884,-1034.70007324219,46.5,-890.100036621094,-0.96720349702147,-0.355992030472344,0.559730338888471,DLL
14.7333333333333,-3.66183137893677,-4.41549158096313,7.95709609985352,1.04421401023865,-1.20427596569061,2.57623600959778,-1044.30004882812,51.9000015258789,-890.100036621094,-1.01385045289172,-0.382889536013351,0.502806042309478,DLL
14.7666666666667,-3.30234742164612,-4.44001531600952,7.72920370101929,0.945127964019775,-1.52439999580383,1.57013201713562,-1032.30004882812,50.7000007629395,-882.900024414062,-1.02630633120711,-0.353864137468453,0.518393235944975,DLL
14.8,-3.55296921730042,-4.48786687850952,8.29624271392822,0.647870004177094,-2.20275783538818,1.50915598869324,-1032.30004882812,48.9000015258789,-890.100036621094,-1.05829432367235,-0.358104127374772,0.493194264863775,DLL
14.8333333333333,-3.40821862220764,-3.97047305107117,7.85242080688477,0.358233988285065,-2.24848985671997,1.92836594581604,-1034.70007324219,53.1000022888184,-870.900024414062,-1.09461483808573,-0.367542329632552,0.465696763680732,DLL
14.8666666666667,-2.96678924560547,-4.14752340316772,7.90924453735352,0.6250039935112,-1.63110792636871,2.68294382095337,-1034.70007324219,53.7000007629395,-873.300048828125,-1.12001329146785,-0.320392214222747,0.480054142253643,DLL
14.9,-2.59594058990479,-4.22528171539307,7.84225273132324,0.205793991684914,-1.41769194602966,2.01982998847961,-1044.30004882812,49.5000038146973,-873.300048828125,-1.14133607671404,-0.283067144930505,0.492581111583763,DLL
14.9333333333333,-2.54928541183472,-4.43104314804077,7.92001104354858,0.0533539988100529,-1.2576299905777,1.51677799224854,-1025.10009765625,46.5,-894.900024414062,-1.15889063282539,-0.273222772150028,0.509043483134456,DLL
14.9666666666667,-2.53672432899475,-4.12898111343384,7.29495191574097,-0.46494197845459,-0.87652999162674,0.78506600856781,-1049.10009765625,53.1000022888184,-899.700012207031,-1.17029032790238,-0.293197085302877,0.515269141187609,DLL
15.0,-2.33395385742188,-4.31201267242432,7.88412237167358,-0.0152439996600151,-0.350611984729767,1.30336201190948,-1034.70007324219,44.1000022888184,-873.300048828125,-1.18835020843701,-0.254682936049349,0.499915953758219,DLL
15.0333333333333,-2.5815851688385,-4.08112955093384,8.21728801727295,0.129574000835419,-1.22714197635651,0.358233988285065,-1058.70007324219,50.1000022888184,-890.100036621094,-1.2077512650066,-0.27263457804556,0.460331120857419,DLL
15.0666666666667,-2.79153323173523,-4.01114654541016,8.1006498336792,0.403965979814529,-1.54726600646973,0.442075997591019,-1046.70007324219,50.7000007629395,-875.700012207031,-1.21831621276322,-0.297436757018777,0.458487658426569,DLL
15.1,-3.00447225570679,-4.21272087097168,8.85909557342529,-0.114329993724823,-1.53964400291443,-0.213415995240211,-1041.90002441406,51.3000030517578,-873.300048828125,-1.22853521419696,-0.294617412543983,0.443830226303043,DLL
15.1333333333333,-2.81067371368408,-4.20135641098022,8.560622215271,-0.335367977619171,-2.14940404891968,0.411587983369827,-1051.5,51.9000015258789,-873.300048828125,-1.24073930779911,-0.283578481950206,0.456154090477989,DLL
15.1666666666667,-2.07196736335754,-4.27732038497925,8.19156837463379,-0.640248000621796,-1.95885396003723,0.693601965904236,-1058.70007324219,46.5,-868.500061035156,-1.25212412044122,-0.218128835576149,0.481734631418742,DLL
15.2,-2.37402939796448,-4.21571159362793,8.75023365020752,-0.396344006061554,-1.12043392658234,0.945127964019775,-1053.90002441406,59.1000022888184,-868.500061035156,-1.27478797311066,-0.238667015817963,0.449107906950566,DLL
15.2333333333333,-1.89252436161041,-3.92740678787231,7.65323925018311,0.350611984729767,0.152439996600151,1.00610399246216,-1053.90002441406,48.3000030517578,-868.500061035156,-1.27758624653996,-0.217601536684142,0.473187837385002,DLL
15.2666666666667,-2.61448287963867,-3.82392811775208,8.08689308166504,0.472563982009888,1.08232402801514,1.05183601379395,-1049.10009765625,47.7000007629395,-870.900024414062,-1.28970011164174,-0.286828385163159,0.440627670084361,DLL
15.3,-2.46853613853455,-3.93099570274353,7.76868104934692,0.846041977405548,1.36433792114258,0.907018005847931,-1056.30004882812,48.3000030517578,-880.500061035156,-1.28194665860679,-0.279116838199131,0.466854184800711,DLL
15.3333333333333,-3.43214440345764,-3.93039751052856,8.21190452575684,0.297257989645004,1.2576299905777,0.457319974899292,-1053.90002441406,48.9000015258789,-885.300048828125,-1.28587250283897,-0.362816829981767,0.445972973069377,DLL
15.3666666666667,-3.26406621932983,-4.3281626701355,8.19754981994629,-0.365855991840363,1.03659200668335,0.426831990480423,-1034.70007324219,52.5000038146973,-875.700012207031,-1.27224718066388,-0.340508049998148,0.486475399549945,DLL
15.4,-2.26995253562927,-4.55665302276611,7.38766384124756,-0.0762199983000755,0.685979962348938,-0.0685980021953583,-1029.90002441406,50.7000007629395,-887.700012207031,-1.24834698779032,-0.256777199652614,0.552976147511464,DLL
15.4333333333333,-3.33225440979004,-3.95312690734863,7.98042345046997,0.114329993724823,0.487807989120483,0.0457319989800453,-1034.70007324219,51.3000030517578,-875.700012207031,-1.27425515038852,-0.358785812637384,0.459886523020289,DLL
15.4666666666667,-2.65874552726746,-4.53990507125854,7.53181648254395,0.0685980021953583,0.6250039935112,0.990859985351562,-1046.70007324219,43.5,-894.900024414062,-1.25322297843539,-0.29544903823315,0.542009880828646,DLL
15.5,-2.64080119132996,-4.70618867874146,7.72441816329956,-1.02897000312805,0.3125019967556,-0.297257989645004,-1046.70007324219,53.1000022888184,-890.100036621094,-1.24996935329089,-0.284262607038479,0.549206136419646,DLL
15.5333333333333,-2.84117913246155,-4.60749530792236,7.35955095291138,-0.510673999786377,-0.106707997620106,-0.640248000621796,-1041.90002441406,52.5000038146973,-878.100036621094,-1.24326604111025,-0.315468779327172,0.560521180821449,DLL
15.5666666666667,-2.94705033302307,-4.69063711166382,7.40142107009888,0.25152599811554,-0.137196004390717,-0.0609759986400604,-1041.90002441406,52.5000038146973,-885.300048828125,-1.24139576798519,-0.324174008616019,0.564411619199998,DLL
15.6,-2.76282238960266,-4.91613721847534,7.14421987533569,-0.160062000155449,-0.388722002506256,-0.243903994560242,-1039.5,53.7000007629395,-873.300048828125,-1.23012708999597,-0.307623497360275,0.602963156824592,DLL
15.6333333333333,-3.6552517414093,-4.53571796417236,7.9074501991272,0.0685980021953583,-0.266770005226135,-0.0304879993200302,-1034.70007324219,57.3000030517578,-885.300048828125,-1.25886468611972,-0.380903644815471,0.520601049950113,DLL
15.6666666666667,-3.3047399520874,-4.74746084213257,8.15807151794434,1.05183601379395,-0.0304879993200302,0.442075997591019,-1044.30004882812,46.5,-875.700012207031,-1.25755460298896,-0.337139150640241,0.524949412318588,DLL
15.7,-2.70121359825134,-4.89520215988159,7.8978796005249,0.503051996231079,-0.701223969459534,-1.02134799957275,-1044.30004882812,41.7000007629395,-861.300048828125,-1.24176013621345,-0.280957885949624,0.554219275795435,DLL
15.7333333333333,-3.56852102279663,-4.48128700256348,7.6568284034729,0.510673999786377,-0.259148001670837,-0.853663980960846,-1041.90002441406,51.3000030517578,-873.300048828125,-1.24174824488548,-0.381236230729786,0.529060982317815,DLL
15.7666666666667,-3.32627296447754,-4.70618867874146,8.0946683883667,0.78506600856781,-0.221037998795509,-0.0228659994900227,-1041.90002441406,54.9000015258789,-863.700012207031,-1.24112051866616,-0.34100603691166,0.525201199214704,DLL
15.8,-2.74727058410645,-4.67807626724243,6.82122230529785,0.480185985565186,-0.335367977619171,0.0076219998300075,-1044.30004882812,54.9000015258789,-882.900024414062,-1.21711079673164,-0.320218013140654,0.600151734883668,DLL
15.8333333333333,-3.24731826782227,-4.03148365020752,7.40142107009888,1.01372599601746,-0.129574000835419,1.56251001358032,-1039.5,50.1000022888184,-887.700012207031,-1.26295814523983,-0.368842401478402,0.496073799702872,DLL
15.8666666666667,-2.93807816505432,-4.48367977142334,7.76030683517456,0.899396002292633,-0.426831990480423,1.99696397781372,-1041.90002441406,49.5000038146973,-882.900024414062,-1.27150973990107,-0.31789644529362,0.521215860425455,DLL
15.9,-3.25030899047852,-4.66551494598389,8.15926837921143,0.693601965904236,0.0533539988100529,1.22714197635651,-1041.90002441406,51.3000030517578,-878.100036621094,-1.2809543550027,-0.33407515138152,0.517592244873911,DLL
15.9333333333333,-2.52535963058472,-4.51239061355591,7.51387214660645,0.891773998737335,-1.06708002090454,-0.632625997066498,-1041.90002441406,57.3000030517578,-873.300048828125,-1.27164971190541,-0.278393147233533,0.539247087741029,DLL
15.9666666666667,-3.80359125137329,-4.50640916824341,8.88900279998779,0.922261953353882,-0.830797970294952,0.480185985565186,-1041.90002441406,56.1000022888184,-873.300048828125,-1.29925675893321,-0.363633956499949,0.467097424052608,DLL
16.0,-2.08093929290771,-4.91673517227173,7.74654960632324,0.221037998795509,-1.58537602424622,0.350611984729767,-1037.10009765625,48.3000030517578,-870.900024414062,-1.28265651121098,-0.221072127765912,0.564673475931458,DLL
16.0333333333333,-3.05710864067078,-4.2922739982605,8.29026126861572,0.289635986089706,-1.31860601902008,0.724089980125427,-1044.30004882812,49.5000038146973,-885.300048828125,-1.31821667348399,-0.31495406115759,0.476575700730731,DLL
16.0666666666667,-1.78964376449585,-4.22169303894043,7.33203649520874,1.28049600124359,-0.0990860015153885,1.31098401546478,-1046.70007324219,50.7000007629395,-880.500061035156,-1.31651959872109,-0.209493767411424,0.519729584405348,DLL
16.1,-2.35309433937073,-3.57151174545288,7.54138660430908,1.34147191047668,0.609759986400604,0.975615978240967,-1056.30004882812,56.1000022888184,-878.100036621094,-1.33837365060989,-0.276516804083591,0.439687672343855,DLL
16.1333333333333,-2.59055709838867,-3.85263895988464,7.89967441558838,1.73019397258759,0.937505960464478,0.990859985351562,-1039.5,44.7000007629395,-878.100036621094,-1.33509661400691,-0.288854098547295,0.450483394957994,DLL
16.1666666666667,-3.22817754745483,-4.17862701416016,8.99786472320557,1.01372599601746,0.419209986925125,0.411587983369827,-1049.10009765625,43.5,-882.900024414062,-1.3389339728773,-0.315544772845906,0.432891161593928,DLL
16.2,-2.92551732063293,-3.92680859565735,8.74305534362793,0.640248000621796,-0.990859985351562,-0.403965979814529,-1041.90002441406,48.9000015258789,-887.700012207031,-1.34084918242893,-0.294398756928737,0.421002635902808,DLL
16.2333333333333,-2.69822287559509,-4.01413726806641,8.52054691314697,0.0381099991500378,-1.51677799224854,0.106707997620106,-1037.10009765625,49.5000038146973,-878.100036621094,-1.3431968665398,-0.276693989991447,0.439827650385987,DLL
16.2666666666667,-1.338045835495,-4.67628192901611,7.74535322189331,-0.472563982009888,-1.37195992469788,-0.0914639979600906,-1049.10009765625,51.9000015258789,-880.500061035156,-1.32966096476459,-0.144714957659299,0.543823156896512,DLL
16.3,-2.25499892234802,-4.19956159591675,8.60189437866211,-0.396344006061554,-1.18140995502472,-0.503051996231079,-1046.70007324219,42.9000015258789,-873.300048828125,-1.34803904770349,-0.229077785957251,0.454884078106601,DLL
16.3333333333333,-2.25380277633667,-3.80837631225586,8.00255489349365,0.922261953353882,-0.243903994560242,1.47104597091675,-1058.70007324219,46.5,-868.500061035156,-1.36385125455799,-0.249731614008335,0.441937280307497,DLL
16.3666666666667,-2.94585418701172,-3.87716269493103,8.76159858703613,1.28811800479889,1.31860601902008,2.02745199203491,-1053.90002441406,49.5000038146973,-880.500061035156,-1.38125737261579,-0.301795842916448,0.413663177682871,DLL
16.4,-2.09828543663025,-3.96927666664124,7.63050985336304,0.495429992675781,1.12805593013763,-0.891773998737335,-1039.5,49.5000038146973,-882.900024414062,-1.34844404474671,-0.240340749213127,0.479329772455286,DLL
16.4333333333333,-3.42616295814514,-3.67379403114319,7.97204971313477,0.579271972179413,0.99848198890686,-0.541162014007568,-1046.70007324219,47.7000007629395,-887.700012207031,-1.35130894658261,-0.373255324214687,0.431461929694155,DLL
16.4666666666667,-4.08950328826904,-4.20075798034668,8.87345123291016,0.6250039935112,1.18903195858002,0.510673999786377,-1051.5,48.3000030517578,-870.900024414062,-1.34463077679888,-0.39693715706974,0.441086982228131,DLL
16.5,-1.40862667560577,-4.80308818817139,7.86737442016602,1.01372599601746,0.640248000621796,-1.17378795146942,-1046.70007324219,47.7000007629395,-875.700012207031,-1.2989237185984,-0.151658535001206,0.546650389467183,DLL
16.5333333333333,-0.225499898195267,-5.38926839828491,8.3997220993042,3.45276594161987,2.66770005226135,-3.65093803405762,-1056.30004882812,53.1000022888184,-890.100036621094,-1.24623291219561,-0.023180778035544,0.564598549731137,DLL
16.5666666666667,2.15032386779785,-5.10515022277832,9.33641338348389,6.80644607543945,5.74698781967163,-8.71194553375244,-1046.70007324219,41.7000007629395,-882.900024414062,-1.13844576997653,0.197522533353482,0.484921271175711,DLL
16.6,-1.5683308839798,-5.05849504470825,9.19704627990723,12.0884914398193,7.82779359817505,-15.5336360931396,-1049.10009765625,42.3000030517578,-902.100036621094,-0.936377751796188,-0.147596377045521,0.486209938977729,DLL
16.6333333333333,-0.080151155591011,-4.88922071456909,6.18420028686523,14.3674697875977,8.7957878112793,-19.6037826538086,-1051.5,45.3000030517578,-909.300048828125,-0.68939675231354,-0.0020160845769345,0.643911350514234,DLL
16.6666666666667,-4.27373170852661,-3.65405535697937,8.09048175811768,13.6510019302368,10.236346244812,-22.3629474639893,-1046.70007324219,38.7000007629395,-904.500061035156,-0.434949394390365,-0.448790645247325,0.421079566244753,DLL
16.7,-3.69413089752197,-3.65764427185059,6.2009482383728,15.2516212463379,9.95433139801025,-20.0687255859375,-1049.10009765625,24.9000015258789,-935.700012207031,-0.0942016412474507,-0.471549788442398,0.526124987170978,DLL
16.7333333333333,-4.68704843521118,-2.9542281627655,7.61256551742554,10.0610399246216,7.53053569793701,-18.6510334014893,-1044.30004882812,27.3000011444092,-947.700012207031,0.078558833783501,-0.521422720501966,0.372853045609249,DLL
16.7666666666667,-5.22956418991089,-2.20654940605164,7.87395429611206,9.02444744110107,6.12046575546265,-14.4665555953979,-1044.30004882812,17.7000007629395,-933.300048828125,0.2248261514081,-0.57236496681998,0.275042665979037,DLL
16.8,-4.91374444961548,-2.60491275787354,7.65981912612915,6.08997774124146,4.00917196273804,-9.39792537689209,-1037.10009765625,23.1000003814697,-947.700012207031,0.38271396997737,-0.547151515000701,0.327988234801287,DLL
16.8333333333333,-3.38130211830139,-2.97336864471436,7.68553924560547,2.43141794204712,2.30946588516235,-4.82472610473633,-1039.5,18.9000015258789,-952.500061035156,0.47123146164191,-0.390128000756915,0.368722981028556,DLL
16.8666666666667,-3.04694032669067,-2.72513937950134,7.58265829086304,0.518296003341675,0.0533539988100529,-1.73781597614288,-1022.70001220703,18.3000011444092,-930.900024414062,0.482093107837259,-0.360601700159858,0.345208936793193,DLL
16.9,-2.99490189552307,-3.11034345626831,8.10423946380615,0.388722002506256,0.891773998737335,0.228659987449646,-1025.10009765625,18.9000015258789,-957.300048828125,0.491656339853232,-0.333829379610845,0.365834642796529,DLL
16.9333333333333,-3.6654200553894,-3.26526236534119,8.67247486114502,0.434453994035721,1.38720393180847,0.716467976570129,-1029.90002441406,23.1000003814697,-938.100036621094,0.48922072067407,-0.379351702419631,0.359209890497369,DLL
16.9666666666667,-3.81136703491211,-3.50810861587524,9.35854530334473,0.815553963184357,1.92074394226074,0.548784017562866,-1025.10009765625,21.9000015258789,-950.100036621094,0.493374803238714,-0.367806036454888,0.357329955446896,DLL
17.0,-3.25150513648987,-3.53801560401917,8.24181175231934,1.28811800479889,1.34147191047668,-0.0304879993200302,-1027.5,18.3000011444092,-935.700012207031,0.52008595975424,-0.349929021019776,0.403571235034979,DLL
17.0333333333333,-3.77188968658447,-3.18212056159973,8.38357162475586,1.42531394958496,1.15092194080353,-0.175305992364883,-1025.10009765625,12.9000005722046,-942.900024414062,0.516181109762165,-0.399913373629732,0.360723831921924,DLL
17.0666666666667,-4.14692544937134,-2.93867635726929,8.71554088592529,1.41769194602966,0.762199997901917,0.846041977405548,-1022.70001220703,12.3000001907349,-933.300048828125,0.501572885708766,-0.425294753595926,0.322309128498916,DLL
17.1,-3.41420006752014,-2.76700949668884,8.23104572296143,1.13567793369293,-0.289635986089706,1.44055795669556,-1013.10003662109,17.7000007629395,-935.700012207031,0.491033165326572,-0.374948844032177,0.321315802244009,DLL
17.1333333333333,-3.08462333679199,-2.89919900894165,8.24061584472656,0.609759986400604,-0.792688012123108,1.71494996547699,-1005.90002441406,20.7000007629395,-938.100036621094,0.479082388622351,-0.339136672233482,0.336063947316499,ST
17.1666666666667,-3.61457800865173,-2.62883830070496,8.51994895935059,1.64635193347931,-0.175305992364883,1.94360995292664,-1001.10003662109,12.9000005722046,-938.100036621094,0.451794048895988,-0.38581846529555,0.29507746004598,ST
17.2,-3.46683669090271,-2.83280515670776,8.89498424530029,1.94360995292664,0.3125019967556,1.73019397258759,-1025.10009765625,21.9000015258789,-942.900024414062,0.446056318484973,-0.357022697509645,0.303910133995203,ST
17.2333333333333,-3.40881681442261,-2.23406410217285,8.53191089630127,1.76830399036407,-0.0838419944047928,0.594515979290009,-1027.5,11.1000003814697,-945.300048828125,0.428698127480327,-0.368934350403053,0.252635096255913,ST
17.2666666666667,-3.68216824531555,-2.08333206176758,8.72152233123779,1.64635193347931,-0.0533539988100529,0.541162014007568,-1022.70001220703,24.3000011444092,-942.900024414062,0.422100646156804,-0.389762560993968,0.231229636303556,ST
17.3,-3.95252871513367,-2.07136917114258,9.03554725646973,1.31860601902008,-0.0990860015153885,0.868907988071442,-1015.50006103516,21.3000011444092,-933.300048828125,0.415570559542617,-0.403200975881574,0.222408770215115,ST
17.3333333333333,-3.41300368309021,-1.88056147098541,8.560622215271,0.510673999786377,-0.342989981174469,0.586893975734711,-1017.90002441406,11.7000007629395,-942.900024414062,0.407796052355422,-0.37097692433998,0.214912114655567,ST
17.3666666666667,-3.30174922943115,-1.77768087387085,8.57737064361572,0.304879993200302,-0.0533539988100529,0.518296003341675,-1015.50006103516,14.7000007629395,-935.700012207031,0.399589270195444,-0.360556090089132,0.203491626850074,ST
17.4,-3.23116827011108,-1.734614610672,8.10962200164795,0.754577994346619,0.342989981174469,0.548784017562866,-1020.30004882812,14.1000003814697,-942.900024414062,0.399828626819178,-0.37230793146701,0.209083926608726,ST
17.4333333333333,-3.40343356132507,-1.61259341239929,8.02408790588379,0.716467976570129,0.579271972179413,0.25152599811554,-1015.50006103516,15.3000001907349,-942.900024414062,0.397056306929088,-0.395155865879484,0.196983664895569,ST
17.4666666666667,-4.0296893119812,-1.74897003173828,9.00324821472168,0.830797970294952,0.708845973014832,0.541162014007568,-1017.90002441406,17.7000007629395,-933.300048828125,0.393996748734732,-0.415365798579434,0.190117234477582,ST
17.5,-3.99858570098877,-1.76571810245514,8.59531402587891,0.891773998737335,-0.198172003030777,0.205793991684914,-1017.90002441406,14.7000007629395,-954.900024414062,0.400114720210553,-0.427305196937445,0.200857923803671,ST
