seconds,sensor_accX_m_s_,sensor_accY_m_s_,sensor_accZ_m_s_,sensor_gyroX___s_,sensor_gyroY___s_,sensor_gyroZ___s_,sensor_magX__T_,sensor_magY__T_,sensor_magZ__T_,sensor_yaw___,sensor_pitch___,sensor_roll___,label2
0.0,-1.97028291225433,-1.60721015930176,9.2347297668457,0.350611984729767,-0.221037998795509,0.282013982534409,-1097.10009765625,7.50000047683716,-947.700012207031,-1.2439052959859,-0.206829575613992,0.171559471989634,ST
0.0333333333333333,-1.96549785137177,-1.5964435338974,9.21259784698486,0.320124000310898,-0.190549999475479,0.335367977619171,-1097.10009765625,15.9000005722046,-945.300048828125,-1.24567609944455,-0.206968376062789,0.170905459767647,ST
0.0666666666666667,-1.97746062278748,-1.55576992034912,9.17790603637695,0.3125019967556,-0.152439996600151,0.434453994035721,-1089.90002441406,6.90000009536743,-957.300048828125,-1.24857199216002,-0.209141139314477,0.167269631814644,ST
0.1,-1.99420869350433,-1.56055498123169,9.18568134307861,0.282013982534409,-0.0685980021953583,0.480185985565186,-1097.10009765625,8.70000076293945,-947.700012207031,-1.25078578936933,-0.210837507906502,0.167602894555836,ST
0.133333333333333,-1.96430146694183,-1.61498606204987,9.19525146484375,0.320124000310898,-0.144817993044853,0.396344006061554,-1099.5,10.5,-945.300048828125,-1.2514285106181,-0.207343784545441,0.172997233734083,ST
0.166666666666667,-2.03847122192383,-1.57012534141541,9.18747615814209,0.327746003866196,-0.137196004390717,0.327746003866196,-1097.10009765625,15.9000005722046,-945.300048828125,-1.25372887772073,-0.214961139153373,0.168680575877323,ST
0.2,-2.05462121963501,-1.54320883750916,9.21319580078125,0.365855991840363,-0.152439996600151,0.365855991840363,-1101.90002441406,12.9000005722046,-947.700012207031,-1.25600731390994,-0.216302660803349,0.165268179297944,ST
0.233333333333333,-2.02112507820129,-1.56294763088226,9.19644832611084,0.365855991840363,-0.167683988809586,0.396344006061554,-1082.70007324219,14.7000007629395,-952.500061035156,-1.25725257199189,-0.213278938033916,0.167483823401799,ST
0.266666666666667,-2.05043411254883,-1.57790112495422,9.24549579620361,0.396344006061554,-0.221037998795509,0.381099998950958,-1089.90002441406,14.7000007629395,-952.500061035156,-1.25875976549666,-0.214914677821997,0.168170180851541,ST
0.3,-2.00437712669373,-1.55935871601105,9.21738338470459,0.419209986925125,-0.274392008781433,0.388722002506256,-1087.5,15.3000001907349,-957.300048828125,-1.26088486109839,-0.210936382808758,0.166727395206329,ST
0.333333333333333,-2.00796604156494,-1.54141438007355,9.22934627532959,0.472563982009888,-0.282013982534409,0.335367977619171,-1094.70007324219,19.5,-945.300048828125,-1.26282123049929,-0.210994443202037,0.164564897704958,ST
0.366666666666667,-1.96669411659241,-1.52406823635101,9.21558856964111,0.419209986925125,-0.266770005226135,0.350611984729767,-1089.90002441406,12.9000005722046,-959.700012207031,-1.26475262093269,-0.207238033834662,0.163053167546185,ST
0.4,-2.00976037979126,-1.49176859855652,9.20183181762695,0.388722002506256,-0.282013982534409,0.381099998950958,-1085.10009765625,12.9000005722046,-964.500061035156,-1.26710928713657,-0.211835499554132,0.159968246988621,ST
0.433333333333333,-1.97985327243805,-1.52586269378662,9.19465351104736,0.358233988285065,-0.190549999475479,0.388722002506256,-1089.90002441406,20.7000007629395,-952.500061035156,-1.26807006223033,-0.20916714393475,0.163572602431022,ST
0.466666666666667,-2.00019001960754,-1.54320883750916,9.24190711975098,0.335367977619171,-0.167683988809586,0.289635986089706,-1089.90002441406,14.7000007629395,-957.300048828125,-1.27027570813634,-0.210108037721783,0.164751006445383,ST
0.5,-2.01334929466248,-1.50672209262848,9.1982421875,0.342989981174469,-0.198172003030777,0.358233988285065,-1094.70007324219,10.5,-952.500061035156,-1.27801187131722,-0.212499452881076,0.161615472383747,ST
0.533333333333333,-1.98224580287933,-1.51270353794098,9.25087928771973,0.342989981174469,-0.228659987449646,0.442075997591019,-1089.90002441406,7.50000047683716,-947.700012207031,-1.28010219197972,-0.208246758396569,0.161320349916864,ST
0.566666666666667,-1.93798327445984,-1.54919028282166,9.18149471282959,0.320124000310898,-0.213415995240211,0.381099998950958,-1089.90002441406,9.90000057220459,-957.300048828125,-1.28087393918845,-0.205024491467533,0.166325323020429,ST
0.6,-1.96011447906494,-1.54201257228851,9.17012977600098,0.304879993200302,-0.137196004390717,0.3125019967556,-1092.30004882812,5.10000038146973,-947.700012207031,-1.28242778257003,-0.207556697286193,0.165950633587688,ST
0.633333333333333,-2.01334929466248,-1.55517172813416,9.25925350189209,0.274392008781433,-0.175305992364883,0.259148001670837,-1097.10009765625,8.70000076293945,-959.700012207031,-1.2836350519788,-0.210929949326129,0.165823414713756,ST
0.666666666666667,-1.97985327243805,-1.55576992034912,9.20063495635986,0.350611984729767,-0.259148001670837,0.236281991004944,-1094.70007324219,9.90000057220459,-947.700012207031,-1.28448979507045,-0.208749617907957,0.166772058564193,ST
0.7,-2.01035857200623,-1.55756425857544,9.15756893157959,0.350611984729767,-0.205793991684914,0.25152599811554,-1094.70007324219,15.9000005722046,-947.700012207031,-1.28533906557742,-0.212742068720865,0.167727609051158,ST
0.733333333333333,-2.03308796882629,-1.55576992034912,9.21319580078125,0.342989981174469,-0.213415995240211,0.297257989645004,-1089.90002441406,18.3000011444092,-950.100036621094,-1.28698609613999,-0.213947864377575,0.166582883885548,ST
0.766666666666667,-1.95233869552612,-1.58448076248169,9.24848651885986,0.365855991840363,-0.304879993200302,0.3125019967556,-1099.5,15.9000005722046,-945.300048828125,-1.28794641117104,-0.204958355302134,0.168843590722437,ST
0.8,-1.93499255180359,-1.56354570388794,9.19943904876709,0.388722002506256,-0.304879993200302,0.243903994560242,-1097.10009765625,9.90000057220459,-945.300048828125,-1.28940150710538,-0.204027781037914,0.167588420302562,ST
0.833333333333333,-1.97626435756683,-1.55277919769287,9.21917724609375,0.342989981174469,-0.205793991684914,0.297257989645004,-1080.30004882812,11.1000003814697,-954.900024414062,-1.29098416240645,-0.207942533084739,0.166183453628675,ST
0.866666666666667,-1.98643279075623,-1.53064787387848,9.20123291015625,0.282013982534409,-0.144817993044853,0.37347799539566,-1092.30004882812,14.1000003814697,-952.500061035156,-1.29306809379834,-0.209636547882245,0.164259051544383,ST
0.9,-1.98942351341248,-1.55876052379608,9.21798133850098,0.274392008781433,-0.121951997280121,0.381099998950958,-1092.30004882812,17.1000003814697,-954.900024414062,-1.29439817539581,-0.209573003770256,0.166841946036753,ST
0.933333333333333,-2.04684519767761,-1.55935871601105,9.17431735992432,0.259148001670837,-0.0685980021953583,0.365855991840363,-1085.10009765625,16.5,-945.300048828125,-1.29580756704505,-0.216304219702516,0.167741083838839,ST
0.966666666666667,-2.02890086174011,-1.59285473823547,9.21558856964111,0.25152599811554,-0.0762199983000755,0.320124000310898,-1087.5,14.1000003814697,-942.900024414062,-1.29660227361782,-0.213669861511093,0.170511582586161,ST
1.0,-2.09170603752136,-1.60421943664551,9.15816688537598,0.335367977619171,-0.213415995240211,0.25152599811554,-1087.5,14.7000007629395,-942.900024414062,-1.29723310376389,-0.220822543822893,0.172659831061245,ST
1.03333333333333,-2.03129363059998,-1.63412654399872,9.18269062042236,0.304879993200302,-0.228659987449646,0.190549999475479,-1099.5,21.3000011444092,-954.900024414062,-1.2974952750517,-0.2142430565954,0.175436314818565,ST
1.06666666666667,-2.03069543838501,-1.65087461471558,9.2227668762207,0.396344006061554,-0.274392008781433,0.152439996600151,-1104.30004882812,11.7000007629395,-954.900024414062,-1.29790721229113,-0.213037537687526,0.176338339597233,ST
1.1,-2.02650833129883,-1.61139714717865,9.1988410949707,0.480185985565186,-0.335367977619171,0.144817993044853,-1085.10009765625,6.30000019073486,-957.300048828125,-1.29918667763936,-0.213147239876179,0.172605017204196,ST
1.13333333333333,-2.01394748687744,-1.62336003780365,9.21379470825195,0.510673999786377,-0.365855991840363,0.152439996600151,-1082.70007324219,20.7000007629395,-945.300048828125,-1.29954159123121,-0.211491806257567,0.173404424931325,ST
1.16666666666667,-2.09409856796265,-1.61020088195801,9.10612869262695,0.564027965068817,-0.25152599811554,0.236281991004944,-1101.90002441406,12.9000005722046,-962.100036621094,-1.30021838063864,-0.222078111842945,0.173911384168654,ST
1.2,-2.1610906124115,-1.59943425655365,9.16115760803223,0.472563982009888,-0.190549999475479,0.320124000310898,-1085.10009765625,17.1000003814697,-947.700012207031,-1.30186813382835,-0.227933860088042,0.171936326170935,ST
1.23333333333333,-2.23825097084045,-1.61020088195801,9.12227821350098,0.548784017562866,-0.388722002506256,0.342989981174469,-1097.10009765625,18.3000011444092,-950.100036621094,-1.30288153522375,-0.236283156343858,0.173540542521086,ST
1.26666666666667,-2.27952289581299,-1.64668762683868,9.17431735992432,0.525918006896973,-0.495429992675781,0.297257989645004,-1082.70007324219,19.5,-940.500061035156,-1.30361194698022,-0.239047827998665,0.17647166274377,ST
1.3,-2.45477867126465,-1.63412654399872,9.10792255401611,0.541162014007568,-0.518296003341675,0.304879993200302,-1094.70007324219,6.30000019073486,-952.500061035156,-1.30492899530619,-0.25805220046402,0.176406695944184,ST
1.33333333333333,-2.51100420951843,-1.68137991428375,9.07083797454834,0.510673999786377,-0.457319974899292,0.335367977619171,-1092.30004882812,11.7000007629395,-959.700012207031,-1.30484818656108,-0.264877480695145,0.182036408894604,ST
1.36666666666667,-2.70540070533752,-1.75375521183014,8.80286979675293,0.594515979290009,-0.289635986089706,0.0533539988100529,-1106.70007324219,14.1000003814697,-959.700012207031,-1.30086472697946,-0.29170320163454,0.195273446493272,ST
1.4,-2.98114466667175,-1.79323267936707,8.68324184417725,0.670735955238342,-0.167683988809586,-0.167683988809586,-1094.70007324219,10.5,-947.700012207031,-1.2968240315612,-0.32342459548927,0.202425443369437,ST
1.43333333333333,-2.96439647674561,-1.74597930908203,8.46850776672363,0.823175966739655,-0.518296003341675,-0.472563982009888,-1089.90002441406,11.7000007629395,-954.900024414062,-1.29379198537559,-0.329071391350656,0.202109236735919,ST
1.46666666666667,-3.12649321556091,-1.74538123607635,8.51695823669434,1.31098401546478,-1.51677799224854,-0.487807989120483,-1104.30004882812,7.50000047683716,-947.700012207031,-1.29137063763033,-0.342088999715372,0.200008803055844,ST
1.5,-3.13725996017456,-1.62814521789551,8.2262601852417,1.6692179441452,-2.32470989227295,-0.289635986089706,-1109.10009765625,15.3000001907349,-959.700012207031,-1.29174335547402,-0.353594038537362,0.192581776257111,ST
1.53333333333333,-3.17255020141602,-1.50074076652527,8.3638334274292,1.69970595836639,-2.97257995605469,0.175305992364883,-1099.5,7.50000047683716,-954.900024414062,-1.29833508455909,-0.352310606721841,0.174630609092076,ST
1.56666666666667,-2.96858358383179,-1.19748222827911,8.4350118637085,1.89025592803955,-4.05490398406982,0.960371971130371,-1113.90002441406,12.3000001907349,-942.900024414062,-1.3149954163105,-0.329165257768214,0.137836207208158,ST
1.6,-2.53851866722107,-1.11314404010773,8.68683052062988,1.72257196903229,-4.99240970611572,1.22714197635651,-1106.70007324219,8.10000038146973,-966.900024414062,-1.32664598728567,-0.274611795430032,0.123744566198996,ST
1.63333333333333,-1.73820352554321,-1.08802211284637,9.15158748626709,1.32622802257538,-6.53967571258545,0.594515979290009,-1118.70007324219,3.30000019073486,-930.900024414062,-1.33392387565312,-0.177903102287489,0.115799198003599,ST
1.66666666666667,-1.13946235179901,-0.954038023948669,8.96915340423584,1.33385002613068,-6.91315364837646,-0.0533539988100529,-1133.10009765625,6.30000019073486,-952.500061035156,-1.33828334029458,-0.115401749231276,0.103833886348375,ST
1.7,-0.819455862045288,-0.95762687921524,9.24190711975098,1.30336201190948,-5.87656164169312,-0.327746003866196,-1142.70007324219,8.70000076293945,-940.500061035156,-1.33935142334945,-0.0787310515950002,0.101014316580947,ST
1.73333333333333,-0.139367312192917,-0.96958976984024,9.92618274688721,1.14329993724823,-4.92381191253662,-0.411587983369827,-1133.10009765625,6.30000019073486,-935.700012207031,-1.33976650230128,-0.0073459740804988,0.0955285520321752,ST
1.76666666666667,0.0137572884559631,-0.92771977186203,9.97582817077637,1.31098401546478,-4.23783206939697,-0.0533539988100529,-1161.90002441406,7.50000047683716,-942.900024414062,-1.34153284168517,0.0083095752661805,0.0905843586383766,ST
1.8,0.178844749927521,-0.632237136363983,10.1696271896362,0.922261953353882,-0.46494197845459,0.87652999162674,-1176.30004882812,9.90000057220459,-938.100036621094,-1.21053029292653,0.454215204145239,-0.604334064153212,ST
1.83333333333333,-0.0657957270741463,-0.572422802448273,9.84603118896484,0.846041977405548,0.259148001670837,1.81403601169586,-1178.70007324219,6.90000009536743,-933.300048828125,-1.38202759858456,-0.0065643697799617,0.055632703401827,ST
1.86666666666667,-0.384605944156647,-0.875083148479462,9.68273830413818,0.594515979290009,1.22714197635651,1.79117000102997,-1173.90002441406,5.70000028610229,-935.700012207031,-1.39042695930158,-0.0412072370214389,0.0882874149186139,ST
1.9,-0.623863101005554,-1.11972367763519,9.52781963348389,0.426831990480423,2.15702605247498,1.02134799957275,-1169.10009765625,8.70000076293945,-933.300048828125,-1.39287557750565,-0.0681276815334944,0.11539224281561,ST
1.93333333333333,-0.912168025970459,-1.37273812294006,9.51047325134277,0.724089980125427,2.58385801315308,-0.320124000310898,-1181.10009765625,3.30000019073486,-938.100036621094,-1.38671119224962,-0.0983929086260969,0.141644454711177,ST
1.96666666666667,-1.10058307647705,-1.41520631313324,9.26762676239014,1.20427596569061,2.19513607025146,-1.18140995502472,-1171.5,0.300000011920929,-940.500061035156,-1.37695353368787,-0.119888696096892,0.14957454495983,ST
2.0,-1.56593835353851,-1.25610029697418,9.52542686462402,1.42531394958496,1.15092194080353,-1.52439999580383,-1164.30004882812,-2.70000004768372,-933.300048828125,-1.36954844772055,-0.162311734996417,0.129515906910635,ST
2.03333333333333,-1.75315701961517,-1.06469452381134,9.71324348449707,1.56251001358032,-0.106707997620106,-1.14329993724823,-1149.90002441406,3.30000019073486,-926.100036621094,-1.36553430457846,-0.176860287471292,0.107208183874974,ST
2.06666666666667,-1.69334280490875,-0.65137767791748,9.37050819396973,1.53202199935913,-0.46494197845459,0.259148001670837,-1152.30004882812,2.70000004768372,-935.700012207031,-1.37267147394298,-0.177569954374454,0.0673682378305311,ST
2.1,-1.30335354804993,-0.43425178527832,9.28497314453125,1.17378795146942,-0.304879993200302,1.265251994133,-1159.5,2.70000004768372,-933.300048828125,-1.38239496329619,-0.139579024966456,0.0447810313827319,ST
2.13333333333333,-0.741099119186401,0.0508421510457993,9.23891639709473,0.6250039935112,-0.0533539988100529,2.02745199203491,-1161.90002441406,-1.5,-945.300048828125,-1.39904867729231,-0.0810181608231374,-0.0059666993611781,ST
2.16666666666667,-0.421092659235001,0.0963010191917419,9.14799880981445,0.411587983369827,0.243903994560242,1.76068198680878,-1154.70007324219,2.70000004768372,-933.300048828125,-1.40838587742423,-0.0473318134353803,-0.0112518568698509,ST
2.2,-0.144152462482452,-0.0263182912021875,9.30471229553223,0.403965979814529,0.564027965068817,0.129574000835419,-1152.30004882812,6.30000019073486,-930.900024414062,-1.40858783798609,-0.0173154326264835,0.0017555404353939,ST
2.23333333333333,-0.729136288166046,-0.0843381583690643,9.51824951171875,0.967993974685669,0.685979962348938,-1.18903195858002,-1169.10009765625,7.50000047683716,-947.700012207031,-1.40187102781877,-0.0759942777370879,0.0071667465691675,ST
2.26666666666667,-1.16877138614655,-0.108862020075321,9.76887130737305,1.05183601379395,0.602137982845306,-1.47866797447205,-1159.5,11.1000003814697,-933.300048828125,-1.39341415748118,-0.118896713716039,0.0095401226786443,ST
2.3,-1.05273163318634,-0.225499898195267,9.41177940368652,0.670735955238342,0.289635986089706,-1.48628997802734,-1159.5,0.900000035762787,-933.300048828125,-1.38331846074075,-0.111953670345502,0.0227985496456477,ST
2.33333333333333,-1.1418548822403,-0.334361910820007,10.0930643081665,0.137196004390717,-0.25152599811554,-1.34909391403198,-1149.90002441406,2.10000014305115,-947.700012207031,-1.37455945778138,-0.11207549325528,0.0329534158713923,ST
2.36666666666667,-1.21901535987854,-0.135778456926346,9.85679817199707,0.152439996600151,-0.564027965068817,-0.823175966739655,-1164.30004882812,5.10000038146973,-938.100036621094,-1.3724744277371,-0.121759053024462,0.0142059250622704,ST
2.4,-0.699827253818512,0.0669920146465302,9.45484638214111,0.0762199983000755,-0.167683988809586,0.0685980021953583,-1149.90002441406,2.70000004768372,-935.700012207031,-1.37484117336587,-0.0748992577366455,-0.0066465715751087,ST
2.43333333333333,-0.538926839828491,0.1214230209589,10.0087261199951,-0.228659987449646,-0.419209986925125,0.617381989955902,-1145.10009765625,-3.90000009536743,-938.100036621094,-1.37840610073788,-0.0536409014336499,-0.0116515579853642,ST
2.46666666666667,-0.080151155591011,0.298473328351974,9.57507228851318,-0.236281991004944,-0.853663980960846,0.792688012123108,-1152.30004882812,2.70000004768372,-952.500061035156,-1.38324782039973,-0.007807522307296,-0.0303685411751599,ST
2.5,0.144152462482452,0.254210770130157,9.7060661315918,-0.457319974899292,-0.0685980021953583,0.342989981174469,-1142.70007324219,8.10000038146973,-935.700012207031,-1.38517176669333,0.0145700646415686,-0.0254688902177567,ST
2.53333333333333,-0.0065795728005468,0.0394774377346039,9.86457347869873,-0.449698001146317,0.510673999786377,-0.381099998950958,-1159.5,6.30000019073486,-940.500061035156,-1.38336094629023,-0.0011232326780242,-0.0038224636970497,ST
2.56666666666667,-0.0053832866251468,-0.0221312902867794,9.82868576049805,-0.556405961513519,0.731711983680725,-1.19665396213531,-1161.90002441406,-1.5,-916.500061035156,-1.37714797830665,-0.0018007587559827,0.0030348244374546,ST
2.6,-0.48150509595871,-0.0974973067641258,9.96625804901123,-0.693601965904236,1.12043392658234,-1.70732796192169,-1152.30004882812,4.5,-942.900024414062,-1.36790967940928,-0.049049219317325,0.0109367647004066,ST
2.63333333333333,-0.479112505912781,-0.16568560898304,9.88969612121582,-0.846041977405548,1.05183601379395,-1.73019397258759,-1145.10009765625,7.50000047683716,-940.500061035156,-1.3587235539959,-0.0501527204889,0.0181788818679905,ST
2.66666666666667,-0.840390861034393,-0.0592161528766155,9.65462589263916,-1.32622802257538,1.54726600646973,-1.04421401023865,-1154.70007324219,6.90000009536743,-933.300048828125,-1.35396956515058,-0.0887998897731469,0.0087807954979205,ST
2.7,-1.2118376493454,-0.302062213420868,10.194748878479,-1.73019397258759,2.24086785316467,-0.198172003030777,-1135.5,8.10000038146973,-942.900024414062,-1.35118153851665,-0.121470063017247,0.0321994623525628,ST
2.73333333333333,-0.880466461181641,-0.718369722366333,9.50808048248291,-2.20275783538818,2.9344699382782,-0.221037998795509,-1137.90002441406,4.5,-935.700012207031,-1.34505870944365,-0.097536806678019,0.0785959499562805,ST
2.76666666666667,-1.18073427677155,-1.13108837604523,9.34837627410889,-2.09605002403259,3.3689239025116,-0.731711983680725,-1121.10009765625,10.5,-950.100036621094,-1.33568147481255,-0.129530718193267,0.123070809299563,ST
2.8,-1.9708811044693,-1.43434679508209,9.49851036071777,-2.11129403114319,3.67380380630493,-1.2347639799118,-1130.70007324219,0.300000011920929,-954.900024414062,-1.32369550198351,-0.206227214085206,0.153335188810194,ST
2.83333333333333,-2.14553880691528,-1.46903908252716,9.1509895324707,-1.69970595836639,3.12502002716064,-1.2347639799118,-1113.90002441406,11.1000003814697,-947.700012207031,-1.31496895221236,-0.231809788050832,0.162583852739112,ST
2.86666666666667,-2.15989422798157,-1.65266907215118,9.15816688537598,-1.37195992469788,2.56861400604248,-0.937505960464478,-1123.5,2.70000004768372,-940.500061035156,-1.30510308303813,-0.232168253359198,0.181108854689641,ST
2.9,-2.16408133506775,-1.51748871803284,9.1868782043457,-1.28811800479889,1.20427596569061,-0.655492007732391,-1097.10009765625,15.9000005722046,-954.900024414062,-1.30556779965673,-0.230288072942239,0.166646853572101,ST
2.93333333333333,-1.77110135555267,-1.57132160663605,9.20781326293945,-0.952749967575073,0.861285984516144,-0.46494197845459,-1116.30004882812,11.1000003814697,-952.500061035156,-1.30263275935562,-0.189856030060153,0.170776554974009,ST
2.96666666666667,-1.70410931110382,-1.54500329494476,9.11450290679932,-1.08994603157043,0.556405961513519,-0.381099998950958,-1111.5,2.70000004768372,-952.500061035156,-1.30142580023764,-0.183318539260272,0.169990453793584,ST
3.0,-1.76332545280457,-1.43554317951202,9.2347297668457,-0.884151995182037,0.937505960464478,-0.198172003030777,-1118.70007324219,7.50000047683716,-942.900024414062,-1.3030142268244,-0.187951578620804,0.156164746517724,ST
3.03333333333333,-1.92602038383484,-1.29019439220428,8.94642448425293,-0.853663980960846,1.18903195858002,0.198172003030777,-1109.10009765625,17.7000007629395,-954.900024414062,-1.30626351587692,-0.211471269732767,0.14498089050141,ST
3.06666666666667,-2.23585844039917,-1.70530557632446,8.96496677398682,-1.22714197635651,1.63110792636871,0.602137982845306,-1097.10009765625,8.70000076293945,-945.300048828125,-1.29960815943067,-0.242693927479442,0.18917553045398,ST
3.1,-2.37343120574951,-1.93977761268616,8.99188327789307,-1.44817996025085,1.98171997070312,0.198172003030777,-1097.10009765625,11.7000007629395,-940.500061035156,-1.29419286216273,-0.255603597027807,0.214391818020865,ST
3.13333333333333,-2.31959843635559,-2.37522578239441,9.06007194519043,-1.83690190315247,1.98934197425842,-0.434453994035721,-1092.30004882812,11.7000007629395,-952.500061035156,-1.28097746649008,-0.246205863450879,0.258768291234757,ST
3.16666666666667,-2.10426688194275,-2.22688627243042,8.74126148223877,-2.01220798492432,1.22714197635651,-1.34909391403198,-1094.70007324219,3.90000009536743,-952.500061035156,-1.27576996721778,-0.230905009478943,0.253703935146196,ST
3.2,-2.10366892814636,-1.63711726665497,8.53849124908447,-1.53202199935913,0.480185985565186,-0.518296003341675,-1092.30004882812,10.5,-957.300048828125,-1.28842385381837,-0.237869110683624,0.194034768257411,ST
3.23333333333333,-3.67259788513184,-2.23884916305542,9.55114650726318,-1.13567793369293,1.47866797447205,1.01372599601746,-1085.10009765625,19.5,-952.500061035156,-1.28278433139311,-0.357756997102931,0.230762875596225,ST
3.26666666666667,-2.70659685134888,-1.70111858844757,8.43022727966309,-0.815553963184357,2.32470989227295,1.28811800479889,-1080.30004882812,14.1000003814697,-947.700012207031,-1.29774682212669,-0.310650384407317,0.200902937761493,ST
3.3,-3.3149082660675,-2.05820989608765,9.69290637969971,-0.0762199983000755,1.76830399036407,1.56251001358032,-1068.30004882812,13.5000009536743,-966.900024414062,-1.30124420683687,-0.325984651703966,0.20847175096099,ST
3.33333333333333,-2.85374021530151,-1.77349388599396,9.21379470825195,0.503051996231079,0.792688012123108,0.830797970294952,-1073.10009765625,8.70000076293945,-957.300048828125,-1.30956460512205,-0.297677874599151,0.189447903631392,ST
3.36666666666667,-2.14075374603271,-1.71308147907257,8.584547996521,0.579271972179413,0.228659987449646,0.0609759986400604,-1080.30004882812,21.3000011444092,-942.900024414062,-1.30718518417342,-0.241816857945401,0.195778919782385,ST
3.4,-2.09230422973633,-1.65506160259247,8.77834606170654,0.937505960464478,-0.137196004390717,-1.28811800479889,-1077.90002441406,8.70000076293945,-942.900024414062,-1.30220738472516,-0.229759294856772,0.185510388337601,ST
3.43333333333333,-2.1832218170166,-1.62455630302429,8.72750377655029,1.2500079870224,0.3125019967556,-1.6768399477005,-1075.5,16.5,-954.900024414062,-1.29275189437545,-0.240838911591729,0.182661669145287,ST
3.46666666666667,-2.54808902740479,-2.07735061645508,9.00324821472168,1.2347639799118,1.08232402801514,-2.14940404891968,-1085.10009765625,15.9000005722046,-966.900024414062,-1.26842060970837,-0.269414923514567,0.224695362415125,ST
3.5,-3.06907153129578,-2.34950566291809,9.10852146148682,0.853663980960846,1.60061991214752,-3.05642199516296,-1073.10009765625,16.5,-957.300048828125,-1.24261930603495,-0.315478625267031,0.252066427822473,ST
3.53333333333333,-3.23356080055237,-2.51339673995972,9.34957313537598,0.426831990480423,1.36433792114258,-3.00306797027588,-1065.90002441406,17.1000003814697,-957.300048828125,-1.2223403629422,-0.323072404610003,0.263449822633294,ST
3.56666666666667,-2.8782639503479,-2.39616084098816,8.74425220489502,0.160062000155449,0.350611984729767,-2.47714996337891,-1063.5,15.9000005722046,-945.300048828125,-1.20829334161827,-0.307280909932246,0.268424005459581,ST
3.6,-2.8680956363678,-2.38898301124573,8.52174282073975,0.0152439996600151,0.304879993200302,-1.84452390670776,-1068.30004882812,12.9000005722046,-952.500061035156,-1.19733857652747,-0.312875174266907,0.274183462116583,ST
3.63333333333333,-2.70599889755249,-2.36206650733948,8.67726039886475,-0.0914639979600906,0.396344006061554,-0.739333987236023,-1073.10009765625,11.7000007629395,-950.100036621094,-1.19569530979862,-0.29316003755751,0.26657763341129,ST
3.66666666666667,-2.59952926635742,-2.31421518325806,8.44278812408447,0.0152439996600151,0.358233988285065,-0.320124000310898,-1068.30004882812,10.5,-942.900024414062,-1.19335063920881,-0.289218119064741,0.267686652306346,ST
3.7,-2.58876276016235,-2.49305987358093,8.75980377197266,-0.0533539988100529,0.449698001146317,-0.297257989645004,-1073.10009765625,20.1000003814697,-945.300048828125,-1.18870527743273,-0.277867263588838,0.277300877162787,ST
3.73333333333333,-2.62824010848999,-2.59474420547485,8.88421726226807,0.304879993200302,0.182927995920181,-0.792688012123108,-1068.30004882812,12.3000001907349,-957.300048828125,-1.18243073684431,-0.276639676142314,0.283846187302318,ST
3.76666666666667,-2.75504660606384,-2.5977349281311,8.89019870758057,0.769822001457214,0.304879993200302,-1.08994603157043,-1063.5,16.5,-952.500061035156,-1.17576478733093,-0.288763137131709,0.28353688538981,ST
3.8,-3.10436201095581,-2.4517879486084,9.02179050445557,1.10518991947174,0.487807989120483,-0.777444005012512,-1053.90002441406,12.9000005722046,-957.300048828125,-1.17538998776781,-0.320183973111551,0.264467261200358,ST
3.83333333333333,-3.17015767097473,-2.29746723175049,8.94104099273682,1.20427596569061,0.426831990480423,-0.510673999786377,-1063.5,15.3000001907349,-950.100036621094,-1.1749995602147,-0.330987279936103,0.250174004018803,ST
3.86666666666667,-3.15998935699463,-2.18980145454407,8.84892749786377,0.952749967575073,-0.0304879993200302,-0.0685980021953583,-1063.5,17.1000003814697,-959.700012207031,-1.17601854210371,-0.333533988951432,0.241215073852479,ST
3.9,-2.91953587532043,-2.17185711860657,8.49183559417725,0.861285984516144,-0.0762199983000755,0.0076219998300075,-1065.90002441406,5.70000028610229,-954.900024414062,-1.17218182624608,-0.321619451548094,0.248735549508097,ST
3.93333333333333,-3.13845610618591,-2.32976698875427,8.84473991394043,0.442075997591019,-0.0685980021953583,0.129574000835419,-1070.70007324219,11.7000007629395,-954.900024414062,-1.16963673134281,-0.330327502034906,0.256555758130648,ST
3.96666666666667,-3.01942563056946,-2.47810626029968,9.02418327331543,0.167683988809586,-0.449698001146317,0.0685980021953583,-1049.10009765625,8.70000076293945,-947.700012207031,-1.16690304452343,-0.311719649877102,0.267406507191713,ST
4.0,-2.71317648887634,-2.48468589782715,8.73827075958252,-0.0381099991500378,-0.708845973014832,0.0381099991500378,-1073.10009765625,11.7000007629395,-947.700012207031,-1.16538822793336,-0.289519575099245,0.276783013273652,ST
4.03333333333333,-2.68027853965759,-2.33215951919556,8.40331077575684,-0.0762199983000755,-0.541162014007568,0.556405961513519,-1053.90002441406,13.5000009536743,-957.300048828125,-1.17065431818255,-0.297308145965548,0.270657161703531,ST
4.06666666666667,-2.92970418930054,-2.3997495174408,8.55942630767822,-0.0,0.167683988809586,1.47104597091675,-1056.30004882812,10.5,-964.500061035156,-1.17746712043927,-0.318935317235054,0.272524208517725,ST
4.1,-3.09359550476074,-2.57679986953735,8.81961822509766,0.0381099991500378,0.472563982009888,2.09605002403259,-1063.5,9.90000057220459,-957.300048828125,-1.18420776053869,-0.326439778145599,0.282888354246252,ST
4.13333333333333,-3.16656899452209,-2.5857720375061,8.85072135925293,0.190549999475479,0.37347799539566,2.08842802047729,-1051.5,15.3000001907349,-942.900024414062,-1.19324472960412,-0.332280049569681,0.282770816614338,ST
4.16666666666667,-3.3747227191925,-2.50741529464722,9.13663387298584,0.46494197845459,0.282013982534409,2.14940404891968,-1061.10009765625,11.1000003814697,-952.500061035156,-1.20766239330582,-0.343338296429802,0.2662501898739,ST
4.2,-3.08940839767456,-2.45059180259705,9.0313606262207,0.533540010452271,-0.129574000835419,1.91312193870544,-1063.5,10.5,-957.300048828125,-1.21808126071102,-0.319895129644251,0.262992012104627,ST
4.23333333333333,-2.68685817718506,-2.40034770965576,8.66410064697266,0.640248000621796,-0.579271972179413,1.60061991214752,-1063.5,14.7000007629395,-959.700012207031,-1.2244051358334,-0.290788297174685,0.268150075956382,ST
4.26666666666667,-2.57440733909607,-2.30165410041809,8.22386741638184,0.640248000621796,-0.442075997591019,1.37195992469788,-1053.90002441406,11.7000007629395,-957.300048828125,-1.23016513228494,-0.292651127768911,0.270958507530402,ST
4.3,-3.09239912033081,-2.39077734947205,9.00982761383057,0.754577994346619,0.365855991840363,1.50915598869324,-1049.10009765625,8.70000076293945,-952.500061035156,-1.24024273481507,-0.321088152381363,0.25751851548829,ST
4.33333333333333,-3.01105165481567,-2.36146855354309,8.82260894775391,1.08994603157043,0.503051996231079,1.31098401546478,-1056.30004882812,18.9000015258789,-952.500061035156,-1.24362156950913,-0.319929322518089,0.258931443276526,ST
4.36666666666667,-2.95602250099182,-2.29806518554688,8.65512847900391,1.6615959405899,0.487807989120483,1.18903195858002,-1046.70007324219,14.1000003814697,-957.300048828125,-1.246846171898,-0.320179105171114,0.25611291250209,ST
4.4,-2.92073202133179,-2.2310733795166,8.73528003692627,1.89025592803955,0.0914639979600906,1.04421401023865,-1053.90002441406,8.10000038146973,-954.900024414062,-1.25194252754337,-0.31399171701277,0.246358214047941,ST
4.43333333333333,-3.03019237518311,-2.08991146087646,8.58813667297363,1.80641400814056,-0.106707997620106,1.09756803512573,-1056.30004882812,9.30000019073486,-954.900024414062,-1.25808419752187,-0.330242487693687,0.2351112471727,ST
4.46666666666667,-2.85673093795776,-2.18621253967285,8.58634281158447,1.53964400291443,-0.0609759986400604,1.01372599601746,-1053.90002441406,9.90000057220459,-945.300048828125,-1.25726400021568,-0.312598184942981,0.245841703517999,ST
4.5,-2.89321756362915,-2.06359314918518,8.29265403747559,1.31860601902008,0.228659987449646,0.602137982845306,-1061.10009765625,10.5,-964.500061035156,-1.25913106355835,-0.326790208997152,0.241372843451904,ST
4.53333333333333,-3.18929839134216,-2.16587567329407,8.53908920288086,1.11281192302704,0.617381989955902,0.640248000621796,-1053.90002441406,6.30000019073486,-959.700012207031,-1.2579604020287,-0.348073786097311,0.246033468869659,ST
4.56666666666667,-3.24492573738098,-2.24901747703552,8.79210376739502,0.762199997901917,0.0533539988100529,0.46494197845459,-1049.10009765625,15.3000001907349,-954.900024414062,-1.25783725925706,-0.343803624134772,0.248750336668681,ST
4.6,-3.36754488945007,-2.2651674747467,8.91113376617432,0.670735955238342,-0.167683988809586,0.548784017562866,-1051.5,5.10000038146973,-947.700012207031,-1.25989293047825,-0.350836730264617,0.247423886861884,ST
4.63333333333333,-3.28739380836487,-2.11443543434143,8.82201099395752,0.586893975734711,-0.594515979290009,0.92988395690918,-1039.5,8.10000038146973,-950.100036621094,-1.26882910309888,-0.347102123609443,0.233843622810439,ST
4.66666666666667,-3.16118550300598,-2.14793133735657,8.83935642242432,0.320124000310898,-1.05183601379395,1.60061991214752,-1061.10009765625,7.50000047683716,-966.900024414062,-1.27690005343684,-0.333576616678782,0.236672424400819,ST
4.7,-2.94705033302307,-2.19219398498535,9.15996170043945,0.114329993724823,-1.41006994247437,2.01220798492432,-1063.5,11.1000003814697,-950.100036621094,-1.28998820704159,-0.302239877478185,0.233512184100116,ST
4.73333333333333,-2.82682371139526,-1.99719941616058,9.16235446929932,0.205793991684914,-1.92836594581604,2.27135586738586,-1053.90002441406,3.30000019073486,-952.500061035156,-1.30983078918286,-0.290555039954473,0.213257068746046,ST
4.76666666666667,-2.74846696853638,-1.87757074832916,8.64615631103516,0.396344006061554,-1.60824191570282,2.94971394538879,-1065.90002441406,8.10000038146973,-959.700012207031,-1.32571748337628,-0.29928523147935,0.211462626216514,ST
4.8,-2.5618462562561,-1.87936520576477,8.61086654663086,0.365855991840363,-0.663114011287689,2.97257995605469,-1070.70007324219,5.70000028610229,-959.700012207031,-1.33996695964568,-0.28328775191554,0.21265896818025,ST
4.83333333333333,-2.7903368473053,-1.81656014919281,9.30112361907959,0.243903994560242,-0.487807989120483,2.78202986717224,-1065.90002441406,12.9000005722046,-942.900024414062,-1.35956795305282,-0.286358140693742,0.191592140234312,ST
4.86666666666667,-2.65754914283752,-1.66343557834625,8.89797496795654,0.304879993200302,-1.03659200668335,2.74391984939575,-1068.30004882812,8.70000076293945,-962.100036621094,-1.37589162025955,-0.284702305218751,0.183043337923074,ST
4.9,-2.63900685310364,-1.43434679508209,8.692214012146,0.106707997620106,-0.861285984516144,2.90398192405701,-1070.70007324219,6.30000019073486,-945.300048828125,-1.3974656192177,-0.290274082696555,0.16223168505776,ST
4.93333333333333,-2.8322069644928,-1.42118775844574,9.07981014251709,-0.0990860015153885,-0.800309956073761,3.40703392028809,-1068.30004882812,10.5,-942.900024414062,-1.4184284692848,-0.298300614120303,0.153745416726132,ST
4.96666666666667,-2.72633576393127,-1.45528185367584,9.08220291137695,-0.0990860015153885,-0.846041977405548,3.39178991317749,-1063.5,12.9000005722046,-952.500061035156,-1.434874207435,-0.287911734688303,0.15715545075088,ST
5.0,-2.86331033706665,-1.44930040836334,9.13184833526611,-0.0228659994900227,-0.815553963184357,3.04879999160767,-1075.5,13.5000009536743,-952.500061035156,-1.4508594450716,-0.299408356544217,0.155787749223947,ST
5.03333333333333,-3.17853164672852,-1.29318511486053,9.29334735870361,0.160062000155449,-0.365855991840363,2.4923939704895,-1065.90002441406,3.30000019073486,-962.100036621094,-1.46915246632052,-0.325946453861567,0.136970831638028,ST
5.06666666666667,-3.10077309608459,-1.18492126464844,9.09954929351807,0.487807989120483,-0.129574000835419,2.14178204536438,-1075.5,11.7000007629395,-954.900024414062,-1.4824474010325,-0.326113047987321,0.127572971574987,ST
5.1,-3.35976910591125,-1.10835897922516,9.12825965881348,0.769822001457214,0.228659987449646,1.58537602424622,-1070.70007324219,11.7000007629395,-966.900024414062,-1.49177586564812,-0.350442449287765,0.11872108397431,ST
5.13333333333333,-3.49853825569153,-1.08742392063141,9.26463603973389,0.83841997385025,0.358233988285065,1.05945801734924,-1061.10009765625,9.90000057220459,-964.500061035156,-1.49673685071224,-0.359456156378659,0.114797017415947,ST
5.16666666666667,-2.95004105567932,-0.874485015869141,8.77535533905029,1.08994603157043,-0.0381099991500378,0.282013982534409,-1068.30004882812,10.5,-950.100036621094,-1.50200155289369,-0.32366839497691,0.0976687553755142,ST
5.2,-2.70839142799377,-0.868503570556641,8.38237571716309,1.08232402801514,-0.3125019967556,-0.342989981174469,-1075.5,7.50000047683716,-952.500061035156,-1.49725973537635,-0.310595925780377,0.101458416230661,ST
5.23333333333333,-3.09120297431946,-0.824839174747467,8.83158111572266,0.724089980125427,-0.0533539988100529,-0.853663980960846,-1061.10009765625,9.90000057220459,-957.300048828125,-1.49440274375479,-0.334599239585918,0.0925620016079332,ST
5.26666666666667,-2.94884490966797,-0.96659904718399,8.99846267700195,0.518296003341675,-0.182927995920181,-1.01372599601746,-1068.30004882812,11.7000007629395,-950.100036621094,-1.48374475483888,-0.314842172540074,0.106416012265233,ST
5.3,-3.00925731658936,-0.901999592781067,8.97932243347168,0.335367977619171,-0.320124000310898,-1.15854394435883,-1051.5,9.30000019073486,-959.700012207031,-1.47904963827367,-0.320987166770891,0.100293703318726,ST
5.33333333333333,-3.14443755149841,-1.20047295093536,9.03913688659668,0.121951997280121,0.426831990480423,-1.07470202445984,-1056.30004882812,3.90000009536743,-962.100036621094,-1.46330423719895,-0.332258324793734,0.131617287974611,ST
5.36666666666667,-3.2646644115448,-1.10895705223083,9.43989276885986,-0.0,0.693601965904236,-1.05945801734924,-1061.10009765625,8.70000076293945,-954.900024414062,-1.46202201665214,-0.331843755190317,0.117953475452565,ST
5.4,-3.57210993766785,-1.21901535987854,9.47398662567139,0.335367977619171,0.762199997901917,-0.846041977405548,-1061.10009765625,6.30000019073486,-962.100036621094,-1.45357575894236,-0.358253837735941,0.127713664360774,ST
5.43333333333333,-3.07684755325317,-0.870298027992249,8.78313159942627,0.411587983369827,0.403965979814529,-0.67835795879364,-1053.90002441406,5.10000038146973,-954.900024414062,-1.45874481046116,-0.33641701287583,0.0990073757600581,ST
5.46666666666667,-3.23296284675598,-1.21363210678101,9.01102352142334,0.0990860015153885,0.396344006061554,-0.442075997591019,-1061.10009765625,13.5000009536743,-957.300048828125,-1.44462763845725,-0.342095933411752,0.13328318187628,ST
5.5,-2.70898962020874,-1.18133234977722,8.71733570098877,-0.548784017562866,0.160062000155449,-1.02897000312805,-1065.90002441406,14.1000003814697,-964.500061035156,-1.43893377115786,-0.299438733761235,0.136172912952305,ST
5.53333333333333,-2.31421518325806,-1.11733102798462,8.26753234863281,-0.579271972179413,0.243903994560242,-1.34147191047668,-1056.30004882812,12.3000001907349,-947.700012207031,-1.43247679779545,-0.271212336642013,0.136011940995932,ST
5.56666666666667,-2.93448948860168,-1.60481762886047,8.728102684021,-0.739333987236023,1.29574000835419,-1.31098401546478,-1053.90002441406,9.90000057220459,-959.700012207031,-1.4123284969423,-0.319984122953006,0.182842936880263,ST
5.6,-3.30115103721619,-1.9086742401123,9.16175556182861,-0.6250039935112,1.65397393703461,-1.60061991214752,-1044.30004882812,11.7000007629395,-957.300048828125,-1.39627376198628,-0.340795500304983,0.206977857784985,ST
5.63333333333333,-3.44051837921143,-1.67001521587372,9.00504207611084,0.0304879993200302,1.41006994247437,-1.50915598869324,-1044.30004882812,6.30000019073486,-959.700012207031,-1.3947713785686,-0.360858033612573,0.184929317034562,ST
5.66666666666667,-3.53203415870667,-1.81955087184906,8.82081413269043,0.640248000621796,0.510673999786377,-1.30336201190948,-1063.5,11.1000003814697,-954.900024414062,-1.38050975236207,-0.37379157496464,0.20274907083639,ST
5.7,-3.51468801498413,-1.76511991024017,8.58574390411377,0.884151995182037,0.579271972179413,-1.15854394435883,-1046.70007324219,12.9000005722046,-952.500061035156,-1.37302159367808,-0.381711491515075,0.202111562423005,ST
5.73333333333333,-3.68755149841309,-1.61259341239929,8.73109340667725,0.602137982845306,0.655492007732391,-0.754577994346619,-1056.30004882812,9.90000057220459,-954.900024414062,-1.37445754161597,-0.394330234566349,0.182523081164547,ST
5.76666666666667,-3.5673246383667,-1.60900461673737,8.63060474395752,0.297257989645004,0.0990860015153885,-0.442075997591019,-1034.70007324219,11.7000007629395,-947.700012207031,-1.37094051928468,-0.386155809925458,0.184084405247043,ST
5.8,-3.29516959190369,-1.63352847099304,8.48585414886475,0.228659987449646,-0.221037998795509,-0.228659987449646,-1051.5,5.70000028610229,-954.900024414062,-1.36745849013965,-0.364301381200777,0.189778378217003,ST
5.83333333333333,-3.35797452926636,-1.73700714111328,8.74604606628418,0.182927995920181,-0.3125019967556,-0.228659987449646,-1041.90002441406,6.90000009536743,-962.100036621094,-1.36423808995388,-0.359678168614825,0.195677250772034,ST
5.86666666666667,-3.308926820755,-1.87338376045227,8.91233062744141,0.327746003866196,-0.388722002506256,-0.533540010452271,-1049.10009765625,11.7000007629395,-940.500061035156,-1.35751866424251,-0.347899843671733,0.206662706110468,ST
5.9,-2.40214228630066,-1.75435328483582,8.46073246002197,0.182927995920181,-1.04421401023865,-1.03659200668335,-1044.30004882812,6.30000019073486,-947.700012207031,-1.35389300030515,-0.271145171616974,0.204596462637281,ST
5.93333333333333,-2.4176938533783,-1.73282015323639,8.42424583435059,0.190549999475479,-2.04269599914551,-1.06708002090454,-1049.10009765625,11.1000003814697,-950.100036621094,-1.3509269240987,-0.270194101287921,0.202886491312095,ST
5.96666666666667,-2.98712611198425,-1.86142086982727,8.69759654998779,0.228659987449646,-1.29574000835419,-0.617381989955902,-1044.30004882812,14.7000007629395,-945.300048828125,-1.34665046838542,-0.320343265345736,0.210440195136944,ST
6.0,-3.04275321960449,-1.84766364097595,8.99367809295654,-0.106707997620106,-0.67835795879364,0.167683988809586,-1053.90002441406,14.1000003814697,-962.100036621094,-1.35081463286293,-0.318939090896996,0.202795549305859,ST
6.03333333333333,-3.00925731658936,-1.99540495872498,8.72630786895752,-0.175305992364883,-0.632625997066498,0.442075997591019,-1049.10009765625,-0.900000035762787,-957.300048828125,-1.34714908581155,-0.32327688608464,0.224173319822185,ST
6.06666666666667,-3.39805030822754,-2.01992893218994,8.98889255523682,-0.46494197845459,-0.266770005226135,0.609759986400604,-1061.10009765625,9.30000019073486,-974.100036621094,-1.35203078905181,-0.352316931330506,0.221514046594868,ST
6.1,-2.99430370330811,-2.30763554573059,8.83576774597168,-0.647870004177094,-0.320124000310898,0.449698001146317,-1049.10009765625,12.9000005722046,-947.700012207031,-1.34450476482318,-0.317474320608059,0.255360921121023,ST
6.13333333333333,-2.98951864242554,-2.47092866897583,8.66888618469238,-0.236281991004944,0.0685980021953583,0.0304879993200302,-1046.70007324219,16.5,-952.500061035156,-1.33801618369369,-0.320284860894246,0.27745835694791,ST
6.16666666666667,-3.45726633071899,-2.42786240577698,8.73049449920654,0.457319974899292,0.556405961513519,0.228659987449646,-1051.5,15.3000001907349,-964.500061035156,-1.33981920130349,-0.364809638276948,0.270504152662226,ST
6.2,-3.96150088310242,-2.40752553939819,9.24370193481445,0.937505960464478,0.495429992675781,0.548784017562866,-1039.5,14.1000003814697,-966.900024414062,-1.34655260357057,-0.394212576426837,0.252859783324002,ST
6.23333333333333,-3.72104740142822,-2.35070180892944,9.10852146148682,0.83841997385025,-0.83841997385025,0.907018005847931,-1058.70007324219,13.5000009536743,-957.300048828125,-1.35130623399898,-0.376035505222987,0.250403711044751,ST
6.26666666666667,-3.31610465049744,-2.52236890792847,8.26693439483643,0.388722002506256,-0.99848198890686,1.20427596569061,-1046.70007324219,19.5,-962.100036621094,-1.34223819671305,-0.365512458412122,0.293589028172813,ST
6.3,-2.76521492004395,-2.00976037979126,8.34947776794434,0.457319974899292,-1.02134799957275,1.36433792114258,-1053.90002441406,14.1000003814697,-962.100036621094,-1.36833541994139,-0.311851153736074,0.236101366208064,ST
6.33333333333333,-2.47451758384705,-1.77528834342957,8.64316558837891,0.46494197845459,-0.533540010452271,1.76830399036407,-1056.30004882812,9.30000019073486,-950.100036621094,-1.38672366001933,-0.274190812787895,0.201806109341768,ST
6.36666666666667,-2.80289793014526,-1.89013183116913,8.38237571716309,0.609759986400604,0.137196004390717,1.99696397781372,-1056.30004882812,9.30000019073486,-954.900024414062,-1.39025831562675,-0.315148320850487,0.219142669149797,ST
6.4,-2.95721888542175,-1.85603761672974,8.40390872955322,0.739333987236023,1.09756803512573,2.24848985671997,-1051.5,13.5000009536743,-959.700012207031,-1.40073273865825,-0.333343153687899,0.214971070812817,ST
6.43333333333333,-3.08522152900696,-1.8386914730072,8.76279449462891,0.769822001457214,0.807931959629059,1.99696397781372,-1046.70007324219,12.3000001907349,-952.500061035156,-1.41201795903553,-0.333916073785436,0.204621406723587,ST
6.46666666666667,-3.64747595787048,-1.80280292034149,9.03315544128418,0.571649968624115,0.396344006061554,1.6920839548111,-1049.10009765625,8.70000076293945,-952.500061035156,-1.42190786807455,-0.377078795708871,0.195176019614723,ST
6.5,-3.35558199882507,-1.79622340202332,8.72451305389404,0.228659987449646,0.190549999475479,1.65397393703461,-1041.90002441406,9.30000019073486,-957.300048828125,-1.42688984927043,-0.361608357379848,0.201425168754127,ST
6.53333333333333,-3.67678475379944,-1.93439435958862,9.1802978515625,0.144817993044853,0.327746003866196,1.70732796192169,-1053.90002441406,12.3000001907349,-954.900024414062,-1.43287838677823,-0.374364976197176,0.206206923725636,ST
6.56666666666667,-3.33644151687622,-2.11981868743896,9.07562351226807,-0.282013982534409,-0.434453994035721,1.35671591758728,-1034.70007324219,9.30000019073486,-954.900024414062,-1.43246329335533,-0.344409815984639,0.228441650627214,ST
6.6,-2.78794431686401,-1.87218749523163,8.43740463256836,-0.221037998795509,-0.663114011287689,1.15854394435883,-1041.90002441406,7.50000047683716,-954.900024414062,-1.44237304018954,-0.312251654199446,0.218296236255364,ST
6.63333333333333,-2.81366443634033,-1.80998063087463,8.608473777771,-0.167683988809586,-0.594515979290009,1.17378795146942,-1058.70007324219,15.3000001907349,-947.700012207031,-1.45232914878628,-0.309068626102213,0.207132812477549,ST
6.66666666666667,-3.15161538124084,-1.99002170562744,8.65453052520752,0.586893975734711,0.0152439996600151,1.31860601902008,-1039.5,13.5000009536743,-947.700012207031,-1.45233814935591,-0.340680281095506,0.223729161642729,ST
6.7,-3.02002382278442,-1.94217026233673,8.67068004608154,0.617381989955902,-0.175305992364883,0.87652999162674,-1051.5,9.30000019073486,-954.900024414062,-1.45726587151231,-0.328020210354222,0.218881255921246,ST
6.73333333333333,-3.22757935523987,-1.76153099536896,8.65991401672363,1.05183601379395,-0.388722002506256,0.967993974685669,-1041.90002441406,11.7000007629395,-959.700012207031,-1.46725003079919,-0.34932587805519,0.198684140318692,ST
6.76666666666667,-3.55954885482788,-1.76990509033203,9.21199989318848,1.22714197635651,-0.655492007732391,1.41006994247437,-1041.90002441406,10.5,-959.700012207031,-1.47657663300044,-0.361712830269398,0.186967856899732,ST
6.8,-3.67857933044434,-1.61917304992676,9.37529277801514,1.33385002613068,-0.952749967575073,1.56251001358032,-1049.10009765625,11.1000003814697,-940.500061035156,-1.48908508910878,-0.367599446617737,0.168078369954269,ST
6.83333333333333,-3.07445478439331,-1.45647811889648,8.84952545166016,1.2423859834671,-1.2576299905777,1.64635193347931,-1049.10009765625,8.10000038146973,-959.700012207031,-1.49859546366302,-0.329605253380404,0.160075020469311,ST
6.86666666666667,-3.11393237113953,-1.13587355613708,8.77595329284668,0.92988395690918,-0.731711983680725,1.73019397258759,-1051.5,6.30000019073486,-959.700012207031,-1.51673988294238,-0.337271049812047,0.1269168651602,ST
6.9,-2.99310731887817,-1.12032175064087,9.20242977142334,0.548784017562866,-0.609759986400604,1.44817996025085,-1053.90002441406,5.70000028610229,-940.500061035156,-1.52605100438709,-0.312081558690885,0.119489121487637,ST
6.93333333333333,-2.74308371543884,-0.907981038093567,8.67965221405029,0.647870004177094,-0.914639949798584,1.00610399246216,-1051.5,16.5,-950.100036621094,-1.5354758542362,-0.303382323427471,0.102961794923402,ST
6.96666666666667,-2.98234081268311,-1.01744115352631,8.86148834228516,0.228659987449646,-0.449698001146317,0.6250039935112,-1039.5,17.7000007629395,-959.700012207031,-1.53533064885763,-0.321569062428253,0.113274347217444,ST
7.0,-3.19228911399841,-0.99590802192688,8.80765533447266,0.342989981174469,-0.0152439996600151,0.541162014007568,-1056.30004882812,8.70000076293945,-962.100036621094,-1.53789398012863,-0.345108271242291,0.111703756882044,ST
7.03333333333333,-3.28500127792358,-1.01504862308502,8.9356575012207,0.175305992364883,0.129574000835419,0.0381099991500378,-1049.10009765625,10.5,-947.700012207031,-1.53733728488167,-0.350307969934049,0.112760014818912,ST
7.06666666666667,-3.46623849868774,-1.16877138614655,8.86567497253418,0.541162014007568,0.342989981174469,-0.0228659994900227,-1041.90002441406,7.50000047683716,-959.700012207031,-1.5300552934074,-0.369832191060376,0.129698086705361,ST
7.1,-3.39984464645386,-1.17834162712097,8.80705738067627,0.503051996231079,0.114329993724823,-0.472563982009888,-1051.5,9.90000057220459,-954.900024414062,-1.52561248122367,-0.365618670872686,0.132393851121337,ST
7.13333333333333,-3.38010597229004,-1.20047295093536,9.06007194519043,0.297257989645004,-0.358233988285065,-0.967993974685669,-1041.90002441406,7.50000047683716,-950.100036621094,-1.52054360892502,-0.35365410031149,0.131817024229016,ST
7.16666666666667,-2.98234081268311,-1.02282452583313,8.33452415466309,0.388722002506256,-0.579271972179413,-0.853663980960846,-1046.70007324219,12.9000005722046,-959.700012207031,-1.51936042451816,-0.340451945917044,0.122182492314482,ST
7.2,-3.71207523345947,-1.18791198730469,9.32863807678223,-0.25152599811554,0.144817993044853,-0.571649968624115,-1041.90002441406,6.30000019073486,-952.500061035156,-1.51518181501554,-0.37511348288417,0.127351973121956,ST
7.23333333333333,-3.39087247848511,-1.31292378902435,9.16235446929932,-0.144817993044853,0.137196004390717,-0.297257989645004,-1041.90002441406,15.3000001907349,-935.700012207031,-1.50852867730602,-0.351891324387867,0.142418577402585,ST
7.26666666666667,-3.5093047618866,-1.6024249792099,9.41297626495361,-0.175305992364883,0.0381099991500378,-0.320124000310898,-1046.70007324219,11.1000003814697,-954.900024414062,-1.49831302947585,-0.352172193441545,0.168405134052789,ST
7.3,-3.48418283462524,-1.46305775642395,8.85670280456543,0.205793991684914,0.160062000155449,-0.304879993200302,-1053.90002441406,8.70000076293945,-954.900024414062,-1.49800872912061,-0.369928168235999,0.163707284324428,ST
7.33333333333333,-3.03856635093689,-1.32847559452057,8.26155090332031,0.243903994560242,0.434453994035721,-0.190549999475479,-1051.5,15.9000005722046,-947.700012207031,-1.49777719484446,-0.349453271192299,0.159269471174144,ST
7.36666666666667,-3.26406621932983,-1.4421226978302,8.95420074462891,-0.144817993044853,-0.0685980021953583,-0.289635986089706,-1041.90002441406,8.10000038146973,-952.500061035156,-1.49641300257383,-0.345374699168932,0.160086967078821,ST
7.4,-3.06189393997192,-1.42716908454895,8.5546407699585,-0.121951997280121,-0.457319974899292,-0.320124000310898,-1039.5,15.3000001907349,-957.300048828125,-1.49351948041833,-0.338627520284034,0.16556800493474,ST
7.43333333333333,-3.01404237747192,-1.63412654399872,8.45833969116211,-0.259148001670837,-0.0228659994900227,-0.449698001146317,-1037.10009765625,8.70000076293945,-952.500061035156,-1.48344426501234,-0.336436407127724,0.190858635154769,ST
7.46666666666667,-3.1928870677948,-1.7286331653595,8.85789966583252,-0.457319974899292,0.0304879993200302,-0.701223969459534,-1053.90002441406,13.5000009536743,-952.500061035156,-1.47983931334045,-0.33976449786456,0.193871104315113,ST
7.5,-3.30234742164612,-1.96011447906494,8.96676158905029,-0.266770005226135,0.137196004390717,-0.754577994346619,-1046.70007324219,8.70000076293945,-954.900024414062,-1.46903443161178,-0.345211251981126,0.215696326231512,DLL
7.53333333333333,-3.2006630897522,-1.93319809436798,9.08280086517334,-0.198172003030777,-0.442075997591019,-0.884151995182037,-1053.90002441406,9.30000019073486,-962.100036621094,-1.46696969466518,-0.331097010505953,0.210615551833586,DLL
7.56666666666667,-2.98234081268311,-1.96011447906494,9.01700496673584,-0.0304879993200302,-1.16616594791412,-0.594515979290009,-1041.90002441406,7.50000047683716,-952.500061035156,-1.46419076807523,-0.310883805716772,0.214204292103903,DLL
7.6,-2.71736359596252,-1.59524726867676,8.42603969573975,-0.0914639979600906,-1.95123195648193,0.327746003866196,-1049.10009765625,9.30000019073486,-957.300048828125,-1.47623370812057,-0.303753908404858,0.187384345423902,DLL
7.63333333333333,-3.57749319076538,-1.58268630504608,9.0253791809082,-0.46494197845459,-1.46342396736145,1.65397393703461,-1056.30004882812,8.70000076293945,-957.300048828125,-1.49080690510129,-0.368396658914025,0.173559691078695,DLL
7.66666666666667,-3.57629680633545,-1.72564244270325,8.72989654541016,-1.21189796924591,-1.28049600124359,3.49087595939636,-1046.70007324219,12.9000005722046,-962.100036621094,-1.50326630428755,-0.380756219508008,0.194130750702821,DLL
7.7,-2.97695755958557,-1.80519545078278,8.71195220947266,-1.79117000102997,-1.99696397781372,4.00154972076416,-1058.70007324219,15.3000001907349,-964.500061035156,-1.52386713534162,-0.322522386653156,0.204593195693616,DLL
7.73333333333333,-3.39805030822754,-1.61558413505554,8.704176902771,-1.89025592803955,-2.9192259311676,4.86283588409424,-1058.70007324219,12.3000001907349,-952.500061035156,-1.56006936159445,-0.361949951048609,0.183934420842062,DLL
7.76666666666667,-3.36216163635254,-1.71367967128754,8.42185306549072,-3.43752193450928,-3.3460578918457,7.02748394012451,-1075.5,17.1000003814697,-947.700012207031,-1.59676483115682,-0.369397405073941,0.201154864009415,DLL
7.8,-3.57689499855042,-1.90388906002045,8.29504680633545,-5.21344804763794,-4.12350177764893,9.93908786773682,-1056.30004882812,17.7000007629395,-957.300048828125,-1.64836146311844,-0.394009073909454,0.226336085069319,DLL
7.83333333333333,-3.7371973991394,-2.13417410850525,7.99657344818115,-7.09608173370361,-5.06100797653198,12.8735580444336,-1063.5,20.1000003814697,-952.500061035156,-1.71896020758584,-0.42077980641317,0.261730238388087,DLL
7.86666666666667,-3.79940414428711,-2.72693371772766,8.10902404785156,-9.67994022369385,-5.19058179855347,16.8217544555664,-1085.10009765625,23.7000007629395,-947.700012207031,-1.80557668062743,-0.418671546574421,0.326383467748717,DLL
7.9,-3.14264321327209,-3.62953162193298,8.06057453155518,-11.0518999099731,-6.00613594055176,18.5976791381836,-1077.90002441406,32.1000022888184,-930.900024414062,-1.89257667603462,-0.346622791370445,0.428044931066688,DLL
7.93333333333333,-3.14503574371338,-3.76949691772461,7.63828563690186,-11.2195835113525,-5.57168197631836,18.7424983978271,-1070.70007324219,29.1000003814697,-938.100036621094,-1.99375135962906,-0.359191105220265,0.464347221069019,DLL
7.96666666666667,-3.16896152496338,-3.96209907531738,7.76688671112061,-11.5778179168701,-5.04576396942139,19.1998176574707,-1085.10009765625,35.7000007629395,-926.100036621094,-2.10698912676699,-0.356261381008008,0.478893691132316,DLL
8.0,-2.38898301124573,-4.56502723693848,8.33512210845947,-10.6479339599609,-5.7698540687561,18.2927989959717,-1075.5,39.9000015258789,-918.900024414062,-2.20672179896269,-0.255809393387833,0.509821319403031,DLL
8.03333333333333,-1.75913846492767,-5.08062648773193,8.92728424072266,-9.10066795349121,-5.70887804031372,15.9985780715942,-1075.5,48.3000030517578,-914.100036621094,-2.297203848754,-0.177224011094793,0.527300624251534,DLL
8.06666666666667,-1.5802937746048,-5.02260637283325,9.45783710479736,-4.51984596252441,-3.84910988807678,9.46652412414551,-1061.10009765625,45.9000015258789,-887.700012207031,-2.36323585033247,-0.149000052667364,0.49396328727315,DLL
8.1,-1.38948607444763,-4.83538770675659,9.41776084899902,-1.34147191047668,-2.25611186027527,4.5808219909668,-1061.10009765625,51.3000030517578,-899.700012207031,-2.3928954315088,-0.131182725233161,0.475985794417537,DLL
8.13333333333333,-2.7502613067627,-3.5972318649292,8.44039535522461,0.503051996231079,-1.79879200458527,0.335367977619171,-1053.90002441406,49.5000038146973,-892.500061035156,-2.41309862982331,-0.285745614719138,0.402932384326409,DLL
8.16666666666667,-2.97456502914429,-3.49076247215271,8.02169513702393,0.0762199983000755,-1.35671591758728,1.2500079870224,-1068.30004882812,44.1000022888184,-890.100036621094,-2.41941815083254,-0.325337443550895,0.409158453683748,DLL
8.2,-2.77059817314148,-3.37412452697754,7.25966119766235,-0.92988395690918,-1.14329993724823,2.14178204536438,-1058.70007324219,38.1000022888184,-897.300048828125,-2.42466661617561,-0.33273470086134,0.434525783861741,DLL
8.23333333333333,-3.12649321556091,-3.53801560401917,7.81952285766602,-1.14329993724823,-0.937505960464478,3.87959790229797,-1049.10009765625,45.9000015258789,-887.700012207031,-2.44907514325998,-0.35015595822192,0.424681772270253,DLL
8.26666666666667,-2.95482635498047,-3.83708715438843,8.43142318725586,-1.05183601379395,-1.2347639799118,3.87197589874268,-1049.10009765625,51.9000015258789,-909.300048828125,-2.47133062709912,-0.310446977741044,0.42659391664287,DLL
8.3,-2.42905855178833,-3.81734848022461,8.2860746383667,-0.746955990791321,-1.98171997070312,1.75305998325348,-1053.90002441406,47.1000022888184,-894.900024414062,-2.48379558146125,-0.25943329698447,0.431770030800121,DLL
8.33333333333333,-2.73052263259888,-3.6014187335968,8.05638790130615,-0.198172003030777,-1.83690190315247,0.37347799539566,-1051.5,50.1000022888184,-906.900024414062,-2.49318715087411,-0.296730458790367,0.4203613299304,DLL
8.36666666666667,-3.2688512802124,-3.63850378990173,8.82679557800293,0.556405961513519,-1.21189796924591,0.46494197845459,-1063.5,48.3000030517578,-887.700012207031,-2.50620296812866,-0.327580839237055,0.390139735674821,DLL
8.4,-2.30045795440674,-3.82273173332214,7.80217695236206,-0.0457319989800453,-1.52439999580383,-0.182927995920181,-1065.90002441406,51.3000030517578,-902.100036621094,-2.49029586489033,-0.257795155716643,0.454106147620775,DLL
8.43333333333333,-2.60909962654114,-3.79103016853333,8.3638334274292,0.0914639979600906,-0.990859985351562,-0.0457319989800453,-1056.30004882812,50.7000007629395,-890.100036621094,-2.4996630294185,-0.27491219077733,0.425749315743967,DLL
8.46666666666667,-2.36984252929688,-3.75155282020569,8.21070861816406,0.0990860015153885,-0.78506600856781,-0.25152599811554,-1075.5,56.1000022888184,-892.500061035156,-2.49936320597819,-0.2557073781119,0.42831417519895,DLL
8.5,-2.44102144241333,-3.75155282020569,8.34230041503906,0.282013982534409,-1.15092194080353,-0.182927995920181,-1068.30004882812,53.1000022888184,-904.500061035156,-2.50209732524613,-0.258739912442077,0.422146044503679,DLL
8.53333333333333,-2.33215951919556,-3.71805667877197,8.36203861236572,-0.0457319989800453,-1.46342396736145,-0.274392008781433,-1053.90002441406,53.1000022888184,-887.700012207031,-2.50499652120907,-0.247214302537179,0.418380448984554,DLL
8.56666666666667,-2.1491277217865,-3.92321968078613,8.74903678894043,0.0533539988100529,-1.81403601169586,-0.121951997280121,-1058.70007324219,51.9000015258789,-885.300048828125,-2.50747801922691,-0.218325456591117,0.421121805251733,DLL
8.6,-1.53423666954041,-3.90108847618103,7.94812393188477,-0.282013982534409,-1.89787793159485,-0.304879993200302,-1070.70007324219,56.7000007629395,-906.900024414062,-2.50406845213607,-0.169273100549885,0.45596615682257,DLL
8.63333333333333,-2.42247915267944,-3.6552517414093,8.63120269775391,-0.0228659994900227,-0.663114011287689,0.685979962348938,-1065.90002441406,59.1000022888184,-885.300048828125,-2.52007394332753,-0.250355098208921,0.401609884367207,DLL
8.66666666666667,-2.14673519134521,-3.68276619911194,8.87404918670654,0.495429992675781,-0.0685980021953583,0.769822001457214,-1073.10009765625,51.3000030517578,-892.500061035156,-2.52534319358574,-0.221047793562148,0.392471805413894,DLL
8.7,-1.9589182138443,-3.61278343200684,8.71255016326904,0.0381099991500378,-0.365855991840363,0.0304879993200302,-1073.10009765625,51.3000030517578,-880.500061035156,-2.5260555247154,-0.204667975292361,0.392943088565995,DLL
8.73333333333333,-2.36027216911316,-3.47939777374268,8.75501823425293,-0.0076219998300075,-0.129574000835419,0.106707997620106,-1087.5,52.5000038146973,-904.500061035156,-2.53006140302144,-0.244495520451264,0.378538216048097,DLL
8.76666666666667,-1.82433605194092,-3.40582609176636,8.04023742675781,0.411587983369827,0.365855991840363,0.0076219998300075,-1065.90002441406,47.1000022888184,-870.900024414062,-2.52413924523326,-0.207347813865467,0.399575884298068,DLL
8.8,-2.76102805137634,-3.1587929725647,8.76279449462891,1.27287399768829,1.28811800479889,0.297257989645004,-1056.30004882812,56.1000022888184,-890.100036621094,-2.53482112683693,-0.288201233783137,0.345394264866282,DLL
8.83333333333333,-2.61747360229492,-3.08282876014709,8.54686450958252,1.2347639799118,1.08232402801514,-0.0533539988100529,-1075.5,47.1000022888184,-897.300048828125,-2.53127616102264,-0.282396952795938,0.344261282674119,DLL
8.86666666666667,-2.46853613853455,-3.12529706954956,8.30102825164795,0.266770005226135,0.449698001146317,-0.411587983369827,-1075.5,53.7000007629395,-897.300048828125,-2.52403383340583,-0.272206602070641,0.359457781470915,DLL
8.9,-2.13417410850525,-3.46504211425781,7.83806562423706,-0.434453994035721,0.0762199983000755,-0.792688012123108,-1061.10009765625,57.9000015258789,-873.300048828125,-2.50608897635596,-0.244238644613578,0.416148324832455,DLL
8.93333333333333,-2.5917534828186,-3.5493803024292,8.33572006225586,-0.236281991004944,0.320124000310898,-0.830797970294952,-1068.30004882812,55.5000038146973,-890.100036621094,-2.50482206786533,-0.277951652122456,0.403636507509422,DLL
8.96666666666667,-2.24183988571167,-3.83349823951721,8.26155090332031,-0.0609759986400604,0.190549999475479,-0.777444005012512,-1073.10009765625,56.1000022888184,-885.300048828125,-2.4928378011086,-0.241852359970997,0.43425830184511,DLL
9.0,-2.58337950706482,-3.83349823951721,8.32136535644531,-0.335367977619171,0.365855991840363,-1.12043392658234,-1063.5,50.7000007629395,-892.500061035156,-2.48745905379844,-0.27391472203664,0.432886387810944,DLL
9.03333333333333,-2.35907578468323,-3.84306859970093,8.24839115142822,-0.403965979814529,0.358233988285065,-0.884151995182037,-1063.5,45.9000015258789,-897.300048828125,-2.48214178843088,-0.254129529718151,0.437036477425396,DLL
9.06666666666667,-2.07555603981018,-3.82332992553711,7.54138660430908,-0.160062000155449,0.426831990480423,-0.815553963184357,-1077.90002441406,50.7000007629395,-897.300048828125,-2.46987422002565,-0.241110941965561,0.469001734065645,DLL
9.1,-2.59474420547485,-3.78684306144714,7.96068477630615,0.0076219998300075,0.815553963184357,-0.442075997591019,-1073.10009765625,42.9000015258789,-887.700012207031,-2.47233286576117,-0.285954039342659,0.445062172210912,DLL
9.13333333333333,-2.75325202941895,-4.01533365249634,8.66529750823975,0.243903994560242,1.18903195858002,-0.541162014007568,-1065.90002441406,51.9000015258789,-897.300048828125,-2.47004841262749,-0.282262965139922,0.434302512672851,DLL
9.16666666666667,-2.88125467300415,-4.17264556884766,8.35725402832031,-0.266770005226135,0.754577994346619,-0.868907988071442,-1053.90002441406,48.9000015258789,-878.100036621094,-2.45661281329483,-0.299225958773329,0.463322081590314,DLL
9.2,-2.8680956363678,-4.57938241958618,8.23343753814697,-1.6844619512558,0.46494197845459,-0.449698001146317,-1075.5,55.5000038146973,-885.300048828125,-2.44254654080592,-0.295942051376428,0.509563220277734,DLL
9.23333333333333,-2.37402939796448,-4.6170654296875,8.07193946838379,-1.28049600124359,-0.228659987449646,-0.3125019967556,-1063.5,44.7000007629395,-873.300048828125,-2.44025317093362,-0.250608175821405,0.521545517074753,DLL
9.26666666666667,-1.93858134746552,-4.78334951400757,8.04681777954102,-0.945127964019775,-0.182927995920181,0.0914639979600906,-1070.70007324219,50.1000022888184,-878.100036621094,-2.43858347638739,-0.20527673485528,0.537468350690067,DLL
9.3,-1.9768625497818,-4.63022470474243,8.27530765533447,-0.266770005226135,0.327746003866196,0.411587983369827,-1065.90002441406,62.1000022888184,-894.900024414062,-2.44521138733042,-0.206352335954794,0.511251538548182,DLL
9.33333333333333,-1.43075799942017,-4.52674579620361,7.46781492233276,0.510673999786377,0.823175966739655,-0.556405961513519,-1056.30004882812,57.9000015258789,-878.100036621094,-2.43421710277914,-0.164309382458084,0.543429593209584,DLL
9.36666666666667,-2.12221121788025,-4.32337760925293,7.5048999786377,1.06708002090454,1.07470202445984,-0.899396002292633,-1061.10009765625,51.3000030517578,-878.100036621094,-2.4306555463657,-0.239040821062725,0.521940687585254,DLL
9.4,-2.31660771369934,-4.33234977722168,7.64247274398804,1.37195992469788,1.31860601902008,-1.08994603157043,-1073.10009765625,51.3000030517578,-880.500061035156,-2.42245210342366,-0.258425160704474,0.51423463305823,DLL
9.43333333333333,-3.09120297431946,-4.3544807434082,8.61266040802002,1.05183601379395,0.83841997385025,-1.78354799747467,-1073.10009765625,52.5000038146973,-894.900024414062,-2.42355502720528,-0.308649988479384,0.468489167247324,DLL
9.46666666666667,-2.7382984161377,-4.49863338470459,8.3339262008667,1.11281192302704,0.137196004390717,-2.33995389938354,-1070.70007324219,53.7000007629395,-890.100036621094,-2.4032725144985,-0.280345810652616,0.493586803854477,DLL
9.5,-2.71018576622009,-4.51597929000854,7.97743272781372,1.10518991947174,-0.297257989645004,-2.71343183517456,-1065.90002441406,50.7000007629395,-878.100036621094,-2.38496149482748,-0.284570269568881,0.513750768037672,DLL
9.53333333333333,-2.76581311225891,-4.42446374893188,7.97982549667358,1.41006994247437,0.121951997280121,-2.34757590293884,-1065.90002441406,51.3000030517578,-897.300048828125,-2.37483485938148,-0.292305615251083,0.505143541061516,DLL
9.56666666666667,-2.6156792640686,-4.47291326522827,7.96606826782227,1.19665396213531,0.289635986089706,-1.56251001358032,-1077.90002441406,46.5,-899.700012207031,-2.36334634077535,-0.278216398524657,0.510198512038109,DLL
9.6,-2.85792708396912,-4.57280302047729,7.82012128829956,0.967993974685669,0.327746003866196,-1.08232402801514,-1082.70007324219,46.5,-902.100036621094,-2.35143838816893,-0.304412924914531,0.527548512572205,DLL
9.63333333333333,-2.47810626029968,-4.63381338119507,7.46841335296631,0.647870004177094,0.411587983369827,-0.967993974685669,-1082.70007324219,48.9000015258789,-902.100036621094,-2.33774891671357,-0.275359251126588,0.553981570877817,DLL
9.66666666666667,-3.09120297431946,-4.29406833648682,7.67417430877686,0.739333987236023,0.457319974899292,-0.3125019967556,-1085.10009765625,54.3000030517578,-892.500061035156,-2.34721401693712,-0.336744381672039,0.510403625390496,DLL
9.7,-2.79392576217651,-4.74088096618652,8.15209102630615,0.335367977619171,0.0838419944047928,0.228659987449646,-1080.30004882812,50.7000007629395,-890.100036621094,-2.34276030192761,-0.28967382875472,0.525663912515728,DLL
9.73333333333333,-3.07445478439331,-4.49803495407104,7.17412662506104,-0.0457319989800453,0.0609759986400604,0.160062000155449,-1077.90002441406,53.7000007629395,-887.700012207031,-2.33290683457586,-0.346918323170625,0.559088304246731,DLL
9.76666666666667,-3.21561670303345,-4.62125253677368,7.87096357345581,0.693601965904236,0.762199997901917,1.70732796192169,-1075.5,48.3000030517578,-890.100036621094,-2.34712716650966,-0.341502469366379,0.529636798296483,DLL
9.8,-2.80947756767273,-4.70798349380493,7.34280300140381,0.106707997620106,0.175305992364883,1.35671591758728,-1065.90002441406,49.5000038146973,-909.300048828125,-2.34017313020054,-0.31358077417755,0.568746316280879,DLL
9.83333333333333,-3.31550645828247,-4.76839590072632,7.61615467071533,-0.0076219998300075,-0.663114011287689,1.62348592281342,-1070.70007324219,51.9000015258789,-878.100036621094,-2.35194365798374,-0.352900035908868,0.5585874054625,DLL
9.86666666666667,-3.52904343605042,-4.94664239883423,8.43919944763184,-0.419209986925125,-1.09756803512573,2.05031800270081,-1061.10009765625,42.3000030517578,-894.900024414062,-2.37371428597822,-0.346580961894795,0.530229296467248,DLL
9.9,-2.56304264068604,-5.05670070648193,7.85720586776733,-0.37347799539566,-1.6768399477005,2.15702605247498,-1073.10009765625,52.5000038146973,-887.700012207031,-2.37565527077395,-0.269441412641591,0.570074023526842,DLL
9.93333333333333,-2.92491912841797,-4.54588651657104,8.09287452697754,-0.167683988809586,-1.70732796192169,2.22562384605408,-1068.30004882812,50.1000022888184,-890.100036621094,-2.40604397124836,-0.303650218148885,0.512222991046408,DLL
9.96666666666667,-3.18511128425598,-4.36524724960327,7.92001104354858,0.945127964019775,-0.381099998950958,3.03355598449707,-1070.70007324219,57.3000030517578,-887.700012207031,-2.42204140019962,-0.3395959615079,0.500680485618541,DLL
10.0,-1.97506809234619,-4.64458036422729,6.98511362075806,0.830797970294952,-0.327746003866196,1.98934197425842,-1077.90002441406,50.7000007629395,-890.100036621094,-2.40692883137859,-0.235608064672613,0.582353100598794,DLL
10.0333333333333,-3.09120297431946,-4.20315074920654,8.09107971191406,1.32622802257538,-1.20427596569061,1.94360995292664,-1070.70007324219,50.1000022888184,-873.300048828125,-2.44567063423918,-0.324743390668158,0.477776222545979,DLL
10.0666666666667,-2.89800262451172,-4.09010171890259,8.15867042541504,0.92988395690918,-1.78354799747467,2.0579400062561,-1068.30004882812,54.3000030517578,-887.700012207031,-2.4620958363312,-0.306791653421697,0.462051399312478,DLL
10.1,-1.74358677864075,-4.37302303314209,7.73937177658081,0.579271972179413,-1.51677799224854,1.36433792114258,-1080.30004882812,45.3000030517578,-882.900024414062,-2.45931795263476,-0.194911786374177,0.511607382752397,DLL
10.1333333333333,-3.00507020950317,-3.93099570274353,8.58813667297363,0.792688012123108,-0.952749967575073,1.11281192302704,-1082.70007324219,48.9000015258789,-902.100036621094,-2.48609336321027,-0.30503434833206,0.428950505371086,DLL
10.1666666666667,-2.75803732872009,-3.88613486289978,8.45534896850586,1.41769194602966,-0.564027965068817,1.59299790859222,-1077.90002441406,50.7000007629395,-880.500061035156,-2.49274017428848,-0.288846890625816,0.427504426726355,DLL
10.2,-2.2053530216217,-3.55655813217163,8.05997657775879,0.228659987449646,-1.73019397258759,1.265251994133,-1056.30004882812,49.5000038146973,-899.700012207031,-2.50513533441647,-0.244654674717076,0.414699160064502,DLL
10.2333333333333,-1.60661196708679,-3.57091355323792,7.22257614135742,-0.0685980021953583,-1.76830399036407,1.77592599391937,-1077.90002441406,61.5000038146973,-890.100036621094,-2.50853960440954,-0.196435649420987,0.457549880385442,DLL
10.2666666666667,-2.27533578872681,-3.61218547821045,8.44398403167725,-0.480185985565186,-0.899396002292633,2.04269599914551,-1075.5,47.7000007629395,-873.300048828125,-2.53204703448721,-0.241743195726759,0.40540735131711,DLL
10.3,-2.34591674804688,-3.55775427818298,8.76458930969238,-0.175305992364883,-0.724089980125427,2.09605002403259,-1068.30004882812,54.3000030517578,-880.500061035156,-2.54817816271478,-0.243270359182153,0.385506534882657,DLL
10.3333333333333,-2.10366892814636,-3.5451934337616,8.56122016906738,-0.25152599811554,-1.08994603157043,1.50153398513794,-1073.10009765625,50.7000007629395,-892.500061035156,-2.55604479440614,-0.223049140107427,0.392135562814328,DLL
10.3666666666667,-1.61319160461426,-3.9417622089386,8.3159818649292,-0.46494197845459,-0.6250039935112,0.0990860015153885,-1063.5,45.9000015258789,-885.300048828125,-2.54843197269103,-0.173995880516168,0.441953280332615,DLL
10.4,-1.80998063087463,-3.91604208946228,8.46970462799072,-0.571649968624115,-0.571649968624115,-1.01372599601746,-1075.5,53.1000022888184,-885.300048828125,-2.5468720509933,-0.18950773092659,0.434516862861974,DLL
10.4333333333333,-1.79981219768524,-4.14453268051147,8.3279447555542,-0.0914639979600906,-0.266770005226135,-1.15092194080353,-1061.10009765625,50.1000022888184,-878.100036621094,-2.53689089433677,-0.189806800588163,0.461669443638041,DLL
10.4666666666667,-1.93259990215302,-3.91245317459106,7.90864658355713,0.350611984729767,0.472563982009888,-0.922261953353882,-1092.30004882812,60.9000015258789,-882.900024414062,-2.53157801169839,-0.215035230809729,0.459242251342891,DLL
10.5,-2.07136917114258,-3.80717992782593,7.98102188110352,0.609759986400604,1.34147191047668,-0.670735955238342,-1080.30004882812,54.9000015258789,-875.700012207031,-2.52765804335532,-0.231363051812109,0.444827916822354,DLL
10.5333333333333,-2.66113805770874,-3.92501425743103,8.66589546203613,0.426831990480423,1.2423859834671,-0.564027965068817,-1065.90002441406,57.3000030517578,-899.700012207031,-2.52672293177683,-0.273153873841783,0.425581645558626,DLL
10.5666666666667,-2.22688627243042,-3.85443329811096,7.94034814834595,0.350611984729767,0.922261953353882,-0.990859985351562,-1068.30004882812,54.3000030517578,-890.100036621094,-2.51318166044786,-0.248531610428175,0.451176167141833,DLL
10.6,-2.78136491775513,-3.71626234054565,8.0294713973999,0.335367977619171,1.2423859834671,-1.05945801734924,-1065.90002441406,45.9000015258789,-882.900024414062,-2.50993692144008,-0.304205683120485,0.434172458553468,DLL
10.6333333333333,-2.90398406982422,-4.02909088134766,8.38536643981934,1.00610399246216,1.77592599391937,-0.564027965068817,-1065.90002441406,51.3000030517578,-902.100036621094,-2.49738650743749,-0.30492904463663,0.446665755305687,DLL
10.6666666666667,-3.33703970909119,-4.3724250793457,8.71075630187988,0.342989981174469,1.47104597091675,-0.960371971130371,-1068.30004882812,47.7000007629395,-890.100036621094,-2.48365566616296,-0.330699378729982,0.464999518378586,DLL
10.7,-2.47990083694458,-4.59074735641479,8.04801368713379,-0.945127964019775,0.160062000155449,-1.34909391403198,-1080.30004882812,48.9000015258789,-885.300048828125,-2.46288477023188,-0.262530692542815,0.519159054558556,DLL
10.7333333333333,-2.42427349090576,-4.28928327560425,7.37151384353638,-1.02134799957275,0.0,-0.731711983680725,-1073.10009765625,52.5000038146973,-894.900024414062,-2.45840001745417,-0.276055542064317,0.528899676073789,DLL
10.7666666666667,-2.94884490966797,-4.53811073303223,8.49183559417725,0.144817993044853,1.55488801002502,1.31860601902008,-1070.70007324219,55.5000038146973,-897.300048828125,-2.47094815836733,-0.300096690952546,0.491236116334187,DLL
10.8,-1.57909739017487,-4.42984676361084,6.9318790435791,-0.129574000835419,1.2347639799118,0.533540010452271,-1068.30004882812,48.3000030517578,-880.500061035156,-2.4513026744408,-0.193937509580019,0.567594734364469,DLL
10.8333333333333,-2.56842589378357,-4.17503786087036,7.57129383087158,-0.282013982534409,1.21951997280121,0.564027965068817,-1056.30004882812,49.5000038146973,-875.700012207031,-2.46580411600441,-0.289095475725697,0.505842303338223,DLL
10.8666666666667,-2.27772831916809,-4.38917303085327,7.33502721786499,0.0838419944047928,1.15092194080353,0.579271972179413,-1058.70007324219,52.5000038146973,-892.500061035156,-2.45644580584092,-0.263382034732231,0.538232349816805,DLL
10.9,-3.88194799423218,-4.26117038726807,9.11450290679932,0.487807989120483,0.914639949798584,0.6250039935112,-1051.5,54.9000015258789,-890.100036621094,-2.48701359985416,-0.367280163844626,0.439262946005417,DLL
10.9333333333333,-3.42018151283264,-4.65115976333618,8.91233062744141,0.693601965904236,0.495429992675781,0.121951997280121,-1058.70007324219,55.5000038146973,-890.100036621094,-2.47174190794992,-0.329855563498817,0.478775787288992,DLL
10.9666666666667,-2.67908239364624,-4.49803495407104,7.68434286117554,0.388722002506256,-0.243903994560242,-1.49391198158264,-1053.90002441406,61.5000038146973,-880.500061035156,-2.44992050791348,-0.291539445830413,0.528330810921908,DLL
11.0,-3.32388043403625,-4.05840015411377,7.59880828857422,0.274392008781433,0.213415995240211,-1.22714197635651,-1056.30004882812,56.7000007629395,-882.900024414062,-2.45515940484793,-0.365981898253748,0.491649582379562,DLL
11.0333333333333,-3.03976249694824,-4.27552604675293,7.56351804733276,-0.0838419944047928,0.274392008781433,-0.114329993724823,-1053.90002441406,53.7000007629395,-887.700012207031,-2.44640298470185,-0.33767134710746,0.514170749492558,DLL
11.0666666666667,-3.15460610389709,-4.33474206924438,7.52942371368408,-0.0685980021953583,0.335367977619171,0.198172003030777,-1063.5,49.5000038146973,-885.300048828125,-2.44382058576411,-0.348740428820279,0.522309724309802,DLL
11.1,-3.04215526580811,-4.50162410736084,7.70707225799561,-0.0914639979600906,-0.0685980021953583,0.426831990480423,-1051.5,56.7000007629395,-868.500061035156,-2.44398745598985,-0.329238666421834,0.528410096916293,DLL
11.1333333333333,-3.2168128490448,-4.75404024124146,7.67118358612061,-0.221037998795509,-0.564027965068817,0.297257989645004,-1063.5,54.9000015258789,-890.100036621094,-2.43871092296317,-0.34157485294489,0.554294222919363,DLL
11.1666666666667,-3.46205163002014,-4.90297794342041,7.99776983261108,-0.350611984729767,-0.518296003341675,0.342989981174469,-1056.30004882812,46.5,-894.900024414062,-2.44364432085363,-0.352846729951956,0.550291093689328,DLL
11.2,-3.01464056968689,-4.95681095123291,7.81413984298706,-0.525918006896973,-1.28049600124359,0.411587983369827,-1053.90002441406,54.9000015258789,-880.500061035156,-2.4448502394497,-0.314367916965341,0.565254495841672,DLL
11.2333333333333,-2.23047518730164,-4.94604444503784,7.2423152923584,-0.78506600856781,-1.87501192092896,0.708845973014832,-1056.30004882812,56.1000022888184,-887.700012207031,-2.44471322370002,-0.248872245125014,0.598889504786524,DLL
11.2666666666667,-2.62704396247864,-4.88383722305298,7.40201950073242,-0.457319974899292,-1.65397393703461,0.952749967575073,-1070.70007324219,53.7000007629395,-887.700012207031,-2.45821164190282,-0.285618754508286,0.583546389206643,DLL
11.3,-3.10914707183838,-4.55605506896973,7.56471395492554,1.60061991214752,0.282013982534409,0.960371971130371,-1056.30004882812,54.3000030517578,-875.700012207031,-2.47242982620711,-0.338971301996749,0.539598452415321,DLL
11.3333333333333,-3.87357378005981,-3.82632064819336,7.82610273361206,3.52136397361755,1.11281192302704,0.899396002292633,-1070.70007324219,53.1000022888184,-882.900024414062,-2.49953728913405,-0.418918468137682,0.450592624747252,DLL
11.3666666666667,-3.85084438323975,-3.65465354919434,7.68135213851929,3.66618180274963,1.12043392658234,0.78506600856781,-1063.5,54.9000015258789,-890.100036621094,-2.4976486023976,-0.42727597813593,0.437776917279306,DLL
11.4,-3.77787089347839,-3.92202353477478,8.47508811950684,2.25611186027527,-0.228659987449646,-0.0457319989800453,-1056.30004882812,50.1000022888184,-880.500061035156,-2.49658087222723,-0.385198426198872,0.429680127654273,DLL
11.4333333333333,-3.07804369926453,-4.63142108917236,8.28906536102295,0.670735955238342,-2.0731840133667,-1.19665396213531,-1046.70007324219,56.7000007629395,-887.700012207031,-2.46873926658167,-0.311407827026522,0.506307468612856,DLL
11.4666666666667,-3.22757935523987,-4.66192626953125,8.82440280914307,0.92988395690918,-1.30336201190948,-0.205793991684914,-1063.5,53.7000007629395,-885.300048828125,-2.47599501247219,-0.310628028147415,0.484770098677842,DLL
11.5,-2.70480251312256,-4.69482421875,8.01272296905518,0.983237981796265,-0.861285984516144,0.609759986400604,-1061.10009765625,53.7000007629395,-892.500061035156,-2.46700178207592,-0.283414522693491,0.526636526103976,DLL
11.5333333333333,-1.30813872814178,-4.63740253448486,6.7859320640564,0.907018005847931,-0.952749967575073,1.45580196380615,-1061.10009765625,53.1000022888184,-894.900024414062,-2.4598164999624,-0.160880261082935,0.595768432441635,DLL
11.5666666666667,-1.01744115352631,-4.26954460144043,5.96827077865601,0.769822001457214,-1.02134799957275,1.34147191047668,-1061.10009765625,49.5000038146973,-890.100036621094,-2.46447855161389,-0.138304920604589,0.618575616054754,DLL
11.6,-2.54988360404968,-3.53083801269531,6.79669857025146,1.29574000835419,-0.198172003030777,2.5000159740448,-1058.70007324219,53.1000022888184,-902.100036621094,-2.50548532418004,-0.318155958270578,0.479773150231647,DLL
11.6333333333333,-3.11572670936584,-3.31909537315369,8.06296730041504,1.35671591758728,-0.0228659994900227,3.02593398094177,-1061.10009765625,45.3000030517578,-899.700012207031,-2.54671714699011,-0.344580339369476,0.388634923090365,DLL
11.6666666666667,-3.86101293563843,-3.38847994804382,9.31966590881348,1.56251001358032,-0.160062000155449,2.78202986717224,-1061.10009765625,54.3000030517578,-899.700012207031,-2.57258616389461,-0.372110917759528,0.345119036101999,DLL
11.7,-2.83041262626648,-3.97286558151245,8.97453689575195,0.647870004177094,-1.34147191047668,0.716467976570129,-1051.5,51.9000015258789,-906.900024414062,-2.5554644133529,-0.281680463275867,0.413170930455602,DLL
11.7333333333333,-2.8202440738678,-3.97645449638367,9.23353290557861,0.0152439996600151,-2.5152599811554,-1.04421401023865,-1061.10009765625,48.3000030517578,-887.700012207031,-2.5574184773813,-0.268977663120277,0.40672366811726,DLL
11.7666666666667,-2.49246168136597,-3.75155282020569,8.48406028747559,-0.228659987449646,-2.72105383872986,-0.777444005012512,-1065.90002441406,48.3000030517578,-902.100036621094,-2.55714086706723,-0.257903643504987,0.416291253119457,DLL
11.8,-1.95712375640869,-4.12000894546509,8.393141746521,-0.228659987449646,-1.48628997802734,0.777444005012512,-1051.5,49.5000038146973,-885.300048828125,-2.55523155582175,-0.206058821177478,0.455147943072643,DLL
11.8333333333333,-1.65326714515686,-3.913649559021,8.16943645477295,0.282013982534409,-0.823175966739655,0.739333987236023,-1068.30004882812,48.9000015258789,-894.900024414062,-2.5618915422688,-0.180500111436142,0.446184127572794,DLL
11.8666666666667,-1.94755351543427,-3.6271390914917,8.1544828414917,0.739333987236023,-0.152439996600151,0.769822001457214,-1063.5,49.5000038146973,-892.500061035156,-2.57056447046274,-0.214215282495431,0.417749593210999,DLL
11.9,-2.08213567733765,-3.50212717056274,8.27112102508545,0.647870004177094,-0.0381099991500378,0.381099998950958,-1065.90002441406,46.5,-894.900024414062,-2.57578840293973,-0.227772158100953,0.399540457355707,DLL
11.9333333333333,-2.41051626205444,-3.59364295005798,8.29923343658447,-0.0990860015153885,-0.0990860015153885,-0.3125019967556,-1061.10009765625,50.1000022888184,-887.700012207031,-2.57234909364315,-0.259522263169753,0.408752063622425,DLL
11.9666666666667,-2.78495359420776,-3.75095462799072,8.68982124328613,-0.3125019967556,0.190549999475479,-0.457319974899292,-1061.10009765625,51.3000030517578,-906.900024414062,-2.57026435102425,-0.285675160259049,0.408296436224753,DLL
12.0,-2.79751467704773,-3.79701161384583,8.38416957855225,-0.411587983369827,0.304879993200302,-0.716467976570129,-1068.30004882812,51.9000015258789,-885.300048828125,-2.56198052862198,-0.294791887744216,0.425882072955317,DLL
12.0333333333333,-3.01763129234314,-3.61577415466309,8.2322416305542,0.236281991004944,0.891773998737335,-0.160062000155449,-1056.30004882812,49.5000038146973,-892.500061035156,-2.56269549402566,-0.324291207262623,0.414070588220288,DLL
12.0666666666667,-2.87766575813293,-3.70788836479187,8.31299114227295,0.327746003866196,1.15854394435883,0.0762199983000755,-1073.10009765625,47.7000007629395,-878.100036621094,-2.55864386364922,-0.308542044433495,0.419066713703689,DLL
12.1,-3.14862465858459,-3.97286558151245,8.19934368133545,-0.403965979814529,0.907018005847931,-0.175305992364883,-1058.70007324219,53.7000007629395,-890.100036621094,-2.54635807911477,-0.333421694506362,0.451442485211954,DLL
12.1333333333333,-3.08223080635071,-4.12718629837036,7.53540515899658,-0.922261953353882,0.990859985351562,-0.0381099991500378,-1068.30004882812,45.9000015258789,-902.100036621094,-2.52858624525895,-0.345714280710918,0.502076754324265,DLL
12.1666666666667,-3.51468801498413,-4.21810436248779,8.06835079193115,-1.53964400291443,1.02134799957275,1.12805593013763,-1053.90002441406,50.1000022888184,-894.900024414062,-2.54023669347749,-0.37031644413084,0.484486886850233,DLL
12.2,-2.96858358383179,-4.43881893157959,7.65204286575317,-1.27287399768829,0.442075997591019,1.79879200458527,-1058.70007324219,48.3000030517578,-897.300048828125,-2.53529804937104,-0.326927242278147,0.526201593522241,DLL
12.2333333333333,-2.68267130851746,-4.42865037918091,7.44030046463013,-0.800309956073761,0.0076219998300075,1.62348592281342,-1044.30004882812,53.7000007629395,-892.500061035156,-2.54002954777153,-0.302589295743425,0.537227949093774,DLL
12.2666666666667,-2.82263660430908,-4.17204713821411,7.43431901931763,-0.663114011287689,-0.221037998795509,1.60061991214752,-1046.70007324219,51.9000015258789,-894.900024414062,-2.55608743855129,-0.320289274980607,0.512383599149479,DLL
12.3,-2.94286346435547,-4.27851676940918,7.84703779220581,-0.457319974899292,-0.152439996600151,1.80641400814056,-1056.30004882812,52.5000038146973,-882.900024414062,-2.56906517837601,-0.319390819953287,0.499384684730126,DLL
12.3333333333333,-2.75923347473145,-4.41967821121216,8.09885597229004,-0.510673999786377,-0.609759986400604,0.830797970294952,-1049.10009765625,52.5000038146973,-882.900024414062,-2.57475544080137,-0.291146006367524,0.499887420157844,DLL
12.3666666666667,-2.65396046638489,-4.45437049865723,8.00315284729004,-0.67835795879364,-1.02134799957275,0.236281991004944,-1041.90002441406,54.3000030517578,-880.500061035156,-2.57681056749534,-0.280961443853313,0.508467751501477,DLL
12.4,-2.66353058815002,-4.36106061935425,7.79260683059692,-0.87652999162674,-0.975615978240967,-0.274392008781433,-1056.30004882812,54.9000015258789,-885.300048828125,-2.57855523829984,-0.288000933806675,0.511557205045585,DLL
12.4333333333333,-2.30883193016052,-4.45676326751709,7.59222888946533,-0.602137982845306,-0.67835795879364,-0.503051996231079,-1056.30004882812,60.3000030517578,-890.100036621094,-2.57357472737287,-0.255915572171307,0.531363139987699,DLL
12.4666666666667,-2.37103867530823,-4.39575290679932,7.2447075843811,-0.46494197845459,-0.632625997066498,-0.807931959629059,-1061.10009765625,51.3000030517578,-873.300048828125,-2.56858160617546,-0.270735769579423,0.545947949798563,DLL
12.5,-2.72394299507141,-4.58297157287598,7.39005661010742,-0.0304879993200302,0.282013982534409,-0.67835795879364,-1053.90002441406,57.9000015258789,-870.900024414062,-2.56238921114287,-0.302473832248566,0.555289217751105,DLL
12.5333333333333,-3.10196948051453,-5.04832649230957,7.91103887557983,-0.442075997591019,0.396344006061554,-1.44055795669556,-1046.70007324219,51.3000030517578,-870.900024414062,-2.55180519574396,-0.3180298363526,0.569188625165763,DLL
12.5666666666667,-3.56014704704285,-5.02081203460693,7.75970888137817,-0.213415995240211,0.114329993724823,-1.47866797447205,-1065.90002441406,48.9000015258789,-873.300048828125,-2.54377841659538,-0.365126920971876,0.575351072273381,DLL
12.6,-3.86819052696228,-5.103355884552,8.3991231918335,0.350611984729767,0.236281991004944,-0.861285984516144,-1061.10009765625,51.9000015258789,-878.100036621094,-2.54930800859947,-0.3742826919728,0.546771148030402,DLL
12.6333333333333,-2.515789270401,-5.38866996765137,6.85531663894653,-0.259148001670837,-1.20427596569061,-1.22714197635651,-1049.10009765625,60.9000015258789,-882.900024414062,-2.51025003422472,-0.27997765354365,0.664353983240703,DLL
12.6666666666667,-3.47939777374268,-4.68764638900757,7.22556686401367,-0.365855991840363,-0.975615978240967,-0.396344006061554,-1068.30004882812,53.1000022888184,-875.700012207031,-2.53977715586765,-0.379387979083227,0.57853724367715,DLL
12.7,-2.99011659622192,-4.96697902679443,7.35476589202881,0.655492007732391,-0.0533539988100529,1.18903195858002,-1063.5,53.7000007629395,-878.100036621094,-2.53898874148446,-0.327506789694318,0.591872814792924,DLL
12.7333333333333,-2.97935009002686,-4.72592782974243,7.18728590011597,0.602137982845306,-0.327746003866196,0.586893975734711,-1056.30004882812,47.1000022888184,-870.900024414062,-2.54494039918033,-0.333352173157408,0.580520047127985,DLL
12.7666666666667,-3.61457800865173,-4.49205350875854,7.42534685134888,1.04421401023865,-0.0381099991500378,1.13567793369293,-1065.90002441406,54.9000015258789,-890.100036621094,-2.5611853951521,-0.393936378712524,0.542619910199281,DLL
12.8,-3.39745211601257,-4.67508554458618,7.4989185333252,0.525918006896973,-0.46494197845459,1.59299790859222,-1061.10009765625,56.1000022888184,-870.900024414062,-2.56381528389687,-0.368287927438573,0.555246388534233,DLL
12.8333333333333,-3.64867210388184,-4.75164794921875,7.81533622741699,-0.282013982534409,-0.952749967575073,1.86738991737366,-1053.90002441406,54.9000015258789,-880.500061035156,-2.57795509156337,-0.37953081096949,0.545586032312624,DLL
12.8666666666667,-3.6492702960968,-5.09797239303589,8.440993309021,0.0990860015153885,-0.663114011287689,2.44666194915771,-1058.70007324219,56.7000007629395,-873.300048828125,-2.59099189788503,-0.356303037990277,0.541665982481349,DLL
12.9,-2.47511553764343,-4.94006299972534,7.63170623779297,0.419209986925125,-1.38720393180847,1.18903195858002,-1065.90002441406,57.9000015258789,-882.900024414062,-2.58967051827503,-0.267393053783051,0.572078191583303,DLL
12.9333333333333,-2.35548710823059,-4.96578311920166,7.29196119308472,0.457319974899292,-1.80641400814056,0.716467976570129,-1053.90002441406,52.5000038146973,-885.300048828125,-2.59092471381252,-0.259226313016452,0.595653231627842,DLL
12.9666666666667,-2.25380277633667,-4.77019023895264,6.87385892868042,0.754577994346619,-1.33385002613068,0.571649968624115,-1049.10009765625,60.3000030517578,-890.100036621094,-2.59377398765254,-0.261708010352055,0.604521380798435,DLL
13.0,-2.47930264472961,-4.82282686233521,7.66221141815186,1.44055795669556,-0.960371971130371,1.36433792114258,-1049.10009765625,59.1000022888184,-863.700012207031,-2.61231522914805,-0.267036618861062,0.559425447408074,DLL
13.0333333333333,-2.68625998497009,-4.57340097427368,7.87814092636108,1.53202199935913,-1.12805593013763,1.44055795669556,-1070.70007324219,52.5000038146973,-887.700012207031,-2.62898442741649,-0.285802352499242,0.523386646488882,DLL
13.0666666666667,-3.02241635322571,-4.09189605712891,8.34469223022461,1.69970595836639,-0.99848198890686,1.40244793891907,-1056.30004882812,53.1000022888184,-885.300048828125,-2.65595447403332,-0.313440166885524,0.453282282771059,DLL
13.1,-2.67250275611877,-4.26475954055786,8.17781066894531,1.09756803512573,-1.33385002613068,0.792688012123108,-1061.10009765625,50.7000007629395,-882.900024414062,-2.65413045141303,-0.281200088763404,0.477676243922419,DLL
13.1333333333333,-2.28251361846924,-4.26296472549438,7.95709609985352,0.0914639979600906,-2.02745199203491,-0.259148001670837,-1068.30004882812,56.7000007629395,-870.900024414062,-2.65415391408737,-0.245330111898719,0.490983778288634,DLL
13.1666666666667,-2.16049242019653,-4.26057243347168,8.0354528427124,0.0533539988100529,-1.71494996547699,-0.510673999786377,-1070.70007324219,53.1000022888184,-875.700012207031,-2.6567201445134,-0.230572695512977,0.487393890805015,DLL
13.2,-1.51988124847412,-4.44300603866577,7.5252366065979,0.213415995240211,-1.08232402801514,-0.297257989645004,-1070.70007324219,56.7000007629395,-878.100036621094,-2.64905228920865,-0.171954237670621,0.531660491679299,DLL
13.2333333333333,-2.20774579048157,-4.36165857315063,8.41946029663086,0.274392008781433,-0.533540010452271,0.510673999786377,-1080.30004882812,51.9000015258789,-873.300048828125,-2.662928743606,-0.227014155081705,0.478540237612573,DLL
13.2666666666667,-1.97028291225433,-4.59134531021118,8.44996547698975,0.518296003341675,-0.350611984729767,0.670735955238342,-1065.90002441406,55.5000038146973,-882.900024414062,-2.66273225778691,-0.202551211635557,0.49622878959761,DLL
13.3,-1.99361050128937,-4.2563853263855,8.04621887207031,0.282013982534409,-0.419209986925125,0.106707997620106,-1070.70007324219,49.5000038146973,-880.500061035156,-2.66605287112356,-0.214791561680391,0.486182253956021,DLL
13.3333333333333,-2.16647386550903,-4.1965708732605,8.07193946838379,0.25152599811554,0.243903994560242,0.25152599811554,-1082.70007324219,53.1000022888184,-880.500061035156,-2.66789105096956,-0.233896442491411,0.479125910434658,DLL
13.3666666666667,-1.96370339393616,-4.50760555267334,8.43082523345947,0.182927995920181,0.213415995240211,0.0228659994900227,-1077.90002441406,55.5000038146973,-878.100036621094,-2.66476442746613,-0.203492227404314,0.490492266616277,DLL
13.4,-2.12879085540771,-4.42326736450195,8.32375717163086,-0.0,0.0457319989800453,-0.480185985565186,-1058.70007324219,54.3000030517578,-878.100036621094,-2.66289206772903,-0.221294234259216,0.48867818069648,DLL
13.4333333333333,-2.43204927444458,-4.51119422912598,8.13354778289795,0.0609759986400604,1.03659200668335,-0.167683988809586,-1077.90002441406,51.3000030517578,-890.100036621094,-2.65545833792114,-0.256225695422166,0.506095823437326,DLL
13.4666666666667,-2.60909962654114,-4.31201267242432,7.99118995666504,0.144817993044853,1.31098401546478,0.274392008781433,-1077.90002441406,62.7000007629395,-894.900024414062,-2.6562577956476,-0.281336054425913,0.495069939428486,DLL
13.5,-2.70360612869263,-4.32696628570557,7.98999357223511,0.449698001146317,1.38720393180847,0.891773998737335,-1068.30004882812,54.3000030517578,-873.300048828125,-2.65609810043773,-0.291878986660065,0.495474094000291,DLL
13.5333333333333,-2.76641130447388,-4.29167604446411,7.93855333328247,0.152439996600151,1.19665396213531,0.663114011287689,-1063.5,57.3000030517578,-882.900024414062,-2.65596941083728,-0.299677099743303,0.495336093594589,DLL
13.5666666666667,-2.92850804328918,-4.20016002655029,7.80516767501831,0.0228659994900227,0.87652999162674,0.807931959629059,-1068.30004882812,45.3000030517578,-873.300048828125,-2.6580794677561,-0.320737220589066,0.493504488739969,DLL
13.6,-3.06667900085449,-4.23604869842529,8.06715393066406,0.221037998795509,0.777444005012512,0.899396002292633,-1056.30004882812,55.5000038146973,-885.300048828125,-2.66318505057265,-0.326449031647983,0.483134624911136,DLL
13.6333333333333,-2.78854250907898,-4.31380701065063,8.04322814941406,0.198172003030777,0.342989981174469,0.449698001146317,-1041.90002441406,57.3000030517578,-870.900024414062,-2.66144482500787,-0.298207402005776,0.491581176404984,DLL
13.6666666666667,-3.08103442192078,-4.35507917404175,8.34708499908447,-0.243903994560242,-0.304879993200302,0.0762199983000755,-1053.90002441406,53.7000007629395,-882.900024414062,-2.66612230118219,-0.315580777859975,0.481365756139851,DLL
13.7,-2.70420432090759,-4.57579374313354,7.95111465454102,-0.274392008781433,-0.449698001146317,0.0685980021953583,-1065.90002441406,51.3000030517578,-875.700012207031,-2.65602420349278,-0.286846383011879,0.521426091880863,DLL
13.7333333333333,-2.65455842018127,-4.54768085479736,7.74654960632324,-0.487807989120483,-0.0076219998300075,-0.0609759986400604,-1075.5,53.7000007629395,-880.500061035156,-2.65366062265231,-0.287261448549507,0.531445888597024,DLL
13.7666666666667,-2.83459949493408,-4.30603122711182,7.82191562652588,0.274392008781433,0.388722002506256,0.685979962348938,-1058.70007324219,45.9000015258789,-880.500061035156,-2.66372633151845,-0.308193706371818,0.503051245887251,DLL
13.8,-1.81416761875153,-5.28937816619873,7.91163730621338,0.106707997620106,0.205793991684914,-0.0381099991500378,-1053.90002441406,55.5000038146973,-887.700012207031,-2.640589131852,-0.18863500457204,0.589167575592229,DLL
13.8333333333333,-2.08931350708008,-4.98791408538818,7.25786685943604,-0.87652999162674,-0.945127964019775,-1.64635193347931,-1058.70007324219,55.5000038146973,-882.900024414062,-2.63429538109963,-0.228967306416759,0.603620637894136,DLL
13.8666666666667,-2.61866998672485,-5.25109720230103,8.07911682128906,1.12043392658234,0.975615978240967,-0.548784017562866,-1065.90002441406,51.3000030517578,-878.100036621094,-2.6346770421588,-0.26525004577184,0.575646441740152,DLL
13.9,-1.52825534343719,-5.23255491256714,7.59282684326172,1.27287399768829,0.533540010452271,-1.92836594581604,-1061.10009765625,56.7000007629395,-882.900024414062,-2.61825915717147,-0.165897061368949,0.60109289583043,DLL
13.9333333333333,-1.31112945079803,-4.89520215988159,7.27939987182617,1.80641400814056,1.02897000312805,-3.57471799850464,-1051.5,55.5000038146973,-890.100036621094,-2.59983026919317,-0.14684242293507,0.590050289193131,DLL
13.9666666666667,-1.18791198730469,-4.96817541122437,7.11132192611694,4.00154972076416,3.42989993095398,-6.41772365570068,-1063.5,53.1000022888184,-902.100036621094,-2.55537760448131,-0.134922711467362,0.604238921750394,DLL
14.0,-1.40623414516449,-4.99389553070068,6.8062686920166,4.42075967788696,4.46649169921875,-8.55950546264648,-1061.10009765625,57.3000030517578,-906.900024414062,-2.49782831486014,-0.161987882158758,0.627386854260678,DLL
14.0333333333333,-4.55725145339966,-4.59373807907104,9.84244251251221,6.15857601165771,7.16468000411987,-10.1982355117798,-1073.10009765625,48.9000015258789,-892.500061035156,-2.4766233599658,-0.395077033630487,0.439430748781298,DLL
14.0666666666667,-2.81725335121155,-5.89709138870239,9.07024002075195,9.03207015991211,6.63113975524902,-12.0884914398193,-1070.70007324219,44.1000022888184,-921.300048828125,-2.35388093444052,-0.257480655057848,0.564121991461403,DLL
14.1,-0.974973022937775,-6.0992636680603,7.66879081726074,8.49090766906738,5.14484977722168,-17.119010925293,-1065.90002441406,54.3000030517578,-914.100036621094,-2.24395176656728,-0.0928993422909883,0.65773062711062,DLL
14.1333333333333,-2.90159153938293,-4.83658409118652,8.1132116317749,9.48938941955566,6.58540773391724,-19.7028694152832,-1092.30004882812,41.1000022888184,-923.700012207031,-2.15434760525746,-0.284706240835947,0.534266714306854,DLL
14.1666666666667,-2.37702012062073,-4.73789024353027,7.4989185333252,11.5701961517334,7.48480367660522,-18.6281681060791,-1089.90002441406,38.7000007629395,-930.900024414062,-2.03099744742153,-0.256650842215115,0.551945890614578,DLL
14.2,-1.88235592842102,-4.42865037918091,6.95879554748535,11.1967182159424,7.27900981903076,-18.4604835510254,-1087.5,35.7000007629395,-935.700012207031,-1.91816808918067,-0.219253713337887,0.554799858567143,DLL
14.2333333333333,-3.38847994804382,-3.87297582626343,7.91761827468872,11.0595216751099,7.13419198989868,-15.106803894043,-1080.30004882812,28.5000019073486,-935.700012207031,-1.84825052171451,-0.362549744822118,0.449281594419244,DLL
14.2666666666667,-3.71745848655701,-3.19946670532227,7.74595165252686,9.51225566864014,5.434485912323,-11.3339138031006,-1061.10009765625,27.9000015258789,-918.900024414062,-1.79289026032953,-0.417195592744518,0.386428790291513,DLL
14.3,-4.01054859161377,-3.04394960403442,8.49422836303711,6.02137994766235,4.44362592697144,-5.64790201187134,-1068.30004882812,17.1000003814697,-950.100036621094,-1.76659093689697,-0.422088428165383,0.340205096849763,DLL
14.3333333333333,-3.98662281036377,-2.8962082862854,9.01700496673584,4.00154972076416,3.39941191673279,-2.40855193138123,-1051.5,20.1000003814697,-945.300048828125,-1.75495959896704,-0.403256245440604,0.307092416068949,DLL
14.3666666666667,-3.44350910186768,-2.70839142799377,9.13005447387695,2.57623600959778,2.24848985671997,0.335367977619171,-1058.70007324219,26.7000007629395,-947.700012207031,-1.75636380196847,-0.351832734820208,0.284500761181956,DLL
14.4,-2.47092866897583,-2.80588865280151,8.15388488769531,1.19665396213531,0.899396002292633,2.4923939704895,-1051.5,20.7000007629395,-947.700012207031,-1.75151583930794,-0.283855994434909,0.327108407244628,DLL
14.4333333333333,-2.76700949668884,-2.83340334892273,8.28966331481934,0.99848198890686,1.64635193347931,3.24697184562683,-1053.90002441406,21.9000015258789,-950.100036621094,-1.76283960284585,-0.309747868529409,0.326222993794369,DLL
14.4666666666667,-2.56304264068604,-3.07266044616699,8.25257873535156,1.30336201190948,2.81251788139343,3.10977602005005,-1049.10009765625,16.5,-950.100036621094,-1.7629314914929,-0.290256023432314,0.352410494474978,DLL
14.5,-2.9021897315979,-3.16178369522095,8.51217269897461,2.11891603469849,2.89635992050171,1.75305998325348,-1039.5,14.1000003814697,-954.900024414062,-1.76304416480665,-0.314558860866206,0.35160893196169,DLL
14.5333333333333,-2.98234081268311,-2.90757298469543,8.69161510467529,2.73629784584045,1.73019397258759,0.632625997066498,-1044.30004882812,15.9000005722046,-959.700012207031,-1.76870059079935,-0.317754635656028,0.318623793164448,DLL
14.5666666666667,-3.00327587127686,-2.12879085540771,8.24839115142822,2.71343183517456,-0.457319974899292,0.388722002506256,-1037.10009765625,10.5,-947.700012207031,-1.78882703765558,-0.337982982004318,0.248827334410877,DLL
14.6,-3.11034345626831,-1.86321532726288,8.55523872375488,2.38568592071533,-0.891773998737335,0.92988395690918,-1046.70007324219,18.9000015258789,-954.900024414062,-1.80279492324432,-0.340097946066202,0.210664676197871,DLL
14.6333333333333,-2.56902408599854,-1.56593835353851,8.3518705368042,1.90549993515015,-1.41769194602966,2.22562384605408,-1053.90002441406,9.30000019073486,-938.100036621094,-1.82100543633642,-0.293185758015061,0.181520206535002,ST
14.6666666666667,-2.50681710243225,-1.82732677459717,8.29743957519531,1.27287399768829,-0.457319974899292,1.89787793159485,-1039.5,15.9000005722046,-930.900024414062,-1.8199091256606,-0.28699980291638,0.212668922480675,ST
14.7,-2.71556901931763,-1.59285473823547,8.70357799530029,0.564027965068817,0.0609759986400604,1.20427596569061,-1044.30004882812,15.3000001907349,-938.100036621094,-1.83419714419087,-0.29796693855784,0.180305928684033,ST
14.7333333333333,-3.16178369522095,-1.59823799133301,8.64077377319336,0.358233988285065,-0.0152439996600151,1.06708002090454,-1049.10009765625,17.1000003814697,-950.100036621094,-1.83835422529906,-0.34439750533457,0.181585624149904,ST
14.7666666666667,-4.25160026550293,-1.6084064245224,9.40220928192139,0.0304879993200302,0.548784017562866,1.34147191047668,-1046.70007324219,5.70000028610229,-947.700012207031,-1.84893024114935,-0.41854656654141,0.168809049998775,ST
14.8,-4.05062437057495,-1.87577641010284,9.60976505279541,-0.160062000155449,0.327746003866196,1.53964400291443,-1037.10009765625,14.7000007629395,-964.500061035156,-1.84727174682003,-0.3940214503793,0.191370300092739,ST
14.8333333333333,-4.11701822280884,-1.81955087184906,9.52243614196777,-0.510673999786377,0.0457319989800453,1.42531394958496,-1039.5,16.5,-957.300048828125,-1.85667002074906,-0.401986941409974,0.188713730108643,ST
14.8666666666667,-3.08522152900696,-1.88235592842102,8.82021617889404,-0.442075997591019,-0.0152439996600151,1.12043392658234,-1029.90002441406,12.9000005722046,-947.700012207031,-1.85525302863395,-0.331946404356164,0.209788593894988,ST
14.9,-2.62943649291992,-1.5061240196228,7.89488887786865,-0.129574000835419,0.442075997591019,-0.0381099991500378,-1037.10009765625,12.9000005722046,-962.100036621094,-1.86137278583197,-0.317335565665843,0.189370443696584,ST
14.9333333333333,-3.10196948051453,-1.46784281730652,7.74595165252686,0.0152439996600151,1.12043392658234,0.114329993724823,-1034.70007324219,13.5000009536743,-945.300048828125,-1.86150589878187,-0.375883332636201,0.187351832894859,ST
14.9666666666667,-3.57809114456177,-1.87398195266724,8.27470970153809,-0.381099998950958,1.00610399246216,0.472563982009888,-1044.30004882812,18.3000011444092,-938.100036621094,-1.8502691223339,-0.400314833522277,0.22221897830431,ST
15.0,-3.80897450447083,-2.09170603752136,8.50499534606934,-1.05945801734924,0.335367977619171,0.282013982534409,-1034.70007324219,21.9000015258789,-945.300048828125,-1.84574132788022,-0.410740436545013,0.242530878656789,ST
15.0333333333333,-4.00038003921509,-2.30045795440674,9.09057712554932,-1.2347639799118,-0.205793991684914,0.541162014007568,-1039.5,17.7000007629395,-966.900024414062,-1.84829008924115,-0.403325677316789,0.249390261652072,ST
15.0666666666667,-3.70310306549072,-2.45896577835083,9.40280723571777,-0.983237981796265,-0.724089980125427,0.46494197845459,-1044.30004882812,12.9000005722046,-954.900024414062,-1.85041211909954,-0.364114400425061,0.256870119602148,ST
15.1,-2.8202440738678,-2.48408770561218,8.87883472442627,-0.914639949798584,-1.60061991214752,-0.167683988809586,-1044.30004882812,11.7000007629395,-952.500061035156,-1.84769971307839,-0.295987904412933,0.273791185186072,ST
15.1333333333333,-2.68027853965759,-1.87816894054413,7.5551438331604,-0.533540010452271,-0.556405961513519,-0.3125019967556,-1046.70007324219,20.7000007629395,-950.100036621094,-1.85647491493178,-0.329563093953677,0.245491395780303,ST
15.1666666666667,-3.25210332870483,-2.27952289581299,8.27530765533447,-0.609759986400604,1.32622802257538,0.480185985565186,-1044.30004882812,28.5000019073486,-959.700012207031,-1.85013089349913,-0.363665595807254,0.269118441416374,ST
15.2,-3.10017490386963,-2.29627084732056,8.68383979797363,-0.586893975734711,0.411587983369827,0.144817993044853,-1041.90002441406,24.9000015258789,-938.100036621094,-1.85464599523473,-0.333650598820293,0.259687392146893,ST
15.2333333333333,-3.5433988571167,-2.3997495174408,8.19276428222656,-0.556405961513519,0.259148001670837,0.129574000835419,-1037.10009765625,15.9000005722046,-950.100036621094,-1.84695525926435,-0.392834257398516,0.285395457328215,ST
15.2666666666667,-3.39984464645386,-2.95004105567932,8.51336860656738,-0.815553963184357,0.823175966739655,-0.426831990480423,-1039.5,22.5,-942.900024414062,-1.82730651643463,-0.362789815867536,0.334097862475704,ST
15.3,-3.41360187530518,-2.94346165657043,8.69400787353516,-0.571649968624115,0.114329993724823,-1.6844619512558,-1034.70007324219,16.5,-966.900024414062,-1.82193355513131,-0.355446962831506,0.328620743669111,ST
15.3333333333333,-3.31730103492737,-3.16955971717834,8.61983871459961,0.0990860015153885,-0.411587983369827,-1.85214591026306,-1025.10009765625,27.3000011444092,-957.300048828125,-1.8057348772585,-0.345124258621633,0.352526089857099,ST
15.3666666666667,-2.43324565887451,-2.97336864471436,8.25377464294434,0.708845973014832,-1.18140995502472,-2.14178204536438,-1029.90002441406,21.9000015258789,-954.900024414062,-1.7982560026135,-0.268952965093562,0.345480037423518,ST
15.4,-2.66711950302124,-2.8142626285553,7.45405769348145,0.99848198890686,-0.891773998737335,-1.50153398513794,-1029.90002441406,21.3000011444092,-959.700012207031,-1.78722214715171,-0.319236179888298,0.359481272582242,ST
15.4333333333333,-3.80957269668579,-3.39924645423889,8.62342739105225,0.800309956073761,0.602137982845306,-0.472563982009888,-1034.70007324219,15.3000001907349,-945.300048828125,-1.77683557761375,-0.389504500899732,0.374315699850059,ST
15.4666666666667,-3.83648896217346,-3.30653429031372,9.2520751953125,0.609759986400604,0.396344006061554,-0.221037998795509,-1020.30004882812,21.9000015258789,-962.100036621094,-1.78556856428699,-0.373246233104295,0.343269976028939,ST
15.5,-3.77966547012329,-3.09060478210449,8.90036773681641,0.457319974899292,-0.701223969459534,0.228659987449646,-1013.10003662109,17.7000007629395,-962.100036621094,-1.79048420864343,-0.380289314817641,0.333386294272753,ST
15.5333333333333,-3.62355017662048,-3.16417622566223,8.64675521850586,0.160062000155449,-0.571649968624115,1.31860601902008,-1032.30004882812,22.5,-935.700012207031,-1.79129911833872,-0.374925837189787,0.349097633051802,ST
15.5666666666667,-3.24911260604858,-2.93867635726929,8.18319416046143,-0.236281991004944,-0.663114011287689,1.48628997802734,-1025.10009765625,11.7000007629395,-954.900024414062,-1.80133445760148,-0.357879024965293,0.344251902365439,ST
15.6,-3.20365381240845,-2.86570286750793,7.93436670303345,-0.289635986089706,-0.0381099991500378,2.23324584960938,-1029.90002441406,19.5,-954.900024414062,-1.81161580804909,-0.364021987822105,0.345658641917048,ST
15.6333333333333,-3.62773704528809,-2.94525599479675,8.48585414886475,-0.205793991684914,0.533540010452271,2.68294382095337,-1039.5,13.5000009536743,-940.500061035156,-1.82941790232684,-0.385903826787945,0.3329650715049,ST
15.6666666666667,-3.51588439941406,-2.92312479019165,8.49542427062988,-0.0304879993200302,0.0914639979600906,2.36281991004944,-1022.70001220703,18.9000015258789,-945.300048828125,-1.84119235729419,-0.374816074041236,0.330011057063631,ST
15.7,-3.83050751686096,-2.71556901931763,8.47807884216309,0.342989981174469,-0.541162014007568,2.42379593849182,-1025.10009765625,21.3000011444092,-952.500061035156,-1.86063447110978,-0.405857535825669,0.308158322638584,ST
15.7333333333333,-3.86819052696228,-2.78256106376648,8.79509449005127,0.571649968624115,-0.37347799539566,2.43903994560242,-1032.30004882812,17.7000007629395,-950.100036621094,-1.87284371881925,-0.397931104942716,0.303746338566179,ST
15.7666666666667,-3.5033233165741,-2.56663155555725,8.83576774597168,0.472563982009888,-1.15854394435883,1.95885396003723,-1027.5,14.1000003814697,-947.700012207031,-1.89104395563737,-0.363775796194568,0.281030144038402,ST
15.8,-3.09957695007324,-2.33754277229309,8.41946029663086,0.6250039935112,-1.21951997280121,2.10367202758789,-1032.30004882812,20.7000007629395,-950.100036621094,-1.90569712301851,-0.340459071213686,0.268606686226461,ST
15.8333333333333,-3.18989658355713,-2.3997495174408,8.596510887146,0.449698001146317,-0.724089980125427,2.27897787094116,-1039.5,19.5,-942.900024414062,-1.9161421215104,-0.343026768422148,0.269913294226329,ST
15.8666666666667,-3.15460610389709,-2.21791410446167,8.29504680633545,0.442075997591019,-0.609759986400604,2.28659987449646,-1025.10009765625,22.5,-950.100036621094,-1.93083907680012,-0.351868745892418,0.259241903795283,ST
15.9,-3.59065222740173,-2.37044048309326,8.61565113067627,0.685979962348938,0.320124000310898,2.38568592071533,-1037.10009765625,17.7000007629395,-947.700012207031,-1.9388135650805,-0.383138331693713,0.265621749811558,ST
15.9333333333333,-3.60381150245667,-2.4757137298584,8.9715461730957,1.11281192302704,-0.480185985565186,1.86738991737366,-1037.10009765625,14.1000003814697,-952.500061035156,-1.94587294048793,-0.369862616814296,0.265991136557856,ST
15.9666666666667,-3.34242296218872,-1.92602038383484,8.80945014953613,2.16464805603027,-1.77592599391937,1.21951997280121,-1044.30004882812,16.5,-950.100036621094,-1.96876408610729,-0.3528730084785,0.211957657232587,ST
16.0,-3.41061115264893,-1.7184647321701,9.29035663604736,2.90398192405701,-1.55488801002502,1.34147191047668,-1029.90002441406,15.3000001907349,-950.100036621094,-1.98351284129227,-0.344340418442437,0.17746535551314,ST
16.0333333333333,-2.5977349281311,-1.06050753593445,8.32435607910156,2.82013988494873,-1.46342396736145,0.960371971130371,-1039.5,15.3000001907349,-945.300048828125,-2.0022179485097,-0.298851595423985,0.122331391576316,ST
16.0666666666667,-3.08581948280334,-0.970786035060883,8.64974594116211,1.98934197425842,-0.327746003866196,0.83841997385025,-1029.90002441406,20.7000007629395,-940.500061035156,-2.00762614534005,-0.339165994136597,0.108161278935701,ST
16.1,-3.22159814834595,-0.962412059307098,8.40211391448975,1.20427596569061,0.121951997280121,0.205793991684914,-1037.10009765625,15.3000001907349,-959.700012207031,-2.00498380668553,-0.363825582448741,0.111760015986074,ST
16.1333333333333,-3.25449585914612,-1.2058562040329,8.94104099273682,0.960371971130371,0.190549999475479,-0.602137982845306,-1039.5,17.7000007629395,-959.700012207031,-1.9926316511568,-0.346709777439634,0.132401563975122,ST
16.1666666666667,-3.5451934337616,-1.36855113506317,9.3836669921875,0.907018005847931,-0.434453994035721,-0.983237981796265,-1027.5,9.90000057220459,-947.700012207031,-1.98214562846197,-0.35658667221048,0.143623505683776,ST
16.2,-3.42496657371521,-1.51689052581787,9.09835243225098,0.746955990791321,-0.472563982009888,-1.37195992469788,-1029.90002441406,14.1000003814697,-954.900024414062,-1.96742711946748,-0.35439726529561,0.164149570002999,ST
16.2333333333333,-3.23774790763855,-1.44930040836334,8.85490894317627,0.350611984729767,0.0381099991500378,-1.60824191570282,-1049.10009765625,15.3000001907349,-950.100036621094,-1.95955211831412,-0.34614296741955,0.162667902143573,ST
16.2666666666667,-3.02839779853821,-1.37572884559631,8.452956199646,0.221037998795509,0.236281991004944,-1.2347639799118,-1034.70007324219,14.7000007629395,-945.300048828125,-1.95333742310994,-0.340117374566835,0.161753689591491,ST
16.3,-3.13187670707703,-1.50851655006409,7.96846055984497,-0.0457319989800453,0.769822001457214,-0.769822001457214,-1027.5,20.7000007629395,-940.500061035156,-1.94029437508756,-0.368805439990128,0.18706418729671,ST
16.3333333333333,-3.54220271110535,-1.73102581501007,8.34828186035156,-0.579271972179413,1.11281192302704,-0.403965979814529,-1039.5,11.7000007629395,-942.900024414062,-1.93163628417236,-0.394800292914513,0.205397704528184,ST
16.3666666666667,-4.37182712554932,-1.85484135150909,9.13782978057861,-0.853663980960846,0.792688012123108,0.0228659994900227,-1037.10009765625,16.5,-962.100036621094,-1.93424771972185,-0.438727919441258,0.201955106153595,ST
16.4,-3.99559497833252,-2.02949905395508,8.76399040222168,-0.983237981796265,-0.0609759986400604,0.0304879993200302,-1037.10009765625,20.7000007629395,-950.100036621094,-1.92558056952092,-0.418326212029656,0.228683153199281,ST
16.4333333333333,-3.56612849235535,-2.04505085945129,8.30521488189697,-1.31098401546478,-0.0381099991500378,-0.0914639979600906,-1034.70007324219,23.1000003814697,-950.100036621094,-1.92204793252394,-0.395550788118781,0.243372021767143,ST
16.4666666666667,-4.13376617431641,-2.09409856796265,8.45774173736572,-1.53202199935913,0.708845973014832,0.0533539988100529,-1029.90002441406,15.9000005722046,-945.300048828125,-1.9241117608232,-0.443196774368585,0.245448999346108,ST
16.5,-3.3866856098175,-2.30703735351562,8.85371208190918,-1.2500079870224,0.381099998950958,-0.0685980021953583,-1029.90002441406,14.7000007629395,-935.700012207031,-1.92140709318513,-0.356715691968281,0.256990965098968,ST
16.5333333333333,-2.53193926811218,-2.12400579452515,7.8775429725647,-0.67835795879364,-0.716467976570129,-0.403965979814529,-1025.10009765625,19.5,-962.100036621094,-1.91907809081437,-0.300699269241443,0.264506016200175,ST
16.5666666666667,-3.2808141708374,-2.4757137298584,8.56241703033447,-0.419209986925125,0.175305992364883,-0.144817993044853,-1027.5,20.1000003814697,-957.300048828125,-1.91328520023567,-0.351836764005997,0.281939740326951,ST
16.6,-3.65704607963562,-2.63661432266235,8.94522857666016,0.282013982534409,0.350611984729767,-0.449698001146317,-1039.5,18.9000015258789,-950.100036621094,-1.90852249238318,-0.373554840637513,0.286393940952994,ST
16.6333333333333,-3.12768959999084,-2.4655454158783,9.01700496673584,0.602137982845306,-0.3125019967556,-0.967993974685669,-1034.70007324219,25.5000019073486,-954.900024414062,-1.91000238289299,-0.323304569280541,0.2669015536224,ST
16.6666666666667,-2.79512214660645,-2.39436626434326,8.45475101470947,1.05183601379395,-0.800309956073761,-0.884151995182037,-1022.70001220703,19.5,-954.900024414062,-1.90290033310299,-0.306671796146655,0.274283306322041,ST
16.7,-2.36146855354309,-2.29447650909424,7.33622360229492,1.10518991947174,-0.846041977405548,-0.975615978240967,-1039.5,23.7000007629395,-942.900024414062,-1.88937398592935,-0.296343995325637,0.301066547251281,ST
16.7333333333333,-3.69891619682312,-2.62285685539246,8.34349632263184,0.518296003341675,0.762199997901917,-0.304879993200302,-1039.5,8.70000076293945,-957.300048828125,-1.88492904641573,-0.398355914200486,0.30397138700251,ST
16.7666666666667,-3.53562307357788,-2.71317648887634,8.75023365020752,0.259148001670837,0.259148001670837,-0.602137982845306,-1034.70007324219,12.3000001907349,-959.700012207031,-1.88249967295192,-0.369254966605799,0.300750159583009,ST
16.8,-3.6313259601593,-2.54988360404968,7.86737442016602,0.114329993724823,-0.282013982534409,-0.365855991840363,-1029.90002441406,19.5,-940.500061035156,-1.87626495557172,-0.412030014636391,0.313118206631402,ST
16.8333333333333,-3.91245317459106,-2.67788600921631,8.83457183837891,-0.106707997620106,-0.198172003030777,0.0152439996600151,-1027.5,16.5,-933.300048828125,-1.88409625606018,-0.400782772728244,0.294829303032027,ST
16.8666666666667,-3.79402089118958,-3.1946816444397,9.3597412109375,-0.137196004390717,-1.05183601379395,-0.0304879993200302,-1039.5,22.5,-954.900024414062,-1.87339065407654,-0.365420185422431,0.328155791290536,ST
16.9,-3.14443755149841,-3.14742827415466,8.13952922821045,-0.0076219998300075,-1.29574000835419,-0.541162014007568,-1025.10009765625,16.5,-954.900024414062,-1.85926276299417,-0.34391703110523,0.368049969705024,ST
16.9333333333333,-3.49195861816406,-2.84656238555908,8.97932243347168,0.594515979290009,0.213415995240211,-0.144817993044853,-1044.30004882812,20.1000003814697,-952.500061035156,-1.87783772536494,-0.354984881425419,0.30777819056051,ST
16.9666666666667,-3.28858995437622,-2.78674817085266,8.60309028625488,1.21189796924591,-0.579271972179413,0.46494197845459,-1029.90002441406,14.1000003814697,-952.500061035156,-1.87770157158144,-0.348261199450448,0.310669311642947,ST
17.0,-2.74308371543884,-2.37223505973816,7.85900068283081,1.27287399768829,-0.594515979290009,1.30336201190948,-1022.70001220703,18.9000015258789,-947.700012207031,-1.88961828260589,-0.322614065644509,0.290467991106487,ST
17.0333333333333,-3.52007126808167,-2.30105590820312,8.00434970855713,0.868907988071442,0.480185985565186,2.19513607025146,-1027.5,20.7000007629395,-952.500061035156,-1.90263150256637,-0.400094176781095,0.277262409614027,ST
17.0666666666667,-4.12778472900391,-2.79272961616516,9.35196495056152,0.442075997591019,0.640248000621796,2.5000159740448,-1032.30004882812,21.3000011444092,-952.500061035156,-1.90833061773443,-0.402357482581063,0.28749355764452,ST
17.1,-3.79103016853333,-2.49605059623718,8.91113376617432,0.381099998950958,-0.167683988809586,2.15702605247498,-1015.50006103516,24.9000015258789,-950.100036621094,-1.92394669506742,-0.389887422977724,0.271363809007525,ST
17.1333333333333,-3.00566840171814,-2.35130000114441,8.33572006225586,0.503051996231079,-0.731711983680725,1.64635193347931,-1037.10009765625,24.9000015258789,-935.700012207031,-1.93117379269549,-0.335107673514329,0.272918449784012,ST
17.1666666666667,-3.44769597053528,-2.34771108627319,8.1371374130249,0.769822001457214,-0.182927995920181,1.6692179441452,-1032.30004882812,18.3000011444092,-952.500061035156,-1.93586114824218,-0.385681821467743,0.278234423018487,ST
17.2,-3.50272512435913,-2.71377468109131,9.83705902099609,1.10518991947174,-0.182927995920181,0.983237981796265,-1025.10009765625,16.5,-959.700012207031,-1.94272699412031,-0.332289542393219,0.266956687333649,ST
17.2333333333333,-2.37582397460938,-1.8506543636322,8.26932621002197,1.6844619512558,-1.38720393180847,0.67835795879364,-1032.30004882812,16.5,-952.500061035156,-1.95966476266393,-0.272915645110831,0.218099525059075,ST
17.2666666666667,-2.92671346664429,-1.56294763088226,8.23523235321045,1.82927989959717,-0.670735955238342,1.41769194602966,-1025.10009765625,15.3000001907349,-945.300048828125,-1.97428365922619,-0.333538944300317,0.184421456726196,ST
17.3,-3.21023321151733,-1.63113594055176,8.65094184875488,1.42531394958496,0.327746003866196,1.93598794937134,-1032.30004882812,21.3000011444092,-938.100036621094,-1.98153486404376,-0.350441261055137,0.182743638625916,ST
17.3333333333333,-3.15520405769348,-1.53842377662659,8.49183559417725,0.868907988071442,-0.0609759986400604,1.61586391925812,-1029.90002441406,14.7000007629395,-945.300048828125,-1.98980509779451,-0.350890487804186,0.176846975839367,ST
17.3666666666667,-2.90757298469543,-1.3338588476181,8.11799621582031,0.480185985565186,-0.114329993724823,0.884151995182037,-1039.5,16.5,-954.900024414062,-1.9983829508679,-0.340079550135288,0.161881348580079,ST
17.4,-3.79402089118958,-1.45229113101959,8.83457183837891,0.243903994560242,0.289635986089706,0.861285984516144,-1034.70007324219,20.1000003814697,-962.100036621094,-2.00197448144344,-0.400288178717783,0.161918916331481,ST
17.4333333333333,-4.47650194168091,-1.53244233131409,9.63847541809082,0.442075997591019,-0.0228659994900227,0.78506600856781,-1029.90002441406,15.3000001907349,-945.300048828125,-2.00720594292745,-0.429683317235391,0.156383524730747,ST
17.4666666666667,-3.63611102104187,-1.5743123292923,8.73468208312988,0.0914639979600906,-0.388722002506256,0.647870004177094,-1039.5,17.7000007629395,-952.500061035156,-2.00513085986756,-0.388360535527206,0.177656910458463,ST
