seconds,sensor_accX_m_s_,sensor_accY_m_s_,sensor_accZ_m_s_,sensor_gyroX___s_,sensor_gyroY___s_,sensor_gyroZ___s_,sensor_magX__T_,sensor_magY__T_,sensor_magZ__T_,sensor_yaw___,sensor_pitch___,sensor_roll___,label4
0.0,-2.32438349723816,-1.14723825454712,9.27360820770264,0.411587983369827,-0.167683988809586,0.617381989955902,-1056.30004882812,-2.70000004768372,-882.900024414062,-2.592926544854,-0.243640576694222,0.122094249689959,ST
0.0333333333333333,-2.29028940200806,-1.14843451976776,9.25745868682861,0.487807989120483,-0.198172003030777,0.609759986400604,-1051.5,0.300000011920929,-882.900024414062,-2.59816060293628,-0.240543529291278,0.1223034531491,ST
0.0666666666666667,-2.39556264877319,-1.1735565662384,9.37050819396973,0.320124000310898,-0.289635986089706,0.289635986089706,-1053.90002441406,3.30000019073486,-882.900024414062,-2.60008044546926,-0.247980126791616,0.123887318201439,ST
0.1,-2.34531855583191,-1.1597992181778,9.42374229431152,0.442075997591019,-0.449698001146317,0.434453994035721,-1056.30004882812,2.70000004768372,-880.500061035156,-2.60424240135602,-0.241482404037037,0.121478338097271,ST
0.133333333333333,-2.23047518730164,-1.16099548339844,9.1802978515625,0.525918006896973,-0.289635986089706,0.472563982009888,-1061.10009765625,0.900000035762787,-882.900024414062,-2.60708339584565,-0.236138263978453,0.124664561648498,ST
0.166666666666667,-2.34352421760559,-1.10058307647705,9.28258037567139,0.46494197845459,-0.205793991684914,0.525918006896973,-1061.10009765625,6.30000019073486,-858.900024414062,-2.61301208669108,-0.245385922192679,0.116971651463728,ST
0.2,-2.31361699104309,-1.15142524242401,9.25147724151611,0.358233988285065,-0.228659987449646,0.457319974899292,-1063.5,1.5,-880.500061035156,-2.61540448759009,-0.242955935046092,0.122982888159476,ST
0.233333333333333,-2.31481337547302,-1.19748222827911,9.30172157287598,0.350611984729767,-0.213415995240211,0.342989981174469,-1061.10009765625,2.10000014305115,-870.900024414062,-2.61704644300154,-0.241693015681152,0.127258725695149,ST
0.266666666666667,-2.38120722770691,-1.17535090446472,9.35136699676514,0.487807989120483,-0.297257989645004,0.37347799539566,-1051.5,3.90000009536743,-882.900024414062,-2.6205400739915,-0.247030834574412,0.124004782079336,ST
0.3,-2.30464482307434,-1.15321969985962,9.27958965301514,0.510673999786377,-0.419209986925125,0.396344006061554,-1056.30004882812,-2.10000014305115,-873.300048828125,-2.62391771853873,-0.241009728157326,0.122560314229943,ST
0.333333333333333,-2.31062626838684,-1.12151801586151,9.28317928314209,0.419209986925125,-0.3125019967556,0.449698001146317,-1063.5,-0.900000035762787,-880.500061035156,-2.62875496347525,-0.241806427312979,0.119290462824513,ST
0.366666666666667,-2.23346590995789,-1.14723825454712,9.30650615692139,0.403965979814529,-0.221037998795509,0.487807989120483,-1051.5,1.5,-868.500061035156,-2.6322436613895,-0.23355742177437,0.121734483208699,ST
0.4,-2.30643939971924,-1.1556122303009,9.35555458068848,0.419209986925125,-0.152439996600151,0.350611984729767,-1058.70007324219,4.5,-873.300048828125,-2.63484810853302,-0.239764272045831,0.122010713222393,ST
0.433333333333333,-2.32019662857056,-1.16099548339844,9.37828350067139,0.449698001146317,-0.160062000155449,0.327746003866196,-1046.70007324219,-0.900000035762787,-878.100036621094,-2.63702497667932,-0.240555814736341,0.122236701036465,ST
0.466666666666667,-2.38539409637451,-1.15202331542969,9.26463603973389,0.503051996231079,-0.167683988809586,0.457319974899292,-1056.30004882812,2.10000014305115,-882.900024414062,-2.64022366587784,-0.249950290116921,0.12262150452926,ST
0.5,-2.30524301528931,-1.12869584560394,9.305908203125,0.419209986925125,-0.25152599811554,0.510673999786377,-1058.70007324219,0.300000011920929,-885.300048828125,-2.64504387638613,-0.240812072262704,0.119739728845228,ST
0.533333333333333,-2.33335566520691,-1.13228464126587,9.24489784240723,0.419209986925125,-0.274392008781433,0.457319974899292,-1051.5,0.900000035762787,-882.900024414062,-2.64839308217279,-0.245086038354246,0.120924083400518,ST
0.566666666666667,-2.37821650505066,-1.11912548542023,9.2939453125,0.396344006061554,-0.144817993044853,0.472563982009888,-1053.90002441406,6.30000019073486,-882.900024414062,-2.65287736761644,-0.248635333581373,0.118931182849314,ST
0.6,-2.34890747070312,-1.09938681125641,9.34957313537598,0.472563982009888,-0.274392008781433,0.495429992675781,-1046.70007324219,1.5,-880.500061035156,-2.65779849227514,-0.244146566123343,0.115998172421128,ST
0.633333333333333,-2.3877866268158,-1.10656452178955,9.25387001037598,0.388722002506256,-0.442075997591019,0.236281991004944,-1046.70007324219,2.70000004768372,-870.900024414062,-2.65920177796773,-0.250090427976761,0.118205895710224,ST
0.666666666666667,-2.30404663085938,-1.0916109085083,9.45364952087402,0.426831990480423,-0.442075997591019,0.403965979814529,-1053.90002441406,6.30000019073486,-880.500061035156,-2.66381947914904,-0.236861107526688,0.11402733631183,ST
0.7,-2.24363422393799,-1.11254596710205,9.28497314453125,0.541162014007568,-0.342989981174469,0.365855991840363,-1058.70007324219,2.70000004768372,-880.500061035156,-2.66562378671994,-0.234956466500677,0.118137609727416,ST
0.733333333333333,-2.30225229263306,-1.07306849956512,9.2281494140625,0.457319974899292,-0.198172003030777,0.403965979814529,-1051.5,-3.30000019073486,-873.300048828125,-2.66946885165911,-0.242648712465594,0.114783684839326,ST
0.766666666666667,-2.33455204963684,-1.09220910072327,9.32026386260986,0.434453994035721,-0.137196004390717,0.449698001146317,-1061.10009765625,9.30000019073486,-875.700012207031,-2.67261894406082,-0.243680817261943,0.115694436592903,ST
0.8,-2.38120722770691,-1.11015331745148,9.33761024475098,0.419209986925125,-0.236281991004944,0.350611984729767,-1063.5,-2.10000014305115,-878.100036621094,-2.67476020444982,-0.247673297038292,0.117435508542902,ST
0.833333333333333,-2.35070180892944,-1.12570512294769,9.27540302276611,0.419209986925125,-0.457319974899292,0.3125019967556,-1061.10009765625,-5.70000028610229,-878.100036621094,-2.67662733524063,-0.245747534382042,0.119879593519672,ST
0.866666666666667,-2.34172964096069,-1.12570512294769,9.2879638671875,0.419209986925125,-0.388722002506256,0.381099998950958,-1053.90002441406,3.90000009536743,-885.300048828125,-2.67971225172596,-0.244662044919885,0.119695435329928,ST
0.9,-2.24483060836792,-1.12690138816833,9.35136699676514,0.342989981174469,-0.381099998950958,0.350611984729767,-1061.10009765625,2.10000014305115,-880.500061035156,-2.68280043135736,-0.233389701961518,0.119166860187845,ST
0.933333333333333,-2.25559711456299,-1.07007777690887,9.26942157745361,0.411587983369827,-0.388722002506256,0.426831990480423,-1051.5,3.90000009536743,-882.900024414062,-2.68772998116346,-0.236590707632501,0.114020799619133,ST
0.966666666666667,-2.26337289810181,-1.13348090648651,9.38486289978027,0.419209986925125,-0.282013982534409,0.335367977619171,-1068.30004882812,7.50000047683716,-868.500061035156,-2.68925915131828,-0.234590572621084,0.119308052562164,ST
1.0,-2.26098036766052,-1.12211620807648,9.33820819854736,0.46494197845459,-0.335367977619171,0.282013982534409,-1063.5,-2.70000004768372,-882.900024414062,-2.69163727742491,-0.235392528333357,0.118645392158615,ST
1.03333333333333,-2.21073651313782,-1.13826608657837,9.25686073303223,0.434453994035721,-0.304879993200302,0.297257989645004,-1056.30004882812,5.10000038146973,-880.500061035156,-2.69329933799806,-0.23227742868233,0.121453104064436,ST
1.06666666666667,-2.34890747070312,-1.1316864490509,9.37888145446777,0.434453994035721,-0.266770005226135,0.25152599811554,-1063.5,0.900000035762787,-882.900024414062,-2.69548930901543,-0.243278826838063,0.119204962245617,ST
1.1,-2.44879722595215,-1.12989211082458,9.23353290557861,0.289635986089706,-0.304879993200302,0.396344006061554,-1051.5,-0.300000011920929,-882.900024414062,-2.69839313477292,-0.256943908655583,0.121058090408721,ST
1.13333333333333,-2.60311818122864,-1.18671560287476,9.41716289520264,0.198172003030777,-0.25152599811554,0.632625997066498,-1051.5,7.50000047683716,-882.900024414062,-2.70334077197358,-0.267365117516522,0.124691437278523,ST
1.16666666666667,-2.43922710418701,-1.27344644069672,9.45903301239014,0.236281991004944,-0.525918006896973,0.655492007732391,-1051.5,-0.300000011920929,-885.300048828125,-2.70800064850841,-0.249462554027672,0.133086131046881,ST
1.2,-2.53552794456482,-1.27404451370239,9.22396278381348,0.129574000835419,-0.533540010452271,0.350611984729767,-1063.5,4.5,-880.500061035156,-2.71102063232599,-0.265007102438146,0.136827774686554,ST
1.23333333333333,-2.70121359825134,-1.12989211082458,8.92548942565918,0.335367977619171,-0.365855991840363,0.586893975734711,-1065.90002441406,1.5,-885.300048828125,-2.7195396449749,-0.2911578532906,0.125015914210769,ST
1.26666666666667,-2.80588865280151,-1.1938933134079,8.07373428344727,0.647870004177094,-0.320124000310898,-0.205793991684914,-1049.10009765625,3.90000009536743,-892.500061035156,-2.70949378812554,-0.330505142141292,0.145758923684738,ST
1.3,-3.24492573738098,-1.23875403404236,8.43202114105225,0.632625997066498,-0.342989981174469,-0.586893975734711,-1053.90002441406,0.300000011920929,-866.100036621094,-2.70203355515269,-0.36304252536805,0.145115172874528,ST
1.33333333333333,-3.63910174369812,-1.29318511486053,8.48047065734863,0.960371971130371,-1.11281192302704,-1.01372599601746,-1046.70007324219,2.10000014305115,-887.700012207031,-2.68827330825287,-0.398994018597945,0.150257929832786,ST
1.36666666666667,-3.82332992553711,-1.20107114315033,8.80586051940918,0.640248000621796,-2.13416004180908,-0.685979962348938,-1061.10009765625,-6.90000009536743,-882.900024414062,-2.688383961244,-0.402408670611956,0.134748376790417,ST
1.4,-3.36993741989136,-1.23396897315979,8.22506427764893,0.640248000621796,-2.64483404159546,-0.121951997280121,-1061.10009765625,1.5,-887.700012207031,-2.68351576718264,-0.380392362935695,0.147593651856151,ST
1.43333333333333,-3.77069330215454,-1.35060679912567,8.69101715087891,0.571649968624115,-2.78202986717224,0.983237981796265,-1089.90002441406,-2.70000004768372,-882.900024414062,-2.69219002309346,-0.400452149591028,0.152133399789288,ST
1.46666666666667,-2.94047093391418,-1.28002595901489,8.46013450622559,0.449698001146317,-2.40855193138123,1.06708002090454,-1077.90002441406,-1.5,-882.900024414062,-2.70504844906925,-0.327212194453469,0.14854134011927,ST
1.5,-2.16467952728271,-1.56773269176483,7.86438369750977,0.335367977619171,-1.70732796192169,0.807931959629059,-1080.30004882812,3.30000019073486,-868.500061035156,-2.70099525557177,-0.26107986068356,0.19560424279327,ST
1.53333333333333,-2.61926817893982,-1.62694883346558,10.0446147918701,0.304879993200302,-1.48628997802734,0.0990860015153885,-1077.90002441406,4.5,-880.500061035156,-2.7125167473965,-0.249419177241243,0.159935728434219,ST
1.56666666666667,-1.54619956016541,-1.54560148715973,9.70785999298096,1.14329993724823,-2.85062789916992,-0.594515979290009,-1070.70007324219,4.5,-885.300048828125,-2.70997416137218,-0.151022123213936,0.155931597329361,ST
1.6,-1.02641332149506,-1.7304276227951,9.88909816741943,0.937505960464478,-3.07928800582886,-1.02897000312805,-1077.90002441406,9.30000019073486,-882.900024414062,-2.7022252585807,-0.0963435243323082,0.171657926548061,ST
1.63333333333333,-0.303856641054153,-1.67599666118622,10.4758758544922,1.05945801734924,-3.01831197738647,-0.571649968624115,-1082.70007324219,-1.5,-875.700012207031,-2.70190440254783,-0.0233549040839384,0.15681296478829,ST
1.66666666666667,-0.0041870009154081,-1.67599666118622,10.9196977615356,1.17378795146942,-3.20886182785034,-0.335367977619171,-1089.90002441406,-0.900000035762787,-882.900024414062,-2.70345872730384,0.0052144706650545,0.150255268813652,ST
1.7,-0.607115089893341,-1.49715185165405,10.9220905303955,1.07470202445984,-2.5152599811554,-0.0609759986400604,-1104.30004882812,3.90000009536743,-873.300048828125,-2.70616533503664,-0.0505891348585232,0.134343895036168,ST
1.73333333333333,-0.575413525104523,-1.37393438816071,11.2331247329712,0.823175966739655,-1.53964400291443,0.685979962348938,-1089.90002441406,9.30000019073486,-873.300048828125,-2.71570668414119,-0.0482791265713406,0.120203701329686,ST
1.76666666666667,-0.596946656703949,-0.994711756706238,10.5697841644287,0.731711983680725,-0.792688012123108,0.190549999475479,-1104.30004882812,6.30000019073486,-887.700012207031,-2.71935492743311,-0.05481521039856,0.0925608862845448,ST
1.8,-1.55935871601105,-0.494066089391708,10.3813695907593,0.914639949798584,-0.670735955238342,-0.548784017562866,-1085.10009765625,2.10000014305115,-878.100036621094,-2.71791578458606,-0.147610247650759,0.0461446238161839,ST
1.83333333333333,-1.39546751976013,0.0526365824043751,10.2820777893066,1.2500079870224,-1.54726600646973,-0.457319974899292,-1097.10009765625,6.90000009536743,-875.700012207031,-2.71874210747757,-0.132205737512691,-0.0071658561778956,ST
1.86666666666667,-1.33625137805939,0.495262384414673,9.24310302734375,0.884151995182037,-1.28049600124359,-0.92988395690918,-1094.70007324219,-1.5,-894.900024414062,-2.7144446530921,-0.141216742085446,-0.0547738006332222,ST
1.9,-0.915158748626709,0.0436644367873669,9.85261058807373,0.0685980021953583,-1.30336201190948,-1.2347639799118,-1101.90002441406,-8.70000076293945,-882.900024414062,-2.69524921639518,-0.0903792087197914,-0.0043801656949277,ST
1.93333333333333,-0.898410737514496,-0.312230616807938,9.86636829376221,-0.381099998950958,-1.88263392448425,-1.54726600646973,-1094.70007324219,2.70000004768372,-868.500061035156,-2.67640267405218,-0.0873923626113288,0.0325092396924134,ST
1.96666666666667,-0.701023578643799,-0.682481110095978,9.68333625793457,-1.02897000312805,-1.54726600646973,-1.2423859834671,-1094.70007324219,1.5,-875.700012207031,-2.6628985354906,-0.0692613978869998,0.0722527662972886,ST
2.0,-1.97566628456116,-0.87687760591507,10.3101902008057,-0.967993974685669,0.525918006896973,-0.182927995920181,-1101.90002441406,-3.30000019073486,-880.500061035156,-2.660412690403,-0.189488618223577,0.0866034587886598,ST
2.03333333333333,-0.919943869113922,-0.973776757717133,8.3159818649292,-0.167683988809586,0.967993974685669,0.480185985565186,-1106.70007324219,-3.30000019073486,-870.900024414062,-2.66002405739397,-0.1112492556368,0.116772502761073,ST
2.06666666666667,-1.83689701557159,-1.52825534343719,8.63957691192627,-1.02897000312805,1.13567793369293,-0.754577994346619,-1101.90002441406,-1.5,-878.100036621094,-2.64336632687554,-0.207996066819716,0.177152549761517,ST
2.1,-2.70540070533752,-1.86142086982727,9.0672492980957,-1.41006994247437,0.868907988071442,-0.335367977619171,-1104.30004882812,4.5,-870.900024414062,-2.63550312689397,-0.285635514722028,0.205164858844965,ST
2.13333333333333,-1.93200182914734,-2.18262362480164,9.7778434753418,-0.99848198890686,0.0609759986400604,-0.602137982845306,-1101.90002441406,-0.300000011920929,-878.100036621094,-2.62789442232312,-0.19048379697646,0.221548897736268,ST
2.16666666666667,-2.14613699913025,-1.47980570793152,8.80286979675293,0.46494197845459,0.449698001146317,-0.434453994035721,-1094.70007324219,0.900000035762787,-861.300048828125,-2.63345773550943,-0.236566323393939,0.165984802103066,ST
2.2,-2.85912346839905,-1.28301668167114,10.6014862060547,1.08232402801514,0.0762199983000755,1.05183601379395,-1094.70007324219,-2.70000004768372,-875.700012207031,-2.65235647021014,-0.261923505943851,0.118116941888013,ST
2.23333333333333,-1.0916109085083,-1.1717621088028,8.94522857666016,1.42531394958496,-0.716467976570129,0.190549999475479,-1087.5,5.10000038146973,-882.900024414062,-2.65123646972443,-0.119374196363148,0.127694658640059,ST
2.26666666666667,-2.40692734718323,-0.684275567531586,8.47568607330322,0.25152599811554,1.21951997280121,-0.510673999786377,-1097.10009765625,0.300000011920929,-868.500061035156,-2.65413691877217,-0.277717292402817,0.0804758379059723,ST
2.3,-2.37044048309326,-1.37632691860199,9.06784725189209,-0.541162014007568,1.81403601169586,0.37347799539566,-1094.70007324219,12.3000001907349,-882.900024414062,-2.6378869503733,-0.256169844815372,0.151453352385848,ST
2.33333333333333,-2.42905855178833,-1.58986401557922,9.68154239654541,-0.419209986925125,0.396344006061554,-0.160062000155449,-1099.5,0.900000035762787,-868.500061035156,-2.63378260123221,-0.243350856933788,0.163577879365683,ST
2.36666666666667,-2.21791410446167,-1.16877138614655,9.26284217834473,-0.0990860015153885,-0.655492007732391,0.518296003341675,-1097.10009765625,8.70000076293945,-880.500061035156,-2.64869617213536,-0.232226106955969,0.12548392344284,ST
2.4,-1.66702449321747,-1.29079258441925,8.81602954864502,0.0990860015153885,-0.533540010452271,0.37347799539566,-1092.30004882812,0.300000011920929,-870.900024414062,-2.64924141534338,-0.184148512812168,0.145055477573714,ST
2.43333333333333,-2.14015555381775,-1.34043836593628,9.03853797912598,-0.46494197845459,0.609759986400604,0.586893975734711,-1092.30004882812,8.70000076293945,-885.300048828125,-2.65436519597206,-0.23122357921191,0.147836464804717,ST
2.46666666666667,-1.68377244472504,-1.77050316333771,9.25745868682861,-0.655492007732391,0.381099998950958,0.0838419944047928,-1094.70007324219,3.30000019073486,-868.500061035156,-2.64718190795985,-0.17749666418494,0.190082675462911,ST
2.5,-2.37761831283569,-1.57311606407166,9.72281360626221,-0.205793991684914,0.518296003341675,-0.419209986925125,-1092.30004882812,-0.900000035762787,-873.300048828125,-2.64874181211017,-0.237593243595003,0.161000452343159,ST
2.53333333333333,-2.00916218757629,-1.75734400749207,9.2287483215332,0.579271972179413,0.457319974899292,-0.236281991004944,-1085.10009765625,4.5,-878.100036621094,-2.63827667868718,-0.211411100019896,0.187262705974591,ST
2.56666666666667,-2.71676540374756,-1.44571161270142,9.45783710479736,0.952749967575073,1.08232402801514,-0.37347799539566,-1094.70007324219,8.10000038146973,-882.900024414062,-2.63924742159558,-0.278395537849774,0.150311780225838,ST
2.6,-2.59713673591614,-1.1837249994278,9.98121166229248,1.36433792114258,0.586893975734711,0.152439996600151,-1080.30004882812,3.30000019073486,-882.900024414062,-2.64547979948072,-0.25392238891125,0.11564300037673,ST
2.63333333333333,-1.80399918556213,-1.1316864490509,9.21439266204834,0.99848198890686,0.243903994560242,-0.327746003866196,-1073.10009765625,1.5,-878.100036621094,-2.63901640435914,-0.192350756586687,0.12057845802994,ST
2.66666666666667,-2.46733975410461,-1.12989211082458,9.80475997924805,0.289635986089706,1.04421401023865,-0.350611984729767,-1077.90002441406,2.10000014305115,-878.100036621094,-2.63522899722528,-0.246652331227509,0.114439644390751,ST
2.7,-1.76212918758392,-1.52227389812469,9.51166915893555,-0.0838419944047928,0.472563982009888,-0.586893975734711,-1087.5,2.10000014305115,-878.100036621094,-2.61964897834028,-0.181656002951789,0.159005122428789,ST
2.73333333333333,-2.38419795036316,-1.33086812496185,10.1684303283691,-0.198172003030777,0.442075997591019,-0.983237981796265,-1085.10009765625,0.900000035762787,-887.700012207031,-2.61591730100738,-0.228918297514098,0.130939040390061,ST
2.76666666666667,-1.92362785339355,-1.22918379306793,8.99666881561279,0.434453994035721,0.434453994035721,-0.571649968624115,-1087.5,2.10000014305115,-873.300048828125,-2.60810134234681,-0.209399392037899,0.135254878913966,ST
2.8,-1.9248241186142,-1.30754053592682,9.56310939788818,0.358233988285065,0.518296003341675,-0.182927995920181,-1080.30004882812,2.10000014305115,-882.900024414062,-2.60497609665859,-0.197704558052401,0.135347597815528,ST
2.83333333333333,-1.76990509033203,-1.54201257228851,9.29035663604736,0.426831990480423,0.67835795879364,-0.0762199983000755,-1075.5,2.10000014305115,-878.100036621094,-2.59676706874119,-0.186923768982491,0.163782562375038,ST
2.86666666666667,-2.1730535030365,-1.36256968975067,9.56490421295166,0.907018005847931,0.243903994560242,-0.0762199983000755,-1075.5,-2.70000004768372,-880.500061035156,-2.59845980282673,-0.221618170539091,0.139978979755779,ST
2.9,-2.18202567100525,-1.88415038585663,8.85131931304932,1.14329993724823,0.289635986089706,0.0838419944047928,-1068.30004882812,3.90000009536743,-875.700012207031,-2.58070846705605,-0.237110436921319,0.20765631785708,ST
2.93333333333333,-2.93688201904297,-1.43315052986145,9.34299278259277,1.30336201190948,0.533540010452271,1.21951997280121,-1080.30004882812,-0.300000011920929,-882.900024414062,-2.60308760303598,-0.302417669653799,0.149386202022093,ST
2.96666666666667,-2.72334504127502,-1.94157207012177,9.66180324554443,1.98934197425842,-0.472563982009888,2.10367202758789,-1070.70007324219,-2.10000014305115,-887.700012207031,-2.60557352008164,-0.269550082749726,0.193751237561717,ST
3.0,-2.48049879074097,-1.68197798728943,9.15039157867432,2.46190595626831,-1.75305998325348,2.05031800270081,-1085.10009765625,3.30000019073486,-880.500061035156,-2.627379254123,-0.258178881528185,0.176421711026188,ST
3.03333333333333,-2.19697904586792,-1.93977761268616,9.31966590881348,3.41465592384338,-3.19361782073975,3.55185198783875,-1075.5,-3.90000009536743,-878.100036621094,-2.65674092075436,-0.222593269552679,0.197605425036401,ST
3.06666666666667,-1.86680424213409,-1.30813872814178,8.56839847564697,3.58234000205994,-3.94057393074036,3.58996200561523,-1087.5,-5.10000038146973,-868.500061035156,-2.7035764735905,-0.20624111280211,0.143760987145164,ST
3.1,-1.18252861499786,-0.447410941123962,8.39134788513184,3.11739802360535,-2.18751406669617,3.76526784896851,-1085.10009765625,-3.90000009536743,-878.100036621094,-2.75328798188283,-0.136384679970732,0.0470006890605517,ST
3.13333333333333,-1.30634427070618,-0.300865918397903,8.97932243347168,1.6920839548111,-0.807931959629059,2.95733594894409,-1097.10009765625,0.900000035762787,-885.300048828125,-2.78224174788412,-0.143128426584093,0.0298097047547526,ST
3.16666666666667,-1.58208811283112,0.385204076766968,9.60617637634277,0.87652999162674,-0.792688012123108,1.08994603157043,-1092.30004882812,4.5,-878.100036621094,-2.80207862624218,-0.161620154100009,-0.0418290355785162,ST
3.2,-1.27703523635864,-0.111852735280991,9.96266937255859,0.3125019967556,-0.274392008781433,0.739333987236023,-1094.70007324219,-0.900000035762787,-878.100036621094,-2.80153230140794,-0.127042965607173,0.0104709441362943,ST
3.23333333333333,-1.36436414718628,0.0819455906748772,9.32205867767334,-0.228659987449646,-0.632625997066498,-1.10518991947174,-1101.90002441406,-6.90000009536743,-870.900024414062,-2.79361348176777,-0.144213588884412,-0.0080893571027324,ST
3.26666666666667,-1.24294114112854,-0.254210770130157,9.67137336730957,-0.78506600856781,-0.525918006896973,-0.868907988071442,-1099.5,-3.30000019073486,-866.100036621094,-2.78143491816088,-0.126833396543325,0.0277998578062,ST
3.3,-1.0634982585907,-0.532945394515991,9.88371467590332,-1.52439999580383,-0.510673999786377,-1.31860601902008,-1087.5,-2.10000014305115,-890.100036621094,-2.76714685397372,-0.106037905179366,0.056737878022699,ST
3.33333333333333,-0.91276615858078,-0.533543527126312,9.46381855010986,-1.56251001358032,-0.419209986925125,-1.85976791381836,-1089.90002441406,-2.70000004768372,-868.500061035156,-2.74902230738186,-0.0950821308865872,0.0593485813193436,ST
3.36666666666667,-0.707004964351654,-1.05931115150452,9.43032169342041,-1.89025592803955,0.0,-1.82927989959717,-1094.70007324219,4.5,-882.900024414062,-2.72796908048017,-0.0740232698639739,0.115334477302685,ST
3.4,-0.778183996677399,-1.31292378902435,10.1833839416504,-2.05031800270081,0.0304879993200302,-1.86738991737366,-1092.30004882812,-0.900000035762787,-882.900024414062,-2.70859752659348,-0.0752688745514667,0.132034900494417,ST
3.43333333333333,-0.757847130298615,-1.19209897518158,9.79698371887207,-1.21951997280121,0.282013982534409,-1.37195992469788,-1087.5,-2.10000014305115,-878.100036621094,-2.69653255660212,-0.0768303825579436,0.123410425210099,ST
3.46666666666667,-0.754258275032043,-1.61618232727051,10.0930643081665,-1.00610399246216,0.525918006896973,-1.19665396213531,-1073.10009765625,3.90000009536743,-880.500061035156,-2.68212068452056,-0.0742324742280477,0.160659046383038,ST
3.5,-0.540721237659454,-1.69752979278564,9.01042556762695,-0.846041977405548,0.83841997385025,-1.20427596569061,-1094.70007324219,-2.70000004768372,-873.300048828125,-2.66775270678442,-0.059966490729694,0.187800673398307,ST
3.53333333333333,-1.07665729522705,-1.87039303779602,9.44108867645264,-1.15854394435883,1.18140995502472,-0.922261953353882,-1094.70007324219,-0.900000035762787,-870.900024414062,-2.65701040767653,-0.113049321388006,0.197814481452712,ST
3.56666666666667,-0.919345736503601,-1.8045973777771,9.52961349487305,-0.510673999786377,0.198172003030777,-0.205793991684914,-1077.90002441406,0.900000035762787,-866.100036621094,-2.65600656971425,-0.0947874781131445,0.18808715777033,ST
3.6,-0.653172135353088,-1.99779748916626,9.41058349609375,-0.419209986925125,-0.327746003866196,-0.243903994560242,-1082.70007324219,4.5,-873.300048828125,-2.6528587008514,-0.067173581417797,0.209914642039066,ST
3.63333333333333,-0.92472904920578,-1.60721015930176,9.78442287445068,0.503051996231079,-0.739333987236023,-0.175305992364883,-1087.5,2.10000014305115,-878.100036621094,-2.65576898219877,-0.0916417479989206,0.161991881223545,ST
3.66666666666667,-1.46365582942963,-1.38470101356506,9.62053108215332,1.06708002090454,-0.213415995240211,1.05945801734924,-1092.30004882812,-0.300000011920929,-878.100036621094,-2.66732966041819,-0.1492914984065,0.140828848629791,ST
3.7,-1.28959619998932,-1.36855113506317,8.96078014373779,0.777444005012512,0.304879993200302,1.81403601169586,-1099.5,2.10000014305115,-875.700012207031,-2.68333437732551,-0.142319783944862,0.149757067509431,ST
3.73333333333333,-1.64848208427429,-1.32249414920807,9.57686710357666,0.0228659994900227,0.0381099991500378,1.88263392448425,-1085.10009765625,8.70000076293945,-868.500061035156,-2.70437584056638,-0.169384948660918,0.136638704602843,ST
3.76666666666667,-2.02710652351379,-1.08921837806702,9.25865459442139,-0.320124000310898,-0.602137982845306,1.96647596359253,-1089.90002441406,-0.300000011920929,-882.900024414062,-2.72817346669864,-0.213417662818047,0.116921624247949,ST
3.8,-1.46186137199402,-1.12211620807648,8.95420074462891,-0.746955990791321,-0.92988395690918,1.79117000102997,-1082.70007324219,6.90000009536743,-885.300048828125,-2.74608950512337,-0.159438041596071,0.125428882541223,ST
3.83333333333333,-1.74358677864075,-1.11792922019958,9.5565299987793,-1.00610399246216,-1.29574000835419,1.50915598869324,-1089.90002441406,3.90000009536743,-892.500061035156,-2.76502481676681,-0.177312558771916,0.117700435297246,ST
3.86666666666667,-1.17834162712097,-1.35299944877625,9.14201736450195,-1.02897000312805,-1.79117000102997,0.594515979290009,-1101.90002441406,6.90000009536743,-878.100036621094,-2.76992887780512,-0.123940489042119,0.148507810769863,ST
3.9,-1.12869584560394,-1.83570075035095,9.38905048370361,-1.59299790859222,-2.26373386383057,-0.823175966739655,-1092.30004882812,12.9000005722046,-880.500061035156,-2.76229458467171,-0.113292118005501,0.195893424840904,ST
3.93333333333333,-1.06828331947327,-2.29208397865295,10.3006200790405,-2.13416004180908,-2.78965187072754,-1.87501192092896,-1092.30004882812,8.70000076293945,-870.900024414062,-2.74958527653301,-0.0954399742047303,0.222851666245023,ST
3.96666666666667,-0.43724250793457,-2.51459312438965,9.85739612579346,-1.265251994133,-3.21648383140564,-2.16464805603027,-1106.70007324219,5.10000038146973,-885.300048828125,-2.73539494596145,-0.0366409802614517,0.252030706527207,ST
4.0,-0.102282449603081,-2.85254383087158,9.78860950469971,-0.701223969459534,-2.78202986717224,-2.37806391716003,-1106.70007324219,6.90000009536743,-868.500061035156,-2.71857216367613,-0.0042222650929752,0.284780402008682,ST
4.03333333333333,-0.254210770130157,-2.92073202133179,9.97822093963623,-0.480185985565186,-1.50915598869324,-2.62196803092957,-1101.90002441406,4.5,-880.500061035156,-2.69755649718566,-0.0206150061546258,0.285667959008065,ST
4.06666666666667,-0.385802209377289,-2.5618462562561,9.22994422912598,0.137196004390717,-0.121951997280121,-2.04269599914551,-1113.90002441406,8.70000076293945,-866.100036621094,-2.67788035908249,-0.0390839039609557,0.270644928565082,ST
4.1,-0.930112302303314,-2.67190456390381,8.83816051483154,-0.403965979814529,0.807931959629059,-0.846041977405548,-1128.30004882812,6.30000019073486,-882.900024414062,-2.6658173145581,-0.101276867803559,0.294452680976331,ST
4.13333333333333,-1.12032175064087,-2.86331033706665,9.3238525390625,-0.731711983680725,0.716467976570129,-0.282013982534409,-1101.90002441406,4.5,-882.900024414062,-2.66142591128094,-0.115395421602352,0.299322066780449,ST
4.16666666666667,-0.684873700141907,-2.84297347068787,8.70716762542725,-0.724089980125427,0.282013982534409,-0.495429992675781,-1101.90002441406,11.1000003814697,-880.500061035156,-2.65488479212376,-0.0748759648342736,0.316914487223978,ST
4.2,-1.04017066955566,-2.99310731887817,8.79509449005127,-0.350611984729767,0.609759986400604,-0.0076219998300075,-1106.70007324219,5.70000028610229,-875.700012207031,-2.65217512090134,-0.112458424884516,0.32866032847716,ST
4.23333333333333,-1.10835897922516,-3.16058754920959,8.77655220031738,-0.0990860015153885,0.78506600856781,0.0304879993200302,-1121.10009765625,12.9000005722046,-882.900024414062,-2.64794492578373,-0.119563453546091,0.345867274251657,ST
4.26666666666667,-1.82373797893524,-2.96080780029297,9.20063495635986,0.358233988285065,0.304879993200302,0.716467976570129,-1092.30004882812,8.70000076293945,-885.300048828125,-2.65853018011733,-0.187327589171722,0.310550403398795,ST
4.3,-1.5444051027298,-3.04454779624939,9.99018383026123,0.541162014007568,-0.655492007732391,1.86738991737366,-1094.70007324219,2.10000014305115,-873.300048828125,-2.68065458751934,-0.146691632756105,0.294367718198587,ST
4.33333333333333,-1.49117040634155,-2.38120722770691,9.48654747009277,1.13567793369293,-1.21189796924591,2.64483404159546,-1113.90002441406,11.1000003814697,-882.900024414062,-2.71427598461344,-0.150350753116986,0.243245809504196,ST
4.36666666666667,-1.24892246723175,-2.6096978187561,9.14441013336182,0.884151995182037,-0.457319974899292,3.10977602005005,-1106.70007324219,3.30000019073486,-882.900024414062,-2.74058184402746,-0.131308158825496,0.275713296722395,ST
4.4,-1.40324342250824,-2.2651674747467,9.54695987701416,0.830797970294952,0.106707997620106,3.66618180274963,-1104.30004882812,9.30000019073486,-887.700012207031,-2.7818962554378,-0.143687224259529,0.230643027028284,ST
4.43333333333333,-1.07725548744202,-2.43982529640198,8.99068737030029,0.922261953353882,0.205793991684914,3.97106194496155,-1116.30004882812,3.90000009536743,-882.900024414062,-2.81453962775587,-0.117292776646764,0.262574592717093,ST
4.46666666666667,-1.25071692466736,-2.37163686752319,9.00982761383057,0.144817993044853,-0.114329993724823,2.70580983161926,-1111.5,3.90000009536743,-875.700012207031,-2.86627165895411,-0.134451080132476,0.25651076624795,ST
4.5,-1.47083353996277,-2.35429072380066,9.51286602020264,-0.0609759986400604,-0.777444005012512,2.77440786361694,-1101.90002441406,8.70000076293945,-882.900024414062,-2.89630467127912,-0.148802674932394,0.241979202262549,ST
4.53333333333333,-1.24413740634918,-2.52715396881104,8.92668533325195,-0.0914639979600906,-0.46494197845459,2.58385801315308,-1111.5,13.5000009536743,-880.500061035156,-2.91708151662891,-0.133767946773004,0.275390032772979,ST
4.56666666666667,-1.4660484790802,-2.72753190994263,9.14799880981445,-0.190549999475479,0.0685980021953583,2.05031800270081,-1106.70007324219,11.1000003814697,-870.900024414062,-2.93418351783441,-0.153501470556441,0.289556156732657,ST
4.6,-1.52526462078094,-2.67609167098999,8.95061111450195,0.655492007732391,0.823175966739655,2.12653803825378,-1089.90002441406,11.7000007629395,-878.100036621094,-2.95068477188834,-0.164262541554849,0.288860201370811,ST
4.63333333333333,-1.75136256217957,-2.58756637573242,9.1749153137207,1.12043392658234,1.07470202445984,2.30184388160706,-1104.30004882812,-0.900000035762787,-873.300048828125,-2.97010054434733,-0.184558835043899,0.27232292249535,ST
4.66666666666667,-1.48459088802338,-2.48468589782715,9.3477783203125,1.20427596569061,0.693601965904236,2.29422187805176,-1089.90002441406,14.1000003814697,-880.500061035156,-2.99049190136784,-0.154522538399127,0.257157240775947,ST
4.7,-1.66223931312561,-2.18262362480164,9.07502555847168,1.39482593536377,0.358233988285065,2.47714996337891,-1094.70007324219,17.7000007629395,-870.900024414062,-3.01455257414903,-0.177822238178376,0.232889783978121,ST
4.73333333333333,-1.50432956218719,-2.07256531715393,9.0433235168457,1.42531394958496,0.0685980021953583,2.76678586006165,-1097.10009765625,9.90000057220459,-870.900024414062,-3.04215702202629,-0.161933403490278,0.22204377909374,ST
4.76666666666667,-1.3218959569931,-2.08393001556396,9.18747615814209,1.09756803512573,-0.137196004390717,2.75916385650635,-1092.30004882812,8.70000076293945,-885.300048828125,-3.0687372815699,-0.140239834107757,0.220462906668704,ST
4.8,-1.48698341846466,-1.77110135555267,9.90644359588623,0.87652999162674,0.342989981174469,2.80489587783813,-1101.90002441406,12.3000001907349,-875.700012207031,-3.1009177098187,-0.148133663999907,0.174719545535436,ST
4.83333333333333,-1.06110560894012,-1.60182690620422,9.39921855926514,1.21189796924591,0.617381989955902,1.77592599391937,-1097.10009765625,7.50000047683716,-882.900024414062,-3.1166173505248,-0.112448243651863,0.166368184017865,ST
4.86666666666667,-1.52825534343719,-2.03966760635376,8.96377086639404,0.861285984516144,1.84452390670776,-0.221037998795509,-1089.90002441406,8.10000038146973,-887.700012207031,-3.101619224969,-0.167731153287197,0.222354459884158,ST
4.9,-2.42846035957336,-1.96071267127991,9.62471866607666,0.579271972179413,2.02745199203491,-0.914639949798584,-1099.5,4.5,-887.700012207031,-3.09192559324143,-0.245459106339182,0.200541990382583,ST
4.93333333333333,-2.48588228225708,-1.94575905799866,8.656325340271,1.36433792114258,2.98020195960999,-0.129574000835419,-1094.70007324219,11.7000007629395,-892.500061035156,-3.07531866581858,-0.278191482024965,0.219101646255668,ST
4.96666666666667,-2.57859444618225,-1.98523652553558,9.10074520111084,1.11281192302704,3.17075204849243,0.579271972179413,-1077.90002441406,9.30000019073486,-875.700012207031,-3.07267702830222,-0.275690162940418,0.212890591293757,ST
5.0,-2.2890932559967,-1.23875403404236,8.72331714630127,1.6768399477005,1.21951997280121,0.92988395690918,-1075.5,3.90000009536743,-880.500061035156,-3.09514810562008,-0.256539838569764,0.137874618182875,ST
5.03333333333333,-1.8446729183197,-1.19748222827911,8.0533971786499,1.74543797969818,1.04421401023865,1.06708002090454,-1065.90002441406,2.70000004768372,-875.700012207031,-3.09838473015437,-0.224910314905725,0.14419764510968,ST
5.06666666666667,-1.81596207618713,-1.76511991024017,8.80885124206543,0.6250039935112,0.655492007732391,0.556405961513519,-1061.10009765625,4.5,-873.300048828125,-3.09016315854208,-0.200785156115476,0.196464690017855,ST
5.1,-1.80519545078278,-1.59106028079987,9.09655857086182,-0.472563982009888,-0.846041977405548,-0.259148001670837,-1065.90002441406,-1.5,-890.100036621094,-3.09440997498295,-0.191523920866603,0.174042929389942,ST
5.13333333333333,-1.52047944068909,-1.76691436767578,9.00564098358154,-0.403965979814529,-0.518296003341675,-0.0762199983000755,-1077.90002441406,1.5,-885.300048828125,-3.09170330047732,-0.163304209669078,0.194415306739506,ST
5.16666666666667,-0.95463615655899,-2.58098697662354,8.99726676940918,-1.02134799957275,0.0533539988100529,0.0457319989800453,-1073.10009765625,9.90000057220459,-878.100036621094,-3.08164836254705,-0.101818519643602,0.281043985321753,ST
5.2,-2.29507446289062,-2.5217707157135,9.67675685882568,-0.891773998737335,0.586893975734711,0.83841997385025,-1087.5,8.10000038146973,-878.100036621094,-3.09382452303802,-0.22682546953838,0.256250292498406,ST
5.23333333333333,-3.08462333679199,-2.64259552955627,10.0386333465576,-0.449698001146317,1.05183601379395,2.35519790649414,-1075.5,6.90000009536743,-887.700012207031,-3.11374589869759,-0.291590629876968,0.257135732527736,ST
5.26666666666667,-3.34062838554382,-2.67429733276367,10.864070892334,-0.289635986089706,0.868907988071442,3.13264203071594,-1065.90002441406,10.5,-882.900024414062,3.13725879955487,-0.292927054809138,0.240392792668311,ST
5.3,-2.61926817893982,-2.27174711227417,9.67974758148193,0.335367977619171,-0.0990860015153885,2.96495795249939,-1073.10009765625,2.10000014305115,-880.500061035156,3.10498793989816,-0.258604552652367,0.22859515846389,ST
5.33333333333333,-1.64908015727997,-2.17843675613403,8.59172534942627,0.411587983369827,-0.236281991004944,2.27135586738586,-1051.5,5.70000028610229,-890.100036621094,3.08807992197425,-0.184597898054227,0.246840561780638,ST
5.36666666666667,-1.92422592639923,-1.9146556854248,8.25556945800781,0.830797970294952,-0.983237981796265,1.91312193870544,-1065.90002441406,6.90000009536743,-875.700012207031,3.06557655039283,-0.222303972958068,0.225645514912144,ST
5.4,-2.2292788028717,-1.8045973777771,8.75980377197266,1.36433792114258,-1.27287399768829,2.4847719669342,-1065.90002441406,7.50000047683716,-902.100036621094,3.03646946399334,-0.242944545283045,0.199644224674797,ST
5.43333333333333,-2.01933073997498,-1.58806955814362,8.79928112030029,1.71494996547699,-1.48628997802734,2.77440786361694,-1070.70007324219,12.3000001907349,-885.300048828125,3.00431925521939,-0.220415909994729,0.174406767601598,ST
5.46666666666667,-2.24782133102417,-1.25729656219482,9.5026969909668,2.01982998847961,-1.32622802257538,2.98782396316528,-1070.70007324219,12.3000001907349,-890.100036621094,2.96822495227372,-0.228698248363669,0.126798894191118,ST
5.5,-2.16348314285278,-1.19030451774597,10.0159044265747,2.08842802047729,-1.43293595314026,2.74391984939575,-1063.5,6.30000019073486,-885.300048828125,2.94200188423957,-0.209375492803312,0.113582158625934,ST
5.53333333333333,-1.74358677864075,-1.11733102798462,10.3299293518066,2.02745199203491,-2.080806016922,2.23324584960938,-1070.70007324219,7.50000047683716,-892.500061035156,2.91998560850665,-0.163105068778397,0.10351456790493,ST
5.56666666666667,-1.57251787185669,-0.724949300289154,9.56310939788818,2.4923939704895,-1.82927989959717,0.67835795879364,-1101.90002441406,2.10000014305115,-890.100036621094,2.91029954438889,-0.159421895916426,0.0710959962719681,ST
5.6,-1.86740231513977,-0.491673529148102,9.66300010681152,2.70580983161926,-0.800309956073761,0.121951997280121,-1080.30004882812,8.70000076293945,-873.300048828125,2.90924574915066,-0.189242407135756,0.0460890323560604,ST
5.63333333333333,-1.97985327243805,-0.29009935259819,9.25506591796875,2.88111591339111,-0.0914639979600906,-0.0228659994900227,-1075.5,9.90000057220459,-870.900024414062,2.91130625608087,-0.210462530888597,0.0263353488358748,ST
5.66666666666667,-2.65096974372864,-0.0580198690295219,9.43032169342041,2.73629784584045,0.586893975734711,-0.442075997591019,-1085.10009765625,6.90000009536743,-875.700012207031,2.91655598508713,-0.274987898439475,0.0016227901755195,ST
5.7,-2.71257829666138,-0.0311034340411425,9.47757530212402,1.95885396003723,0.426831990480423,-1.15092194080353,-1068.30004882812,1.5,-873.300048828125,2.93381091017855,-0.279499261163652,0.0004407259895537,ST
5.73333333333333,-2.45238614082336,0.0717771574854851,9.83885383605957,1.2347639799118,-0.480185985565186,-2.11129403114319,-1070.70007324219,0.300000011920929,-882.900024414062,2.95593453509502,-0.243488172820335,-0.008526601404594,ST
5.76666666666667,-2.37343120574951,0.0610105842351913,9.48295879364014,0.967993974685669,-1.47866797447205,-3.55185198783875,-1073.10009765625,-1.5,-870.900024414062,2.99253080600025,-0.242701175413575,-0.0065862281727718,ST
5.8,-2.77239274978638,0.0442625805735588,9.92498588562012,0.830797970294952,-1.38720393180847,-3.42227792739868,-1089.90002441406,7.50000047683716,-875.700012207031,3.02765346416889,-0.269962536116168,-0.0042578384889822,ST
5.83333333333333,-2.01095676422119,0.193200185894966,9.81732082366943,1.265251994133,-1.45580196380615,-3.37654590606689,-1077.90002441406,1.5,-885.300048828125,3.05899884354003,-0.199662608517301,-0.020661265063267,ST
5.86666666666667,-1.53483486175537,-0.0305052921175957,9.1569709777832,1.09756803512573,-1.55488801002502,-4.26069784164429,-1089.90002441406,0.900000035762787,-875.700012207031,3.1061520454596,-0.163376772264281,0.0026168590057073,ST
5.9,-1.44571161270142,-0.567039549350739,9.94711780548096,-0.37347799539566,-2.27897787094116,-4.74088382720947,-1089.90002441406,2.70000004768372,-887.700012207031,-3.1229496178716,-0.139665361715659,0.0586783486313334,ST
5.93333333333333,-1.36197149753571,-0.580796837806702,9.71503829956055,-0.67835795879364,-2.56099200248718,-4.52746772766113,-1077.90002441406,-4.5,-880.500061035156,-3.08108131521091,-0.134095147339667,0.0619207828638512,ST
5.96666666666667,-1.12331247329712,-1.07247030735016,9.71922492980957,-0.868907988071442,-1.55488801002502,-3.27745985984802,-1097.10009765625,-6.30000019073486,-887.700012207031,-3.04490165018666,-0.111063262395821,0.111975911326529,ST
6.0,-1.75913846492767,-1.26866126060486,9.87055492401123,-0.731711983680725,-0.388722002506256,-2.78965187072754,-1089.90002441406,-2.70000004768372,-880.500061035156,-3.01724652709869,-0.173587498912017,0.129915271505767,ST
6.03333333333333,-2.01155471801758,-1.28241848945618,9.65761661529541,-0.25152599811554,0.846041977405548,-1.62348592281342,-1092.30004882812,3.90000009536743,-890.100036621094,-3.00062046681221,-0.2046664905918,0.133074041968015,ST
6.06666666666667,-2.21253085136414,-1.61378967761993,8.80825328826904,-0.297257989645004,0.967993974685669,-1.02897000312805,-1075.5,-0.900000035762787,-875.700012207031,-2.97849741178721,-0.243535721720584,0.18220385847305,ST
6.1,-3.16357827186584,-1.23217451572418,9.425537109375,-0.510673999786377,0.46494197845459,0.144817993044853,-1080.30004882812,-1.5,-878.100036621094,-2.99508888133325,-0.322028517741828,0.130891675185619,ST
6.13333333333333,-1.63891172409058,-1.76691436767578,8.0055456161499,-0.701223969459534,0.114329993724823,1.11281192302704,-1089.90002441406,-6.90000009536743,-882.900024414062,-2.98572464258731,-0.19797299876143,0.21804708240028,ST
6.16666666666667,-2.16826820373535,-1.62814521789551,9.63907432556152,-1.33385002613068,-1.08994603157043,0.114329993724823,-1085.10009765625,6.90000009536743,-875.700012207031,-3.00207097375509,-0.216422459067281,0.169565570095499,ST
6.2,-1.19927668571472,-1.86201906204224,9.02597713470459,-1.12805593013763,-2.14178204536438,0.0762199983000755,-1089.90002441406,-1.5,-885.300048828125,-3.00237768336297,-0.125869964750307,0.205258822123129,ST
6.23333333333333,-1.33565330505371,-1.58627510070801,8.34708499908447,-0.67835795879364,-0.777444005012512,0.503051996231079,-1085.10009765625,-5.70000028610229,-878.100036621094,-3.01188158141497,-0.154725185776592,0.188828463637132,ST
6.26666666666667,-1.43913197517395,-1.83091568946838,8.90754508972168,-0.586893975734711,0.259148001670837,1.10518991947174,-1097.10009765625,0.900000035762787,-878.100036621094,-3.02080854783584,-0.157783030513394,0.20344874609231,ST
6.3,-2.13058519363403,-1.4481041431427,8.86507701873779,-0.358233988285065,0.92988395690918,1.85976791381836,-1085.10009765625,13.5000009536743,-880.500061035156,-3.04571547104163,-0.234927934600926,0.161889175656959,ST
6.33333333333333,-1.50911474227905,-1.78126978874207,8.29086017608643,-0.655492007732391,1.43293595314026,2.21037983894348,-1082.70007324219,3.90000009536743,-885.300048828125,-3.05461907997983,-0.179434260711141,0.212128877112061,ST
6.36666666666667,-2.78256106376648,-1.72982943058014,9.51585674285889,-1.32622802257538,1.73019397258759,1.93598794937134,-1080.30004882812,5.70000028610229,-885.300048828125,-3.08004901193772,-0.283598292275,0.181361671554366,ST
6.4,-2.07256531715393,-2.00437712669373,9.03016471862793,-1.21951997280121,0.632625997066498,1.48628997802734,-1075.5,5.10000038146973,-892.500061035156,-3.08570210505551,-0.222133247856926,0.21999051319625,ST
6.43333333333333,-1.91764640808105,-1.92901110649109,9.08698844909668,-0.937505960464478,0.411587983369827,0.868907988071442,-1075.5,2.10000014305115,-890.100036621094,-3.09718089886622,-0.20460719312641,0.210544732263852,ST
6.46666666666667,-1.68676316738129,-1.8907299041748,9.21917724609375,-0.144817993044853,-0.365855991840363,0.160062000155449,-1075.5,7.50000047683716,-880.500061035156,-3.10119100209027,-0.176810368491194,0.202471453009066,ST
6.5,-2.18142747879028,-1.59405100345612,8.80406665802002,0.37347799539566,0.160062000155449,0.693601965904236,-1065.90002441406,6.90000009536743,-875.700012207031,-3.11210292241675,-0.239603063129119,0.178200147577541,ST
6.53333333333333,-2.57500553131104,-1.43793570995331,10.0302591323853,0.0076219998300075,0.160062000155449,1.89787793159485,-1073.10009765625,6.30000019073486,-870.900024414062,-3.13854327531653,-0.249591776583929,0.141591326414392,ST
6.56666666666667,-1.83570075035095,-1.36615860462189,9.71922492980957,0.0304879993200302,-1.54726600646973,1.80641400814056,-1087.5,9.90000057220459,-880.500061035156,3.12488276598352,-0.182734333113003,0.13894890727915,ST
6.6,-1.71188521385193,-1.0975923538208,9.65522384643555,-0.0914639979600906,-1.54726600646973,1.12805593013763,-1077.90002441406,7.50000047683716,-890.100036621094,3.10759518741661,-0.171928724189357,0.11298806588758,ST
6.63333333333333,-0.776389598846436,-0.948654770851135,9.6103630065918,-0.0457319989800453,-0.640248000621796,0.586893975734711,-1085.10009765625,7.50000047683716,-880.500061035156,3.09940129409985,-0.0793146991373178,0.0983981852230325,ST
6.66666666666667,-1.01205790042877,-1.12151801586151,9.6402702331543,-0.0457319989800453,-0.983237981796265,-0.663114011287689,-1070.70007324219,2.10000014305115,-892.500061035156,3.10629096182014,-0.102040019700152,0.115973721217388,ST
6.7,-0.970786035060883,-1.04136693477631,9.05169773101807,-0.282013982534409,-1.05183601379395,-1.2576299905777,-1075.5,4.5,-878.100036621094,3.11691684480772,-0.104067535377386,0.115241796561829,ST
6.73333333333333,-1.28361487388611,-1.22200608253479,8.84414196014404,-0.518296003341675,-0.92988395690918,-0.685979962348938,-1097.10009765625,3.90000009536743,-880.500061035156,3.12444661291542,-0.140979791649941,0.138317383422967,ST
6.76666666666667,-2.14972591400146,-1.93559062480927,9.85141468048096,-1.19665396213531,-0.0228659994900227,0.46494197845459,-1087.5,9.30000019073486,-890.100036621094,3.12717032587143,-0.211019390799167,0.195894245819148,ST
6.8,-1.36017715930939,-2.68865275382996,10.1774024963379,-1.29574000835419,-0.640248000621796,-0.0228659994900227,-1082.70007324219,4.5,-882.900024414062,3.13467695262643,-0.127454761504418,0.260475580007649,ST
6.83333333333333,-1.38350474834442,-2.86331033706665,9.91362190246582,-0.983237981796265,-0.792688012123108,-1.63110792636871,-1087.5,11.1000003814697,-878.100036621094,-3.13373118156195,-0.131153508176527,0.283174960427634,ST
6.86666666666667,-1.69633340835571,-2.83519768714905,9.73178577423096,-0.510673999786377,-0.670735955238342,-2.04269599914551,-1092.30004882812,14.1000003814697,-880.500061035156,-3.11712908323553,-0.16365328678699,0.284886889246569,ST
6.9,-2.14434266090393,-2.70061540603638,9.72939395904541,0.182927995920181,-0.769822001457214,-2.11129403114319,-1082.70007324219,12.9000005722046,-887.700012207031,-3.10071510326145,-0.206949735917602,0.271115571043948,ST
6.93333333333333,-1.51988124847412,-2.82981443405151,9.35794639587402,0.129574000835419,-1.35671591758728,-2.14940404891968,-1089.90002441406,11.1000003814697,-870.900024414062,-3.08030594387827,-0.150938396176361,0.293846505180247,ST
6.96666666666667,-1.51389980316162,-2.49246168136597,9.54097843170166,0.457319974899292,-2.0579400062561,-2.5076379776001,-1087.5,14.1000003814697,-873.300048828125,-3.06709619776748,-0.147753973873651,0.255266336864152,ST
7.0,-1.25968909263611,-2.48408770561218,9.04751014709473,0.411587983369827,-1.77592599391937,-2.30184388160706,-1106.70007324219,8.10000038146973,-892.500061035156,-3.04781918219272,-0.129432591101299,0.267623159857532,ST
7.03333333333333,-1.40025269985199,-2.67369914054871,9.63668155670166,0.221037998795509,-1.47866797447205,-2.70580983161926,-1099.5,12.3000001907349,-873.300048828125,-3.02563964869734,-0.135354389343467,0.270778673405755,ST
7.06666666666667,-1.70590376853943,-2.39257192611694,9.63010215759277,0.0762199983000755,-1.43293595314026,-2.66770005226135,-1089.90002441406,11.1000003814697,-878.100036621094,-3.00795984897472,-0.166664684607036,0.244070779547795,ST
7.1,-0.802109718322754,-1.98045134544373,9.45783710479736,0.670735955238342,-1.95123195648193,-3.06404399871826,-1099.5,5.70000028610229,-878.100036621094,-2.9868682112103,-0.0784889988213513,0.20564682828813,ST
7.13333333333333,-1.24652993679047,-2.06000447273254,9.37529277801514,0.358233988285065,-1.56251001358032,-3.62045001983643,-1099.5,8.70000076293945,-870.900024414062,-2.95419903357874,-0.125067201221418,0.21635238600946,ST
7.16666666666667,-0.464158952236176,-2.57919239997864,8.632399559021,-0.419209986925125,-1.13567793369293,-4.87807989120483,-1104.30004882812,9.30000019073486,-880.500061035156,-2.90131065644272,-0.0471710726439034,0.29139097622796,ST
7.2,-1.54919028282166,-2.83699202537537,9.47458457946777,-0.907018005847931,0.411587983369827,-3.96343994140625,-1094.70007324219,9.30000019073486,-868.500061035156,-2.86431698877679,-0.153944216213195,0.293570058382986,ST
7.23333333333333,-0.90977543592453,-2.984135389328,9.44587421417236,-0.0685980021953583,-0.396344006061554,-2.14940404891968,-1101.90002441406,13.5000009536743,-875.700012207031,-2.84399944850599,-0.0898636584718719,0.30640787035235,ST
7.26666666666667,-0.384605944156647,-2.88364720344543,9.09237098693848,0.579271972179413,-1.07470202445984,-0.289635986089706,-1089.90002441406,5.70000028610229,-870.900024414062,-2.84421649187204,-0.038414864671529,0.306101852147656,ST
7.3,-0.0669920146465302,-2.82801985740662,8.32315921783447,0.815553963184357,-0.579271972179413,0.228659987449646,-1104.30004882812,6.90000009536743,-878.100036621094,-2.84758480102822,-0.006825790591531,0.326088338255389,ST
7.33333333333333,-0.370848655700684,-2.86331033706665,8.54686450958252,0.602137982845306,0.335367977619171,0.716467976570129,-1104.30004882812,2.70000004768372,-870.900024414062,-2.8530758921244,-0.0420316742498421,0.322173111403161,ST
7.36666666666667,-0.660947978496552,-2.94944310188293,8.71195220947266,0.46494197845459,0.518296003341675,1.54726600646973,-1109.10009765625,8.70000076293945,-878.100036621094,-2.86566028822161,-0.0734306230449617,0.3254586165849,ST
7.4,-0.756052732467651,-2.93149876594543,7.66580009460449,0.358233988285065,0.983237981796265,2.09605002403259,-1104.30004882812,8.70000076293945,-885.300048828125,-2.87787431267814,-0.0947439214997765,0.364318995764588,ST
7.43333333333333,-1.40623414516449,-2.66711950302124,8.57677173614502,-0.327746003866196,2.23324584960938,3.65855979919434,-1101.90002441406,14.1000003814697,-882.900024414062,-2.91342644908787,-0.160849233050535,0.301333651369404,ST
7.46666666666667,-1.29378318786621,-2.64319372177124,9.00982761383057,-0.0457319989800453,1.85976791381836,4.82472610473633,-1092.30004882812,14.1000003814697,-873.300048828125,-2.95817157552526,-0.142418401383147,0.284422546587656,ST
7.5,-1.35838270187378,-2.72573757171631,9.33461952209473,0.350611984729767,1.85214591026306,4.96192169189453,-1099.5,5.70000028610229,-875.700012207031,-3.00035835514935,-0.144305526814964,0.282416321540195,ST
7.53333333333333,-1.13587355613708,-2.40453481674194,9.14141941070557,1.29574000835419,1.2500079870224,4.87807989120483,-1082.70007324219,15.3000001907349,-880.500061035156,-3.04646989152019,-0.123864806255538,0.254015486079943,ST
7.56666666666667,-1.70530557632446,-2.51698565483093,10.4842500686646,1.18903195858002,0.724089980125427,5.03051996231079,-1087.5,8.70000076293945,-878.100036621094,-3.09744239178314,-0.160093706168121,0.232218873237387,ST
7.6,-1.40743041038513,-2.21492338180542,9.52542686462402,1.73019397258759,0.0381099991500378,4.26069784164429,-1089.90002441406,13.5000009536743,-875.700012207031,-3.13627430856796,-0.144671934943808,0.224401651363119,ST
7.63333333333333,-1.31770896911621,-2.13895916938782,9.05648231506348,1.40244793891907,0.442075997591019,3.71191382408142,-1089.90002441406,6.30000019073486,-878.100036621094,3.11344988794117,-0.142888994043544,0.228597013050538,ST
7.66666666666667,-1.83450448513031,-2.13297772407532,9.60378360748291,1.08232402801514,0.259148001670837,3.33843588829041,-1087.5,8.10000038146973,-880.500061035156,3.08058103784962,-0.186018414586419,0.21561857642001,ST
7.7,-1.01744115352631,-2.22808265686035,8.90515232086182,1.14329993724823,-0.564027965068817,2.9192259311676,-1087.5,13.5000009536743,-892.500061035156,3.05458235618461,-0.110692079140264,0.242581422375411,ST
7.73333333333333,-1.02282452583313,-2.2191104888916,9.08818435668945,1.04421401023865,-1.37958192825317,2.33995389938354,-1082.70007324219,3.90000009536743,-880.500061035156,3.02906100506777,-0.107521926895368,0.237180936295507,ST
7.76666666666667,-1.15022897720337,-2.00198459625244,9.44707012176514,1.33385002613068,-1.37958192825317,2.59148001670837,-1085.10009765625,9.90000057220459,-870.900024414062,2.99646557920123,-0.117116369620956,0.205931043512315,ST
7.8,-0.637022256851196,-2.01514363288879,8.73228931427002,1.37195992469788,-1.14329993724823,2.17989206314087,-1089.90002441406,1.5,-885.300048828125,2.9746532964,-0.0698935919082999,0.224100176110417,ST
7.83333333333333,-1.45049667358398,-1.97147917747498,10.0619611740112,0.739333987236023,-1.07470202445984,1.60061991214752,-1085.10009765625,8.10000038146973,-878.100036621094,2.95391360121667,-0.139180109683893,0.191780420942363,ST
7.86666666666667,-1.35000872612,-1.83211195468903,9.67855167388916,1.13567793369293,-1.35671591758728,0.754577994346619,-1089.90002441406,11.1000003814697,-880.500061035156,2.9440998074979,-0.134119619107721,0.184869745325889,ST
7.9,-1.27464270591736,-1.66523003578186,9.69470119476318,1.44055795669556,-0.541162014007568,0.358233988285065,-1094.70007324219,6.90000009536743,-887.700012207031,2.93932754151797,-0.1280427584533,0.167512034949086,ST
7.93333333333333,-1.37273812294006,-1.70171678066254,10.2210674285889,1.51677799224854,-1.17378795146942,-0.693601965904236,-1092.30004882812,5.10000038146973,-878.100036621094,2.94578963892838,-0.129496107201468,0.162445576253393,ST
7.96666666666667,-0.682481110095978,-1.19449150562286,9.09356784820557,1.6768399477005,-1.265251994133,-0.647870004177094,-1085.10009765625,10.5,-880.500061035156,2.94826468403259,-0.0720041530463563,0.127780056798797,ST
8.0,-0.977365612983704,-1.47083353996277,9.3477783203125,1.12043392658234,-0.221037998795509,-0.571649968624115,-1092.30004882812,-0.300000011920929,-882.900024414062,2.95719653223864,-0.102366095057248,0.15418809635075,ST
8.03333333333333,-1.89790761470795,-1.55457353591919,10.0816993713379,0.525918006896973,-0.0914639979600906,-0.564027965068817,-1082.70007324219,0.300000011920929,-875.700012207031,2.96359143459907,-0.183602224327835,0.152251498995047,ST
8.06666666666667,-1.46485209465027,-1.52526462078094,9.41536808013916,0.564027965068817,-1.12805593013763,-0.198172003030777,-1089.90002441406,2.10000014305115,-878.100036621094,2.96584709254885,-0.15042618722949,0.159613734174056,ST
8.1,-1.79801774024963,-1.36017715930939,9.20123291015625,0.556405961513519,-0.792688012123108,-0.221037998795509,-1094.70007324219,7.50000047683716,-878.100036621094,2.96548245673089,-0.1894864536131,0.145841193151257,ST
8.13333333333333,-1.63592100143433,-1.62096750736237,9.35256385803223,0.160062000155449,-1.77592599391937,-0.388722002506256,-1092.30004882812,5.70000028610229,-880.500061035156,2.97125759118518,-0.167509466173221,0.171347495663983,ST
8.16666666666667,-1.43554317951202,-1.5001425743103,9.38546180725098,0.0152439996600151,-2.16464805603027,-0.381099998950958,-1101.90002441406,3.90000009536743,-873.300048828125,2.9695804179594,-0.146082231836785,0.158486944521817,ST
8.2,-1.12630319595337,-1.67061328887939,8.68264293670654,-0.442075997591019,-2.12653803825378,-0.525918006896973,-1113.90002441406,4.5,-873.300048828125,2.97459112983992,-0.122907665380949,0.190846032935147,ST
8.23333333333333,-1.44511342048645,-1.9128612279892,9.10672664642334,-1.06708002090454,-1.64635193347931,-0.487807989120483,-1097.10009765625,3.30000019073486,-885.300048828125,2.97690626461452,-0.151048358859408,0.208918662257215,ST
8.26666666666667,-1.21423017978668,-2.02471399307251,9.86397552490234,-1.08994603157043,-1.85976791381836,-0.106707997620106,-1104.30004882812,11.1000003814697,-866.100036621094,2.97219718289185,-0.116817316322949,0.204302371051912,ST
8.3,-0.586778283119202,-2.22150301933289,9.81433010101318,-0.579271972179413,-2.56099200248718,-0.724089980125427,-1113.90002441406,7.50000047683716,-873.300048828125,2.97491198625618,-0.0536780025167267,0.2236050649411,ST
8.33333333333333,-0.891233026981354,-1.93020737171173,9.50628662109375,0.190549999475479,-1.55488801002502,-0.243903994560242,-1121.10009765625,10.5,-863.700012207031,2.97259120961347,-0.0888578534835296,0.199990603516757,ST
8.36666666666667,-0.622068703174591,-2.00019001960754,10.2336282730103,0.983237981796265,-1.28811800479889,0.403965979814529,-1116.30004882812,11.1000003814697,-885.300048828125,2.96627245077473,-0.0575488567004093,0.191247941970862,ST
8.4,-0.128002598881721,-1.67898726463318,9.57148361206055,1.85214591026306,-1.85976791381836,-0.320124000310898,-1111.5,9.30000019073486,-878.100036621094,2.96584014515449,-0.0099186306036079,0.17043398902133,ST
8.43333333333333,-0.0705808699131012,-1.38888800144196,9.05169773101807,2.01220798492432,-0.0762199983000755,-0.282013982534409,-1121.10009765625,8.70000076293945,-885.300048828125,2.96842317583609,-0.0075052897443871,0.148767553632661,ST
8.46666666666667,-0.330773055553436,-1.5121054649353,9.61813926696777,1.47866797447205,0.655492007732391,-0.3125019967556,-1123.5,2.70000004768372,-873.300048828125,2.97295466992556,-0.0349772451559034,0.153376586807324,ST
8.5,-0.409129798412323,-1.3218959569931,8.86507701873779,0.724089980125427,0.708845973014832,-1.20427596569061,-1111.5,8.70000076293945,-873.300048828125,2.98567795623548,-0.0465177771126468,0.146870516237189,ST
8.53333333333333,-0.675303399562836,-1.13647162914276,8.1843900680542,0.0381099991500378,1.2500079870224,-1.10518991947174,-1104.30004882812,7.50000047683716,-882.900024414062,2.99752021303174,-0.0834001318737468,0.138103467702607,ST
8.56666666666667,-0.364867210388184,-1.7405960559845,9.09296989440918,-0.609759986400604,0.731711983680725,-1.18903195858002,-1109.10009765625,10.5,-880.500061035156,3.01470919010984,-0.0402691263527922,0.190270294533434,ST
8.6,-0.32538977265358,-1.94874978065491,8.70955944061279,-1.35671591758728,-0.152439996600151,-1.89787793159485,-1111.5,0.300000011920929,-880.500061035156,3.033265699627,-0.0354580296903629,0.222567566786416,ST
8.63333333333333,-0.406139075756073,-2.1951847076416,9.33880615234375,-1.65397393703461,0.144817993044853,-1.45580196380615,-1109.10009765625,4.5,-875.700012207031,3.04722859883625,-0.041960556743646,0.233849614546373,ST
8.66666666666667,-0.162096738815308,-2.57620167732239,9.58344650268555,-1.57013201713562,0.0685980021953583,-1.39482593536377,-1097.10009765625,6.30000019073486,-870.900024414062,3.06159300064316,-0.0158329349155386,0.26536114927682,ST
8.7,-0.724351167678833,-2.575603723526,10.1439065933228,-1.20427596569061,0.152439996600151,-0.693601965904236,-1118.70007324219,8.10000038146973,-868.500061035156,3.0675822186146,-0.0690233708628729,0.250848819025422,ST
8.73333333333333,-0.634629666805267,-2.55646300315857,9.92618274688721,-0.594515979290009,-0.655492007732391,0.0457319989800453,-1113.90002441406,9.90000057220459,-868.500061035156,3.06533091361013,-0.0607570801780497,0.253082497475945,ST
8.76666666666667,-0.225499898195267,-2.56663155555725,9.64266300201416,-0.541162014007568,-0.922261953353882,0.685979962348938,-1113.90002441406,15.9000005722046,-880.500061035156,3.05670139846075,-0.0213922851468423,0.261044488220391,ST
8.8,-0.0783567279577255,-2.47272300720215,9.33820819854736,-0.365855991840363,-0.846041977405548,1.73781597614288,-1111.5,10.5,-885.300048828125,3.03807137193567,-0.0074776480881277,0.259470318776506,ST
8.83333333333333,-0.0855344459414482,-2.60551071166992,9.53798770904541,-0.365855991840363,-0.693601965904236,2.20275783538818,-1111.5,8.70000076293945,-873.300048828125,3.01550857708262,-0.0084968918115475,0.26726128185011,ST
8.86666666666667,-0.337352633476257,-2.51937818527222,9.68273830413818,-0.320124000310898,-0.342989981174469,2.30184388160706,-1111.5,9.90000057220459,-863.700012207031,2.99251278970395,-0.0341112805360917,0.254983591797757,ST
8.9,-0.183031752705574,-2.49126553535461,9.49910831451416,-0.0381099991500378,-0.556405961513519,2.40855193138123,-1116.30004882812,5.10000038146973,-873.300048828125,2.96835474041745,-0.018779658349251,0.256469646735316,ST
8.93333333333333,-0.428270369768143,-2.51279854774475,8.96915340423584,0.137196004390717,0.0304879993200302,1.89025592803955,-1104.30004882812,9.90000057220459,-892.500061035156,2.95012826173903,-0.0468676578689675,0.272758841505809,ST
8.96666666666667,-0.692051410675049,-2.73530769348145,9.45664024353027,-0.0685980021953583,0.525918006896973,1.74543797969818,-1104.30004882812,15.3000001907349,-880.500061035156,2.93563011303207,-0.0718844344257582,0.281481090373531,ST
9.0,-0.208751901984215,-2.77059817314148,9.87474250793457,-0.358233988285065,-1.44055795669556,0.289635986089706,-1111.5,16.5,-878.100036621094,2.92803818001992,-0.0180950208966977,0.274148695239017,ST
9.03333333333333,-0.433653652667999,-2.75923347473145,8.98829460144043,-0.221037998795509,-0.952749967575073,-0.25152599811554,-1104.30004882812,9.90000057220459,-882.900024414062,2.92835656090726,-0.0443420256898105,0.298204946479985,ST
9.06666666666667,-0.947458446025848,-2.92252659797668,9.85919094085693,-0.129574000835419,0.152439996600151,-0.419209986925125,-1113.90002441406,4.5,-887.700012207031,2.93193314391271,-0.0918711644744769,0.288483572237952,ST
9.1,-0.542515695095062,-2.89441394805908,8.97692966461182,0.503051996231079,0.289635986089706,-0.861285984516144,-1111.5,8.10000038146973,-887.700012207031,2.94281291024357,-0.0575147175915162,0.311092708513707,ST
9.13333333333333,-1.01504862308502,-2.68267130851746,9.95967864990234,0.83841997385025,0.114329993724823,-0.708845973014832,-1099.5,10.5,-885.300048828125,2.94669102439792,-0.0979201738945459,0.261822314618632,ST
9.16666666666667,-0.400157660245895,-2.52416324615479,8.98051834106445,1.45580196380615,-0.716467976570129,-0.602137982845306,-1106.70007324219,7.50000047683716,-882.900024414062,2.95190381376922,-0.0414461516425972,0.271478450630383,ST
9.2,-0.154919028282166,-2.41589951515198,8.6503438949585,0.914639949798584,-0.0228659994900227,-0.762199997901917,-1109.10009765625,6.90000009536743,-878.100036621094,2.95920201921942,-0.0168801309757915,0.27077042432389,ST
9.23333333333333,-0.40853163599968,-2.36625361442566,8.99128532409668,0.564027965068817,0.518296003341675,-0.693601965904236,-1113.90002441406,12.3000001907349,-880.500061035156,2.96683906029333,-0.0444493336752867,0.256430248342203,ST
9.26666666666667,-0.522178828716278,-2.86929178237915,8.89318943023682,0.0762199983000755,1.13567793369293,-0.807931959629059,-1104.30004882812,6.30000019073486,-873.300048828125,2.98122034168033,-0.0572678424695702,0.312036975631203,ST
9.3,-0.907382905483246,-2.82263660430908,8.89917087554932,-0.160062000155449,1.27287399768829,-0.792688012123108,-1101.90002441406,14.1000003814697,-880.500061035156,2.99252926411176,-0.0985576609806694,0.307621167736049,ST
9.33333333333333,-0.877475738525391,-3.04873466491699,9.1749153137207,-0.160062000155449,0.823175966739655,0.129574000835419,-1113.90002441406,15.3000001907349,-875.700012207031,2.99498071077873,-0.091953100151262,0.321097926448756,ST
9.36666666666667,-0.937888205051422,-3.15520405769348,8.87404918670654,0.182927995920181,0.274392008781433,0.724089980125427,-1109.10009765625,13.5000009536743,-880.500061035156,2.9913096561499,-0.100119404645095,0.341169201172095,ST
9.4,-1.19748222827911,-2.67250275611877,9.95848274230957,1.80641400814056,-0.266770005226135,3.08691000938416,-1101.90002441406,10.5,-875.700012207031,2.92630542138484,-0.116546983674053,0.258409658157776,ST
9.43333333333333,-0.424681514501572,-2.57739806175232,9.15996170043945,2.17227005958557,-0.663114011287689,3.84148788452148,-1106.70007324219,7.50000047683716,-873.300048828125,2.89055854128067,-0.0453523975114543,0.270168769499264,ST
9.46666666666667,-0.437840640544891,-2.55945372581482,8.64555835723877,1.57013201713562,0.449698001146317,3.38416790962219,-1104.30004882812,8.70000076293945,-873.300048828125,2.86146339539357,-0.0509280176136291,0.284787954593181,ST
9.5,-1.14664006233215,-2.32498168945312,9.50389385223389,1.27287399768829,0.815553963184357,3.15550804138184,-1101.90002441406,1.5,-875.700012207031,2.82846405786534,-0.119305463462297,0.237125602567426,ST
9.53333333333333,-1.01624488830566,-2.13836121559143,9.70307540893555,1.89025592803955,-0.167683988809586,3.62045001983643,-1099.5,9.90000057220459,-873.300048828125,2.79296790380661,-0.102994848604832,0.21299429867928,ST
9.56666666666667,-0.412120521068573,-2.05103230476379,8.86447906494141,1.91312193870544,-0.6250039935112,3.47563195228577,-1106.70007324219,11.1000003814697,-875.700012207031,2.75725543120754,-0.0455748483597792,0.223748056807228,ST
9.6,-0.534739792346954,-1.89790761470795,8.97633171081543,1.70732796192169,-0.381099998950958,3.30032587051392,-1097.10009765625,14.1000003814697,-878.100036621094,2.72203088976086,-0.0587333383084503,0.205055795075596,ST
9.63333333333333,-0.698032855987549,-1.758540391922,9.0911750793457,1.75305998325348,-0.182927995920181,3.62807202339172,-1104.30004882812,13.5000009536743,-880.500061035156,2.684920270669,-0.0760979206912813,0.187547266883442,ST
9.66666666666667,-0.91874760389328,-1.65984678268433,9.83406829833984,1.69970595836639,-0.868907988071442,3.7881338596344,-1087.5,13.5000009536743,-878.100036621094,2.64654523729597,-0.0914281161400852,0.163648714619108,ST
9.7,-0.542515695095062,-1.50732028484344,10.0703353881836,1.55488801002502,-1.70732796192169,3.32319188117981,-1104.30004882812,3.90000009536743,-873.300048828125,2.61154073442137,-0.0511670358764747,0.145563697375248,ST
9.73333333333333,-0.001794428913854,-1.1376678943634,9.60318565368652,1.43293595314026,-1.76068198680878,2.5152599811554,-1106.70007324219,14.1000003814697,-873.300048828125,2.5819693082941,0.0023336769694261,0.115442185356941,ST
9.76666666666667,-0.168078169226646,-1.03418922424316,9.41656494140625,1.2576299905777,-0.495429992675781,1.2576299905777,-1101.90002441406,6.90000009536743,-873.300048828125,2.56816771683883,-0.0171059422407095,0.107158609122117,ST
9.8,-1.26507234573364,-1.03060030937195,9.6761589050293,1.03659200668335,0.586893975734711,0.579271972179413,-1104.30004882812,11.1000003814697,-878.100036621094,2.56404941509743,-0.130279582750983,0.104186557685598,ST
9.83333333333333,-1.34821426868439,-1.17236018180847,10.14271068573,0.762199997901917,-0.0076219998300075,0.25152599811554,-1106.70007324219,3.30000019073486,-858.900024414062,2.56382854554978,-0.131321327883831,0.113677220032376,ST
9.86666666666667,-0.990524768829346,-0.578404247760773,9.02657604217529,0.777444005012512,-1.02897000312805,-0.0685980021953583,-1104.30004882812,8.70000076293945,-873.300048828125,2.55855464723515,-0.107301984781612,0.0626903017732411,ST
9.9,-1.2297819852829,-0.732127010822296,9.13244724273682,0.480185985565186,0.0228659994900227,-0.121951997280121,-1101.90002441406,8.10000038146973,-868.500061035156,2.5623353114994,-0.133426665844179,0.0791690418857243,ST
9.93333333333333,-1.3338588476181,-1.06050753593445,10.1002426147461,-0.0990860015153885,-0.0990860015153885,-1.10518991947174,-1092.30004882812,1.5,-887.700012207031,2.57681723766513,-0.130220751877022,0.105019641109394,ST
9.96666666666667,-0.938486337661743,-1.12091994285583,9.68931770324707,-0.0304879993200302,-0.99848198890686,-1.31098401546478,-1104.30004882812,6.30000019073486,-866.100036621094,2.59023461157284,-0.0939503341574636,0.115416224383974,ST
10.0,-0.936093747615814,-1.52526462078094,9.37290000915527,0.0228659994900227,-0.0381099991500378,-2.44666194915771,-1101.90002441406,6.30000019073486,-870.900024414062,2.62031804593959,-0.0975041398873296,0.161664826019823,ST
10.0333333333333,-1.20884692668915,-1.55218100547791,10.68044090271,0.137196004390717,-0.472563982009888,-2.58385801315308,-1099.5,4.5,-882.900024414062,2.64289090920259,-0.110061114089133,0.144577878082122,ST
10.0666666666667,-0.577207982540131,-1.40503787994385,9.88251781463623,0.731711983680725,-1.98171997070312,-2.5152599811554,-1109.10009765625,2.10000014305115,-880.500061035156,2.66459297034411,-0.0537851130732942,0.140164833340096,ST
10.1,-1.32249414920807,-1.15082705020905,9.46920108795166,0.815553963184357,-0.137196004390717,-1.42531394958496,-1101.90002441406,5.10000038146973,-875.700012207031,2.67854293149511,-0.137186533844139,0.119863579002536,ST
10.1333333333333,-0.300267785787582,-1.69453907012939,9.62591457366943,-0.106707997620106,-0.152439996600151,-1.04421401023865,-1118.70007324219,0.900000035762787,-882.900024414062,2.6931881550919,-0.0302259876069004,0.174447846158205,ST
10.1666666666667,-1.40862667560577,-1.43494498729706,9.08220291137695,-0.640248000621796,0.830797970294952,-1.2423859834671,-1111.5,0.900000035762787,-868.500061035156,2.70407074461963,-0.152969382570576,0.158198870144156,ST
10.2,-1.45109486579895,-1.70530557632446,9.89089202880859,-0.830797970294952,0.967993974685669,-0.0990860015153885,-1094.70007324219,9.30000019073486,-878.100036621094,2.70749747927401,-0.145225827816402,0.17223461996022,ST
10.2333333333333,-0.994711756706238,-1.73880159854889,9.19644832611084,-0.3125019967556,0.0533539988100529,-0.381099998950958,-1113.90002441406,3.90000009536743,-873.300048828125,2.71279992014001,-0.105893313222804,0.187467429414198,ST
10.2666666666667,-0.288304924964905,-1.94456279277802,9.83287239074707,-0.243903994560242,-1.03659200668335,-0.213415995240211,-1089.90002441406,5.70000028610229,-887.700012207031,2.71333749024748,-0.0269485480585782,0.195664167895197,ST
10.3,-1.06110560894012,-1.48279643058777,9.16355037689209,0.342989981174469,-0.663114011287689,-0.823175966739655,-1092.30004882812,10.5,-885.300048828125,2.71867505091395,-0.112400466442916,0.159982542135308,ST
10.3333333333333,-0.781174719333649,-1.32488667964935,9.35017108917236,0.67835795879364,0.800309956073761,1.11281192302704,-1101.90002441406,6.90000009536743,-875.700012207031,2.70762275440591,-0.0842170789902587,0.13945195677514,ST
10.3666666666667,-0.73451954126358,-1.5180869102478,9.31248760223389,0.731711983680725,1.28049600124359,1.35671591758728,-1104.30004882812,5.10000038146973,-868.500061035156,2.69876941143341,-0.0802784050441771,0.160135710727948,ST
10.4,-0.822446584701538,-1.3338588476181,9.4674072265625,0.144817993044853,1.2347639799118,0.0533539988100529,-1106.70007324219,7.50000047683716,-885.300048828125,2.69838572212409,-0.0879490957586817,0.139756463546608,ST
10.4333333333333,-0.890634894371033,-1.44630968570709,8.74903678894043,-0.221037998795509,0.891773998737335,-1.16616594791412,-1104.30004882812,12.9000005722046,-868.500061035156,2.7142335461007,-0.101295014900758,0.16443206399163,ST
10.4666666666667,-1.13527536392212,-1.66104304790497,9.10493278503418,-0.548784017562866,1.21189796924591,-1.50915598869324,-1092.30004882812,5.10000038146973,-878.100036621094,2.73206733033583,-0.123633604578014,0.181756038504387,ST
10.5,-1.22200608253479,-1.82732677459717,9.25745868682861,-0.243903994560242,0.67835795879364,-1.57013201713562,-1085.10009765625,8.70000076293945,-878.100036621094,2.74974535096273,-0.129409184690687,0.195674126748097,ST
10.5333333333333,-1.43315052986145,-2.14972591400146,9.52961349487305,0.0685980021953583,0.3125019967556,-1.99696397781372,-1094.70007324219,6.90000009536743,-882.900024414062,2.77541447559134,-0.145421373743578,0.222255020781794,ST
10.5666666666667,-1.05632042884827,-1.97327363491058,9.6163444519043,0.442075997591019,-0.495429992675781,-1.39482593536377,-1092.30004882812,17.7000007629395,-885.300048828125,2.78564534404019,-0.105899916592035,0.201877077146179,ST
10.6,-0.964804589748383,-1.55218100547791,9.2879638671875,1.44817996025085,-1.01372599601746,-0.297257989645004,-1085.10009765625,9.90000057220459,-873.300048828125,2.78427451233954,-0.100276174642568,0.163124709466122,ST
10.6333333333333,-0.874485015869141,-1.44930040836334,9.07382869720459,1.54726600646973,-0.853663980960846,0.952749967575073,-1097.10009765625,8.10000038146973,-870.900024414062,2.77449982976331,-0.0936757427688585,0.15551674679412,ST
10.6666666666667,-1.0216281414032,-1.40443968772888,9.14620399475098,0.716467976570129,-0.564027965068817,1.30336201190948,-1097.10009765625,3.30000019073486,-873.300048828125,2.7606348591652,-0.109318734671382,0.150853852246351,ST
10.7,-0.77579140663147,-1.75076448917389,9.15457820892334,-0.388722002506256,-1.17378795146942,0.914639949798584,-1094.70007324219,1.5,-868.500061035156,2.7524478374339,-0.0813503921271165,0.189456474925658,ST
10.7333333333333,-0.587974548339844,-2.03069543838501,9.1569709777832,-1.09756803512573,-1.70732796192169,0.556405961513519,-1094.70007324219,9.30000019073486,-880.500061035156,2.7450557163922,-0.0599330165214899,0.220019125044846,ST
10.7666666666667,-0.724351167678833,-2.11742615699768,9.44826602935791,-1.41769194602966,-2.10367202758789,0.724089980125427,-1109.10009765625,5.70000028610229,-858.900024414062,2.73284538290537,-0.0713561343332299,0.222790555580212,ST
10.8,-0.495262384414673,-2.65096974372864,9.22994422912598,-1.43293595314026,-0.830797970294952,1.04421401023865,-1101.90002441406,8.70000076293945,-878.100036621094,2.72213573142351,-0.0506498061280543,0.282054305999237,ST
10.8333333333333,-0.890036761760712,-2.89561009407043,9.93814563751221,-1.40244793891907,-0.121951997280121,0.3125019967556,-1104.30004882812,6.30000019073486,-878.100036621094,2.71804431730072,-0.0856824714357191,0.285908057671969,ST
10.8666666666667,-0.673509001731873,-3.16238188743591,10.6941986083984,-0.960371971130371,-0.952749967575073,-0.388722002506256,-1104.30004882812,12.9000005722046,-875.700012207031,2.71869029589887,-0.0585564614563568,0.28920030260619,ST
10.9,-0.278136491775513,-3.37831139564514,9.03674411773682,-0.769822001457214,-0.670735955238342,-1.28049600124359,-1111.5,12.3000001907349,-863.700012207031,2.73099892724904,-0.0269765255151469,0.359066879618338,ST
10.9333333333333,-0.787156164646149,-3.34062838554382,8.76817798614502,-1.06708002090454,0.823175966739655,-2.12653803825378,-1113.90002441406,5.10000038146973,-878.100036621094,2.75288890623204,-0.0836457049147235,0.366201986423117,ST
10.9666666666667,-1.19688403606415,-3.32208609580994,9.24848651885986,-0.160062000155449,0.480185985565186,-1.47104597091675,-1094.70007324219,11.7000007629395,-866.100036621094,2.76563541894144,-0.121075243985369,0.3454799862272,ST
11.0,-0.916953146457672,-3.42377042770386,8.81483268737793,-0.0762199983000755,-0.0914639979600906,-0.983237981796265,-1113.90002441406,8.70000076293945,-887.700012207031,2.7769206720314,-0.0959218990086867,0.370729160768039,ST
11.0333333333333,-0.620872378349304,-3.05710864067078,9.4907341003418,0.259148001670837,-1.79879200458527,-0.228659987449646,-1106.70007324219,9.30000019073486,-878.100036621094,2.76903643377256,-0.059118028437615,0.311199144317546,ST
11.0666666666667,-0.0514402948319912,-3.10615634918213,8.42065715789795,0.617381989955902,-1.47104597091675,0.152439996600151,-1099.5,6.90000009536743,-885.300048828125,2.76413197108541,-0.0034746151806074,0.352261337354324,ST
11.1,-0.569432079792023,-3.03557562828064,8.25437259674072,0.0381099991500378,0.731711983680725,0.556405961513519,-1121.10009765625,11.1000003814697,-878.100036621094,2.76151208227318,-0.0661202877943729,0.352305294276944,ST
11.1333333333333,-1.01863753795624,-3.1707558631897,9.31607723236084,-0.0990860015153885,1.50915598869324,1.85976791381836,-1118.70007324219,9.90000057220459,-870.900024414062,2.74698789697065,-0.106638395616541,0.328017484100842,ST
11.1666666666667,0.0640012994408607,-3.06727719306946,9.1569709777832,0.518296003341675,-0.434453994035721,1.98934197425842,-1106.70007324219,8.10000038146973,-873.300048828125,2.72694762175548,0.0061216394451582,0.322339839309615,ST
11.2,-0.572422802448273,-2.75743913650513,9.51884746551514,1.265251994133,-0.182927995920181,2.66007804870605,-1111.5,6.30000019073486,-868.500061035156,2.69869454376763,-0.0586389712475707,0.279511420357645,ST
11.2333333333333,-0.061608724296093,-2.8022997379303,9.43510723114014,1.65397393703461,0.541162014007568,2.95733594894409,-1099.5,14.1000003814697,-880.500061035156,2.67288639646455,-0.0086755283593531,0.285772840735558,ST
11.2666666666667,-1.01205790042877,-2.47870445251465,10.2318334579468,2.33233189582825,1.63110792636871,2.64483404159546,-1101.90002441406,9.90000057220459,-878.100036621094,2.65071474059021,-0.0995764733831036,0.233284295032002,ST
11.3,-0.971384167671204,-2.49664878845215,9.55832481384277,2.90398192405701,1.73781597614288,2.76678586006165,-1099.5,12.9000005722046,-870.900024414062,2.63328851798589,-0.102144645986031,0.250005719893051,ST
11.3333333333333,-0.886447906494141,-2.41051626205444,9.01580905914307,2.80489587783813,1.61586391925812,2.37806391716003,-1089.90002441406,-0.900000035762787,-887.700012207031,2.61815750855595,-0.0984855256967971,0.256028106829024,ST
11.3666666666667,-1.99181604385376,-1.50193703174591,9.25267314910889,3.39941191673279,1.72257196903229,2.75154185295105,-1092.30004882812,6.90000009536743,-880.500061035156,2.58546736985286,-0.212964020602428,0.154185062574248,ST
11.4,-1.44391715526581,-1.70889449119568,9.1450080871582,3.52898597717285,0.556405961513519,3.14026403427124,-1087.5,11.7000007629395,-892.500061035156,2.56655520212809,-0.155966845758881,0.17772961514377,ST
11.4333333333333,-1.72982943058014,-1.39726197719574,9.95489311218262,2.9116039276123,-0.426831990480423,2.55336999893188,-1089.90002441406,6.30000019073486,-882.900024414062,2.53916603824292,-0.170254796916619,0.133639188530584,ST
11.4666666666667,-1.22080981731415,-1.02820777893066,9.58942794799805,2.17227005958557,-1.6920839548111,2.01982998847961,-1082.70007324219,8.70000076293945,-887.700012207031,2.51615182647161,-0.123389567117691,0.102582637340745,ST
11.5,-0.688462555408478,-0.878672003746033,9.14261531829834,1.52439999580383,-1.36433792114258,1.87501192092896,-1089.90002441406,12.3000001907349,-882.900024414062,2.49694805868015,-0.0728063008071102,0.0929075106709436,ST
11.5333333333333,-0.552085936069489,-0.92771977186203,8.78253364562988,0.78506600856781,-0.556405961513519,1.59299790859222,-1089.90002441406,0.900000035762787,-880.500061035156,2.48117853704116,-0.0617617746166713,0.103687276682415,ST
11.5666666666667,-0.334960073232651,-1.07486295700073,9.65641975402832,-0.0914639979600906,-1.11281192302704,1.13567793369293,-1099.5,6.30000019073486,-868.500061035156,2.46924947934654,-0.0327822744451358,0.110933840319727,ST
11.6,-0.128600731492043,-1.25310957431793,8.3757963180542,-0.350611984729767,-0.663114011287689,0.114329993724823,-1101.90002441406,5.10000038146973,-880.500061035156,2.46779875140814,-0.0140760408447524,0.149101201007517,ST
11.6333333333333,-1.98942351341248,-1.38888800144196,9.64804649353027,-0.586893975734711,1.34909391403198,0.365855991840363,-1094.70007324219,3.90000009536743,-858.900024414062,2.46453744742112,-0.203589618524509,0.14394186818798,ST
11.6666666666667,-2.51818180084229,-1.54560148715973,10.1014385223389,0.579271972179413,1.37958192825317,1.54726600646973,-1101.90002441406,1.5,-870.900024414062,2.45363564798789,-0.244372292769051,0.150241759777666,ST
11.7,-2.07555603981018,-1.79562520980835,9.20601844787598,0.78506600856781,0.746955990791321,1.00610399246216,-1085.10009765625,0.900000035762787,-894.900024414062,2.45654367956392,-0.2194179632899,0.190886729907217,ST
11.7333333333333,-2.78914070129395,-1.73222208023071,10.154673576355,0.282013982534409,0.518296003341675,0.419209986925125,-1087.5,4.5,-890.100036621094,2.44875889545255,-0.265378862110101,0.168335983798295,ST
11.7666666666667,-2.03548049926758,-1.49894630908966,9.90345287322998,0.259148001670837,-1.20427596569061,-0.167683988809586,-1092.30004882812,6.90000009536743,-880.500061035156,2.44485032652419,-0.198439874030238,0.149778681486111,ST
11.8,-2.18681073188782,-1.38589727878571,9.93754768371582,0.617381989955902,-1.2500079870224,0.335367977619171,-1097.10009765625,11.7000007629395,-873.300048828125,2.43872143638119,-0.212494088837836,0.137313229734059,ST
11.8333333333333,-1.87816894054413,-1.28600740432739,10.1283550262451,0.746955990791321,-1.21189796924591,0.228659987449646,-1099.5,5.70000028610229,-878.100036621094,2.43398819877976,-0.179913066709938,0.124884602539752,ST
11.8666666666667,-1.01983380317688,-0.893625617027283,8.90515232086182,0.99848198890686,-1.54726600646973,0.0228659994900227,-1092.30004882812,2.70000004768372,-885.300048828125,2.42956426228325,-0.110853211283583,0.0982664727995967,ST
11.9,-0.523973226547241,-0.879270195960999,8.40749740600586,0.564027965068817,-1.48628997802734,-0.396344006061554,-1085.10009765625,11.1000003814697,-882.900024414062,2.43273168198158,-0.0593104421014086,0.103238039390244,ST
11.9333333333333,-1.06768524646759,-0.765024840831757,8.31239318847656,0.426831990480423,-1.21951997280121,-0.411587983369827,-1099.5,6.90000009536743,-880.500061035156,2.43496875019567,-0.12495603667979,0.0911093302508593,ST
11.9666666666667,-1.38051402568817,-0.794333875179291,8.60428619384766,0.129574000835419,-0.670735955238342,0.434453994035721,-1111.5,0.900000035762787,-875.700012207031,2.43032170834832,-0.157302656587724,0.0916941498334743,ST
12.0,-1.9248241186142,-1.11733102798462,9.56131553649902,-0.282013982534409,-0.724089980125427,0.533540010452271,-1101.90002441406,-2.10000014305115,-892.500061035156,2.4281070641252,-0.196170136309799,0.116589975331468,ST
12.0333333333333,-1.48100197315216,-1.20465993881226,9.68513107299805,-0.746955990791321,-0.807931959629059,0.327746003866196,-1101.90002441406,-3.90000009536743,-875.700012207031,2.42428525870679,-0.149320805285951,0.124929469840705,ST
12.0666666666667,-0.689060688018799,-1.59165847301483,10.6038789749146,-1.22714197635651,-1.64635193347931,-0.411587983369827,-1097.10009765625,4.5,-870.900024414062,2.42776976728115,-0.0613007026797191,0.151126325761355,ST
12.1,-0.521580696105957,-1.36735486984253,10.003342628479,-0.983237981796265,-1.20427596569061,-0.655492007732391,-1097.10009765625,4.5,-870.900024414062,2.43123030070135,-0.0493886192598706,0.137620942976122,ST
12.1333333333333,0.142956167459488,-1.36436414718628,9.60737228393555,-0.907018005847931,0.685979962348938,-0.190549999475479,-1111.5,7.50000047683716,-870.900024414062,2.43413690381869,0.0135234621731498,0.142640002119434,ST
12.1666666666667,-0.316417634487152,-1.50911474227905,9.33940410614014,-0.746955990791321,2.40092992782593,-0.83841997385025,-1097.10009765625,14.7000007629395,-878.100036621094,2.44595955633442,-0.0372780992997689,0.161561749557289,ST
12.2,-0.450999796390533,-1.54739582538605,9.31488037109375,-0.457319974899292,2.69056582450867,-1.00610399246216,-1099.5,0.300000011920929,-885.300048828125,2.46077431282289,-0.0520589414568624,0.165543213000166,ST
12.2333333333333,-0.584983825683594,-1.8506543636322,9.33701133728027,-0.449698001146317,2.27135586738586,-1.72257196903229,-1089.90002441406,5.10000038146973,-870.900024414062,2.483056539506,-0.0646666907499444,0.196660971091994,ST
12.2666666666667,-1.38888800144196,-1.76811063289642,9.35914325714111,-0.510673999786377,1.95885396003723,-1.63110792636871,-1085.10009765625,6.30000019073486,-880.500061035156,2.50061657439323,-0.147533268276088,0.188126190857891,ST
12.3,-1.63711726665497,-2.0612006187439,10.0721292495728,-0.724089980125427,1.92074394226074,-0.708845973014832,-1082.70007324219,6.90000009536743,-887.700012207031,2.51311196322704,-0.160940044075106,0.203418666799648,ST
12.3333333333333,-1.47382426261902,-2.09409856796265,9.16594314575195,-0.442075997591019,1.31860601902008,-1.59299790859222,-1082.70007324219,9.30000019073486,-897.300048828125,2.53381709484986,-0.157114322475591,0.225867458352163,ST
12.3666666666667,-2.2292788028717,-1.98882532119751,9.59062480926514,-0.0914639979600906,1.96647596359253,-1.46342396736145,-1085.10009765625,4.5,-875.700012207031,2.54888676007433,-0.226592469347774,0.205380202056959,ST
12.4,-1.75136256217957,-2.25559711456299,9.09835243225098,-0.0609759986400604,0.731711983680725,-2.23324584960938,-1077.90002441406,2.70000004768372,-880.500061035156,2.57914245192846,-0.185052226746382,0.243844255992679,ST
12.4333333333333,-1.95652568340302,-2.03308796882629,8.68144702911377,0.0762199983000755,-0.25152599811554,-2.58385801315308,-1082.70007324219,14.7000007629395,-873.300048828125,2.60023818003682,-0.214515624949922,0.230857068880885,ST
12.4666666666667,-1.80579364299774,-2.15809988975525,8.15687561035156,0.0914639979600906,-0.823175966739655,-2.33233189582825,-1070.70007324219,13.5000009536743,-882.900024414062,2.62601134360549,-0.208413706522204,0.2592114804862,ST
12.5,-1.90987050533295,-2.17843675613403,8.3159818649292,0.0304879993200302,-2.13416004180908,-1.74543797969818,-1082.70007324219,10.5,-878.100036621094,2.6378223294664,-0.21423739352439,0.256584585512152,ST
12.5333333333333,-1.55995690822601,-2.42546963691711,7.9397497177124,-0.564027965068817,-2.62196803092957,-1.64635193347931,-1068.30004882812,6.30000019073486,-875.700012207031,2.65281164717948,-0.180556832650904,0.297677911080065,ST
12.5666666666667,-1.04076874256134,-3.14204502105713,9.47219181060791,-1.79879200458527,-3.30794787406921,-1.79117000102997,-1089.90002441406,14.1000003814697,-885.300048828125,2.66087171656354,-0.0975376861553697,0.323515639550299,ST
12.6,-0.70760315656662,-3.16058754920959,9.56191349029541,-1.52439999580383,-3.39178991317749,-1.85214591026306,-1092.30004882812,5.70000028610229,-887.700012207031,2.66637553354582,-0.0635473617330841,0.321973480924032,ST
12.6333333333333,-0.744089841842651,-3.58945608139038,10.2503757476807,-1.12043392658234,-1.47104597091675,-1.44055795669556,-1101.90002441406,8.70000076293945,-887.700012207031,2.67530274133763,-0.0651466649016027,0.338869611625496,ST
12.6666666666667,-0.364269077777863,-3.72104740142822,10.8754358291626,-0.731711983680725,-1.46342396736145,-1.69970595836639,-1087.5,8.70000076293945,-880.500061035156,2.68671872667006,-0.0283193988801437,0.331003247734573,ST
12.7,-0.249425619840622,-3.26765513420105,9.70427131652832,0.114329993724823,-1.49391198158264,-1.57013201713562,-1092.30004882812,14.1000003814697,-890.100036621094,2.69646692366314,-0.0210166667824008,0.324643117533827,ST
12.7333333333333,-0.297277063131332,-3.25449585914612,8.61864185333252,0.342989981174469,0.647870004177094,-0.655492007732391,-1099.5,11.1000003814697,-863.700012207031,2.70575291416686,-0.0328990384848898,0.360467869227333,ST
12.7666666666667,-0.705808699131012,-3.10735273361206,8.60488510131836,0.609759986400604,1.31098401546478,-0.289635986089706,-1097.10009765625,15.9000005722046,-878.100036621094,2.7123713237849,-0.078926114804567,0.345593170781978,ST
12.8,-1.40503787994385,-2.98892045021057,8.26334476470947,1.31860601902008,1.2576299905777,0.556405961513519,-1092.30004882812,17.1000003814697,-870.900024414062,2.71332009583494,-0.160914808743342,0.344739001391009,ST
12.8333333333333,-1.64908015727997,-2.85972166061401,8.89677810668945,1.31860601902008,0.571649968624115,1.07470202445984,-1094.70007324219,9.30000019073486,-885.300048828125,2.70095735049863,-0.17617755115891,0.308461782058652,ST
12.8666666666667,-1.34163463115692,-3.08103442192078,9.5266227722168,1.20427596569061,-2.62196803092957,1.28049600124359,-1099.5,8.70000076293945,-870.900024414062,2.66297436503292,-0.129527683482611,0.310233152888984,ST
12.9,0.152526453137398,-2.52296710014343,10.0194931030273,0.815553963184357,-4.57319974899292,1.44055795669556,-1099.5,6.90000009536743,-880.500061035156,2.63223581013512,0.0218150026506847,0.245379729650323,ST
12.9333333333333,1.50373148918152,-2.37223505973816,8.56122016906738,1.07470202445984,-2.32470989227295,2.21800184249878,-1109.10009765625,11.7000007629395,-885.300048828125,2.59921515416228,0.17048351863353,0.269246100402825,ST
12.9666666666667,1.05691862106323,-2.60670709609985,8.95719146728516,0.114329993724823,1.43293595314026,1.70732796192169,-1092.30004882812,8.70000076293945,-870.900024414062,2.58393038675141,0.109612382332687,0.28322844090482,ST
13.0,-0.150133892893791,-2.5696222782135,9.1922607421875,0.495429992675781,3.16313004493713,2.41617393493652,-1101.90002441406,14.1000003814697,-885.300048828125,2.56914134941887,-0.0220913896530916,0.271671944070109,ST
13.0333333333333,-1.02222633361816,-2.81486082077026,9.85021877288818,0.937505960464478,3.05642199516296,2.98020195960999,-1089.90002441406,5.10000038146973,-882.900024414062,2.55040272869766,-0.105912095773683,0.276332690100985,ST
13.0666666666667,-1.03179657459259,-2.7442798614502,10.0248765945435,1.18903195858002,2.43141794204712,3.01068997383118,-1099.5,8.10000038146973,-870.900024414062,2.52772609954948,-0.104419399518929,0.264721553221886,ST
13.1,-2.10187435150146,-2.76581311225891,10.3394994735718,1.44055795669556,2.74391984939575,4.1311240196228,-1092.30004882812,7.50000047683716,-880.500061035156,2.49752093266766,-0.200277386848852,0.257714591314578,ST
13.1333333333333,-1.62216377258301,-2.44520854949951,9.45305156707764,1.41769194602966,2.67532205581665,3.47563195228577,-1070.70007324219,18.3000011444092,-878.100036621094,2.47245285971196,-0.170688239995171,0.249842936777515,ST
13.1666666666667,-1.64489316940308,-2.21193265914917,8.99188327789307,1.50915598869324,1.72257196903229,3.49849796295166,-1073.10009765625,14.7000007629395,-882.900024414062,2.4441345985005,-0.180151585301077,0.237633489915342,ST
13.2,-1.11792922019958,-1.61199533939362,7.68434286117554,2.17227005958557,0.823175966739655,2.64483404159546,-1075.5,5.10000038146973,-887.700012207031,2.41823782195897,-0.143809447800861,0.202412845125082,ST
13.2333333333333,-1.46664655208588,-1.34941053390503,7.83148574829102,2.19513607025146,0.525918006896973,2.78965187072754,-1070.70007324219,15.3000001907349,-880.500061035156,2.3897846827493,-0.184180341411303,0.16596654752359,ST
13.2666666666667,-2.17365145683289,-1.54859220981598,8.99786472320557,1.85976791381836,0.0076219998300075,2.90398192405701,-1080.30004882812,10.5,-882.900024414062,2.36513545965542,-0.234542289422482,0.165998994039438,ST
13.3,-2.82144045829773,-1.79024195671082,10.182785987854,1.03659200668335,0.0685980021953583,2.39330792427063,-1077.90002441406,6.90000009536743,-875.700012207031,2.34681694904007,-0.267201070445318,0.171097540513227,ST
13.3333333333333,-2.6276421546936,-1.93200182914734,10.2683200836182,0.426831990480423,-0.472563982009888,2.10367202758789,-1068.30004882812,9.90000057220459,-882.900024414062,2.33075420065511,-0.246260878738468,0.184272048139725,ST
13.3666666666667,-2.0791449546814,-1.68197798728943,9.93395805358887,0.525918006896973,-1.45580196380615,1.89025592803955,-1065.90002441406,7.50000047683716,-887.700012207031,2.3075894043809,-0.201592461414977,0.166074534291928,ST
13.4,-1.42298209667206,-1.25909090042114,9.00803279876709,1.18140995502472,-2.19513607025146,1.53202199935913,-1087.5,8.10000038146973,-878.100036621094,2.28560015002328,-0.1517907411506,0.136344993006389,ST
13.4333333333333,-1.65685606002808,-1.08084440231323,8.37639427185059,1.50915598869324,-1.40244793891907,1.18903195858002,-1085.10009765625,3.30000019073486,-897.300048828125,2.27272529024253,-0.191519638131816,0.125239449467525,ST
13.4666666666667,-1.83629894256592,-1.17116391658783,8.61026763916016,1.33385002613068,-1.32622802257538,0.731711983680725,-1085.10009765625,0.900000035762787,-878.100036621094,2.2676421889353,-0.206126188556076,0.132528305838711,ST
13.5,-2.71257829666138,-1.35359752178192,9.93455696105957,1.05945801734924,-3.31556987762451,0.365855991840363,-1075.5,2.70000004768372,-878.100036621094,2.26228686808268,-0.25854299138301,0.133194321196551,ST
13.5333333333333,-1.93439435958862,-1.25729656219482,9.47159385681152,0.769822001457214,-4.16923379898071,-0.0838419944047928,-1094.70007324219,0.900000035762787,-878.100036621094,2.25869474898195,-0.192577983667526,0.130472408496349,ST
13.5666666666667,-1.26447427272797,-1.26507234573364,10.2970314025879,0.236281991004944,-4.02441596984863,-0.46494197845459,-1097.10009765625,2.70000004768372,-878.100036621094,2.2573402735581,-0.114254480131482,0.121831450040124,ST
13.6,-0.96958976984024,-1.18193054199219,9.83586311340332,0.0381099991500378,-3.47563195228577,-0.396344006061554,-1106.70007324219,5.10000038146973,-875.700012207031,2.25691588561466,-0.0914763060020841,0.119524053586026,ST
13.6333333333333,-0.189013183116913,-1.47980570793152,9.83945178985596,-0.861285984516144,-1.92074394226074,-0.868907988071442,-1104.30004882812,4.5,-873.300048828125,2.26436635635978,-0.0155022018492635,0.150774946139346,ST
13.6666666666667,-0.249425619840622,-1.33625137805939,9.64924240112305,-0.640248000621796,-1.16616594791412,-0.861285984516144,-1101.90002441406,5.10000038146973,-875.700012207031,2.27154193813433,-0.0233725026866702,0.138757674113256,ST
13.7,0.0197387188673019,-1.45887064933777,9.14680194854736,-0.609759986400604,-0.403965979814529,-0.670735955238342,-1109.10009765625,2.70000004768372,-875.700012207031,2.27761514084583,0.0029834230624963,0.159201694184771,ST
13.7333333333333,-0.413914948701859,-1.28720366954803,8.9835090637207,-0.503051996231079,0.769822001457214,-0.403965979814529,-1111.5,11.7000007629395,-875.700012207031,2.28222950816201,-0.0467640778752242,0.143249521958468,ST
13.7666666666667,-0.66633129119873,-1.33266258239746,9.64445686340332,-0.304879993200302,0.762199997901917,0.205793991684914,-1109.10009765625,4.5,-894.900024414062,2.28075746646346,-0.0696744352333843,0.137835657734651,ST
13.8,-0.386998504400253,-1.60122871398926,9.44407939910889,-0.609759986400604,0.243903994560242,-0.510673999786377,-1104.30004882812,4.5,-882.900024414062,2.2875205302107,-0.0406814368601116,0.169019869166766,ST
13.8333333333333,-0.955832481384277,-1.65565979480743,10.0739240646362,-1.02134799957275,0.762199997901917,-0.289635986089706,-1097.10009765625,5.70000028610229,-873.300048828125,2.29039427450913,-0.0945236011041749,0.164749683181151,ST
13.8666666666667,-0.456981241703033,-2.03787302970886,10.1744117736816,-1.30336201190948,0.594515979290009,-0.175305992364883,-1099.5,6.30000019073486,-880.500061035156,2.29496279680414,-0.0450229358724973,0.199937040865692,ST
13.9,-0.70760315656662,-2.10187435150146,9.7060661315918,-1.50153398513794,1.52439999580383,-1.02897000312805,-1089.90002441406,4.5,-882.900024414062,2.30788484142397,-0.07331440364803,0.216032320429667,ST
13.9333333333333,-0.741697311401367,-2.05880808830261,9.89388275146484,-1.2423859834671,2.46190595626831,-0.693601965904236,-1097.10009765625,15.3000001907349,-873.300048828125,2.31888959953209,-0.0772151436489372,0.207493278137163,ST
13.9666666666667,-0.944467723369598,-1.90448725223541,9.23951435089111,-0.495429992675781,1.46342396736145,-0.541162014007568,-1089.90002441406,2.70000004768372,-878.100036621094,2.32642273693847,-0.102071439648898,0.20429197560992,ST
14.0,-1.71068894863129,-1.6383136510849,8.18319416046143,-0.121951997280121,2.59148001670837,-0.0381099991500378,-1094.70007324219,14.1000003814697,-870.900024414062,2.33051565317749,-0.206486624241311,0.198011372204177,ST
14.0333333333333,-1.46724474430084,-2.41649770736694,8.90275955200195,-0.632625997066498,2.82013988494873,0.403965979814529,-1073.10009765625,12.3000001907349,-878.100036621094,2.34505410612194,-0.162715284345632,0.266175848625757,ST
14.0666666666667,-1.82971930503845,-2.19458651542664,9.43211650848389,0.0685980021953583,-0.167683988809586,-1.36433792114258,-1085.10009765625,12.3000001907349,-885.300048828125,2.35111663298193,-0.185888324715765,0.228949272395962,ST
14.1,-2.61209034919739,-2.22210121154785,8.59352016448975,1.38720393180847,0.335367977619171,-1.56251001358032,-1080.30004882812,6.90000009536743,-885.300048828125,2.37505141149946,-0.285980340863209,0.251406205581169,ST
14.1333333333333,-1.68855762481689,-2.51519107818604,8.58634281158447,0.83841997385025,-0.685979962348938,-1.32622802257538,-1068.30004882812,10.5,-870.900024414062,2.39576202214068,-0.184786232204203,0.28383118931407,ST
14.1666666666667,-1.73401641845703,-2.29447650909424,8.76219654083252,0.198172003030777,-3.17075204849243,-2.4847719669342,-1094.70007324219,7.50000047683716,-878.100036621094,2.40726546773729,-0.182702102661156,0.256298684814657,ST
14.2,-0.711790144443512,-3.09658622741699,8.9536018371582,-1.46342396736145,-3.10215401649475,-2.9116039276123,-1092.30004882812,6.90000009536743,-892.500061035156,2.45016557398663,-0.0682041270494016,0.335732285078602,ST
14.2333333333333,-1.52765715122223,-3.65704607963562,10.6098604202271,-1.12043392658234,-1.87501192092896,-3.11739802360535,-1104.30004882812,11.7000007629395,-878.100036621094,2.47264785878083,-0.130375590401571,0.33442049782174,ST
14.2666666666667,-0.510814070701599,-3.53741765022278,10.5572233200073,-0.731711983680725,-2.88111591339111,-2.75154185295105,-1101.90002441406,11.7000007629395,-878.100036621094,2.48785362730218,-0.0396486052288099,0.324720702256808,ST
14.3,0.241051614284515,-3.23834609985352,9.61215782165527,0.320124000310898,-3.3460578918457,-1.80641400814056,-1106.70007324219,8.10000038146973,-885.300048828125,2.49411101356071,0.0302237440518973,0.324366532983947,ST
14.3333333333333,0.288903057575226,-3.21741104125977,8.60189437866211,0.853663980960846,-1.03659200668335,-1.02897000312805,-1101.90002441406,6.30000019073486,-870.900024414062,2.49878352566027,0.0337650636217288,0.356363770453774,ST
14.3666666666667,0.0897214487195015,-2.93748021125793,7.9134316444397,0.556405961513519,1.90549993515015,-0.175305992364883,-1113.90002441406,8.10000038146973,-878.100036621094,2.50684613202227,0.0076449333289663,0.354456238526006,ST
14.4,-0.971982300281525,-3.01464056968689,8.98111629486084,0.442075997591019,0.564027965068817,0.87652999162674,-1104.30004882812,9.30000019073486,-875.700012207031,2.4993639555906,-0.103538231860148,0.322993794359821,ST
14.4333333333333,-0.47552365064621,-2.99729442596436,8.76578521728516,0.327746003866196,-1.265251994133,1.45580196380615,-1099.5,11.7000007629395,-880.500061035156,2.48096696572444,-0.0500421678108831,0.328736474907236,ST
14.4666666666667,-0.18183545768261,-3.15221357345581,9.20362567901611,0.0457319989800453,-2.0579400062561,2.19513607025146,-1113.90002441406,9.90000057220459,-868.500061035156,2.45171475739022,-0.0165481849329584,0.329814158709074,ST
14.5,0.196190893650055,-3.34780621528625,9.88191986083984,0.106707997620106,-2.53812599182129,2.24086785316467,-1109.10009765625,19.5,-863.700012207031,2.42294222699795,0.021700463088539,0.326571835723835,ST
14.5333333333333,0.275743901729584,-3.22817754745483,9.4853515625,0.525918006896973,-0.99848198890686,2.82776188850403,-1101.90002441406,8.70000076293945,-880.500061035156,2.38985362519396,0.0275750907690801,0.327262262331611,ST
14.5666666666667,0.0663938671350479,-2.8842453956604,9.08579158782959,1.57775402069092,1.05945801734924,3.91008591651917,-1113.90002441406,15.3000001907349,-880.500061035156,2.35573795509711,0.0031739427988663,0.304668764291913,ST
14.6,-0.878073871135712,-2.76102805137634,10.0105209350586,2.09605002403259,2.21800184249878,4.79423809051514,-1111.5,12.9000005722046,-880.500061035156,2.31620975062989,-0.0901835102175915,0.264875396279725,ST
14.6333333333333,-0.845176041126251,-2.64080119132996,9.16055965423584,2.60672402381897,2.17227005958557,4.67990779876709,-1104.30004882812,5.70000028610229,-880.500061035156,2.28135074350006,-0.0942868185560012,0.275464921617147,ST
14.6666666666667,-1.40623414516449,-2.75803732872009,10.462119102478,2.37806391716003,1.45580196380615,4.62655401229858,-1094.70007324219,8.70000076293945,-885.300048828125,2.23845128304564,-0.133707475918796,0.252655376643118,ST
14.7,-1.11314404010773,-2.07017278671265,9.58942794799805,2.43903994560242,-0.0838419944047928,3.66618180274963,-1094.70007324219,11.7000007629395,-866.100036621094,2.19774463073089,-0.114171130667836,0.207661943697238,ST
14.7333333333333,-0.275145769119263,-1.87099123001099,8.27770042419434,2.55336999893188,-0.907018005847931,3.68142580986023,-1101.90002441406,7.50000047683716,-875.700012207031,2.15925940563668,-0.0322927590221194,0.217614682322464,ST
14.7666666666667,-0.215929612517357,-1.88355219364166,8.04562091827393,1.98934197425842,-1.265251994133,2.9268479347229,-1099.5,7.50000047683716,-866.100036621094,2.12932577212209,-0.0251275415228544,0.226347383290229,ST
14.8,-0.70461243391037,-1.73939979076385,7.53181648254395,1.6768399477005,-1.02134799957275,2.56099200248718,-1089.90002441406,7.50000047683716,-875.700012207031,2.10385017039425,-0.0900827843830086,0.223610126741425,ST
14.8333333333333,-1.81237316131592,-1.8045973777771,9.20721435546875,1.44055795669556,-0.92988395690918,4.02441596984863,-1104.30004882812,5.70000028610229,-870.900024414062,2.06165476650242,-0.190439712692331,0.189684633970555,ST
14.8666666666667,-2.2352602481842,-2.15152025222778,10.6230192184448,1.70732796192169,-2.28659987449646,5.34302186965942,-1094.70007324219,3.90000009536743,-875.700012207031,2.01138108760248,-0.201256723679126,0.194819257268812,ST
14.9,-1.61678040027618,-1.78426051139832,10.4118747711182,2.53050398826599,-3.10977602005005,5.38875389099121,-1109.10009765625,10.5,-861.300048828125,1.95341935864898,-0.14811347950777,0.163812254178128,ST
14.9333333333333,-1.77887713909149,-1.29497957229614,11.1218700408936,3.52898597717285,-3.12502002716064,5.73936605453491,-1113.90002441406,9.30000019073486,-868.500061035156,1.89154852494876,-0.153215339053325,0.108181526946656,ST
14.9666666666667,-0.513206660747528,-0.82065212726593,9.75092697143555,3.93295192718506,-3.39941191673279,4.6494197845459,-1116.30004882812,5.70000028610229,-890.100036621094,1.8429146478472,-0.0472238893898465,0.0767210399253512,ST
15.0,-0.2613884806633,0.0777585878968239,9.1151008605957,3.69666981697083,-2.59148001670837,3.33843588829041,-1133.10009765625,-0.300000011920929,-873.300048828125,1.8079420871454,-0.024087583087627,-0.015021935528689,ST
15.0333333333333,-0.782969176769257,0.733921408653259,8.93446159362793,3.44514393806458,-1.95123195648193,3.24697184562683,-1125.90002441406,10.5,-866.100036621094,1.77626168366037,-0.0831665796405495,-0.0883380454807932,ST
15.0666666666667,0.248229339718819,0.775193274021149,8.77236461639404,2.13416004180908,-2.29422187805176,2.00458598136902,-1123.5,-5.70000028610229,-878.100036621094,1.758415399075,0.032359846619076,-0.0917612736005435,ST
15.1,-0.427672237157822,0.919943869113922,9.18149471282959,-0.571649968624115,-2.37806391716003,-0.640248000621796,-1123.5,9.90000057220459,-878.100036621094,1.76672061774719,-0.0422117905124423,-0.0987930398666681,ST
15.1333333333333,-0.215331465005875,0.37025049328804,9.42434024810791,-2.63721203804016,-3.17075204849243,-1.44817996025085,-1130.70007324219,5.70000028610229,-868.500061035156,1.78500036161539,-0.0173972116116696,-0.0346481384067486,ST
15.1666666666667,-0.0221312902867794,-0.665733098983765,9.89747142791748,-4.77899408340454,-3.41465592384338,-1.57013201713562,-1130.70007324219,15.3000001907349,-868.500061035156,1.80001617833875,0.0039029881297636,0.0754211293369722,ST
15.2,0.604722559452057,-1.15501403808594,9.68333625793457,-5.52594995498657,-2.88111591339111,-1.51677799224854,-1140.30004882812,10.5,-854.100036621094,1.81254924618644,0.0671883824191663,0.128168291064287,ST
15.2333333333333,0.827829897403717,-1.75674593448639,9.10493278503418,-5.16009378433228,-1.20427596569061,-0.602137982845306,-1133.10009765625,8.10000038146973,-878.100036621094,1.81488551289049,0.0912831527404383,0.199471509743554,ST
15.2666666666667,0.816465139389038,-2.03906941413879,7.90206670761108,-4.92381191253662,1.16616594791412,0.205793991684914,-1142.70007324219,17.7000007629395,-858.900024414062,1.81459496719597,0.0976511094454748,0.261043517821741,ST
15.3,0.562254369258881,-2.52535963058472,9.54695987701416,-5.39637565612793,1.21189796924591,0.37347799539566,-1135.5,11.7000007629395,-875.700012207031,1.8169552949779,0.054711554567793,0.268012640903922,ST
15.3333333333333,-0.22968690097332,-2.63182902336121,9.67137336730957,-4.44362592697144,0.160062000155449,1.05945801734924,-1133.10009765625,18.3000011444092,-868.500061035156,1.8068683773451,-0.023594156997485,0.273402554650286,ST
15.3666666666667,-0.369652360677719,-2.97755575180054,9.88491058349609,-4.32929611206055,0.724089980125427,1.60824191570282,-1140.30004882812,14.7000007629395,-870.900024414062,1.79319269791769,-0.0378127714231133,0.300016845201487,ST
15.4,0.0233275759965181,-3.34481549263,10.2473850250244,-4.32929611206055,-0.121951997280121,1.60824191570282,-1145.10009765625,11.7000007629395,-875.700012207031,1.7780490849989,0.0014320498831223,0.323037450288711,ST
15.4333333333333,0.0885251611471176,-3.00507020950317,9.34718036651611,-3.95581793785095,-1.53964400291443,0.503051996231079,-1125.90002441406,22.5,-858.900024414062,1.76904689005693,0.011283359591105,0.317986756757906,ST
15.4666666666667,0.803904175758362,-2.68625998497009,7.27162408828735,-3.55185198783875,-2.62196803092957,-0.282013982534409,-1133.10009765625,23.7000007629395,-873.300048828125,1.76343544952494,0.107685550507584,0.360140512101436,ST
15.5,0.318212062120438,-2.60012745857239,6.89479398727417,-4.30642986297607,-3.93295192718506,-1.2576299905777,-1145.10009765625,20.1000003814697,-858.900024414062,1.76304004259886,0.0504161776993789,0.368149528661549,DLL
15.5333333333333,-1.14125680923462,-2.77897214889526,7.87814092636108,-4.80948209762573,-3.19361782073975,0.114329993724823,-1145.10009765625,27.3000011444092,-849.300048828125,1.74573163360291,-0.130404401087962,0.347272939373802,DLL
15.5666666666667,-0.375035643577576,-3.71865487098694,8.55284595489502,-5.36588764190674,-3.37654590606689,2.25611186027527,-1169.10009765625,27.3000011444092,-854.100036621094,1.7156213048626,-0.0365126533236586,0.419193735784954,DLL
15.6,-0.79074501991272,-4.84974336624146,9.13543796539307,-5.90704965591431,-4.32167387008667,4.24545383453369,-1159.5,32.7000007629395,-839.700012207031,1.65966097977776,-0.0731667287007213,0.497524165331354,DLL
15.6333333333333,-0.222509190440178,-5.54657983779907,8.69879341125488,-6.71498203277588,-4.77899408340454,6.45583391189575,-1161.90002441406,32.1000022888184,-844.500061035156,1.5830698125679,-0.0207942535218627,0.5789578345717,DLL
15.6666666666667,-0.707004964351654,-6.24939775466919,8.1126127243042,-6.79882383346558,-5.12960577011108,11.7073917388916,-1173.90002441406,31.5000019073486,-827.700012207031,1.44603979820794,-0.0744905375894516,0.666596562686078,DLL
15.7,-1.03598368167877,-6.51616954803467,8.04442501068115,-6.40247964859009,-5.44210767745972,15.3354635238647,-1164.30004882812,41.1000022888184,-825.300048828125,1.27789442263386,-0.109386752714728,0.689036777003581,DLL
15.7333333333333,-1.08024621009827,-7.01502084732056,8.38955307006836,-5.53357172012329,-6.23479604721069,18.2470684051514,-1164.30004882812,47.1000022888184,-818.100036621094,1.09813805458961,-0.110705031697907,0.702545882768741,DLL
15.7666666666667,0.539524972438812,-7.22496891021729,7.61854696273804,-4.42838191986084,-8.21651554107666,16.9970588684082,-1157.10009765625,45.9000015258789,-810.900024414062,0.908687646271275,0.0410084978150036,0.767844701561611,DLL
15.8,1.14484560489655,-7.16694927215576,7.76688671112061,-2.73629784584045,-6.79882383346558,14.6266174316406,-1145.10009765625,51.3000030517578,-796.500061035156,0.744817468359926,0.0991111866817772,0.752681711645156,DLL
15.8333333333333,1.85185062885284,-7.11849927902222,7.85002851486206,-0.167683988809586,-4.10063600540161,8.42230987548828,-1145.10009765625,50.1000022888184,-801.300048828125,0.659921585446634,0.168313871966684,0.739530606871695,DLL
15.8666666666667,0.346922934055328,-6.38158750534058,8.47927474975586,1.96647596359253,-2.99544596672058,4.55033397674561,-1133.10009765625,51.9000015258789,-789.300048828125,0.610326848200011,0.0321758385964452,0.642095251547139,DLL
15.9,0.028710862621665,-5.59144067764282,7.43192625045776,3.71953582763672,-2.68294382095337,2.88111591339111,-1142.70007324219,48.3000030517578,-801.300048828125,0.569403400927252,0.0038691628452325,0.638543640081765,DLL
15.9333333333333,-0.744089841842651,-4.89819288253784,7.4032154083252,3.71191382408142,-2.33995389938354,3.24697184562683,-1135.5,60.9000015258789,-801.300048828125,0.530275924362495,-0.0832083099298414,0.577518362156733,DLL
15.9666666666667,0.0909177288413048,-4.38498592376709,7.07902193069458,1.50153398513794,-2.78965187072754,2.9268479347229,-1147.5,58.5000038146973,-813.300048828125,0.489502523632809,0.012302340192268,0.552068931565126,DLL
16.0,0.971384167671204,-4.53631639480591,7.19924879074097,-1.16616594791412,-3.09453201293945,2.10367202758789,-1125.90002441406,53.7000007629395,-806.100036621094,0.456341787432574,0.116146216969652,0.564980487462285,DLL
16.0333333333333,-0.0023925718851387,-4.71934795379639,8.12756633758545,-3.39941191673279,-3.68142580986023,0.823175966739655,-1157.10009765625,54.3000030517578,-774.900024414062,0.433685967405939,0.0046758454613728,0.532070680249137,DLL
16.0666666666667,1.23157632350922,-5.6464695930481,7.77526044845581,-3.3689239025116,-3.52136397361755,1.33385002613068,-1140.30004882812,51.9000015258789,-789.300048828125,0.399832782101813,0.130905673776475,0.634584501535087,DLL
16.1,0.254210770130157,-5.93058776855469,8.91113376617432,-1.63872992992401,-1.80641400814056,0.899396002292633,-1157.10009765625,58.5000038146973,-791.700012207031,0.386717466009798,0.0256053818075303,0.590201332217039,DLL
16.1333333333333,1.12510693073273,-6.3917555809021,8.40271282196045,0.731711983680725,0.274392008781433,0.960371971130371,-1142.70007324219,57.9000015258789,-786.900024414062,0.376272432658565,0.104686951432082,0.649065965254756,DLL
16.1666666666667,0.438438802957535,-6.16027450561523,8.77954292297363,2.4847719669342,1.17378795146942,0.152439996600151,-1154.70007324219,54.3000030517578,-779.700012207031,0.383401387489381,0.0390956045689984,0.607511837750303,DLL
16.2,0.693247675895691,-6.20812606811523,8.24300861358643,3.14026403427124,1.21951997280121,0.137196004390717,-1152.30004882812,53.1000022888184,-791.700012207031,0.385825271354956,0.0652004949196833,0.639918798614197,DLL
16.2333333333333,-0.126208171248436,-6.04722547531128,8.44338607788086,2.42379593849182,0.365855991840363,-0.243903994560242,-1145.10009765625,57.9000015258789,-791.700012207031,0.390389716498114,-0.0123403493205344,0.61732467447409,DLL
16.2666666666667,-0.808689296245575,-5.79959440231323,8.05638790130615,2.46190595626831,0.0381099991500378,0.914639949798584,-1145.10009765625,53.7000007629395,-791.700012207031,0.385109842589564,-0.0821906295701309,0.619538478685056,DLL
16.3,-0.193798318505287,-5.62015151977539,7.39603805541992,2.83538389205933,-0.190549999475479,1.54726600646973,-1145.10009765625,54.3000030517578,-794.100036621094,0.372924519531883,-0.0222477546422854,0.64478437926793,DLL
16.3333333333333,0.324791640043259,-5.28160238265991,6.77337121963501,3.13264203071594,-0.846041977405548,2.60672402381897,-1140.30004882812,59.7000007629395,-806.100036621094,0.344361965208273,0.0361580726403109,0.656964831396187,DLL
16.3666666666667,-1.05811488628387,-4.65056180953979,7.6209397315979,3.75002384185791,-0.731711983680725,3.91770792007446,-1128.30004882812,52.5000038146973,-801.300048828125,0.306481497337198,-0.120229009314915,0.540715727338021,DLL
16.4,0.154919028282166,-5.07763576507568,8.03844356536865,3.14788603782654,-1.39482593536377,3.52136397361755,-1140.30004882812,54.3000030517578,-803.700012207031,0.271155581010657,0.0149548753309282,0.557958712176013,DLL
16.4333333333333,-0.844577848911285,-4.63800048828125,9.62890529632568,1.94360995292664,-2.46952795982361,2.36281991004944,-1142.70007324219,56.7000007629395,-806.100036621094,0.237250349884031,-0.0766493495597192,0.445186878321552,DLL
16.4666666666667,0.120824880897999,-4.63859891891479,8.89917087554932,1.87501192092896,-2.75916385650635,2.17989206314087,-1147.5,51.9000015258789,-808.500061035156,0.206982708268951,0.0144693877097432,0.477264032966549,DLL
16.5,0.0328978635370731,-4.03686714172363,8.76638317108154,2.08842802047729,-1.34147191047668,2.14940404891968,-1137.90002441406,51.3000030517578,-803.700012207031,0.182682068914758,0.003992074682295,0.427973557386317,DLL
16.5333333333333,0.0071777156554162,-3.58586716651917,8.33631896972656,2.10367202758789,-0.0914639979600906,1.14329993724823,-1128.30004882812,53.1000022888184,-813.300048828125,0.171758457021071,0.0001590598647765,0.402575043703128,DLL
16.5666666666667,0.458775669336319,-3.43274259567261,7.71185731887817,1.45580196380615,-1.02134799957275,0.472563982009888,-1133.10009765625,53.1000022888184,-808.500061035156,0.162471492560327,0.0555309606810103,0.416318189886801,DLL
16.6,-0.605320692062378,-2.9781539440155,7.61914539337158,0.846041977405548,-0.190549999475479,1.38720393180847,-1135.5,48.9000015258789,-803.700012207031,0.149140310870851,-0.0742859652719858,0.371016490224936,DLL
16.6333333333333,-0.598741114139557,-3.66661643981934,8.67187690734863,-0.228659987449646,0.342989981174469,1.85214591026306,-1128.30004882812,49.5000038146973,-803.700012207031,0.135616340960046,-0.065327869822654,0.400207212037451,DLL
16.6666666666667,-0.0305052921175957,-4.51298856735229,9.55892276763916,-1.98934197425842,-2.18751406669617,1.90549993515015,-1142.70007324219,56.7000007629395,-813.300048828125,0.110876432518723,-0.0009390524100282,0.444515142094587,DLL
16.7,0.23925718665123,-4.82282686233521,8.6264181137085,-2.62196803092957,-2.90398192405701,1.93598794937134,-1137.90002441406,52.5000038146973,-806.100036621094,0.0802455983602411,0.0269258372177979,0.514428586862567,DLL
16.7333333333333,0.853550016880035,-5.46583032608032,8.9595832824707,-2.10367202758789,0.297257989645004,4.89332389831543,-1137.90002441406,53.1000022888184,-798.900024414062,0.0369132131780557,0.076205440321778,0.55196684329241,DLL
16.7666666666667,0.577207982540131,-5.13386106491089,8.9775276184082,0.0762199983000755,1.6920839548111,4.88570165634155,-1130.70007324219,56.1000022888184,-801.300048828125,0.0028235849105678,0.0489706949030094,0.519643731396231,DLL
16.8,0.190209463238716,-4.71875,8.01691055297852,1.61586391925812,2.13416004180908,4.51984596252441,-1130.70007324219,61.5000038146973,-801.300048828125,-0.0254953730916911,0.0132859814020573,0.529230165834959,DLL
16.8333333333333,-0.180041030049324,-4.64458036422729,8.42005825042725,2.08842802047729,2.27135586738586,6.57016372680664,-1125.90002441406,51.9000015258789,-806.100036621094,-0.0721818100049499,-0.0276658499276093,0.50023424024557,DLL
16.8666666666667,-0.706406831741333,-4.37661218643188,8.82799243927002,2.23324584960938,1.53964400291443,4.64179801940918,-1109.10009765625,53.7000007629395,-808.500061035156,-0.106851579362401,-0.0774970559941104,0.455936235748079,DLL
16.9,-1.05392789840698,-4.70020723342896,9.05409049987793,1.71494996547699,1.51677799224854,3.65855979919434,-1109.10009765625,52.5000038146973,-796.500061035156,-0.128345200727242,-0.108189083761532,0.475333495120466,DLL
16.9333333333333,-0.971982300281525,-4.63082265853882,8.82859039306641,1.21189796924591,0.556405961513519,2.21037983894348,-1106.70007324219,53.7000007629395,-810.900024414062,-0.143191425222262,-0.0998438487386829,0.480656848897114,DLL
16.9666666666667,-0.933103024959564,-4.64816904067993,7.85541152954102,1.73781597614288,1.58537602424622,1.59299790859222,-1089.90002441406,50.1000022888184,-813.300048828125,-0.142096658851319,-0.105664411366395,0.531124903066272,DLL
17.0,-1.06828331947327,-4.55904579162598,7.98461055755615,1.37195992469788,1.6920839548111,-0.289635986089706,-1101.90002441406,60.3000030517578,-803.700012207031,-0.131547923784204,-0.117973098318894,0.516654105809359,DLL
17.0333333333333,-1.9828439950943,-3.99619317054749,7.15079927444458,2.31708788871765,2.34757590293884,0.754577994346619,-1104.30004882812,60.3000030517578,-794.100036621094,-0.122714556137302,-0.241663989946888,0.50577800115454,DLL
17.0666666666667,-2.32976698875427,-4.17743062973022,7.78662538528442,1.50153398513794,2.4847719669342,1.09756803512573,-1092.30004882812,57.3000030517578,-810.900024414062,-0.120422875738557,-0.262506648838589,0.489894746698826,DLL
17.1,-2.99310731887817,-3.76531004905701,8.00016212463379,-0.0152439996600151,0.846041977405548,1.28049600124359,-1085.10009765625,56.1000022888184,-830.100036621094,-0.142480117064214,-0.328618954869863,0.439505668355408,DLL
17.1333333333333,-3.06966972351074,-4.28868532180786,7.34399938583374,-0.800309956073761,0.655492007732391,1.265251994133,-1080.30004882812,51.9000015258789,-818.100036621094,-0.122475506482845,-0.3484728976572,0.529363471310425,DLL
17.1666666666667,-3.73839354515076,-4.41369676589966,7.91761827468872,-0.823175966739655,-0.510673999786377,1.17378795146942,-1089.90002441406,51.9000015258789,-815.700012207031,-0.144378169174796,-0.39133252756068,0.509089895474946,DLL
17.2,-2.64139938354492,-4.83837842941284,8.42185306549072,-0.137196004390717,-2.98020195960999,1.37195992469788,-1085.10009765625,55.5000038146973,-820.500061035156,-0.166124031460456,-0.262350208909065,0.520430671522497,DLL
17.2333333333333,-2.2191104888916,-4.21092653274536,7.72561454772949,-0.0990860015153885,-4.03965997695923,0.922261953353882,-1082.70007324219,62.1000022888184,-822.900024414062,-0.199676988781191,-0.241645960081988,0.498050045382537,DLL
17.2666666666667,-1.15621042251587,-4.65773916244507,8.73647594451904,-0.182927995920181,-3.65093803405762,2.4847719669342,-1087.5,57.3000030517578,-808.500061035156,-0.239375804167461,-0.112813198267191,0.489354132184461,DLL
17.3,-0.544310092926025,-4.45736122131348,8.77236461639404,-0.106707997620106,-2.09605002403259,1.50915598869324,-1089.90002441406,53.1000022888184,-806.100036621094,-0.266222416802829,-0.0532157044126236,0.470097354831837,DLL
17.3333333333333,-1.56354570388794,-4.24561882019043,8.71673774719238,0.708845973014832,-0.0914639979600906,0.304879993200302,-1089.90002441406,56.7000007629395,-818.100036621094,-0.270335238508053,-0.159903400615198,0.451933011738791,DLL
17.3666666666667,-1.31172752380371,-4.11462545394897,7.72681093215942,1.18140995502472,-0.0685980021953583,-0.0076219998300075,-1087.5,48.3000030517578,-808.500061035156,-0.263287659179102,-0.148629533906059,0.487231737217374,DLL
17.4,-2.09589290618896,-4.04284811019897,8.19754981994629,0.579271972179413,-0.0076219998300075,-0.289635986089706,-1082.70007324219,51.9000015258789,-806.100036621094,-0.264987533565683,-0.225120930650077,0.457286164831019,DLL
17.4333333333333,-1.82134532928467,-4.6290283203125,8.87763786315918,-0.114329993724823,-1.60824191570282,-0.342989981174469,-1085.10009765625,55.5000038146973,-806.100036621094,-0.26468342600929,-0.177235501730373,0.480677143122513,DLL
17.4666666666667,-1.56952714920044,-4.31679773330688,7.95410537719727,0.762199997901917,-1.19665396213531,-0.388722002506256,-1094.70007324219,53.1000022888184,-810.900024414062,-0.262964793951696,-0.169569166957563,0.495815997586523,DLL
17.5,-1.06708705425262,-5.43951225280762,8.91472244262695,1.15092194080353,-1.17378795146942,-1.05945801734924,-1101.90002441406,60.9000015258789,-808.500061035156,-0.251994554102276,-0.0991943120380504,0.545852732634136,DLL
17.5333333333333,-1.0856294631958,-5.26664876937866,7.8715615272522,1.35671591758728,-1.61586391925812,-0.716467976570129,-1113.90002441406,51.3000030517578,-815.700012207031,-0.24899418419862,-0.111075610814868,0.587193789311327,DLL
