seconds,sensor_accX_m_s_,sensor_accY_m_s_,sensor_accZ_m_s_,sensor_gyroX___s_,sensor_gyroY___s_,sensor_gyroZ___s_,sensor_magX__T_,sensor_magY__T_,sensor_magZ__T_,sensor_yaw___,sensor_pitch___,sensor_roll___,label1
0.0,-1.64010798931122,-1.44750595092773,9.43211650848389,0.342989981174469,-0.137196004390717,0.198172003030777,-1113.90002441406,6.30000019073486,-894.900024414062,-1.57621979489491,-0.169757438111908,0.151507609808845,ST
0.0333333333333333,-1.64608943462372,-1.43195426464081,9.52602481842041,0.335367977619171,-0.282013982534409,0.175305992364883,-1109.10009765625,9.90000057220459,-902.100036621094,-1.57748681763356,-0.168830208578913,0.148636863433732,ST
0.0666666666666667,-1.64250063896179,-1.41939330101013,9.50568771362305,0.434453994035721,-0.236281991004944,0.304879993200302,-1101.90002441406,14.7000007629395,-892.500061035156,-1.57888283409114,-0.168927729537882,0.147418427274378,ST
0.1,-1.63053774833679,-1.42238402366638,9.5206413269043,0.472563982009888,-0.221037998795509,0.449698001146317,-1104.30004882812,0.900000035762787,-904.500061035156,-1.58091877625552,-0.167559457832393,0.147339329655006,ST
0.133333333333333,-1.62874329090118,-1.39128053188324,9.49611759185791,0.381099998950958,-0.137196004390717,0.487807989120483,-1116.30004882812,12.9000005722046,-902.100036621094,-1.58333732138028,-0.16797216350426,0.144770377236775,ST
0.166666666666667,-1.69633340835571,-1.35838270187378,9.51765060424805,0.388722002506256,-0.106707997620106,0.541162014007568,-1113.90002441406,8.70000076293945,-902.100036621094,-1.58616010120801,-0.174324647316476,0.141074614408012,ST
0.2,-1.59106028079987,-1.38230836391449,9.49851036071777,0.396344006061554,-0.190549999475479,0.495429992675781,-1118.70007324219,9.30000019073486,-894.900024414062,-1.58778590634992,-0.164477839660546,0.143566657041995,ST
0.233333333333333,-1.61199533939362,-1.31890523433685,9.45305156707764,0.381099998950958,-0.144817993044853,0.434453994035721,-1109.10009765625,12.3000001907349,-894.900024414062,-1.59045021763149,-0.167057038012226,0.138062401558768,ST
0.266666666666667,-1.70052051544189,-1.3559901714325,9.47518253326416,0.320124000310898,-0.137196004390717,0.350611984729767,-1101.90002441406,16.5,-885.300048828125,-1.59134234112537,-0.175364985770352,0.141349935110765,ST
0.3,-1.66463184356689,-1.37333631515503,9.4793701171875,0.365855991840363,-0.297257989645004,0.274392008781433,-1106.70007324219,10.5,-892.500061035156,-1.59227928808272,-0.171732678759777,0.143091118608472,ST
0.333333333333333,-1.64549136161804,-1.40324342250824,9.47039794921875,0.358233988285065,-0.175305992364883,0.25152599811554,-1113.90002441406,14.1000003814697,-906.900024414062,-1.59270547340691,-0.170044189149499,0.146259600642058,ST
0.366666666666667,-1.73760533332825,-1.34881234169006,9.51107120513916,0.381099998950958,-0.198172003030777,0.282013982534409,-1118.70007324219,9.90000057220459,-894.900024414062,-1.59481442050594,-0.178324431186574,0.140364255683279,ST
0.4,-1.62216377258301,-1.41400992870331,9.497314453125,0.274392008781433,-0.320124000310898,0.121951997280121,-1094.70007324219,12.3000001907349,-892.500061035156,-1.59425297300493,-0.167161772110897,0.147077118343016,ST
0.433333333333333,-1.68496870994568,-1.38769173622131,9.5984001159668,0.327746003866196,-0.342989981174469,0.243903994560242,-1111.5,20.1000003814697,-885.300048828125,-1.59609466998015,-0.17136977232457,0.14303795421084,ST
0.466666666666667,-1.52287197113037,-1.41221559047699,9.45305156707764,0.434453994035721,-0.396344006061554,0.396344006061554,-1106.70007324219,14.7000007629395,-892.500061035156,-1.59727674843743,-0.157812025524247,0.147288918063366,ST
0.5,-1.61020088195801,-1.39187872409821,9.38605976104736,0.388722002506256,-0.236281991004944,0.388722002506256,-1104.30004882812,15.9000005722046,-902.100036621094,-1.59902422870063,-0.167381284874085,0.146453325751448,ST
0.533333333333333,-1.62575256824493,-1.42238402366638,9.55174541473389,0.342989981174469,-0.114329993724823,0.449698001146317,-1104.30004882812,9.90000057220459,-894.900024414062,-1.60092223856343,-0.166721283448845,0.147074934710428,ST
0.566666666666667,-1.56474196910858,-1.4481041431427,9.55473613739014,0.449698001146317,-0.236281991004944,0.335367977619171,-1106.70007324219,7.50000047683716,-897.300048828125,-1.6018711394555,-0.160467900544889,0.149425823752978,ST
0.6,-1.76691436767578,-1.33565330505371,9.44168663024902,0.564027965068817,-0.167683988809586,0.37347799539566,-1089.90002441406,8.10000038146973,-890.100036621094,-1.60484024562912,-0.18210264355435,0.139829729498575,ST
0.633333333333333,-1.67480027675629,-1.34941053390503,9.4787712097168,0.548784017562866,-0.25152599811554,0.525918006896973,-1109.10009765625,9.30000019073486,-894.900024414062,-1.60684178046984,-0.173242530883915,0.140264401348605,ST
0.666666666666667,-1.60960268974304,-1.34462535381317,9.46142578125,0.442075997591019,-0.449698001146317,0.449698001146317,-1113.90002441406,9.30000019073486,-894.900024414062,-1.6089295175919,-0.166421256640393,0.140250564976567,ST
0.7,-1.6263507604599,-1.32488667964935,9.58225059509277,0.449698001146317,-0.3125019967556,0.480185985565186,-1106.70007324219,12.9000005722046,-902.100036621094,-1.61154535831231,-0.16615368697293,0.136610990382948,ST
0.733333333333333,-1.56474196910858,-1.28899812698364,9.53021240234375,0.503051996231079,-0.236281991004944,0.518296003341675,-1092.30004882812,7.50000047683716,-892.500061035156,-1.61414999491026,-0.161213832589266,0.13353496877912,ST
0.766666666666667,-1.57251787185669,-1.25909090042114,9.45065879821777,0.381099998950958,-0.198172003030777,0.449698001146317,-1113.90002441406,12.9000005722046,-897.300048828125,-1.61630396751535,-0.163142185683749,0.131724002846139,ST
0.8,-1.63293027877808,-1.33086812496185,9.51705265045166,0.320124000310898,-0.152439996600151,0.358233988285065,-1104.30004882812,5.70000028610229,-899.700012207031,-1.6167316398283,-0.167937458861235,0.138003646596617,ST
0.833333333333333,-1.61139714717865,-1.35778450965881,9.52303409576416,0.274392008781433,-0.182927995920181,0.289635986089706,-1111.5,8.70000076293945,-885.300048828125,-1.6174550701477,-0.165819740025802,0.14093030144295,ST
0.866666666666667,-1.61737859249115,-1.34701800346375,9.51884746551514,0.304879993200302,-0.213415995240211,0.266770005226135,-1106.70007324219,9.90000057220459,-892.500061035156,-1.6187126968605,-0.166350068896548,0.139998405299175,ST
0.9,-1.65386533737183,-1.36556041240692,9.48355674743652,0.411587983369827,-0.190549999475479,0.25152599811554,-1125.90002441406,7.50000047683716,-892.500061035156,-1.61929113944659,-0.17048618118855,0.142118485048215,ST
0.933333333333333,-1.66164112091064,-1.39786016941071,9.53798770904541,0.457319974899292,-0.213415995240211,0.228659987449646,-1111.5,11.7000007629395,-890.100036621094,-1.61968893904974,-0.17038733805173,0.144543112362497,ST
0.966666666666667,-1.68317437171936,-1.33744764328003,9.50449180603027,0.449698001146317,-0.350611984729767,0.297257989645004,-1111.5,11.1000003814697,-897.300048828125,-1.62197766216499,-0.172999329416375,0.139049945405186,ST
1.0,-1.67599666118622,-1.34522354602814,9.48714542388916,0.457319974899292,-0.289635986089706,0.457319974899292,-1104.30004882812,9.90000057220459,-899.700012207031,-1.62371222840969,-0.172778554718265,0.139872052285029,ST
1.03333333333333,-1.65924859046936,-1.28959619998932,9.54576396942139,0.442075997591019,-0.228659987449646,0.442075997591019,-1106.70007324219,9.90000057220459,-897.300048828125,-1.62655928144255,-0.170390598464773,0.133634620156626,ST
1.06666666666667,-1.58149003982544,-1.29617583751678,9.473388671875,0.442075997591019,-0.282013982534409,0.350611984729767,-1116.30004882812,12.3000001907349,-890.100036621094,-1.62774039905741,-0.163789352488661,0.135036098423346,ST
1.1,-1.66941702365875,-1.31531643867493,9.57327842712402,0.426831990480423,-0.37347799539566,0.243903994560242,-1104.30004882812,8.10000038146973,-890.100036621094,-1.62863135460299,-0.170211290246976,0.135679978806409,ST
1.13333333333333,-1.56294763088226,-1.35299944877625,9.60737228393555,0.480185985565186,-0.510673999786377,0.0838419944047928,-1109.10009765625,6.90000009536743,-897.300048828125,-1.62844200410588,-0.159318905511037,0.138892179035682,ST
1.16666666666667,-1.61199533939362,-1.275838971138,9.5272216796875,0.647870004177094,-0.426831990480423,-0.0838419944047928,-1104.30004882812,3.90000009536743,-897.300048828125,-1.62890751422329,-0.16515115794432,0.132280036234631,ST
1.2,-1.68257617950439,-1.23636150360107,9.47398662567139,0.769822001457214,-0.320124000310898,0.0838419944047928,-1116.30004882812,2.70000004768372,-887.700012207031,-1.62950025460396,-0.173433173089678,0.128543984442601,ST
1.23333333333333,-1.6024249792099,-1.21363210678101,9.46202373504639,0.701223969459534,-0.25152599811554,0.144817993044853,-1125.90002441406,14.1000003814697,-890.100036621094,-1.630120412673,-0.166321027524135,0.126383001976936,ST
1.26666666666667,-1.67061328887939,-1.14484560489655,9.49372482299805,0.564027965068817,-0.342989981174469,0.205793991684914,-1111.5,8.70000076293945,-882.900024414062,-1.63204923073284,-0.172213759616854,0.119188572822655,ST
1.3,-1.54679775238037,-1.16099548339844,9.45245361328125,0.46494197845459,-0.480185985565186,0.289635986089706,-1111.5,12.9000005722046,-887.700012207031,-1.63293149445354,-0.160728553326958,0.121217134357932,ST
1.33333333333333,-1.53662931919098,-1.20047295093536,9.51585674285889,0.335367977619171,-0.533540010452271,0.182927995920181,-1104.30004882812,6.30000019073486,-892.500061035156,-1.63326047054919,-0.158088499367969,0.1246906126752,ST
1.36666666666667,-1.60362136363983,-1.19329524040222,9.54995059967041,0.297257989645004,-0.556405961513519,0.297257989645004,-1106.70007324219,12.3000001907349,-887.700012207031,-1.63484853587673,-0.163958681187546,0.123726093881466,ST
1.4,-1.4301598072052,-1.22140789031982,9.55952072143555,0.289635986089706,-0.510673999786377,0.350611984729767,-1116.30004882812,9.30000019073486,-894.900024414062,-1.63611297149593,-0.147225261403499,0.126355935428846,ST
1.43333333333333,-1.51330173015594,-1.25011885166168,9.55114650726318,0.304879993200302,-0.274392008781433,0.320124000310898,-1121.10009765625,7.50000047683716,-897.300048828125,-1.63712850380927,-0.155163964806756,0.129417951518192,ST
1.46666666666667,-1.49176859855652,-1.24533367156982,9.61873722076416,0.335367977619171,-0.228659987449646,0.388722002506256,-1109.10009765625,8.70000076293945,-899.700012207031,-1.63908348594029,-0.15239244624674,0.128100008731945,ST
1.5,-1.43913197517395,-1.25729656219482,9.50628662109375,0.335367977619171,-0.228659987449646,0.266770005226135,-1109.10009765625,12.9000005722046,-899.700012207031,-1.63979910913993,-0.148786217710965,0.130722818250081,ST
1.53333333333333,-1.60362136363983,-1.24772620201111,9.56370830535889,0.3125019967556,-0.152439996600151,0.243903994560242,-1111.5,9.90000057220459,-899.700012207031,-1.64100202617798,-0.163912085032803,0.129177391917693,ST
1.56666666666667,-1.47442245483398,-1.30155909061432,9.51346397399902,0.335367977619171,-0.282013982534409,0.304879993200302,-1113.90002441406,2.10000014305115,-887.700012207031,-1.64138320205658,-0.152431964271358,0.135043292507746,ST
1.6,-1.55576992034912,-1.28301668167114,9.5032958984375,0.289635986089706,-0.198172003030777,0.213415995240211,-1109.10009765625,5.10000038146973,-887.700012207031,-1.64249614559196,-0.16025011687221,0.133674975512038,ST
1.63333333333333,-1.56713461875916,-1.31232571601868,9.54396915435791,0.304879993200302,-0.243903994560242,0.297257989645004,-1118.70007324219,11.1000003814697,-894.900024414062,-1.64351096290513,-0.160888452944838,0.135955261975367,ST
1.66666666666667,-1.52347016334534,-1.29677391052246,9.57866191864014,0.442075997591019,-0.350611984729767,0.350611984729767,-1116.30004882812,10.5,-902.100036621094,-1.64533008590525,-0.156006570368251,0.133775465505209,ST
1.7,-1.54261076450348,-1.28720366954803,9.54038047790527,0.396344006061554,-0.37347799539566,0.365855991840363,-1113.90002441406,8.10000038146973,-894.900024414062,-1.64699041324837,-0.158234686765715,0.133324375274993,ST
1.73333333333333,-1.46545028686523,-1.23995041847229,9.53140830993652,0.388722002506256,-0.274392008781433,0.480185985565186,-1111.5,11.7000007629395,-885.300048828125,-1.64975265122919,-0.151229414399159,0.128743104466814,ST
1.76666666666667,-1.52825534343719,-1.20944511890411,9.5206413269043,0.411587983369827,-0.198172003030777,0.518296003341675,-1104.30004882812,9.90000057220459,-897.300048828125,-1.65239315862278,-0.157422932044628,0.125622338358488,ST
1.8,-1.47143173217773,-1.25909090042114,9.57925987243652,0.335367977619171,-0.228659987449646,0.495429992675781,-1116.30004882812,12.9000005722046,-890.100036621094,-1.65388766931198,-0.151117580955741,0.129789511612629,ST
1.83333333333333,-1.44571161270142,-1.23038005828857,9.61694240570068,0.274392008781433,-0.46494197845459,0.274392008781433,-1121.10009765625,15.9000005722046,-885.300048828125,-1.65573802443811,-0.147401648206471,0.126781580618506,ST
1.86666666666667,-1.45588004589081,-1.23337078094482,9.48714542388916,0.289635986089706,-0.304879993200302,0.236281991004944,-1109.10009765625,8.10000038146973,-887.700012207031,-1.65651117844729,-0.15041642841902,0.128623577894195,ST
1.9,-1.51449799537659,-1.27284824848175,9.51705265045166,0.304879993200302,-0.182927995920181,0.320124000310898,-1109.10009765625,11.7000007629395,-899.700012207031,-1.65738281266057,-0.156014609402946,0.13221114693418,ST
1.93333333333333,-1.53782558441162,-1.30754053592682,9.51166915893555,0.289635986089706,-0.221037998795509,0.396344006061554,-1121.10009765625,6.90000009536743,-899.700012207031,-1.6586268292989,-0.158453457243994,0.135867092733121,ST
1.96666666666667,-1.48399269580841,-1.34283101558685,9.59361553192139,0.335367977619171,-0.243903994560242,0.243903994560242,-1113.90002441406,9.90000057220459,-885.300048828125,-1.65935279845277,-0.151838924687503,0.13833727918964,ST
2.0,-1.59285473823547,-1.33864402770996,9.60617637634277,0.556405961513519,-0.381099998950958,0.243903994560242,-1111.5,-0.300000011920929,-902.100036621094,-1.66042509832548,-0.16175545872396,0.137444173174319,ST
2.03333333333333,-1.48399269580841,-1.35479378700256,9.46561241149902,0.533540010452271,-0.495429992675781,0.304879993200302,-1130.70007324219,8.70000076293945,-894.900024414062,-1.66125024615858,-0.153459100722653,0.141013171326703,ST
2.06666666666667,-1.31112945079803,-1.61199533939362,9.45484638214111,0.342989981174469,-0.472563982009888,0.411587983369827,-1133.10009765625,5.70000028610229,-892.500061035156,-1.65950886140878,-0.135823283057707,0.167179955166592,ST
2.1,-2.13836121559143,-1.48100197315216,10.2294406890869,0.907018005847931,-0.114329993724823,0.548784017562866,-1101.90002441406,8.70000076293945,-890.100036621094,-1.66535058770072,-0.20117691785971,0.143042194534966,ST
2.13333333333333,-1.99420869350433,-1.49057233333588,8.90515232086182,1.78354799747467,-0.190549999475479,0.914639949798584,-1111.5,14.1000003814697,-885.300048828125,-1.66398352794418,-0.216650641297019,0.16158736502854,ST
2.16666666666667,-3.10137128829956,-1.32129776477814,8.6742696762085,1.50153398513794,0.0762199983000755,0.960371971130371,-1118.70007324219,8.10000038146973,-894.900024414062,-1.66974469156391,-0.335666556445699,0.148502560131271,ST
2.2,-3.19049453735352,-1.55098474025726,8.79329967498779,1.50915598869324,-0.579271972179413,1.63110792636871,-1118.70007324219,11.7000007629395,-899.700012207031,-1.66768110289259,-0.342380793978067,0.169980187566083,ST
2.23333333333333,-2.82861804962158,-1.6084064245224,8.43262004852295,1.47866797447205,-1.63110792636871,1.05183601379395,-1118.70007324219,11.1000003814697,-899.700012207031,-1.66686662589945,-0.316581817281778,0.184701894597781,ST
2.26666666666667,-3.14383935928345,-1.34462535381317,8.61146450042725,2.080806016922,-1.74543797969818,1.16616594791412,-1116.30004882812,0.300000011920929,-894.900024414062,-1.68115488439434,-0.342816814129234,0.151239608008594,ST
2.3,-2.72454118728638,-1.33026993274689,8.78073883056641,2.02745199203491,-0.952749967575073,1.44817996025085,-1109.10009765625,5.10000038146973,-885.300048828125,-1.68716547529928,-0.29770243309103,0.14611651232185,ST
2.33333333333333,-2.50322842597961,-1.15082705020905,9.01401424407959,2.0731840133667,-1.2500079870224,1.13567793369293,-1121.10009765625,7.50000047683716,-880.500061035156,-1.69688249037369,-0.267753323989265,0.123400605057777,ST
2.36666666666667,-2.33215951919556,-0.86790543794632,9.10373592376709,1.98171997070312,-1.63110792636871,1.35671591758728,-1125.90002441406,6.90000009536743,-911.700012207031,-1.70929323172882,-0.247932169210689,0.0922335979093691,ST
2.4,-1.55876052379608,-0.928317904472351,9.28317928314209,1.58537602424622,-2.43141794204712,1.60824191570282,-1130.70007324219,2.10000014305115,-892.500061035156,-1.71600541485479,-0.164027019799843,0.0962400555956547,ST
2.43333333333333,-1.30933499336243,-0.791941285133362,9.69171047210693,1.59299790859222,-2.83538389205933,1.05945801734924,-1137.90002441406,5.70000028610229,-890.100036621094,-1.72338495097399,-0.130482599117915,0.0791699566476658,ST
2.46666666666667,-1.16099548339844,-0.751865744590759,9.75331974029541,1.74543797969818,-2.69056582450867,1.44055795669556,-1142.70007324219,4.5,-897.300048828125,-1.73058134525137,-0.114320104571846,0.0737835634150568,ST
2.5,-0.61548912525177,-0.860727727413177,9.96745491027832,1.6615959405899,-2.9116039276123,1.62348592281342,-1133.10009765625,3.90000009536743,-894.900024414062,-1.73771826794988,-0.0589558876907963,0.0826553478145123,ST
2.53333333333333,-0.690257012844086,-0.754258275032043,10.2515726089478,1.72257196903229,-2.69818782806396,1.87501192092896,-1154.70007324219,-3.30000019073486,-880.500061035156,-1.74747930495126,-0.0624410263764498,0.070717713824163,ST
2.56666666666667,-0.473131090402603,-0.685471832752228,10.2802829742432,2.04269599914551,-1.93598794937134,2.43141794204712,-1140.30004882812,0.900000035762787,-885.300048828125,-1.75915766630608,-0.043587624059335,0.0631317403738426,ST
2.6,0.148937597870827,-0.640611112117767,10.1857767105103,1.89787793159485,-1.45580196380615,2.47714996337891,-1157.10009765625,8.10000038146973,-878.100036621094,-1.77096149448747,0.014410123007268,0.0596779381657718,ST
2.63333333333333,-0.266173630952835,-0.346922934055328,11.0572710037231,1.89787793159485,-0.685979962348938,2.13416004180908,-1145.10009765625,2.10000014305115,-882.900024414062,-1.78093385174125,-0.0214612571130187,0.0292768641562406,ST
2.66666666666667,-0.0358885787427425,-0.0945065915584564,10.7659749984741,2.22562384605408,0.0685980021953583,1.97409796714783,-1149.90002441406,0.300000011920929,-887.700012207031,-1.7904940941313,-0.0041300774344443,0.0057523273856649,ST
2.7,-0.402550220489502,0.376830071210861,10.4489593505859,2.08842802047729,1.12043392658234,1.75305998325348,-1145.10009765625,2.10000014305115,-870.900024414062,-1.80010220337978,-0.0393106689011431,-0.0385204744196417,ST
2.73333333333333,-0.303856641054153,0.906186580657959,10.5380830764771,1.69970595836639,0.922261953353882,1.52439999580383,-1135.5,-0.900000035762787,-892.500061035156,-1.80949127586435,-0.0303652430164121,-0.0874160554031047,ST
2.76666666666667,-0.416905641555786,1.47442245483398,10.3436861038208,0.87652999162674,0.87652999162674,0.396344006061554,-1145.10009765625,3.90000009536743,-868.500061035156,-1.8138551389044,-0.0410319009753022,-0.141769859823724,ST
2.8,-0.150732025504112,1.29258692264557,9.90345287322998,-0.556405961513519,0.952749967575073,-0.320124000310898,-1135.5,7.50000047683716,-878.100036621094,-1.81262432165528,-0.0175842577602099,-0.12922023392886,ST
2.83333333333333,-0.702817976474762,0.821250319480896,10.3089942932129,-1.2423859834671,1.15854394435883,-1.40244793891907,-1137.90002441406,2.70000004768372,-882.900024414062,-1.80430962074357,-0.0686008833240571,-0.0786495935714131,ST
2.86666666666667,-1.96071267127991,0.599937379360199,10.7438440322876,-1.51677799224854,1.265251994133,-2.32470989227295,-1133.10009765625,-3.90000009536743,-875.700012207031,-1.79137523365418,-0.179030934244884,-0.0533109553146511,ST
2.9,-1.38230836391449,0.336156338453293,10.1624488830566,-1.21189796924591,0.762199997901917,-2.34757590293884,-1142.70007324219,3.90000009536743,-887.700012207031,-1.77756560931756,-0.137936128125252,-0.0310977508371356,ST
2.93333333333333,-1.96131074428558,0.317015767097473,9.66778469085693,-1.36433792114258,1.03659200668335,-2.62959003448486,-1137.90002441406,5.10000038146973,-887.700012207031,-1.765685969392,-0.200193120133505,-0.0295468403116423,ST
2.96666666666667,-1.69693160057068,0.375035643577576,9.2760009765625,-1.03659200668335,1.27287399768829,-1.73019397258759,-1130.70007324219,3.30000019073486,-890.100036621094,-1.76012255137241,-0.183668697301996,-0.0377816382560268,ST
3.0,-1.65685606002808,-0.0358885787427425,8.90275955200195,-1.07470202445984,2.17989206314087,-1.80641400814056,-1128.30004882812,0.300000011920929,-892.500061035156,-1.7451067115,-0.18764276461296,0.0047093168224089,ST
3.03333333333333,-2.2472231388092,0.0119628589600325,9.29873085021973,-0.731711983680725,2.32470989227295,-1.73019397258759,-1121.10009765625,0.300000011920929,-892.500061035156,-1.73865298229835,-0.239249903483468,0.0008582682731806,ST
3.06666666666667,-2.30943012237549,-0.150133892893791,8.94223785400391,-0.632625997066498,3.353679895401,-1.62348592281342,-1121.10009765625,3.30000019073486,-890.100036621094,-1.72707797888559,-0.257968772823804,0.018157803164148,ST
3.1,-2.68386745452881,-0.399559497833252,9.33043193817139,-0.320124000310898,2.87349390983582,-1.55488801002502,-1109.10009765625,2.10000014305115,-899.700012207031,-1.7134597014896,-0.283659808001985,0.0431363273745032,ST
3.13333333333333,-3.13606357574463,-0.700425446033478,9.66898155212402,-1.12805593013763,3.07166600227356,-1.28049600124359,-1109.10009765625,4.5,-894.900024414062,-1.69947641089065,-0.316667314459067,0.0738215989355772,ST
3.16666666666667,-2.78196287155151,-0.955832481384277,8.97453689575195,-1.05183601379395,2.21037983894348,-1.64635193347931,-1097.10009765625,10.5,-899.700012207031,-1.68252415141674,-0.30311763414236,0.107547317730572,ST
3.2,-3.14144682884216,-1.21004319190979,8.73587799072266,-1.6615959405899,2.56099200248718,-2.01220798492432,-1094.70007324219,3.90000009536743,-899.700012207031,-1.66436168658315,-0.344394227307626,0.140576484032348,ST
3.23333333333333,-3.25629043579102,-1.3781213760376,9.06186580657959,-1.86738991737366,2.9268479347229,-1.86738991737366,-1092.30004882812,9.90000057220459,-904.500061035156,-1.65248596125733,-0.345839980184982,0.155008671518664,ST
3.26666666666667,-3.2867956161499,-1.92721664905548,8.31717777252197,-2.01982998847961,2.81251788139343,-1.13567793369293,-1075.5,6.90000009536743,-899.700012207031,-1.62176674955719,-0.371125824350181,0.23020275133193,ST
3.3,-3.78744125366211,-1.58507883548737,8.74963569641113,-1.94360995292664,2.40092992782593,-0.25152599811554,-1087.5,6.90000009536743,-899.700012207031,-1.63940755409554,-0.405585605340559,0.184644707544817,ST
3.33333333333333,-3.38369488716125,-2.1371648311615,8.99248123168945,-1.86738991737366,1.02897000312805,0.556405961513519,-1068.30004882812,8.10000038146973,-899.700012207031,-1.62545418135774,-0.355053492465865,0.234329936346762,ST
3.36666666666667,-3.38130211830139,-1.92243146896362,8.40151596069336,-1.18903195858002,-0.411587983369827,1.38720393180847,-1080.30004882812,5.70000028610229,-902.100036621094,-1.63698107817155,-0.373121898226724,0.226308597821445,ST
3.4,-3.27782344818115,-2.23825097084045,9.38725566864014,-1.19665396213531,-0.868907988071442,2.36281991004944,-1080.30004882812,11.7000007629395,-909.300048828125,-1.64693101511223,-0.328786651427863,0.234307807777538,ST
3.43333333333333,-2.85074949264526,-1.8327100276947,8.79868316650391,-0.320124000310898,-1.33385002613068,1.83690190315247,-1085.10009765625,6.30000019073486,-892.500061035156,-1.66535449000191,-0.306488626804399,0.205955017395443,ST
3.46666666666667,-3.32148790359497,-1.85125243663788,9.0493049621582,-0.266770005226135,-0.37347799539566,2.88111591339111,-1082.70007324219,13.5000009536743,-904.500061035156,-1.68005286786257,-0.343973635192034,0.200694159511141,ST
3.5,-2.38898301124573,-1.66343557834625,9.20063495635986,0.213415995240211,-0.571649968624115,2.77440786361694,-1089.90002441406,14.1000003814697,-906.900024414062,-1.69897592939158,-0.253863725334915,0.178100429882426,ST
3.53333333333333,-2.90757298469543,-1.92302966117859,9.23233699798584,0.449698001146317,0.426831990480423,2.15702605247498,-1087.5,15.3000001907349,-890.100036621094,-1.70075204840175,-0.298649766756065,0.202454920935814,ST
3.56666666666667,-3.46205163002014,-1.5623494386673,9.42493915557861,0.922261953353882,1.28811800479889,2.53812599182129,-1087.5,8.70000076293945,-902.100036621094,-1.72182837809213,-0.348512073816869,0.162940269864981,ST
3.6,-3.45367741584778,-1.60960268974304,9.53200626373291,1.61586391925812,1.06708002090454,2.46952795982361,-1089.90002441406,8.70000076293945,-906.900024414062,-1.72929298777433,-0.345775908776632,0.163040609009337,ST
3.63333333333333,-3.68157005310059,-1.40264523029327,8.91233062744141,1.94360995292664,0.792688012123108,2.29422187805176,-1089.90002441406,10.5,-897.300048828125,-1.73929359628933,-0.387643426611551,0.151683992941216,ST
3.66666666666667,-4.07455015182495,-1.09639608860016,8.79449653625488,2.21800184249878,0.487807989120483,2.53050398826599,-1073.10009765625,12.3000001907349,-894.900024414062,-1.75918938124273,-0.43120591001837,0.119048846399861,ST
3.7,-3.69293475151062,-1.03837621212006,8.66469955444336,2.32470989227295,0.228659987449646,2.29422187805176,-1085.10009765625,2.10000014305115,-906.900024414062,-1.76689477576148,-0.402139477369176,0.113712973412721,ST
3.73333333333333,-4.13855123519897,-0.97557121515274,8.31299114227295,2.46952795982361,-0.175305992364883,1.44055795669556,-1080.30004882812,5.70000028610229,-902.100036621094,-1.76924140976998,-0.45775870013153,0.111327215836669,ST
3.76666666666667,-4.4023323059082,-0.772202551364899,8.93027496337891,2.22562384605408,-0.503051996231079,0.975615978240967,-1073.10009765625,5.10000038146973,-902.100036621094,-1.78155074322927,-0.45588478823915,0.0827130175453516,ST
3.8,-3.72643065452576,-0.834409415721893,8.74664497375488,2.18751406669617,-2.05031800270081,0.472563982009888,-1073.10009765625,14.1000003814697,-892.500061035156,-1.77696767729046,-0.39999958845048,0.0904935640439437,ST
3.83333333333333,-3.58945608139038,-0.587376415729523,8.9356575012207,2.21037983894348,-2.65245604515076,0.381099998950958,-1075.5,-0.300000011920929,-904.500061035156,-1.78616437660505,-0.377601017276783,0.062571712199205,ST
3.86666666666667,-2.77478528022766,-0.539524972438812,9.1390266418457,1.89787793159485,-2.5076379776001,0.266770005226135,-1085.10009765625,9.30000019073486,-906.900024414062,-1.78746281335123,-0.293504632323856,0.0557316671467112,ST
3.9,-2.69044709205627,-0.189611315727234,9.12467098236084,1.49391198158264,-2.46952795982361,0.0228659994900227,-1089.90002441406,5.10000038146973,-902.100036621094,-1.79621856533887,-0.282820328419956,0.0196554599751819,ST
3.93333333333333,-1.81237316131592,-0.0400755777955055,9.04451942443848,0.472563982009888,-2.10367202758789,-0.922261953353882,-1097.10009765625,7.50000047683716,-894.900024414062,-1.79527624465574,-0.197682974675928,0.0045729544286345,ST
3.96666666666667,-2.09409856796265,0.0645994395017624,8.82859039306641,-0.480185985565186,-1.16616594791412,-1.6615959405899,-1089.90002441406,-0.300000011920929,-904.500061035156,-1.79038200679495,-0.22951624828273,-0.0053825846949575,ST
4.0,-1.78126978874207,-0.128600731492043,9.41297626495361,-1.48628997802734,-1.49391198158264,-2.66770005226135,-1097.10009765625,5.70000028610229,-882.900024414062,-1.77529670088403,-0.186169040291638,0.0162419225419932,ST
4.03333333333333,-2.15271663665771,-0.285314202308655,9.34718036651611,-1.76068198680878,-1.20427596569061,-3.07928800582886,-1092.30004882812,1.5,-894.900024414062,-1.75965917907976,-0.222451889618705,0.0340122900974954,ST
4.06666666666667,-2.58756637573242,-0.436644375324249,9.8017692565918,-1.89025592803955,-0.457319974899292,-1.56251001358032,-1092.30004882812,5.70000028610229,-899.700012207031,-1.75158252094202,-0.255533998319009,0.0479205921756888,ST
4.1,-2.09649109840393,-0.709995687007904,9.34119892120361,-1.92836594581604,-0.221037998795509,-0.914639949798584,-1104.30004882812,8.70000076293945,-904.500061035156,-1.74233729253401,-0.220950983706017,0.0784515099341156,ST
4.13333333333333,-2.66293239593506,-0.792539417743683,9.64505577087402,-1.78354799747467,-0.266770005226135,-1.03659200668335,-1109.10009765625,9.90000057220459,-904.500061035156,-1.73821847574251,-0.265996161229053,0.0852856017712848,ST
4.16666666666667,-2.20774579048157,-1.08802211284637,9.72341251373291,-1.41769194602966,-0.983237981796265,-0.884151995182037,-1087.5,5.70000028610229,-909.300048828125,-1.72955698311901,-0.221921849019587,0.113055068309563,ST
4.2,-2.07017278671265,-1.13228464126587,9.84603118896484,-0.754577994346619,-1.6615959405899,-1.07470202445984,-1104.30004882812,5.70000028610229,-902.100036621094,-1.7257050632267,-0.203595420984641,0.116007839351937,ST
4.23333333333333,-2.42247915267944,-0.725547432899475,9.67077541351318,0.0228659994900227,-0.815553963184357,-0.37347799539566,-1085.10009765625,8.70000076293945,-904.500061035156,-1.73301671141956,-0.242331847294655,0.0760075134236919,ST
4.26666666666667,-1.68915569782257,-1.06888151168823,9.68453311920166,0.152439996600151,-0.87652999162674,0.213415995240211,-1109.10009765625,12.9000005722046,-894.900024414062,-1.72757657017189,-0.173112003095148,0.108222584680375,ST
4.3,-1.71367967128754,-0.957028746604919,8.41587162017822,-0.434453994035721,-0.708845973014832,-0.350611984729767,-1104.30004882812,10.5,-904.500061035156,-1.72569981953765,-0.197303346037262,0.113843149090004,ST
4.33333333333333,-1.95832014083862,-0.976767480373383,8.57737064361572,-0.975615978240967,0.358233988285065,-0.160062000155449,-1106.70007324219,10.5,-902.100036621094,-1.72548914823785,-0.222589507781843,0.115117244614485,ST
4.36666666666667,-1.672407746315,-1.83928966522217,9.03794002532959,-1.2576299905777,0.556405961513519,-0.472563982009888,-1097.10009765625,6.90000009536743,-909.300048828125,-1.70685534305888,-0.181547275335017,0.200366875752613,ST
4.4,-2.11144471168518,-2.1012761592865,10.0380353927612,-1.01372599601746,-0.205793991684914,-1.69970595836639,-1101.90002441406,10.5,-897.300048828125,-1.69890662034123,-0.201248880734592,0.208354025898273,ST
4.43333333333333,-2.30763554573059,-1.96370339393616,9.89148998260498,0.0304879993200302,-0.724089980125427,-1.79117000102997,-1109.10009765625,9.30000019073486,-899.700012207031,-1.69400421100464,-0.222215062720705,0.197035215944552,ST
4.46666666666667,-2.47092866897583,-1.87099123001099,9.80715179443359,0.655492007732391,-0.342989981174469,-1.02134799957275,-1097.10009765625,11.7000007629395,-899.700012207031,-1.69072016342642,-0.241142638435992,0.188030723001337,ST
4.5,-2.2310733795166,-1.74358677864075,8.99606990814209,0.365855991840363,-0.190549999475479,-0.556405961513519,-1111.5,2.70000004768372,-890.100036621094,-1.68735399612319,-0.238431921253604,0.190899719729439,ST
4.53333333333333,-2.61029601097107,-1.42058956623077,9.26344013214111,0.0381099991500378,-0.266770005226135,-0.190549999475479,-1109.10009765625,12.3000001907349,-916.500061035156,-1.69600505757312,-0.269811054919574,0.153762008761963,ST
4.56666666666667,-2.11084651947021,-1.73282015323639,9.22157001495361,-0.0076219998300075,-1.34909391403198,0.655492007732391,-1101.90002441406,11.1000003814697,-890.100036621094,-1.69274768796106,-0.22079061238963,0.184406066830046,ST
4.6,-1.79442894458771,-1.69274461269379,9.67077541351318,0.0533539988100529,-2.0655620098114,0.0533539988100529,-1101.90002441406,7.50000047683716,-904.500061035156,-1.69674859593487,-0.179011108660374,0.173514823522788,ST
4.63333333333333,-1.52945160865784,-1.58328449726105,9.39443397521973,0.6250039935112,-2.15702605247498,0.243903994560242,-1109.10009765625,11.7000007629395,-892.500061035156,-1.700561112164,-0.156122066357409,0.165901595665605,ST
4.66666666666667,-1.10656452178955,-1.41042113304138,9.59540939331055,0.594515979290009,-1.43293595314026,0.0762199983000755,-1106.70007324219,14.1000003814697,-904.500061035156,-1.70442046501184,-0.112266115933515,0.145369745438436,ST
4.7,-1.24174475669861,-1.43494498729706,9.73776721954346,0.457319974899292,-0.975615978240967,0.3125019967556,-1101.90002441406,8.10000038146973,-906.900024414062,-1.70622527807166,-0.123415285788091,0.145409175845131,ST
4.73333333333333,-1.20047295093536,-1.35957896709442,9.3896484375,0.160062000155449,-0.6250039935112,0.647870004177094,-1104.30004882812,11.7000007629395,-906.900024414062,-1.70971898077918,-0.124882488647785,0.143440255171603,ST
4.76666666666667,-1.52167570590973,-1.43733751773834,10.5751676559448,-0.0762199983000755,-0.777444005012512,1.01372599601746,-1109.10009765625,6.90000009536743,-911.700012207031,-1.71591258268439,-0.139886556800982,0.135298234140377,ST
4.8,-0.676499724388123,-1.07187223434448,10.2515726089478,0.518296003341675,-1.90549993515015,0.907018005847931,-1116.30004882812,8.70000076293945,-909.300048828125,-1.72431686066784,-0.0648714463526214,0.104156475803363,ST
4.83333333333333,-0.426475942134857,-1.56653642654419,9.4853515625,0.198172003030777,-0.525918006896973,-0.411587983369827,-1125.90002441406,13.5000009536743,-902.100036621094,-1.71946861365863,-0.0439227710629701,0.16169052539558,ST
4.86666666666667,-1.16996765136719,-1.34163463115692,9.92020130157471,0.243903994560242,0.434453994035721,-1.04421401023865,-1116.30004882812,12.9000005722046,-899.700012207031,-1.71613286709181,-0.114522313112522,0.13509142584486,ST
4.9,-1.52765715122223,-1.62694883346558,9.58583927154541,0.617381989955902,0.899396002292633,-0.602137982845306,-1116.30004882812,8.10000038146973,-904.500061035156,-1.70823122397194,-0.155491882561754,0.165928163161449,ST
4.93333333333333,-2.2370548248291,-1.47681498527527,9.13603591918945,0.518296003341675,1.6920839548111,-0.297257989645004,-1101.90002441406,9.30000019073486,-906.900024414062,-1.70637033560404,-0.236566806557277,0.159850758915994,ST
4.96666666666667,-2.91056370735168,-1.07366669178009,9.74973011016846,0.175305992364883,1.47104597091675,0.792688012123108,-1116.30004882812,9.30000019073486,-899.700012207031,-1.72146303274862,-0.288961622251104,0.111157423137263,ST
5.0,-2.00258255004883,-1.15920102596283,8.88481616973877,-0.167683988809586,0.472563982009888,0.381099998950958,-1109.10009765625,13.5000009536743,-902.100036621094,-1.71851873336081,-0.223558009992343,0.129155801420877,ST
5.03333333333333,-2.11144471168518,-1.31292378902435,8.92249870300293,-0.701223969459534,0.160062000155449,-0.92988395690918,-1116.30004882812,11.7000007629395,-902.100036621094,-1.71101413397573,-0.229760035954853,0.146952992942543,ST
5.06666666666667,-2.19339036941528,-1.38769173622131,9.45963096618652,-0.807931959629059,-0.426831990480423,-1.52439999580383,-1094.70007324219,13.5000009536743,-899.700012207031,-1.70520974144848,-0.224601510611203,0.147617215248769,ST
5.1,-2.05462121963501,-1.71487593650818,9.04870700836182,-0.259148001670837,-1.44055795669556,-2.24848985671997,-1106.70007324219,7.50000047683716,-899.700012207031,-1.68744629569826,-0.216578856064585,0.187196742081753,ST
5.13333333333333,-2.01992893218994,-1.83928966522217,8.97812557220459,-0.236281991004944,-1.48628997802734,-2.35519790649414,-1106.70007324219,9.30000019073486,-899.700012207031,-1.67445946930724,-0.213658613311915,0.202790737490554,ST
5.16666666666667,-1.76631617546082,-2.25200819969177,10.0129137039185,-0.190549999475479,-2.02745199203491,-1.61586391925812,-1109.10009765625,14.7000007629395,-897.300048828125,-1.66593854919023,-0.16828774390158,0.221140893878797,ST
5.2,-1.62455630302429,-2.19638109207153,10.0559797286987,0.25152599811554,-2.59910202026367,-1.88263392448425,-1109.10009765625,8.10000038146973,-897.300048828125,-1.66088616015687,-0.1520891184825,0.215198241810376,ST
5.23333333333333,-1.27882969379425,-1.98463833332062,10.1056251525879,0.792688012123108,-0.350611984729767,-1.15092194080353,-1111.5,12.9000005722046,-899.700012207031,-1.6523680589024,-0.122557714875944,0.192767010650638,ST
5.26666666666667,-2.0612006187439,-2.02710652351379,9.2407112121582,0.243903994560242,0.823175966739655,-0.617381989955902,-1099.5,9.30000019073486,-899.700012207031,-1.631253162102,-0.215119290161484,0.215680754337526,ST
5.3,-2.10067820549011,-2.20954012870789,10.2778902053833,0.228659987449646,-0.289635986089706,-0.190549999475479,-1106.70007324219,10.5,-892.500061035156,-1.63131697781956,-0.197410017095454,0.211575722520118,ST
5.33333333333333,-1.60481762886047,-1.82074725627899,8.90814304351807,0.0762199983000755,-0.411587983369827,-0.518296003341675,-1101.90002441406,5.10000038146973,-902.100036621094,-1.6311027628637,-0.174774755846701,0.202017588545375,ST
5.36666666666667,-1.84706544876099,-2.16886639595032,9.23532772064209,-0.78506600856781,0.83841997385025,0.724089980125427,-1094.70007324219,11.7000007629395,-899.700012207031,-1.62903718032639,-0.193395895365002,0.23090670155704,ST
5.4,-2.05043411254883,-2.13537049293518,9.2167854309082,-0.556405961513519,1.04421401023865,1.69970595836639,-1101.90002441406,10.5,-902.100036621094,-1.63650218742106,-0.214959412287352,0.228217821445439,ST
5.43333333333333,-1.76033473014832,-2.31780409812927,9.11031532287598,-0.388722002506256,0.975615978240967,1.6768399477005,-1092.30004882812,9.30000019073486,-897.300048828125,-1.63909151655668,-0.188598007625121,0.248486423525897,ST
5.46666666666667,-2.35369253158569,-2.42247915267944,9.2161865234375,0.0609759986400604,1.45580196380615,1.50153398513794,-1097.10009765625,13.5000009536743,-904.500061035156,-1.64254912310691,-0.243459900615728,0.256215680074073,ST
5.5,-2.7502613067627,-2.32857060432434,9.21977615356445,0.777444005012512,1.89787793159485,2.14940404891968,-1097.10009765625,2.70000004768372,-897.300048828125,-1.6515073409314,-0.283948727232865,0.245672755293692,ST
5.53333333333333,-2.89740467071533,-2.21073651313782,9.32445049285889,1.45580196380615,1.64635193347931,3.04879999160767,-1089.90002441406,3.30000019073486,-902.100036621094,-1.66557168277523,-0.29707392683742,0.229559933666508,ST
5.56666666666667,-2.86570286750793,-1.9768625497818,9.48594951629639,1.59299790859222,0.754577994346619,3.15550804138184,-1104.30004882812,14.1000003814697,-890.100036621094,-1.68425394854687,-0.290253370399898,0.202297330529545,ST
5.6,-2.51638746261597,-1.63173401355743,9.25327205657959,1.93598794937134,0.518296003341675,3.52898597717285,-1099.5,5.70000028610229,-897.300048828125,-1.70543561820167,-0.264717274682432,0.170874460461442,ST
5.63333333333333,-2.45118999481201,-1.71068894863129,9.10493278503418,1.79879200458527,0.716467976570129,3.26983785629272,-1092.30004882812,2.70000004768372,-890.100036621094,-1.71448350060928,-0.261068051900712,0.180725248379211,ST
5.66666666666667,-2.5678277015686,-1.36316788196564,9.67137336730957,1.79879200458527,0.320124000310898,3.21648383140564,-1097.10009765625,8.10000038146973,-897.300048828125,-1.73907599993297,-0.258499230393129,0.136561755198657,ST
5.7,-2.12819266319275,-1.19150078296661,9.19465351104736,1.94360995292664,-0.952749967575073,2.56099200248718,-1097.10009765625,11.7000007629395,-887.700012207031,-1.75232205230589,-0.225627578076459,0.124782991264365,ST
5.73333333333333,-2.18023109436035,-0.906186580657959,8.0414342880249,1.55488801002502,-0.754577994346619,1.73781597614288,-1097.10009765625,-2.70000004768372,-906.900024414062,-1.76298902727447,-0.261166192484928,0.109124644548947,ST
5.76666666666667,-2.34531855583191,-1.03777801990509,9.00623893737793,0.594515979290009,-0.586893975734711,1.11281192302704,-1094.70007324219,11.1000003814697,-897.300048828125,-1.76653514067988,-0.252707736280821,0.112991720028098,ST
5.8,-2.44281578063965,-1.01684308052063,9.37050819396973,0.167683988809586,-1.81403601169586,0.403965979814529,-1097.10009765625,12.9000005722046,-894.900024414062,-1.77064481843127,-0.250573734668387,0.107668060449558,ST
5.83333333333333,-2.28969120979309,-0.912168025970459,9.77126312255859,-0.0685980021953583,-2.24848985671997,0.365855991840363,-1087.5,12.9000005722046,-902.100036621094,-1.77667146091161,-0.226392686169601,0.0935625161144367,ST
5.86666666666667,-1.30574607849121,-1.22619307041168,9.48355674743652,-0.304879993200302,-2.59910202026367,-0.121951997280121,-1104.30004882812,12.9000005722046,-899.700012207031,-1.77163402336722,-0.133865803802365,0.128084322244544,ST
5.9,-1.26208162307739,-1.30155909061432,9.22037410736084,-0.647870004177094,-2.38568592071533,-1.34909391403198,-1104.30004882812,8.70000076293945,-902.100036621094,-1.76569673263308,-0.130410711853178,0.141047375831542,ST
5.93333333333333,-1.20944511890411,-1.58149003982544,9.46022891998291,-0.647870004177094,-1.05183601379395,-0.975615978240967,-1104.30004882812,9.90000057220459,-899.700012207031,-1.75882972603345,-0.123520148094774,0.166301504940025,ST
5.96666666666667,-1.24533367156982,-1.65386533737183,9.88969612121582,-0.381099998950958,-0.815553963184357,-1.05945801734924,-1099.5,9.30000019073486,-894.900024414062,-1.7548534965758,-0.121922328460076,0.166547555430873,ST
6.0,-0.77878212928772,-1.70410931110382,9.52183818817139,0.0533539988100529,-0.754577994346619,-0.861285984516144,-1111.5,5.70000028610229,-890.100036621094,-1.75050900393792,-0.080528574020969,0.176681928747966,ST
6.03333333333333,-1.05512416362762,-1.81356954574585,9.60258769989014,0.320124000310898,-0.129574000835419,-0.914639949798584,-1111.5,3.90000009536743,-906.900024414062,-1.74549304537027,-0.105961703173883,0.185873210010487,ST
6.06666666666667,-1.72205364704132,-1.88235592842102,10.2485818862915,0.754577994346619,0.800309956073761,-0.533540010452271,-1104.30004882812,3.30000019073486,-899.700012207031,-1.74262920672796,-0.162590445721766,0.180732927959674,ST
6.1,-1.40503787994385,-1.81356954574585,9.97762298583984,1.00610399246216,0.0990860015153885,-0.114329993724823,-1101.90002441406,5.70000028610229,-904.500061035156,-1.74174008924044,-0.138813066739945,0.178186019886334,ST
6.13333333333333,-1.12032175064087,-1.86381351947784,9.46920108795166,0.846041977405548,-0.129574000835419,-0.0914639979600906,-1099.5,9.90000057220459,-892.500061035156,-1.73916357139343,-0.116270440304738,0.192287735314261,ST
6.16666666666667,-1.39845824241638,-1.7364090681076,9.29873085021973,0.426831990480423,0.701223969459534,-0.167683988809586,-1104.30004882812,9.90000057220459,-902.100036621094,-1.73851077661794,-0.146914069388045,0.184206729442267,ST
6.2,-1.39307498931885,-1.73760533332825,9.18508338928223,0.182927995920181,0.945127964019775,0.167683988809586,-1101.90002441406,7.50000047683716,-902.100036621094,-1.7379952171342,-0.149500975029995,0.186551664689002,ST
6.23333333333333,-1.71487593650818,-1.96729218959808,9.07981014251709,0.0762199983000755,1.00610399246216,0.823175966739655,-1099.5,6.90000009536743,-904.500061035156,-1.73670786787669,-0.183676507894476,0.212385251863499,ST
6.26666666666667,-2.20475506782532,-2.2412416934967,9.39682579040527,-0.106707997620106,1.21951997280121,1.41006994247437,-1109.10009765625,5.70000028610229,-894.900024414062,-1.73771190115361,-0.225455160193021,0.233114412878279,ST
6.3,-2.57201480865479,-2.38240337371826,10.3089942932129,0.0685980021953583,0.815553963184357,2.58385801315308,-1109.10009765625,7.50000047683716,-902.100036621094,-1.74965599905669,-0.240236218926165,0.226292050084874,ST
6.33333333333333,-1.96250712871552,-2.2352602481842,9.34658241271973,0.480185985565186,-0.342989981174469,3.353679895401,-1089.90002441406,9.30000019073486,-899.700012207031,-1.76287698840248,-0.203750745273521,0.232420395094998,ST
6.36666666666667,-2.05163049697876,-1.87996339797974,9.39204120635986,0.449698001146317,-1.55488801002502,4.33691787719727,-1089.90002441406,9.30000019073486,-904.500061035156,-1.79228673254596,-0.20967757378279,0.196135744800908,ST
6.4,-1.37034559249878,-1.80878436565399,8.70178413391113,1.10518991947174,-1.56251001358032,5.19820404052734,-1094.70007324219,12.3000001907349,-902.100036621094,-1.81500257115018,-0.154458006044277,0.201274193969021,ST
6.43333333333333,-1.38529908657074,-1.5563679933548,8.87345123291016,1.49391198158264,-1.08232402801514,5.29728984832764,-1111.5,11.7000007629395,-902.100036621094,-1.84393189559796,-0.152394727458544,0.170714661753446,ST
6.46666666666667,-1.74119424819946,-1.55935871601105,9.20542049407959,1.60824191570282,-0.731711983680725,5.38875389099121,-1113.90002441406,9.90000057220459,-902.100036621094,-1.86921413365441,-0.183488664524213,0.16353607321822,ST
6.5,-2.01514363288879,-1.13946235179901,9.74135684967041,1.88263392448425,-0.663114011287689,5.66314601898193,-1106.70007324219,10.5,-904.500061035156,-1.90289416802565,-0.201896456205357,0.113281401309009,ST
6.53333333333333,-1.65565979480743,-0.739902853965759,9.89328479766846,2.21037983894348,-1.37195992469788,6.11284399032593,-1111.5,1.5,-902.100036621094,-1.93699106891209,-0.165337158184226,0.070735729186718,ST
6.56666666666667,-1.32548487186432,-0.388792932033539,9.12526893615723,2.09605002403259,-1.14329993724823,5.56405973434448,-1111.5,8.70000076293945,-894.900024414062,-1.96599940751642,-0.143466809884367,0.0388327301969553,ST
6.6,-1.47741317749023,-0.116039738059044,9.71982288360596,1.87501192092896,-0.632625997066498,4.76375007629395,-1123.5,1.5,-904.500061035156,-1.99087682916007,-0.149575779944864,0.0086958906508547,ST
6.63333333333333,-1.78007352352142,0.229088753461838,9.91840648651123,2.08842802047729,-1.12043392658234,3.66618180274963,-1101.90002441406,2.70000004768372,-894.900024414062,-2.01151625474459,-0.174388685744091,-0.0263469273360423,ST
6.66666666666667,-1.7124832868576,0.497056812047958,9.48654747009277,1.60061991214752,-1.45580196380615,2.19513607025146,-1113.90002441406,3.90000009536743,-897.300048828125,-2.02479823584824,-0.175572509270279,-0.0545988183635476,ST
6.7,-2.18800687789917,0.613096535205841,9.60019493103027,1.57775402069092,-0.975615978240967,1.11281192302704,-1125.90002441406,9.90000057220459,-899.700012207031,-2.03059331710896,-0.220344069199829,-0.0665370104791088,ST
6.73333333333333,-2.63182902336121,0.503636360168457,9.91661262512207,1.09756803512573,-0.510673999786377,0.739333987236023,-1123.5,6.30000019073486,-906.900024414062,-2.02950790988768,-0.256776702071111,-0.0534761066752484,ST
6.76666666666667,-2.07794857025146,0.248229339718819,10.0003519058228,0.533540010452271,-1.53202199935913,-0.556405961513519,-1116.30004882812,3.90000009536743,-892.500061035156,-2.02008923502595,-0.204388650676262,-0.0266433860019686,ST
6.8,-2.19757723808289,0.0119628589600325,10.0787086486816,0.236281991004944,-1.58537602424622,-1.78354799747467,-1118.70007324219,2.10000014305115,-899.700012207031,-2.006653295122,-0.211626794325334,-0.0019773875219496,ST
6.83333333333333,-1.78426051139832,-0.208153754472733,9.72759914398193,0.0152439996600151,-1.69970595836639,-2.37806391716003,-1111.5,2.70000004768372,-894.900024414062,-1.991141373274,-0.179521173132389,0.0212646120757731,ST
6.86666666666667,-1.39247679710388,-0.0986935868859291,9.3238525390625,0.182927995920181,-1.36433792114258,-2.39330792427063,-1137.90002441406,-2.10000014305115,-892.500061035156,-1.98117570527437,-0.14688212603919,0.0112224420719575,ST
6.9,-1.37273812294006,-0.323595345020294,9.02298641204834,0.121951997280121,-0.510673999786377,-2.30184388160706,-1128.30004882812,13.5000009536743,-899.700012207031,-1.96711950803814,-0.149744906568375,0.0352198400319738,ST
6.93333333333333,-1.26148355007172,-0.462962657213211,9.71743106842041,-0.0,-0.853663980960846,-2.12653803825378,-1123.5,6.30000019073486,-885.300048828125,-1.95587585571746,-0.128201799941802,0.047564832522568,ST
6.96666666666667,-1.45288932323456,-0.640611112117767,9.66539192199707,0.190549999475479,-1.00610399246216,-2.09605002403259,-1125.90002441406,2.70000004768372,-899.700012207031,-1.94401054470002,-0.146137993566849,0.0655972462396185,ST
7.0,-1.82373797893524,-0.750071287155151,10.6146450042725,0.106707997620106,-0.472563982009888,-1.93598794937134,-1113.90002441406,3.30000019073486,-904.500061035156,-1.93449587767804,-0.167762946311139,0.0706962073742628,ST
7.03333333333333,-0.96360832452774,-0.739304721355438,10.6989831924438,0.472563982009888,-1.42531394958496,-1.47104597091675,-1135.5,3.30000019073486,-887.700012207031,-1.9282593523294,-0.0902316965798185,0.0685013375862656,ST
7.06666666666667,-1.17295837402344,-0.596946656703949,9.73836612701416,0.243903994560242,-0.205793991684914,-1.50153398513794,-1125.90002441406,3.30000019073486,-894.900024414062,-1.92186470471302,-0.118086291055824,0.0613631631813541,ST
7.1,-1.77289581298828,-0.664536833763123,9.83526515960693,0.205793991684914,2.4847719669342,-1.19665396213531,-1128.30004882812,7.50000047683716,-897.300048828125,-1.91466848936214,-0.179533289256645,0.0672675620308198,ST
7.13333333333333,-1.93259990215302,-0.545506417751312,9.09296989440918,0.358233988285065,2.89635992050171,-0.967993974685669,-1116.30004882812,0.300000011920929,-902.100036621094,-1.91057127177365,-0.212600380405383,0.0600253661757707,ST
7.16666666666667,-2.31600952148438,-0.566441416740417,8.63718414306641,0.327746003866196,2.67532205581665,-1.02897000312805,-1116.30004882812,8.70000076293945,-897.300048828125,-1.90344333650067,-0.264065630655758,0.0652731239693282,ST
7.2,-2.50023770332336,-0.652574002742767,8.57497787475586,-0.0381099991500378,1.92836594581604,-0.960371971130371,-1111.5,8.10000038146973,-892.500061035156,-1.89520632222235,-0.285542026427234,0.0762639588247962,ST
7.23333333333333,-2.30703735351562,-0.836802005767822,9.11868953704834,-0.304879993200302,0.266770005226135,-1.31860601902008,-1116.30004882812,-0.300000011920929,-904.500061035156,-1.88546599430969,-0.248624667372353,0.0919893289630739,ST
7.26666666666667,-2.11981868743896,-0.970786035060883,9.20183181762695,-0.259148001670837,-1.17378795146942,-1.60061991214752,-1106.70007324219,-0.900000035762787,-894.900024414062,-1.87594677021499,-0.223928765008947,0.105583114098593,ST
7.3,-1.65087461471558,-0.977365612983704,9.02717399597168,0.0990860015153885,-1.46342396736145,-1.91312193870544,-1111.5,8.10000038146973,-882.900024414062,-1.86745419198852,-0.178857478604329,0.108138101826481,ST
7.33333333333333,-1.70291304588318,-1.2297819852829,9.39084434509277,-0.358233988285065,-0.25152599811554,-1.92836594581604,-1111.5,6.90000009536743,-897.300048828125,-1.85524683746981,-0.177112427534476,0.130482923160538,ST
7.36666666666667,-2.07555603981018,-1.13108837604523,9.57208156585693,-0.152439996600151,0.487807989120483,-1.32622802257538,-1106.70007324219,6.90000009536743,-894.900024414062,-1.85140973050375,-0.211222379273835,0.118886459169088,ST
7.4,-1.78306424617767,-1.31711077690125,9.14740085601807,-0.0838419944047928,0.381099998950958,-0.670735955238342,-1101.90002441406,-3.30000019073486,-894.900024414062,-1.84354146382993,-0.191909496722638,0.142406956538197,ST
7.43333333333333,-1.70470750331879,-1.44870233535767,9.27001953125,-0.388722002506256,0.602137982845306,-0.221037998795509,-1116.30004882812,3.30000019073486,-899.700012207031,-1.83999953500782,-0.181065388753072,0.155376950994493,ST
7.46666666666667,-2.14075374603271,-1.39128053188324,9.71683216094971,0.0228659994900227,1.43293595314026,0.632625997066498,-1106.70007324219,6.30000019073486,-890.100036621094,-1.84438158038736,-0.215886789056511,0.142565350814357,ST
7.5,-1.63532292842865,-1.69214642047882,10.02308177948,0.190549999475479,0.137196004390717,0.632625997066498,-1109.10009765625,1.5,-914.100036621094,-1.84265626883046,-0.161945835885431,0.165879403682681,ST
7.53333333333333,-2.09948182106018,-1.21602463722229,9.46381855010986,0.693601965904236,-0.518296003341675,0.579271972179413,-1101.90002441406,7.50000047683716,-899.700012207031,-1.85233856923984,-0.214303165675803,0.127471251808719,ST
7.56666666666667,-1.6664263010025,-1.04495573043823,9.31846904754639,0.922261953353882,0.0381099991500378,1.95123195648193,-1104.30004882812,-0.300000011920929,-906.900024414062,-1.86365542773316,-0.177871043640326,0.110170330391801,ST
7.6,-1.44152450561523,-1.1717621088028,9.24609375,0.945127964019775,-0.358233988285065,2.15702605247498,-1116.30004882812,8.10000038146973,-894.900024414062,-1.87099101570786,-0.15417778573549,0.123317987067487,ST
7.63333333333333,-1.45887064933777,-1.10177934169769,9.53439903259277,0.815553963184357,-0.701223969459534,1.76068198680878,-1094.70007324219,3.30000019073486,-916.500061035156,-1.88023920200485,-0.15015177940862,0.113553429594934,ST
7.66666666666667,-1.50253510475159,-0.826035439968109,9.86995697021484,1.11281192302704,-0.777444005012512,1.47104597091675,-1111.5,-1.5,-916.500061035156,-1.89111371095545,-0.14945571988618,0.0824693146686552,ST
7.7,-1.79442894458771,-0.999496877193451,10.0039415359497,1.16616594791412,-0.0762199983000755,1.28811800479889,-1106.70007324219,2.10000014305115,-897.300048828125,-1.89380268665553,-0.175598507190566,0.0965517343005315,ST
7.73333333333333,-1.35359752178192,-0.724351167678833,10.0787086486816,1.20427596569061,0.137196004390717,0.503051996231079,-1109.10009765625,3.90000009536743,-894.900024414062,-1.89923117165349,-0.135179687256847,0.0706170912377723,ST
7.76666666666667,-1.15920102596283,-0.437840640544891,9.81492805480957,1.47104597091675,-0.160062000155449,-0.403965979814529,-1101.90002441406,6.90000009536743,-902.100036621094,-1.89997832003547,-0.117784382753052,0.0431211135070217,ST
7.8,-1.43853390216827,-0.0610105842351913,9.09177303314209,1.69970595836639,0.0381099991500378,-0.724089980125427,-1092.30004882812,0.900000035762787,-897.300048828125,-1.90067813453565,-0.155384567342404,0.0055351301197991,ST
7.83333333333333,-1.32428848743439,-0.427074074745178,9.03195858001709,0.83841997385025,0.503051996231079,-1.12043392658234,-1101.90002441406,3.30000019073486,-892.500061035156,-1.88907232967996,-0.146602922169313,0.0444403083710936,ST
7.86666666666667,-2.2370548248291,-0.323595345020294,9.69709396362305,0.0228659994900227,-0.0304879993200302,-1.44817996025085,-1097.10009765625,-0.900000035762787,-894.900024414062,-1.88438325571992,-0.223216622602192,0.0343080667456724,ST
7.9,-2.52057456970215,-0.488682806491852,9.99078178405762,-0.426831990480423,0.190549999475479,-1.47866797447205,-1113.90002441406,2.70000004768372,-897.300048828125,-1.87463508653189,-0.246091363806975,0.0496134441541608,ST
7.93333333333333,-2.14494061470032,-0.875681281089783,9.93216419219971,-1.13567793369293,0.350611984729767,-1.84452390670776,-1089.90002441406,3.30000019073486,-899.700012207031,-1.85844093449552,-0.213613105938663,0.0889887320118826,ST
7.96666666666667,-1.57371413707733,-1.00069320201874,9.42134952545166,-1.40244793891907,-0.693601965904236,-2.43903994560242,-1101.90002441406,8.10000038146973,-882.900024414062,-1.84439926382344,-0.164367952563957,0.108409576926824,ST
8.0,-1.47980570793152,-1.42657101154327,9.1031379699707,-1.41006994247437,-1.33385002613068,-2.71343183517456,-1089.90002441406,7.50000047683716,-899.700012207031,-1.82566286383222,-0.156485612432052,0.156998436373262,ST
8.03333333333333,-1.43554317951202,-1.68377244472504,9.06904411315918,-1.36433792114258,-1.17378795146942,-1.70732796192169,-1087.5,6.30000019073486,-899.700012207031,-1.81500050288534,-0.151967957706925,0.185520096252825,ST
8.06666666666667,-1.6383136510849,-1.97805881500244,9.4674072265625,-1.47104597091675,-1.16616594791412,-1.00610399246216,-1104.30004882812,-0.300000011920929,-899.700012207031,-1.80913816741544,-0.164900002321688,0.207808341689355,ST
8.1,-1.79383075237274,-2.16228675842285,9.92079925537109,-1.2423859834671,-0.884151995182037,-0.266770005226135,-1111.5,5.10000038146973,-897.300048828125,-1.80833945074809,-0.172955395530826,0.21646572679394,ST
8.13333333333333,-1.7304276227951,-2.32737421989441,9.73358058929443,-0.967993974685669,-1.22714197635651,0.37347799539566,-1113.90002441406,8.10000038146973,-885.300048828125,-1.80908346079334,-0.169383915148653,0.235641140912455,ST
8.16666666666667,-1.78186786174774,-2.46913409233093,9.56789493560791,-1.01372599601746,-1.79879200458527,1.00610399246216,-1104.30004882812,5.10000038146973,-897.300048828125,-1.81372401001712,-0.175600614222382,0.253301771632789,ST
8.2,-1.61558413505554,-2.47451758384705,9.58763408660889,-0.503051996231079,-2.41617393493652,2.25611186027527,-1106.70007324219,6.30000019073486,-887.700012207031,-1.82687796454774,-0.15932658333675,0.252694311490381,ST
8.23333333333333,-1.33565330505371,-2.21671795845032,8.98051834106445,0.144817993044853,-1.59299790859222,3.13264203071594,-1113.90002441406,9.30000019073486,-902.100036621094,-1.84409009827044,-0.142722026419207,0.241354948369823,ST
8.26666666666667,-1.33924210071564,-2.28849506378174,9.31846904754639,0.0914639979600906,-1.13567793369293,3.10977602005005,-1113.90002441406,10.5,-892.500061035156,-1.86060210806107,-0.13817307845414,0.239901678497271,ST
8.3,-1.3320643901825,-2.00198459625244,9.97343635559082,0.335367977619171,-1.84452390670776,3.27745985984802,-1123.5,5.70000028610229,-911.700012207031,-1.88333899893644,-0.128525521635926,0.198077841538632,ST
8.33333333333333,-0.763828575611115,-1.59524726867676,9.0732307434082,1.10518991947174,-1.31098401546478,3.29270386695862,-1125.90002441406,8.10000038146973,-892.500061035156,-1.90241566278949,-0.0829732136368396,0.172423132667365,ST
8.36666666666667,-0.848166704177856,-1.53543305397034,9.08399772644043,0.647870004177094,-0.350611984729767,3.19361782073975,-1128.30004882812,6.90000009536743,-899.700012207031,-1.9187373042713,-0.0918676051756238,0.165988279811087,ST
8.4,-1.12869584560394,-1.53842377662659,10.1319437026978,0.304879993200302,-0.129574000835419,2.9116039276123,-1128.30004882812,5.70000028610229,-890.100036621094,-1.93343912373502,-0.109495277413037,0.150277790694582,ST
8.43333333333333,-0.897812604904175,-1.49775004386902,10.0105209350586,0.602137982845306,-0.137196004390717,2.66007804870605,-1121.10009765625,6.90000009536743,-904.500061035156,-1.94563700081768,-0.0897504676616281,0.14716933179067,ST
8.46666666666667,-0.846372306346893,-1.31950342655182,10.0248765945435,0.975615978240967,0.25152599811554,2.03507399559021,-1130.70007324219,8.10000038146973,-902.100036621094,-1.95587573553361,-0.0846295505238556,0.129615184122222,ST
8.5,-1.14843451976776,-1.11733102798462,9.16115760803223,1.02134799957275,1.01372599601746,1.34147191047668,-1121.10009765625,4.5,-902.100036621094,-1.9619089001864,-0.124164434847985,0.119748601699133,ST
8.53333333333333,-1.51928317546844,-1.24593186378479,9.44168663024902,0.564027965068817,1.70732796192169,1.2347639799118,-1123.5,6.30000019073486,-897.300048828125,-1.96474454380335,-0.159913122960169,0.129527525137767,ST
8.56666666666667,-1.90209460258484,-1.13527536392212,9.32923603057861,0.426831990480423,1.56251001358032,1.33385002613068,-1113.90002441406,6.30000019073486,-911.700012207031,-1.9711471809753,-0.200945246925363,0.120348751098213,ST
8.6,-1.97446990013123,-1.1837249994278,8.80765533447266,-0.0457319989800453,1.62348592281342,1.2347639799118,-1109.10009765625,9.30000019073486,-909.300048828125,-1.9734234431008,-0.221057387317477,0.132870939939635,ST
8.63333333333333,-2.2250919342041,-1.02820777893066,9.62651252746582,-0.274392008781433,0.952749967575073,1.6615959405899,-1123.5,9.90000057220459,-904.500061035156,-1.98629898064879,-0.227609666705645,0.107344139221906,ST
8.66666666666667,-1.89970207214355,-1.18492126464844,9.32564735412598,-0.175305992364883,0.381099998950958,1.85976791381836,-1116.30004882812,8.70000076293945,-909.300048828125,-1.99123152557098,-0.201324758604696,0.125448142436177,ST
8.7,-1.99301242828369,-1.00607645511627,9.12766170501709,-0.335367977619171,0.358233988285065,1.19665396213531,-1104.30004882812,7.50000047683716,-904.500061035156,-2.00033308118608,-0.214201697935965,0.110369552931279,ST
8.73333333333333,-2.15570735931396,-1.1035737991333,9.60976505279541,0.0152439996600151,0.0685980021953583,1.07470202445984,-1099.5,7.50000047683716,-914.100036621094,-2.00435866300814,-0.219388115050491,0.113756366836248,ST
8.76666666666667,-1.99480676651001,-1.09579789638519,10.1492900848389,0.426831990480423,-0.708845973014832,0.754577994346619,-1109.10009765625,6.30000019073486,-904.500061035156,-2.0095489660018,-0.192572507654086,0.106701110028242,ST
8.8,-1.56773269176483,-0.622666835784912,9.41118144989014,1.18140995502472,-1.28049600124359,0.167683988809586,-1106.70007324219,8.70000076293945,-902.100036621094,-2.01721356722219,-0.163352675179059,0.0651299499588876,ST
8.83333333333333,-1.33684957027435,-0.61847984790802,9.59540939331055,1.20427596569061,-0.708845973014832,-0.167683988809586,-1099.5,10.5,-897.300048828125,-2.01617643788502,-0.137737574295346,0.0623862448846313,ST
8.86666666666667,-1.49356305599213,-0.193200185894966,9.70307540893555,1.04421401023865,-0.243903994560242,-0.487807989120483,-1116.30004882812,8.70000076293945,-897.300048828125,-2.01928004481515,-0.151793527304663,0.0196245033994501,ST
8.9,-1.22200608253479,-0.35410064458847,9.64086818695068,0.823175966739655,0.228659987449646,-0.724089980125427,-1121.10009765625,7.50000047683716,-902.100036621094,-2.01331907250218,-0.127387419754958,0.0348046182535396,ST
8.93333333333333,-1.17654716968536,-0.586778283119202,9.53679180145264,0.381099998950958,0.617381989955902,-1.52439999580383,-1109.10009765625,15.9000005722046,-902.100036621094,-2.00283128815445,-0.123606062506552,0.0600573610328512,ST
8.96666666666667,-1.48339462280273,-0.651975810527802,9.65462589263916,0.350611984729767,1.09756803512573,-1.63110792636871,-1118.70007324219,10.5,-892.500061035156,-1.9939010215388,-0.152609250502908,0.0669680891706015,ST
9.0,-1.7926344871521,-0.780576586723328,9.85440540313721,0.46494197845459,1.56251001358032,-1.74543797969818,-1121.10009765625,4.5,-897.300048828125,-1.98321705164607,-0.180691893058031,0.0783339074416552,ST
9.03333333333333,-1.86142086982727,-0.865512907505035,9.74374866485596,0.411587983369827,0.815553963184357,-1.60061991214752,-1104.30004882812,7.50000047683716,-906.900024414062,-1.97330180588899,-0.188909201048394,0.088066044463419,ST
9.06666666666667,-1.81715834140778,-0.907981038093567,9.210205078125,0.152439996600151,1.43293595314026,-1.56251001358032,-1094.70007324219,8.10000038146973,-892.500061035156,-1.96309778544956,-0.195875841388668,0.0982502114144614,ST
9.1,-2.29028940200806,-1.02641332149506,9.39443397521973,-0.114329993724823,1.85214591026306,-1.39482593536377,-1101.90002441406,10.5,-890.100036621094,-1.95329312135697,-0.239287942561253,0.10932242057699,ST
9.13333333333333,-2.39675879478455,-1.06050753593445,9.39204120635986,-0.213415995240211,0.746955990791321,-0.990859985351562,-1085.10009765625,9.90000057220459,-904.500061035156,-1.94783972167169,-0.249032949216495,0.113122822520251,ST
9.16666666666667,-2.33096313476562,-0.872092425823212,9.42134952545166,-0.228659987449646,0.121951997280121,-0.472563982009888,-1082.70007324219,8.10000038146973,-904.500061035156,-1.95065176898678,-0.241983170539596,0.0937290118617076,ST
9.2,-2.01933073997498,-0.897812604904175,9.50628662109375,0.442075997591019,-0.853663980960846,0.411587983369827,-1099.5,12.3000001907349,-902.100036621094,-1.95252045504615,-0.208413024459577,0.0932317394298545,ST
9.23333333333333,-1.65865051746368,-0.735117733478546,9.50987529754639,0.579271972179413,-0.388722002506256,-0.137196004390717,-1077.90002441406,8.10000038146973,-887.700012207031,-1.95465990404147,-0.172977701581867,0.0768592617882999,ST
9.26666666666667,-1.4361412525177,-0.73751026391983,9.89627552032471,0.823175966739655,0.228659987449646,-0.266770005226135,-1092.30004882812,8.10000038146973,-906.900024414062,-1.95337050909013,-0.145256895558622,0.0731801602283084,ST
9.3,-1.97267556190491,-0.687864422798157,9.62412071228027,0.762199997901917,0.914639949798584,-0.259148001670837,-1080.30004882812,6.30000019073486,-911.700012207031,-1.95177258116319,-0.200875700661242,0.0702575747698241,ST
9.33333333333333,-2.32498168945312,-0.427672237157822,9.84004974365234,0.46494197845459,1.12805593013763,-0.327746003866196,-1085.10009765625,11.7000007629395,-904.500061035156,-1.95522925726302,-0.232418657285477,0.0439014391430884,ST
9.36666666666667,-2.24542880058289,-0.608311414718628,9.497314453125,0.213415995240211,0.800309956073761,-0.586893975734711,-1094.70007324219,5.70000028610229,-894.900024414062,-1.94775634927658,-0.233015578582826,0.0630447559381988,ST
9.4,-2.52476143836975,-0.856540739536285,9.35495567321777,-0.0,1.18140995502472,-1.08232402801514,-1075.5,6.30000019073486,-897.300048828125,-1.93572773086782,-0.263173017305237,0.0906770257913626,ST
9.43333333333333,-2.67190456390381,-1.09579789638519,9.31966590881348,0.282013982534409,0.87652999162674,-1.69970595836639,-1077.90002441406,5.70000028610229,-911.700012207031,-1.91947405645877,-0.278194283282951,0.11677136501128,ST
9.46666666666667,-3.11752104759216,-1.50193703174591,8.89737701416016,0.37347799539566,0.381099998950958,-1.64635193347931,-1089.90002441406,6.30000019073486,-909.300048828125,-1.89695153923682,-0.330651424849114,0.165471755925858,ST
9.5,-3.55595993995667,-1.42956173419952,10.0858869552612,0.556405961513519,-1.2576299905777,-0.807931959629059,-1075.5,9.30000019073486,-894.900024414062,-1.90135081274271,-0.333367992769902,0.141233136194724,ST
9.53333333333333,-2.95004105567932,-0.973178625106812,9.29454326629639,1.21189796924591,-2.43903994560242,0.609759986400604,-1077.90002441406,6.90000009536743,-899.700012207031,-1.91538300352814,-0.302945517377509,0.103326344371691,ST
9.56666666666667,-1.93798327445984,-1.01385235786438,8.99487400054932,1.06708002090454,-2.24848985671997,0.495429992675781,-1087.5,9.30000019073486,-897.300048828125,-1.9159675905767,-0.210162377931407,0.109891550985097,ST
9.6,-1.87936520576477,-0.768613696098328,9.1988410949707,1.04421401023865,-1.60061991214752,0.282013982534409,-1082.70007324219,7.50000047683716,-897.300048828125,-1.92247898163964,-0.198600386904691,0.082548230958071,ST
9.63333333333333,-1.82433605194092,-0.592161536216736,9.53081035614014,1.08994603157043,-1.08232402801514,-0.0990860015153885,-1082.70007324219,11.1000003814697,-894.900024414062,-1.9254849351107,-0.187206070165129,0.0607890223983057,ST
9.66666666666667,-1.66523003578186,-0.520982503890991,9.48236083984375,0.952749967575073,-0.914639949798584,-0.426831990480423,-1087.5,9.30000019073486,-894.900024414062,-1.92414992697263,-0.172435791445672,0.0535768308625943,ST
9.7,-1.85125243663788,-0.474925518035889,9.44228458404541,0.609759986400604,-0.632625997066498,-0.365855991840363,-1085.10009765625,6.90000009536743,-902.100036621094,-1.92286578686065,-0.191427214647066,0.0494765057800803,ST
9.73333333333333,-1.70231485366821,-0.619676113128662,10.02308177948,0.198172003030777,-0.3125019967556,-0.594515979290009,-1089.90002441406,8.70000076293945,-916.500061035156,-1.9180170898258,-0.168292609648696,0.0610852289270514,ST
9.76666666666667,-1.28062415122986,-0.604124426841736,9.40819072723389,0.213415995240211,-0.442075997591019,-0.78506600856781,-1085.10009765625,3.30000019073486,-897.300048828125,-1.91401408218454,-0.135540403466651,0.0638227982743096,ST
9.8,-1.68437063694,-0.811680018901825,9.62770938873291,0.0609759986400604,1.03659200668335,-1.01372599601746,-1106.70007324219,8.70000076293945,-894.900024414062,-1.90598948570995,-0.172686037899571,0.0834897157541576,ST
9.83333333333333,-2.33335566520691,-1.05033910274506,9.47996807098389,0.106707997620106,1.55488801002502,-1.06708002090454,-1097.10009765625,2.70000004768372,-899.700012207031,-1.89466856594034,-0.240202679906689,0.10979327168111,ST
9.86666666666667,-2.80887937545776,-1.21722090244293,9.41536808013916,0.0076219998300075,1.85976791381836,-0.914639949798584,-1082.70007324219,8.70000076293945,-897.300048828125,-1.88477779129966,-0.288630345037386,0.128341536549009,ST
9.9,-2.45298433303833,-1.25131511688232,9.31069374084473,0.472563982009888,0.884151995182037,-0.952749967575073,-1080.30004882812,4.5,-906.900024414062,-1.87821189397004,-0.258013378743467,0.133070091750757,ST
9.93333333333333,-2.575603723526,-1.32668113708496,9.06306266784668,0.274392008781433,0.442075997591019,-1.50153398513794,-1073.10009765625,15.9000005722046,-894.900024414062,-1.86782871506911,-0.273831868879213,0.145114707319981,ST
9.96666666666667,-2.35429072380066,-1.2178190946579,9.33880615234375,0.0152439996600151,-0.182927995920181,-1.64635193347931,-1082.70007324219,11.7000007629395,-897.300048828125,-1.86387927067145,-0.245207058203174,0.130823349782452,ST
10.0,-1.77887713909149,-1.13228464126587,9.2161865234375,0.152439996600151,-1.27287399768829,-1.42531394958496,-1070.70007324219,2.70000004768372,-899.700012207031,-1.85947763896894,-0.188631073404292,0.122679314750668,ST
10.0333333333333,-1.78605496883392,-1.41819703578949,9.09596061706543,-0.335367977619171,0.495429992675781,-1.17378795146942,-1080.30004882812,15.9000005722046,-904.500061035156,-1.84820300545968,-0.192039184059543,0.154333786851323,ST
10.0666666666667,-2.42008638381958,-1.34163463115692,9.8197135925293,-0.3125019967556,0.518296003341675,-0.83841997385025,-1087.5,5.70000028610229,-911.700012207031,-1.84806917612839,-0.238234921403002,0.137431971757297,ST
10.1,-2.21013832092285,-1.4821982383728,10.1995344161987,-0.243903994560242,-0.0533539988100529,-0.320124000310898,-1077.90002441406,0.300000011920929,-899.700012207031,-1.84533406476795,-0.212169440154566,0.14455453416702,ST
10.1333333333333,-1.7364090681076,-1.35240125656128,9.52423095703125,-0.0685980021953583,-0.78506600856781,-0.213415995240211,-1080.30004882812,5.10000038146973,-902.100036621094,-1.84554748874005,-0.178286813073235,0.141311781068121,ST
10.1666666666667,-1.94874978065491,-1.54739582538605,9.42673301696777,-0.403965979814529,-0.297257989645004,-0.297257989645004,-1075.5,7.50000047683716,-906.900024414062,-1.84078665898681,-0.199732920577436,0.162585537725363,ST
10.2,-1.4020471572876,-1.70829629898071,9.03255653381348,-0.342989981174469,0.0990860015153885,-0.533540010452271,-1080.30004882812,12.3000001907349,-911.700012207031,-1.83435561327977,-0.153317306902324,0.186660894492641,ST
10.2333333333333,-1.40443968772888,-1.54560148715973,9.51346397399902,0.213415995240211,-0.632625997066498,-0.381099998950958,-1082.70007324219,8.70000076293945,-904.500061035156,-1.83666858189326,-0.143899437193244,0.161805418979604,ST
10.2666666666667,-1.84945809841156,-1.42118775844574,9.01999568939209,0.754577994346619,-0.846041977405548,0.541162014007568,-1087.5,-2.10000014305115,-899.700012207031,-1.84022348220864,-0.19630414616466,0.155024955096802,ST
10.3,-1.99301242828369,-1.46724474430084,8.82380485534668,0.320124000310898,0.541162014007568,1.15854394435883,-1085.10009765625,8.10000038146973,-916.500061035156,-1.84293600103195,-0.219504065566748,0.163451942849619,ST
10.3333333333333,-2.59653854370117,-1.30335354804993,10.0559797286987,0.289635986089706,0.297257989645004,1.6615959405899,-1092.30004882812,4.5,-906.900024414062,-1.85827054783258,-0.250558020996767,0.128827292805909,ST
10.3666666666667,-2.13537049293518,-1.62575256824493,9.86696624755859,0.78506600856781,-0.3125019967556,1.61586391925812,-1077.90002441406,7.50000047683716,-906.900024414062,-1.85840207086907,-0.211287271570986,0.160507808264988,ST
10.4,-1.76033473014832,-1.47621691226959,9.53200626373291,1.02134799957275,-1.07470202445984,0.403965979814529,-1077.90002441406,11.1000003814697,-906.900024414062,-1.86183031687928,-0.179803449408806,0.151965837706928,ST
10.4333333333333,-1.50074076652527,-1.47262799739838,8.79389762878418,0.457319974899292,-0.731711983680725,-0.144817993044853,-1068.30004882812,8.10000038146973,-906.900024414062,-1.8591564597131,-0.165966913986686,0.164656804718416,ST
10.4666666666667,-1.91345942020416,-1.40324342250824,9.39263916015625,-0.243903994560242,-0.480185985565186,-0.282013982534409,-1068.30004882812,2.70000004768372,-904.500061035156,-1.8611801079151,-0.196621609593666,0.149447617173472,ST
10.5,-1.54021811485291,-1.44092643260956,9.07382869720459,-0.304879993200302,-1.06708002090454,-0.350611984729767,-1085.10009765625,6.30000019073486,-904.500061035156,-1.85911106935067,-0.165480526343112,0.157723206105209,ST
10.5333333333333,-1.28122222423553,-1.60481762886047,8.86567497253418,-0.350611984729767,-1.05945801734924,-0.754577994346619,-1087.5,10.5,-902.100036621094,-1.85338981743288,-0.140042860427112,0.179125474223203,ST
10.5666666666667,-1.9026927947998,-1.83450448513031,9.54277324676514,-0.701223969459534,-0.945127964019775,-1.28049600124359,-1087.5,3.90000009536743,-902.100036621094,-1.8466686183504,-0.189867742324455,0.191151656254422,ST
10.6,-2.09768748283386,-2.22090482711792,9.86277961730957,-0.907018005847931,-1.18140995502472,-1.04421401023865,-1075.5,8.70000076293945,-892.500061035156,-1.8378827753824,-0.201739054558422,0.222177459953131,ST
10.6333333333333,-1.71009075641632,-2.37044048309326,9.75810432434082,-0.655492007732391,-1.58537602424622,-0.708845973014832,-1097.10009765625,3.30000019073486,-906.900024414062,-1.83389564842891,-0.16716130733155,0.238843387485162,ST
10.6666666666667,-1.32488667964935,-2.41231060028076,9.2287483215332,-0.487807989120483,-1.04421401023865,-0.274392008781433,-1085.10009765625,9.30000019073486,-899.700012207031,-1.83161716302058,-0.137387774373258,0.255808188648434,ST
10.7,-1.70949256420135,-2.33096313476562,9.0612678527832,-0.0304879993200302,-0.221037998795509,0.525918006896973,-1092.30004882812,9.90000057220459,-906.900024414062,-1.83515523677503,-0.179499339020163,0.251768928594386,ST
10.7333333333333,-1.94994604587555,-2.44341397285461,9.22695350646973,0.282013982534409,0.800309956073761,1.46342396736145,-1087.5,11.7000007629395,-897.300048828125,-1.83972026250694,-0.202840736968586,0.257774044334356,ST
10.7666666666667,-2.0552191734314,-2.13537049293518,9.70427131652832,0.846041977405548,0.0076219998300075,1.82927989959717,-1089.90002441406,13.5000009536743,-902.100036621094,-1.85536056474348,-0.204604842120898,0.216230980663471,ST
10.8,-1.86142086982727,-2.2131290435791,9.6283073425293,1.13567793369293,-0.586893975734711,2.080806016922,-1092.30004882812,10.5,-904.500061035156,-1.86281355549319,-0.186788505572601,0.222947540202552,ST
10.8333333333333,-1.3960657119751,-1.94037580490112,9.21738338470459,1.07470202445984,-0.6250039935112,1.60061991214752,-1089.90002441406,9.90000057220459,-909.300048828125,-1.87346849609219,-0.147643818159677,0.205598493536979,ST
10.8666666666667,-1.68018364906311,-1.92422592639923,9.02119255065918,0.945127964019775,-0.228659987449646,1.32622802257538,-1080.30004882812,9.30000019073486,-894.900024414062,-1.87893762664322,-0.179343363928138,0.208012564050569,ST
10.9,-1.89551508426666,-1.94097399711609,9.36153602600098,0.823175966739655,0.190549999475479,2.02745199203491,-1077.90002441406,13.5000009536743,-902.100036621094,-1.88853884584445,-0.196208145682343,0.20251362346631,ST
10.9333333333333,-1.81476581096649,-1.60182690620422,10.027268409729,1.28811800479889,-1.05183601379395,2.13416004180908,-1106.70007324219,2.70000004768372,-897.300048828125,-1.90711086198402,-0.176218418191805,0.156768962479004,ST
10.9666666666667,-1.00846910476685,-1.53184413909912,9.17551326751709,2.01982998847961,-1.09756803512573,1.93598794937134,-1087.5,3.30000019073486,-902.100036621094,-1.91477158126595,-0.109465286113352,0.161287034035456,ST
11.0,-1.37572884559631,-1.44989860057831,9.20841121673584,1.69970595836639,-0.121951997280121,1.29574000835419,-1106.70007324219,3.30000019073486,-894.900024414062,-1.92068642764444,-0.145148652100764,0.153225430660781,ST
11.0333333333333,-1.67360401153564,-1.29617583751678,9.00205135345459,1.28811800479889,0.564027965068817,1.19665396213531,-1101.90002441406,11.1000003814697,-899.700012207031,-1.9269517715234,-0.182035247040919,0.140819049212352,ST
11.0666666666667,-2.19578289985657,-1.3159145116806,9.67556095123291,1.20427596569061,0.403965979814529,1.61586391925812,-1089.90002441406,11.7000007629395,-904.500061035156,-1.93437928007331,-0.220631030405542,0.132820393931334,ST
11.1,-2.06239700317383,-1.22679126262665,9.89567756652832,1.41006994247437,-0.0457319989800453,1.78354799747467,-1092.30004882812,4.5,-904.500061035156,-1.94378709679122,-0.204844762916317,0.120685975754817,ST
11.1333333333333,-1.90209460258484,-1.02342259883881,9.30411434173584,1.34909391403198,-0.106707997620106,1.11281192302704,-1092.30004882812,11.7000007629395,-909.300048828125,-1.95026618260739,-0.20068309188351,0.107367651263984,ST
11.1666666666667,-2.01813435554504,-1.18193054199219,10.1445045471191,1.16616594791412,-0.297257989645004,0.762199997901917,-1082.70007324219,3.90000009536743,-902.100036621094,-1.95181224465783,-0.194891884607786,0.113500567773699,ST
11.2,-1.29916656017303,-0.823044717311859,8.68324184417725,1.20427596569061,-0.67835795879364,0.0914639979600906,-1092.30004882812,5.10000038146973,-904.500061035156,-1.95512421985319,-0.148055769646295,0.0929529930625214,ST
11.2333333333333,-2.01634001731873,-0.931308627128601,8.99307918548584,0.571649968624115,0.746955990791321,0.25152599811554,-1099.5,-0.900000035762787,-906.900024414062,-1.9538109334083,-0.218717875428134,0.101866361618864,ST
11.2666666666667,-2.39197373390198,-1.06290006637573,9.96147346496582,0.358233988285065,0.426831990480423,0.548784017562866,-1099.5,4.5,-897.300048828125,-1.95491008164912,-0.234549873236552,0.105319656505084,ST
11.3,-2.18082928657532,-0.990524768829346,10.5231294631958,0.586893975734711,-0.685979962348938,0.586893975734711,-1094.70007324219,8.10000038146973,-902.100036621094,-1.9599213403316,-0.203685495851041,0.09310469120952,ST
11.3333333333333,-0.83261501789093,-0.933701157569885,9.35794639587402,1.12043392658234,-1.34909391403198,-0.205793991684914,-1097.10009765625,12.3000001907349,-911.700012207031,-1.95821310721669,-0.0892428243028162,0.0973924708580659,ST
11.3666666666667,-0.620274245738983,-0.943271458148956,9.05947303771973,0.884151995182037,-0.914639949798584,-1.33385002613068,-1111.5,6.30000019073486,-899.700012207031,-1.95186034974214,-0.0671060281592309,0.102152939699748,ST
11.4,-1.22679126262665,-1.00308573246002,9.00922966003418,0.899396002292633,-0.701223969459534,-1.39482593536377,-1094.70007324219,6.30000019073486,-904.500061035156,-1.94469493034945,-0.130358115991166,0.109291039773484,ST
11.4333333333333,-1.83629894256592,-1.13348090648651,9.63488674163818,0.701223969459534,0.884151995182037,-0.564027965068817,-1104.30004882812,3.90000009536743,-890.100036621094,-1.93978511961434,-0.186852317263809,0.115900723867412,ST
11.4666666666667,-1.99540495872498,-1.09340536594391,10.4214448928833,1.02897000312805,-0.121951997280121,0.274392008781433,-1099.5,6.90000009536743,-904.500061035156,-1.94256428005077,-0.187964532027435,0.103184071965219,ST
11.5,-1.06050753593445,-1.06708705425262,10.1157941818237,1.34147191047668,-0.762199997901917,0.0533539988100529,-1092.30004882812,7.50000047683716,-892.500061035156,-1.94240445618134,-0.106037449362913,0.102757025111566,DLR
11.5333333333333,-0.784165441989899,-0.843979716300964,10.1815900802612,1.78354799747467,0.487807989120483,-1.73019397258759,-1097.10009765625,6.90000009536743,-904.500061035156,-1.93559956574827,-0.0783710036559882,0.0807716384465554,DLR
11.5666666666667,-0.422887086868286,-0.931308627128601,9.84782600402832,2.40855193138123,0.868907988071442,-4.40551567077637,-1082.70007324219,6.30000019073486,-887.700012207031,-1.91384875490424,-0.0449639709982438,0.090077561078696,DLR
11.6,-0.817661464214325,-0.745286166667938,8.92070388793945,3.19361782073975,2.33995389938354,-8.48328590393066,-1099.5,4.5,-902.100036621094,-1.87367222755497,-0.0919834984642415,0.0795262378317744,DLR
11.6333333333333,-1.15501403808594,-0.758445262908936,9.26284217834473,3.92532992362976,2.37806391716003,-10.1143941879272,-1077.90002441406,-0.900000035762787,-897.300048828125,-1.82479775856606,-0.125027034814283,0.0771244033805269,DLR
11.6666666666667,-1.23456704616547,-1.18611752986908,9.86218166351318,3.87197589874268,2.34757590293884,-12.408616065979,-1068.30004882812,2.10000014305115,-899.700012207031,-1.76029971629452,-0.125347014723678,0.114148249661655,DLR
11.7,-1.99839568138123,-0.711790144443512,10.4932222366333,4.984787940979,1.97409796714783,-15.5488796234131,-1053.90002441406,-2.70000004768372,-897.300048828125,-1.69267485596214,-0.186693700492494,0.0660100270963488,DLR
11.7333333333333,-1.41819703578949,-0.952841758728027,8.89318943023682,5.14484977722168,2.0655620098114,-15.3811960220337,-1046.70007324219,-4.5,-894.900024414062,-1.61209265851222,-0.159399852245152,0.100748213959589,DLR
11.7666666666667,-2.67369914054871,-0.0759641602635384,9.01401424407959,4.51222372055054,2.85062789916992,-16.2196159362793,-1039.5,-7.50000047683716,-902.100036621094,-1.54901941947523,-0.288538833130806,0.0115877353371774,DLR
11.8,-2.58936095237732,-0.476719945669174,9.17192459106445,3.49087595939636,2.33995389938354,-11.4711093902588,-1039.5,-5.10000038146973,-875.700012207031,-1.48255712525244,-0.278399257550995,0.0500245620560324,DLR
11.8333333333333,-2.91654515266418,-0.512608528137207,9.24788856506348,1.46342396736145,1.54726600646973,-7.94974565505981,-1029.90002441406,-12.9000005722046,-890.100036621094,-1.43864425030499,-0.306268557704951,0.0570311576711307,DLR
11.8666666666667,-2.36027216911316,-0.579002380371094,9.65283107757568,0.342989981174469,0.83841997385025,-6.08235597610474,-1015.50006103516,-5.70000028610229,-892.500061035156,-1.40966830218407,-0.242877349929127,0.0618397666447798,DLR
11.9,-2.38718867301941,-0.677097856998444,9.66060733795166,0.640248000621796,0.685979962348938,-4.22258806228638,-1017.90002441406,-7.50000047683716,-897.300048828125,-1.38785462297101,-0.24238676012992,0.0703362048751785,DLR
11.9333333333333,-1.58388257026672,-0.787156164646149,9.30770301818848,0.411587983369827,0.960371971130371,-4.22258806228638,-1013.10003662109,-3.30000019073486,-887.700012207031,-1.36519341098803,-0.171997434152719,0.084429474546008,DLR
11.9666666666667,-1.72624063491821,-0.754856407642365,8.86208629608154,0.907018005847931,0.739333987236023,-4.00154972076416,-1008.30004882812,-10.5,-904.500061035156,-1.34601893324961,-0.191571271876083,0.0847313901097695,DLR
12.0,-2.53313541412354,-1.09938681125641,9.64924240112305,1.75305998325348,0.594515979290009,-5.39637565612793,-991.500061035156,-9.90000057220459,-887.700012207031,-1.2329814362963,-0.255105486941063,0.112848610511044,DLR
12.0333333333333,-2.93987274169922,-0.592161536216736,8.44757270812988,1.35671591758728,0.320124000310898,-3.93295192718506,-981.900024414062,-7.50000047683716,-892.500061035156,-1.22565249980883,-0.330975100672824,0.0717105520590995,DLR
12.0666666666667,-2.42427349090576,-0.748875021934509,9.09835243225098,0.67835795879364,0.213415995240211,-2.55336999893188,-984.300048828125,-10.5,-887.700012207031,-1.21049275017717,-0.262467825149518,0.0817664848589364,DLR
12.1,-3.11213779449463,-0.86491471529007,9.68931770324707,0.480185985565186,-0.0914639979600906,-2.08842802047729,-984.300048828125,-8.70000076293945,-885.300048828125,-1.19867447589656,-0.307254416715388,0.0890094626312128,DLR
12.1333333333333,-2.33156132698059,-1.14723825454712,9.54935264587402,-0.0838419944047928,-0.823175966739655,-0.533540010452271,-974.700012207031,-5.70000028610229,-882.900024414062,-1.18879802625597,-0.239176812184013,0.118674667870513,DLR
12.1666666666667,-1.9146556854248,-1.24174475669861,9.09596061706543,-0.6250039935112,-0.701223969459534,-0.632625997066498,-984.300048828125,-4.5,-897.300048828125,-1.18116961363625,-0.204256537426893,0.136957348350014,DLR
12.2,-2.01514363288879,-1.44331896305084,10.0882797241211,0.0762199983000755,-0.228659987449646,0.190549999475479,-977.100036621094,-10.5,-892.500061035156,-1.18218977891551,-0.194871567241357,0.141895141922395,DLR
12.2333333333333,-1.60122871398926,-1.08742392063141,8.88900279998779,0.632625997066498,0.243903994560242,0.556405961513519,-981.900024414062,-2.70000004768372,-894.900024414062,-1.1879759457993,-0.178029860940155,0.121140488753167,DLR
12.2666666666667,-1.63711726665497,-1.45468366146088,8.75262641906738,-0.495429992675781,1.31098401546478,-0.358233988285065,-986.700012207031,-0.300000011920929,-892.500061035156,-1.17818768166031,-0.184357844326021,0.163929736094549,DLR
12.3,-2.47930264472961,-0.993515491485596,9.93276214599609,0.114329993724823,0.221037998795509,0.106707997620106,-974.700012207031,-5.10000038146973,-882.900024414062,-1.19176763556834,-0.242378362037031,0.10108478903557,DLR
12.3333333333333,-2.10366892814636,-1.25669836997986,9.30650615692139,0.807931959629059,0.327746003866196,0.609759986400604,-979.500061035156,-1.5,-887.700012207031,-1.1865466995375,-0.221759657074646,0.131592225564944,DLR
12.3666666666667,-2.49126553535461,-1.1735565662384,9.52243614196777,1.21189796924591,0.419209986925125,0.365855991840363,-972.300048828125,-2.70000004768372,-894.900024414062,-1.1891290858153,-0.253505399333274,0.120826739960877,DLR
12.4,-2.56005191802979,-1.00188946723938,9.52961349487305,1.34147191047668,0.510673999786377,0.129574000835419,-979.500061035156,-5.70000028610229,-880.500061035156,-1.19234767341323,-0.26171224590456,0.102961872119127,DLR
12.4333333333333,-1.93439435958862,-0.154320880770683,9.1922607421875,3.91008591651917,-1.27287399768829,2.37806391716003,-969.900024414062,-5.70000028610229,-875.700012207031,-1.23668805253595,-0.205204593692191,0.0090903563187466,DLR
12.4666666666667,-2.75444841384888,-0.430662930011749,10.0320539474487,0.0152439996600151,-0.533540010452271,-0.37347799539566,-989.100036621094,-9.30000019073486,-890.100036621094,-1.23558753477088,0.162173701515674,-0.0995474223132053,DLR
12.5,-2.26636362075806,-0.69564026594162,9.60737228393555,0.0685980021953583,-0.861285984516144,-0.0533539988100529,-972.300048828125,-14.7000007629395,-882.900024414062,-1.23050071067705,-0.218262713010636,0.0669780931974696,DLR
12.5333333333333,-2.4416196346283,-1.12749946117401,9.66120529174805,0.259148001670837,-1.10518991947174,0.0457319989800453,-986.700012207031,-5.10000038146973,-878.100036621094,-1.22031548505859,-0.24403080317826,0.115648101810801,DLR
12.5666666666667,-1.95054423809052,-0.505430817604065,9.78681564331055,1.73781597614288,-1.12043392658234,0.891773998737335,-1003.50006103516,-3.30000019073486,-885.300048828125,-1.24039937809694,-0.194602300538992,0.0482507328166073,DLR
12.6,-1.07546103000641,-0.0544310100376606,8.88481616973877,2.53812599182129,-0.647870004177094,0.967993974685669,-986.700012207031,-11.1000003814697,-880.500061035156,-1.25219954384113,-0.119543255344276,0.001621958421661,DLR
12.6333333333333,-2.28490614891052,0.274547636508942,9.34897422790527,1.77592599391937,0.480185985565186,0.983237981796265,-979.500061035156,-7.50000047683716,-878.100036621094,-1.26116815362009,-0.236526341000544,-0.0317321352766283,DLR
12.6666666666667,-2.72035431861877,0.0322997197508812,9.54695987701416,0.198172003030777,0.815553963184357,0.609759986400604,-989.100036621094,-12.3000001907349,-880.500061035156,-1.25712282773613,-0.277949659400076,-0.0047266800472158,DLR
12.7,-2.09768748283386,-0.0538328662514687,9.341796875,0.6250039935112,-1.2347639799118,-0.685979962348938,-989.100036621094,-8.10000038146973,-890.100036621094,-1.24363577266247,-0.218720293566256,0.0049349838992909,DLR
12.7333333333333,-1.99301242828369,0.0047851437702775,9.4195556640625,0.632625997066498,-1.29574000835419,-0.205793991684914,-996.300048828125,-12.9000005722046,-882.900024414062,-1.24239726077208,-0.206263898819569,-0.0015276131078787,DLR
12.7666666666667,-1.89910387992859,-0.205163031816483,9.06366062164307,-0.419209986925125,-0.388722002506256,0.754577994346619,-986.700012207031,-7.50000047683716,-885.300048828125,-1.24548529601566,-0.205842211970759,0.0230837936180619,DLR
12.8,-2.05282664299011,-0.0921140164136887,9.84244251251221,-0.274392008781433,-0.617381989955902,0.594515979290009,-998.700012207031,-5.70000028610229,-890.100036621094,-1.25109658617446,-0.20460038484303,0.0101667578131377,DLR
12.8333333333333,-2.40333843231201,-0.0957028716802597,10.2928438186646,0.160062000155449,-0.442075997591019,0.78506600856781,-984.300048828125,-11.1000003814697,-885.300048828125,-1.25478508148546,-0.227641242244788,0.0087626878788436,DLR
12.8666666666667,-1.61737859249115,-0.0645994395017624,8.66170883178711,-0.182927995920181,0.975615978240967,0.0076219998300075,-993.900024414062,-10.5,-873.300048828125,-1.25532313148863,-0.186303861998494,0.0077771801678564,DLR
12.9,-2.11204290390015,0.495860517024994,8.75322437286377,1.76830399036407,-1.08994603157043,-0.746955990791321,-977.100036621094,-6.90000009536743,-880.500061035156,-0.188851365114954,-0.792238809198004,1.52386592453777,DLR
12.9333333333333,-3.03138852119446,0.0520384386181831,9.53439903259277,0.457319974899292,-1.82165801525116,2.14178204536438,-1001.10003662109,-12.9000005722046,-885.300048828125,-1.17419974928694,-0.306269312343808,-0.0053494666783995,DLR
12.9666666666667,-2.9021897315979,0.37025049328804,10.2150859832764,-0.541162014007568,-2.80489587783813,3.803377866745,-989.100036621094,-14.1000003814697,-887.700012207031,-1.20120361532087,-0.272640762091238,-0.0361078330966528,DLR
13.0,-2.95901322364807,0.525767683982849,9.66957950592041,-0.609759986400604,-3.58996200561523,6.80644607543945,-998.700012207031,-6.90000009536743,-878.100036621094,-1.23671479268566,-0.288964301569508,-0.0558189135819317,DLR
13.0333333333333,-1.51090919971466,-0.0358885787427425,8.50977993011475,-2.34757590293884,-4.44362592697144,9.84000205993652,-1001.10003662109,-16.5,-878.100036621094,-1.26954797895036,-0.172848682044583,0.0026633384557435,DLR
13.0666666666667,-1.03717994689941,0.296678900718689,8.80586051940918,-3.27745985984802,-3.13264203071594,10.0381736755371,-1013.10003662109,-14.7000007629395,-878.100036621094,-1.32587686333308,-0.112997956604556,-0.0291051447541675,DLR
13.1,-1.28720366954803,-0.0185424312949181,9.58165264129639,-3.15550804138184,-1.31098401546478,8.76529979705811,-1025.10009765625,-11.1000003814697,-887.700012207031,-1.36364003486831,-0.130512482454366,0.0040518670711317,DLR
13.1333333333333,-1.27464270591736,-0.696238398551941,10.6583099365234,-3.66618180274963,-0.884151995182037,7.40858364105225,-1025.10009765625,-8.70000076293945,-890.100036621094,-1.39289495219348,-0.118480025992087,0.0676794345684412,DLR
13.1666666666667,-1.54201257228851,-0.28411790728569,10.5404758453369,-2.82776188850403,-0.754577994346619,5.86131763458252,-1041.90002441406,-9.30000019073486,-897.300048828125,-1.42883807174539,-0.143528230502177,0.0314827983619526,DLR
13.2,-0.906186580657959,-0.295482635498047,10.1193828582764,-2.08842802047729,0.0990860015153885,4.28356409072876,-1034.70007324219,0.300000011920929,-882.900024414062,-1.45126416850736,-0.0912058652243096,0.0320981991594843,DLR
13.2333333333333,-0.593955993652344,-0.291295617818832,8.80885124206543,-1.28811800479889,1.01372599601746,2.19513607025146,-1039.5,-8.10000038146973,-890.100036621094,-1.46141286511769,-0.0700844649904165,0.0349113101926307,DLR
13.2666666666667,-0.84158718585968,-0.342735916376114,9.11091327667236,-1.37195992469788,0.975615978240967,0.37347799539566,-1037.10009765625,-0.900000035762787,-890.100036621094,-1.4631004773956,-0.0928099629160551,0.0397379405313523,DLR
13.3,-1.45348739624023,-0.681882977485657,9.3717041015625,-1.2500079870224,1.19665396213531,-0.381099998950958,-1039.5,-3.90000009536743,-894.900024414062,-1.45758435696452,-0.153246117860236,0.0736590783878189,DLR
13.3333333333333,-1.9828439950943,-1.05572235584259,9.98300647735596,-1.29574000835419,0.754577994346619,0.342989981174469,-1029.90002441406,-14.7000007629395,-897.300048828125,-1.4542568465796,-0.194629596117694,0.106149866790793,DLR
13.3666666666667,-2.42008638381958,-0.883457183837891,10.030858039856,-1.12043392658234,0.274392008781433,0.716467976570129,-1032.30004882812,-5.10000038146973,-899.700012207031,-1.46187402442181,-0.234754095899996,0.0902071090681527,DLR
13.4,-1.7483719587326,-1.1436493396759,9.97044563293457,-0.37347799539566,-0.891773998737335,1.41006994247437,-1032.30004882812,-3.90000009536743,-892.500061035156,-1.4642624242988,-0.173791202736292,0.113410215230906,DLR
13.4333333333333,-1.50971281528473,-1.338045835495,9.12407302856445,-0.243903994560242,-0.868907988071442,0.861285984516144,-1044.30004882812,-6.90000009536743,-892.500061035156,-1.46367503271787,-0.161507559832561,0.144445832988575,DLR
13.4666666666667,-1.82313978672028,-1.10716259479523,9.30112361907959,-0.381099998950958,-0.670735955238342,0.640248000621796,-1034.70007324219,0.300000011920929,-894.900024414062,-1.47192407074766,-0.19037416478334,0.119630510551902,DLR
13.5,-2.09350037574768,-0.958823204040527,9.49312686920166,0.487807989120483,-1.44817996025085,2.9192259311676,-1039.5,-2.10000014305115,-885.300048828125,-1.4901141249288,-0.213236654450148,0.0993407698331805,DLR
13.5333333333333,-2.27832651138306,-1.01086163520813,9.7778434753418,0.213415995240211,-1.46342396736145,4.32167387008667,-1034.70007324219,-3.30000019073486,-906.900024414062,-1.51074728020374,-0.225562662918582,0.100822008457777,DLR
13.5666666666667,-2.09888362884521,-0.474327385425568,9.90883636474609,0.868907988071442,-1.79117000102997,5.89180564880371,-1032.30004882812,-6.90000009536743,-899.700012207031,-1.5518827190599,-0.206390958258761,0.0455239588936335,DLR
13.6,-1.77708280086517,-0.355895072221756,9.58284854888916,0.739333987236023,-1.80641400814056,7.17230176925659,-1039.5,0.300000011920929,-899.700012207031,-1.58617468229985,-0.181581972407532,0.0339651651425358,DLR
13.6333333333333,-1.40743041038513,-0.372044920921326,9.04451942443848,-0.114329993724823,-2.30946588516235,8.35371208190918,-1058.70007324219,0.300000011920929,-892.500061035156,-1.62376556113822,-0.152029808058662,0.0387974933374708,DLR
13.6666666666667,-1.06290006637573,-0.199181616306305,9.17192459106445,-0.937505960464478,-2.18751406669617,7.42382764816284,-1058.70007324219,-2.10000014305115,-909.300048828125,-1.66063141879901,-0.113481868409654,0.0224917496859658,DLR
13.7,-1.11493849754333,-0.547300815582275,8.51635932922363,-1.73781597614288,-1.27287399768829,6.95888566970825,-1056.30004882812,-9.30000019073486,-909.300048828125,-1.69161354224887,-0.12800747709843,0.0644244870262917,DLR
13.7333333333333,-1.11493849754333,-0.860129594802856,8.96915340423584,-2.99544596672058,-0.647870004177094,4.89332389831543,-1065.90002441406,1.5,-902.100036621094,-1.71304590449353,-0.122967815975308,0.0986357418774691,DLR
13.7666666666667,-2.06778025627136,-1.35240125656128,9.63548469543457,-3.24697184562683,0.243903994560242,3.29270386695862,-1063.5,0.900000035762787,-906.900024414062,-1.72420961844886,-0.207807831478626,0.142515176458248,DLR
13.8,-1.77169942855835,-1.70949256420135,10.1086158752441,-3.33843588829041,-0.350611984729767,3.07928800582886,-1070.70007324219,0.300000011920929,-911.700012207031,-1.73659236973039,-0.172583866162986,0.171441603359085,DLR
13.8333333333333,-2.18800687789917,-1.40743041038513,9.40938663482666,-2.66770005226135,-1.2576299905777,2.0579400062561,-1070.70007324219,2.70000004768372,-914.100036621094,-1.75397196474372,-0.222970389646052,0.152827013974968,DLR
13.8666666666667,-1.25968909263611,-1.91106677055359,9.53021240234375,-3.04117798805237,-1.18140995502472,3.42227792739868,-1075.5,-3.90000009536743,-892.500061035156,-1.76464992469604,-0.131449823329558,0.200557985139283,DLR
13.9,-1.20705246925354,-1.8685986995697,9.39323711395264,-2.56861400604248,-1.71494996547699,2.39330792427063,-1080.30004882812,0.300000011920929,-897.300048828125,-1.77845209124298,-0.123603132424415,0.200274824696865,DLR
13.9333333333333,-1.14125680923462,-2.16049242019653,9.33162879943848,-2.23324584960938,-1.53964400291443,2.11891603469849,-1085.10009765625,1.5,-914.100036621094,-1.78714176209767,-0.117077323013601,0.229668595233681,DLR
13.9666666666667,-0.980954468250275,-2.28490614891052,9.76468372344971,-1.76830399036407,-1.81403601169586,1.65397393703461,-1087.5,8.10000038146973,-897.300048828125,-1.79818208804829,-0.0956369963757811,0.232528610707621,DLR
14.0,-1.3458217382431,-2.32318735122681,9.72101974487305,-1.17378795146942,-1.79879200458527,1.01372599601746,-1077.90002441406,3.30000019073486,-906.900024414062,-1.80547608950461,-0.130205141452077,0.236216290689053,DLR
14.0333333333333,-0.937290012836456,-2.46315264701843,9.93814563751221,-0.304879993200302,-1.37195992469788,1.48628997802734,-1094.70007324219,2.10000014305115,-904.500061035156,-1.81299578067151,-0.0912359201805369,0.242906204700703,DLR
14.0666666666667,-0.962412059307098,-1.9708811044693,9.63548469543457,0.457319974899292,-1.17378795146942,1.44055795669556,-1082.70007324219,7.50000047683716,-911.700012207031,-1.8251423409177,-0.0959343793966219,0.2017367578778,DLR
14.1,-0.659751713275909,-1.72683870792389,9.23532772064209,0.777444005012512,-0.640248000621796,1.92074394226074,-1087.5,7.50000047683716,-899.700012207031,-1.83555420021609,-0.0706968002065246,0.183983279828204,DLR
14.1333333333333,-0.47851437330246,-1.5743123292923,9.22456073760986,1.47866797447205,-1.18903195858002,2.38568592071533,-1085.10009765625,0.300000011920929,-894.900024414062,-1.84794441540346,-0.0505963120720999,0.166941445920988,DLR
14.1666666666667,-0.412718653678894,-1.51330173015594,8.4057035446167,1.33385002613068,-0.0228659994900227,3.47563195228577,-1085.10009765625,3.30000019073486,-902.100036621094,-1.86299770031293,-0.0493505959692436,0.175152002209323,DLR
14.2,-1.04794645309448,-1.62515449523926,9.50389385223389,1.02134799957275,0.990859985351562,4.12350177764893,-1082.70007324219,2.70000004768372,-906.900024414062,-1.88266600300014,-0.109424018634949,0.167105641363103,DLR
14.2333333333333,-1.12091994285583,-1.99660122394562,9.91182708740234,0.830797970294952,0.87652999162674,5.14484977722168,-1089.90002441406,14.7000007629395,-897.300048828125,-1.90281373235421,-0.113498811223082,0.195424217297549,DLR
14.2666666666667,-2.06598591804504,-1.83450448513031,10.0224838256836,0.67835795879364,1.61586391925812,4.83997011184692,-1089.90002441406,8.70000076293945,-899.700012207031,-1.92690756206321,-0.201775174159256,0.178815652591823,DLR
14.3,-2.00198459625244,-1.93319809436798,10.5087738037109,0.746955990791321,1.35671591758728,4.64179801940918,-1099.5,5.70000028610229,-904.500061035156,-1.94744842745989,-0.189349441122814,0.17915839446145,DLR
14.3333333333333,-1.67001521587372,-1.65685606002808,10.1050271987915,1.16616594791412,0.289635986089706,3.95581793785095,-1077.90002441406,5.10000038146973,-892.500061035156,-1.96735115989362,-0.164340669107912,0.160149015622867,DLR
14.3666666666667,-1.56055498123169,-1.29497957229614,8.87524509429932,1.40244793891907,-0.152439996600151,3.3460578918457,-1089.90002441406,5.10000038146973,-902.100036621094,-1.98439323844108,-0.17249731799179,0.142192780152523,DLR
14.4,-1.26925933361053,-1.275838971138,8.63897895812988,0.708845973014832,0.548784017562866,3.75764584541321,-1089.90002441406,4.5,-892.500061035156,-2.00156858797789,-0.146966400013739,0.144369125756583,DLR
14.4333333333333,-1.61917304992676,-1.26208162307739,8.96436882019043,0.3125019967556,0.571649968624115,2.96495795249939,-1087.5,8.70000076293945,-911.700012207031,-2.01599429197903,-0.177681057018308,0.138634997447751,DLR
14.4666666666667,-2.11862230300903,-1.32847559452057,9.63727951049805,0.350611984729767,0.419209986925125,2.5152599811554,-1080.30004882812,8.10000038146973,-899.700012207031,-2.02822450971193,-0.214674475500625,0.135551578335392,DLR
14.5,-1.42537474632263,-1.40025269985199,9.54337120056152,0.518296003341675,-0.236281991004944,2.85062789916992,-1080.30004882812,2.70000004768372,-906.900024414062,-2.03931151606001,-0.149764567777452,0.143655999728919,DLR
14.5333333333333,-2.18980145454407,-1.27045571804047,9.99197864532471,0.701223969459534,-0.213415995240211,1.36433792114258,-1070.70007324219,6.30000019073486,-899.700012207031,-2.0482026832904,-0.211395713014854,0.125526332666778,DLR
14.5666666666667,-1.47621691226959,-1.16398620605469,9.32026386260986,0.777444005012512,0.0228659994900227,1.83690190315247,-1082.70007324219,12.9000005722046,-906.900024414062,-2.05638965805989,-0.158561922857993,0.122490876795463,DLR
14.6,-1.36914920806885,-1.10536825656891,9.05409049987793,0.457319974899292,0.0076219998300075,1.12043392658234,-1092.30004882812,2.70000004768372,-890.100036621094,-2.06143887230538,-0.149619406651239,0.120476480093572,DLR
14.6333333333333,-1.60302317142487,-1.00248765945435,9.03016471862793,0.289635986089706,0.289635986089706,0.0533539988100529,-1085.10009765625,6.30000019073486,-897.300048828125,-2.06292170644479,-0.174113542440703,0.110476346999496,DLR
14.6666666666667,-1.76631617546082,-1.11194777488708,8.99965953826904,-0.114329993724823,-0.182927995920181,-0.800309956073761,-1065.90002441406,6.30000019073486,-897.300048828125,-2.05726780044492,-0.191167509680021,0.122863165133476,DLR
14.7,-2.14852952957153,-1.28361487388611,8.90335845947266,-0.777444005012512,-0.769822001457214,-1.08232402801514,-1077.90002441406,9.90000057220459,-892.500061035156,-2.04925373230161,-0.231165184500446,0.14402782753057,DLR
14.7333333333333,-2.65754914283752,-1.74597930908203,9.39024639129639,-1.47104597091675,-0.823175966739655,-1.05945801734924,-1087.5,3.90000009536743,-902.100036621094,-2.03679731345706,-0.268075288031066,0.185073087526167,ST
14.7666666666667,-2.44879722595215,-1.96370339393616,10.0165023803711,-1.49391198158264,-1.6615959405899,-0.503051996231079,-1097.10009765625,5.10000038146973,-894.900024414062,-2.03501213799792,-0.233891248634602,0.195820129133397,ST
14.8,-1.72803509235382,-1.98762905597687,9.52303409576416,-1.03659200668335,-2.27897787094116,-0.518296003341675,-1092.30004882812,10.5,-899.700012207031,-2.03343013651862,-0.174242763460917,0.207116170960555,ST
14.8333333333333,-1.63771545886993,-1.95473122596741,9.01281833648682,-0.983237981796265,-2.11129403114319,-0.647870004177094,-1094.70007324219,11.1000003814697,-904.500061035156,-2.03199354473489,-0.172002814342351,0.215013940349222,ST
14.8666666666667,-1.67061328887939,-2.143146276474,9.27839374542236,-0.754577994346619,-1.51677799224854,-0.0228659994900227,-1099.5,11.7000007629395,-897.300048828125,-2.03184790486552,-0.171116694325528,0.227685583891634,ST
14.9,-1.87996339797974,-2.22090482711792,9.5684928894043,-0.495429992675781,-1.2347639799118,0.0990860015153885,-1089.90002441406,5.70000028610229,-902.100036621094,-2.03377192190358,-0.186393198386886,0.228764795276603,ST
14.9333333333333,-1.76212918758392,-2.30943012237549,9.78920745849609,0.160062000155449,-1.41006994247437,0.846041977405548,-1080.30004882812,6.90000009536743,-892.500061035156,-2.03844683597926,-0.171989430276494,0.230956892237823,ST
14.9666666666667,-1.82313978672028,-2.1150336265564,10.0141096115112,0.655492007732391,-1.37195992469788,1.6615959405899,-1097.10009765625,8.70000076293945,-906.900024414062,-2.05067668495923,-0.174439840071024,0.207413750682948,ST
15.0,-0.899008870124817,-2.15211844444275,9.45364952087402,0.769822001457214,-1.31860601902008,2.33233189582825,-1104.30004882812,9.90000057220459,-906.900024414062,-2.06110006411108,-0.0934534559296167,0.221634805601441,ST
15.0333333333333,-1.39068245887756,-1.92841291427612,9.58583927154541,1.04421401023865,-0.67835795879364,2.08842802047729,-1097.10009765625,3.30000019073486,-892.500061035156,-2.0736096885776,-0.139135152507875,0.197111119813331,ST
15.0666666666667,-1.6203693151474,-2.02650833129883,9.46800518035889,1.2423859834671,0.121951997280121,2.13416004180908,-1109.10009765625,13.5000009536743,-914.100036621094,-2.08125838983353,-0.166008967278219,0.207782532794268,ST
15.1,-1.62814521789551,-2.14075374603271,9.31906795501709,1.21951997280121,0.335367977619171,1.60061991214752,-1092.30004882812,9.30000019073486,-909.300048828125,-2.0846109335519,-0.1696879354652,0.222600444201554,ST
15.1333333333333,-2.00497531890869,-1.99420869350433,9.31368446350098,1.31098401546478,0.0304879993200302,1.53964400291443,-1101.90002441406,14.7000007629395,-911.700012207031,-2.09317877596405,-0.206859629689467,0.208569298351651,ST
15.1666666666667,-1.97566628456116,-1.88115966320038,9.37409687042236,1.46342396736145,-0.0152439996600151,2.19513607025146,-1092.30004882812,6.30000019073486,-902.100036621094,-2.10423585067613,-0.204590372958533,0.195273100084525,ST
15.2,-1.54261076450348,-1.82433605194092,9.13184833526611,1.42531394958496,-0.487807989120483,2.46952795982361,-1099.5,1.5,-899.700012207031,-2.11565806305204,-0.165298041599149,0.193984371013084,ST
15.2333333333333,-1.64429497718811,-1.62515449523926,9.46860313415527,1.12043392658234,-0.594515979290009,2.39330792427063,-1101.90002441406,9.30000019073486,-902.100036621094,-2.13089321960639,-0.169076841599943,0.168145145336477,ST
15.2666666666667,-1.49655365943909,-1.40264523029327,9.14799880981445,1.53964400291443,-0.541162014007568,2.78965187072754,-1104.30004882812,11.1000003814697,-897.300048828125,-2.14645398091349,-0.160402432834853,0.149270981539969,ST
15.3,-1.31053125858307,-1.48040390014648,9.58165264129639,1.43293595314026,-0.152439996600151,2.84300589561462,-1104.30004882812,8.10000038146973,-892.500061035156,-2.15939957069478,-0.135556506854103,0.150082255688892,ST
15.3333333333333,-1.60960268974304,-1.29916656017303,9.98300647735596,1.79117000102997,0.0762199983000755,2.9344699382782,-1099.5,1.5,-914.100036621094,-2.17481004916533,-0.158371179612867,0.126492446181051,ST
15.3666666666667,-1.62096750736237,-1.36556041240692,9.93036937713623,1.58537602424622,0.160062000155449,3.01068997383118,-1089.90002441406,12.9000005722046,-902.100036621094,-2.18612333716416,-0.161174952955091,0.132783809357026,ST
15.4,-1.83450448513031,-1.01624488830566,10.0003519058228,1.73781597614288,0.236281991004944,2.83538389205933,-1104.30004882812,10.5,-906.900024414062,-2.20464438471402,-0.180926944795105,0.0982389445273303,ST
15.4333333333333,-1.50074076652527,-0.762632310390472,9.13663387298584,1.59299790859222,0.701223969459534,2.77440786361694,-1099.5,3.90000009536743,-906.900024414062,-2.2187321699727,-0.164560619289848,0.0804548140681658,ST
15.4666666666667,-1.65565979480743,-0.704014301300049,9.19704627990723,1.27287399768829,1.14329993724823,2.25611186027527,-1089.90002441406,4.5,-902.100036621094,-2.22894019039325,-0.179335451491886,0.0737501294493821,ST
15.5,-1.83809340000153,-0.648985147476196,9.15457820892334,1.40244793891907,1.47866797447205,1.57775402069092,-1092.30004882812,1.5,-899.700012207031,-2.23576084347059,-0.199757444333858,0.06800120041011,ST
15.5333333333333,-2.23047518730164,-0.597544848918915,9.50449180603027,1.34147191047668,1.265251994133,1.81403601169586,-1089.90002441406,8.70000076293945,-902.100036621094,-2.24448789514009,-0.231541905957114,0.059975833975212,ST
15.5666666666667,-1.8105788230896,-0.424083352088928,9.68034553527832,1.37958192825317,0.152439996600151,1.05183601379395,-1094.70007324219,6.90000009536743,-909.300048828125,-2.2520672527037,-0.186381512593934,0.0415532069827915,ST
15.6,-2.05641555786133,-0.223107323050499,9.24130916595459,1.01372599601746,0.0838419944047928,0.891773998737335,-1104.30004882812,1.5,-904.500061035156,-2.25909268093911,-0.218037866970992,0.0226557456678891,ST
15.6333333333333,-2.25141024589539,-0.287706762552261,9.30411434173584,-0.3125019967556,0.365855991840363,1.05945801734924,-1082.70007324219,11.1000003814697,-887.700012207031,-2.26231597708789,-0.237189382013433,0.0306794692371206,ST
15.6666666666667,-2.01394748687744,-0.370848655700684,9.64505577087402,-1.04421401023865,0.228659987449646,0.907018005847931,-1080.30004882812,2.70000004768372,-894.900024414062,-2.26572818961087,-0.20715016068579,0.0396253521150751,ST
15.7,-2.119220495224,-0.426475942134857,9.86158275604248,-1.10518991947174,0.0914639979600906,0.731711983680725,-1087.5,0.300000011920929,-897.300048828125,-2.26901944870969,-0.211516386301822,0.0446631399290767,ST
15.7333333333333,-1.85125243663788,-0.721360445022583,9.3956298828125,-0.960371971130371,0.663114011287689,0.0381099991500378,-1080.30004882812,8.10000038146973,-906.900024414062,-2.26334144167184,-0.195552607989675,0.0774741829375492,ST
15.7666666666667,-2.60790324211121,-0.758445262908936,9.63608360290527,-0.861285984516144,0.510673999786377,-0.320124000310898,-1077.90002441406,5.70000028610229,-904.500061035156,-2.2620382057309,-0.262178256275633,0.080131550440929,ST
15.8,-2.23765277862549,-0.82962429523468,10.1606550216675,-0.754577994346619,-0.518296003341675,0.487807989120483,-1092.30004882812,3.30000019073486,-899.700012207031,-2.26465195407725,-0.217145149108406,0.0824796401485032,ST
15.8333333333333,-1.56773269176483,-0.800315320491791,9.33402061462402,-0.411587983369827,-1.43293595314026,-0.342989981174469,-1092.30004882812,8.70000076293945,-902.100036621094,-2.26329966819067,-0.16545331303684,0.0861640734325527,ST
15.8666666666667,-1.71188521385193,-0.979758203029633,8.48645210266113,-0.746955990791321,0.647870004177094,-0.853663980960846,-1080.30004882812,8.10000038146973,-902.100036621094,-2.25425925892949,-0.19766704562293,0.115588198261866,ST
15.9,-2.54808902740479,-1.12032175064087,9.533203125,-0.990859985351562,0.556405961513519,-0.754577994346619,-1082.70007324219,1.5,-894.900024414062,-2.25093077947773,-0.257738209743888,0.118938644450531,ST
15.9333333333333,-2.94585418701172,-1.41400992870331,9.87713527679443,-0.823175966739655,-0.426831990480423,0.228659987449646,-1082.70007324219,5.70000028610229,-899.700012207031,-2.24690939150403,-0.285238892463186,0.142482368097158,ST
15.9666666666667,-2.31062626838684,-1.30335354804993,9.17670917510986,-0.571649968624115,-0.922261953353882,0.815553963184357,-1087.5,6.30000019073486,-911.700012207031,-2.25240733446394,-0.244110053680197,0.141691351034468,ST
16.0,-2.30464482307434,-1.19150078296661,8.74185943603516,-0.46494197845459,-0.335367977619171,0.78506600856781,-1101.90002441406,4.5,-909.300048828125,-2.25798603024136,-0.254668872907968,0.136139235277338,ST
16.0333333333333,-2.67011022567749,-1.36316788196564,10.1929540634155,0.0762199983000755,-0.823175966739655,1.31860601902008,-1087.5,6.30000019073486,-909.300048828125,-2.26517003314717,-0.252987233465993,0.132335843945005,ST
16.0666666666667,-2.63601613044739,-0.946860313415527,9.44886493682861,0.708845973014832,-1.49391198158264,1.02134799957275,-1080.30004882812,9.30000019073486,-899.700012207031,-2.2780281803701,-0.267740686539778,0.09948171298134,ST
16.1,-2.36744999885559,-0.885849714279175,9.03494930267334,0.609759986400604,-1.14329993724823,1.82165801525116,-1092.30004882812,4.5,-897.300048828125,-2.28679077003176,-0.254002140631004,0.0959426710407579,ST
16.1333333333333,-2.10067820549011,-1.22320234775543,10.1702251434326,-0.0685980021953583,-1.99696397781372,0.693601965904236,-1094.70007324219,6.90000009536743,-909.300048828125,-2.28607207031589,-0.200705806301576,0.118740875022465,ST
16.1666666666667,-2.11682796478271,-1.09579789638519,9.36811542510986,0.335367977619171,-2.52288198471069,0.160062000155449,-1099.5,12.3000001907349,-894.900024414062,-2.28839602590194,-0.215792587525461,0.115809517825794,ST
16.2,-2.30883193016052,-1.14065861701965,9.14082050323486,0.6250039935112,-0.99848198890686,0.198172003030777,-1094.70007324219,17.7000007629395,-897.300048828125,-2.2876450204165,-0.243103131215018,0.122715665931656,ST
16.2333333333333,-2.16587567329407,-1.21722090244293,9.27121639251709,1.05183601379395,-0.571649968624115,0.106707997620106,-1097.10009765625,6.90000009536743,-902.100036621094,-2.28600186455026,-0.227314649894294,0.128396511733087,ST
16.2666666666667,-2.38599228858948,-0.662742435932159,9.06246376037598,2.04269599914551,-0.975615978240967,0.297257989645004,-1104.30004882812,16.5,-916.500061035156,-2.29904291328819,-0.254250603978358,0.0711679904318503,ST
16.3,-2.33515024185181,-0.504234552383423,9.10134315490723,2.01220798492432,-0.655492007732391,0.777444005012512,-1121.10009765625,9.90000057220459,-899.700012207031,-2.30520754293851,-0.249862447450277,0.052098712049414,ST
16.3333333333333,-1.97267556190491,-0.215331465005875,9.58823204040527,1.43293595314026,-1.27287399768829,0.884151995182037,-1099.5,9.30000019073486,-904.500061035156,-2.31525782646218,-0.202060822164768,0.0205277454071725,ST
16.3666666666667,-1.45946884155273,0.0281127188354731,9.39682579040527,1.17378795146942,-1.86738991737366,0.990859985351562,-1121.10009765625,5.10000038146973,-894.900024414062,-2.32325895672235,-0.152905255011363,-0.0042720285337188,ST
16.4,-1.2357634305954,0.0071777156554162,9.04212760925293,0.731711983680725,-1.21189796924591,0.670735955238342,-1113.90002441406,-1.5,-899.700012207031,-2.32554912699788,-0.13448757649715,-0.0023137746570639,ST
16.4333333333333,-1.77768087387085,0.0328978635370731,9.99317455291748,0.457319974899292,-0.114329993724823,0.266770005226135,-1111.5,6.90000009536743,-892.500061035156,-2.32669750138412,-0.17416548800629,-0.0040941925154931,ST
16.4666666666667,-1.96071267127991,0.102880589663982,9.80954456329346,0.37347799539566,0.0381099991500378,-0.228659987449646,-1106.70007324219,4.5,-904.500061035156,-2.326572324843,-0.196397314565806,-0.010777156013974,ST
16.5,-2.36984252929688,-0.0322997197508812,10.2641334533691,-0.0152439996600151,0.548784017562866,-0.945127964019775,-1111.5,6.30000019073486,-902.100036621094,-2.31945223179983,-0.22658740350593,0.0029627665468455,ST
16.5333333333333,-2.38838481903076,-0.382811486721039,10.1008405685425,-0.25152599811554,0.327746003866196,-1.78354799747467,-1109.10009765625,3.90000009536743,-902.100036621094,-2.30352605909137,-0.232287807699885,0.0377585190188447,ST
16.5666666666667,-1.8327100276947,-0.291893780231476,9.02896785736084,-0.0304879993200302,0.190549999475479,-2.4847719669342,-1106.70007324219,1.5,-894.900024414062,-2.29259346896387,-0.201360610803826,0.0334139644490322,ST
16.6,-2.06000447273254,-0.172863319516182,9.30949687957764,0.0990860015153885,0.137196004390717,-2.64483404159546,-1092.30004882812,3.30000019073486,-897.300048828125,-2.28336100320614,-0.217205050726892,0.0199742631477179,ST
16.6333333333333,-1.78545677661896,-0.0699827298521996,8.73109340667725,0.289635986089706,-0.510673999786377,-3.02593398094177,-1101.90002441406,7.50000047683716,-892.500061035156,-2.27173739753074,-0.201427684803719,0.0090568523032598,ST
16.6666666666667,-2.04385447502136,-0.403148353099823,8.85969352722168,-0.25152599811554,-0.769822001457214,-3.23172783851624,-1097.10009765625,1.5,-902.100036621094,-2.24983750029188,-0.223976405500204,0.0456119825522416,ST
16.7,-1.6783891916275,-0.733921408653259,9.85500335693359,-1.01372599601746,-1.60824191570282,-3.42989993095398,-1111.5,1.5,-880.500061035156,-2.22979666390904,-0.16739611144635,0.0758545565926488,ST
16.7333333333333,-1.64728569984436,-0.773398876190186,10.1433086395264,-1.17378795146942,-1.44817996025085,-3.83386588096619,-1101.90002441406,10.5,-902.100036621094,-2.21229361589406,-0.157806890796844,0.079079862781422,ST
16.7666666666667,-1.50851655006409,-1.17056584358215,10.0661478042603,-1.37195992469788,-0.365855991840363,-3.46800994873047,-1113.90002441406,3.30000019073486,-906.900024414062,-2.19093753886691,-0.146815231215488,0.117777495668564,ST
16.8,-1.42537474632263,-1.35120499134064,9.65283107757568,-1.79117000102997,0.495429992675781,-3.98630595207214,-1104.30004882812,9.30000019073486,-906.900024414062,-2.16919096963374,-0.145151154503476,0.142418990629087,ST
16.8333333333333,-1.56175124645233,-1.46186137199402,9.50449180603027,-1.79117000102997,0.823175966739655,-3.7805118560791,-1101.90002441406,7.50000047683716,-902.100036621094,-2.15077905936525,-0.160747052842122,0.156233215949249,ST
16.8666666666667,-1.27882969379425,-1.42657101154327,9.13543796539307,-1.29574000835419,0.129574000835419,-3.14788603782654,-1113.90002441406,7.50000047683716,-887.700012207031,-2.1354936117662,-0.137391201327071,0.157892421930104,ST
16.9,-1.0634982585907,-1.73401641845703,8.88182544708252,-1.50915598869324,0.510673999786377,-2.95733594894409,-1106.70007324219,5.10000038146973,-899.700012207031,-2.11673501417218,-0.117455173298694,0.194998257346293,ST
16.9333333333333,-1.37572884559631,-1.75973665714264,9.341796875,-1.49391198158264,-0.0533539988100529,-2.85824990272522,-1101.90002441406,6.90000009536743,-906.900024414062,-2.10450152956538,-0.141980103902385,0.189641298047219,ST
16.9666666666667,-1.17953789234161,-1.92123520374298,9.54038047790527,-1.09756803512573,-0.708845973014832,-1.82927989959717,-1099.5,11.7000007629395,-899.700012207031,-2.09615396110283,-0.119712315995907,0.200532546228767,ST
17.0,-1.32488667964935,-1.94874978065491,9.63309288024902,-1.12805593013763,-0.46494197845459,-1.62348592281342,-1106.70007324219,11.7000007629395,-902.100036621094,-2.08924312136595,-0.132270408860765,0.201878762695758,ST
17.0333333333333,-1.36316788196564,-2.26696181297302,9.81732082366943,-0.87652999162674,-0.144817993044853,-1.265251994133,-1101.90002441406,12.9000005722046,-914.100036621094,-2.08053250570464,-0.133691447276129,0.22789211751754,ST
17.0666666666667,-1.37333631515503,-2.32677626609802,9.6761589050293,-0.602137982845306,0.129574000835419,-1.39482593536377,-1109.10009765625,6.30000019073486,-904.500061035156,-2.07279268008341,-0.136693568134304,0.237100889884891,ST
17.1,-1.7525589466095,-2.10785579681396,9.73477649688721,0.350611984729767,-0.0228659994900227,-0.556405961513519,-1111.5,11.7000007629395,-902.100036621094,-2.07348322350737,-0.172876746945867,0.213475335119306,ST
17.1333333333333,-1.27284824848175,-2.08093929290771,8.86447906494141,0.87652999162674,0.221037998795509,0.518296003341675,-1106.70007324219,13.5000009536743,-904.500061035156,-2.07263443654607,-0.140827086185674,0.228308047000529,ST
17.1666666666667,-1.38529908657074,-2.0731635093689,9.34718036651611,0.586893975734711,0.0762199983000755,0.0304879993200302,-1094.70007324219,11.7000007629395,-902.100036621094,-2.07381539997602,-0.143711245432085,0.217684497901433,ST
17.2,-1.72683870792389,-1.99480676651001,9.401611328125,0.754577994346619,-0.609759986400604,1.15854394435883,-1111.5,6.30000019073486,-914.100036621094,-2.08054495432479,-0.175797217347808,0.207798828941579,ST
17.2333333333333,-1.73521280288696,-1.9589182138443,9.38665771484375,0.480185985565186,-0.632625997066498,1.45580196380615,-1089.90002441406,6.90000009536743,-904.500061035156,-2.08777439192526,-0.178351445373686,0.204550117107327,ST
17.2666666666667,-0.860727727413177,-2.08751893043518,8.90395641326904,-0.449698001146317,-1.59299790859222,2.54574799537659,-1109.10009765625,15.9000005722046,-904.500061035156,-2.09757277644357,-0.0956370507849112,0.229508142229314,ST
17.3,-0.630442678928375,-2.42726421356201,9.34478759765625,-1.16616594791412,-1.76068198680878,1.95123195648193,-1097.10009765625,14.1000003814697,-916.500061035156,-2.10661802077822,-0.0644019917085446,0.254816981054115,ST
17.3333333333333,-0.884653449058533,-2.45717144012451,9.41895771026611,-0.983237981796265,-1.17378795146942,1.59299790859222,-1109.10009765625,11.1000003814697,-918.900024414062,-2.11528853777104,-0.0883406946657236,0.256556263782042,ST
17.3666666666667,-0.736313998699188,-2.73949480056763,9.85141468048096,-0.533540010452271,-0.647870004177094,1.39482593536377,-1106.70007324219,9.90000057220459,-894.900024414062,-2.12210781806944,-0.0718655459041471,0.271582953453011,ST
17.4,-1.05811488628387,-2.67011022567749,10.0978498458862,0.442075997591019,-0.342989981174469,0.922261953353882,-1094.70007324219,19.5,-904.500061035156,-2.12756879326017,-0.0996196895073759,0.258142049962872,ST
17.4333333333333,-1.15501403808594,-2.40752553939819,9.64984035491943,1.43293595314026,0.358233988285065,0.967993974685669,-1109.10009765625,15.3000001907349,-904.500061035156,-2.13241886825156,-0.115939737393807,0.242489759168666,ST
17.4666666666667,-1.75196075439453,-2.04146194458008,9.61155986785889,1.80641400814056,1.30336201190948,1.04421401023865,-1101.90002441406,6.90000009536743,-899.700012207031,-2.13992329258406,-0.177483385540913,0.206824224596239,ST
