seconds,sensor_accX_m_s_,sensor_accY_m_s_,sensor_accZ_m_s_,sensor_gyroX___s_,sensor_gyroY___s_,sensor_gyroZ___s_,sensor_magX__T_,sensor_magY__T_,sensor_magZ__T_,sensor_yaw___,sensor_pitch___,sensor_roll___,label5
0.0,-2.15391278266907,-1.64728569984436,9.28557109832764,0.335367977619171,-0.297257989645004,0.198172003030777,-1039.5,2.70000004768372,-880.500061035156,2.95446840974601,-0.224093696327771,0.174890548533322,ST
0.0333333333333333,-2.19757723808289,-1.65087461471558,9.32325458526611,0.365855991840363,-0.213415995240211,0.358233988285065,-1046.70007324219,6.30000019073486,-875.700012207031,2.95053062511143,-0.227802138654601,0.174457782949714,ST
0.0666666666666667,-2.17544603347778,-1.61797678470612,9.20781326293945,0.442075997591019,-0.327746003866196,0.548784017562866,-1053.90002441406,0.900000035762787,-878.100036621094,2.94413324504086,-0.228228537030284,0.172928574046579,ST
0.1,-2.2472231388092,-1.59943425655365,9.18867206573486,0.396344006061554,-0.3125019967556,0.739333987236023,-1041.90002441406,5.70000028610229,-873.300048828125,2.93606665347955,-0.236115153153467,0.171319577238061,ST
0.133333333333333,-2.20056796073914,-1.56952714920044,9.35734844207764,0.419209986925125,-0.388722002506256,0.830797970294952,-1041.90002441406,0.300000011920929,-885.300048828125,2.9258194240667,-0.22747281893292,0.16509842280672,ST
0.166666666666667,-2.06239700317383,-1.5683308839798,9.14859676361084,0.449698001146317,-0.510673999786377,0.510673999786377,-1053.90002441406,1.5,-885.300048828125,2.92096765166165,-0.217913594365107,0.16876460925234,ST
0.2,-2.1491277217865,-1.50851655006409,9.23173904418945,0.411587983369827,-0.434453994035721,0.403965979814529,-1037.10009765625,6.30000019073486,-887.700012207031,2.91468254313653,-0.225195240444417,0.161069197640446,ST
0.233333333333333,-2.09469676017761,-1.61558413505554,9.25686073303223,0.442075997591019,-0.503051996231079,0.282013982534409,-1051.5,-2.10000014305115,-878.100036621094,2.91408588400035,-0.218551678090625,0.171871561389458,ST
0.266666666666667,-2.2113344669342,-1.59584546089172,9.26104736328125,0.426831990480423,-0.449698001146317,0.221037998795509,-1046.70007324219,8.10000038146973,-890.100036621094,2.91143553306369,-0.230393439376658,0.169777522085931,ST
0.3,-2.16049242019653,-1.53662931919098,9.2281494140625,0.495429992675781,-0.419209986925125,0.25152599811554,-1044.30004882812,5.70000028610229,-885.300048828125,2.90778819230643,-0.226311928915598,0.164010873072309,ST
0.333333333333333,-2.11383724212646,-1.59106028079987,9.2347297668457,0.548784017562866,-0.46494197845459,0.342989981174469,-1049.10009765625,2.10000014305115,-887.700012207031,2.9055201700836,-0.221166016618371,0.169493470435531,ST
0.366666666666667,-2.10665965080261,-1.53304040431976,9.34418964385986,0.525918006896973,-0.564027965068817,0.205793991684914,-1041.90002441406,3.30000019073486,-882.900024414062,2.90179928821109,-0.217999076595322,0.161585698096403,ST
0.4,-2.07675242424011,-1.48518896102905,9.329833984375,0.556405961513519,-0.457319974899292,0.167683988809586,-1053.90002441406,9.90000057220459,-885.300048828125,2.89947339469497,-0.215641441559624,0.156802204877184,ST
0.433333333333333,-2.19757723808289,-1.39845824241638,9.28916072845459,0.571649968624115,-0.320124000310898,0.365855991840363,-1049.10009765625,6.90000009536743,-882.900024414062,2.89447707532211,-0.2293427999362,0.148263502417636,ST
0.466666666666667,-2.19757723808289,-1.31950342655182,9.30411434173584,0.510673999786377,-0.411587983369827,0.609759986400604,-1051.5,4.5,-882.900024414062,2.88626675030749,-0.229162824908666,0.139721352900122,ST
0.5,-2.01574182510376,-1.41879510879517,9.15398025512695,0.297257989645004,-0.571649968624115,0.548784017562866,-1046.70007324219,3.90000009536743,-885.300048828125,2.88284387898802,-0.213430512211265,0.153007115105972,ST
0.533333333333333,-2.04564905166626,-1.44630968570709,9.29932880401611,0.144817993044853,-0.525918006896973,0.381099998950958,-1070.70007324219,6.30000019073486,-880.500061035156,2.87823220101462,-0.213230446440166,0.15386635936109,ST
0.566666666666667,-2.00617146492004,-1.51629245281219,9.329833984375,0.167683988809586,-0.510673999786377,0.304879993200302,-1053.90002441406,6.90000009536743,-887.700012207031,2.87575131310489,-0.208346277719106,0.160676003590572,ST
0.6,-2.03428435325623,-1.53124594688416,9.32923603057861,0.160062000155449,-0.342989981174469,0.221037998795509,-1044.30004882812,9.30000019073486,-868.500061035156,2.87339545812093,-0.211414569524723,0.162301157124305,ST
0.633333333333333,-2.00676965713501,-1.58089184761047,9.33820819854736,0.221037998795509,-0.25152599811554,0.228659987449646,-1056.30004882812,3.90000009536743,-878.100036621094,2.87193697079979,-0.208430432531484,0.167216642835919,ST
0.666666666666667,-2.03368616104126,-1.62515449523926,9.27958965301514,0.228659987449646,-0.182927995920181,0.236281991004944,-1058.70007324219,3.30000019073486,-878.100036621094,2.87069766240975,-0.212364031863265,0.172873461431696,ST
0.7,-2.01215291023254,-1.64429497718811,9.29633808135986,0.228659987449646,-0.144817993044853,0.236281991004944,-1041.90002441406,6.30000019073486,-880.500061035156,2.86869812509438,-0.209818784472489,0.174569403250634,ST
0.733333333333333,-2.04684519767761,-1.62814521789551,9.26942157745361,0.358233988285065,-0.198172003030777,0.304879993200302,-1056.30004882812,7.50000047683716,-873.300048828125,2.86532620565309,-0.213902778579328,0.17312146268252,ST
0.766666666666667,-2.04983592033386,-1.64070618152618,9.28437519073486,0.426831990480423,-0.198172003030777,0.396344006061554,-1051.5,5.10000038146973,-875.700012207031,2.86177699878822,-0.213862214321742,0.174004803492828,ST
0.8,-1.95652568340302,-1.58388257026672,9.28018856048584,0.472563982009888,-0.342989981174469,0.426831990480423,-1037.10009765625,3.90000009536743,-882.900024414062,2.85625844766028,-0.204443935181454,0.168048730133372,ST
0.833333333333333,-2.03966760635376,-1.60122871398926,9.25626277923584,0.426831990480423,-0.304879993200302,0.434453994035721,-1049.10009765625,9.30000019073486,-870.900024414062,2.85184237088918,-0.21341502413752,0.170366685064992,ST
0.866666666666667,-1.99361050128937,-1.56713461875916,9.33282470703125,0.381099998950958,-0.350611984729767,0.449698001146317,-1051.5,10.5,-882.900024414062,2.84579667742684,-0.207154519663377,0.165516160075669,ST
0.9,-1.93618881702423,-1.63532292842865,9.27001953125,0.327746003866196,-0.228659987449646,0.419209986925125,-1041.90002441406,6.90000009536743,-873.300048828125,2.84276260356636,-0.202594462138032,0.173877919444343,ST
0.933333333333333,-1.99181604385376,-1.61558413505554,9.42493915557861,0.381099998950958,-0.259148001670837,0.426831990480423,-1039.5,6.90000009536743,-863.700012207031,2.83688880347127,-0.20503935947428,0.168932676381767,ST
0.966666666666667,-1.9128612279892,-1.62156558036804,9.18747615814209,0.46494197845459,-0.266770005226135,0.525918006896973,-1058.70007324219,3.30000019073486,-870.900024414062,2.8325614082697,-0.20193243362136,0.17368350108876,ST
1.0,-2.07077097892761,-1.56653642654419,9.25626277923584,0.381099998950958,-0.129574000835419,0.670735955238342,-1049.10009765625,5.10000038146973,-887.700012207031,2.82375027713345,-0.217071844266986,0.166725000484041,ST
1.03333333333333,-2.0432562828064,-1.60481762886047,9.27480506896973,0.335367977619171,-0.121951997280121,0.716467976570129,-1051.5,0.900000035762787,-882.900024414062,2.81719194349682,-0.213763309936321,0.170471417630399,ST
1.06666666666667,-2.03906941413879,-1.60601389408112,9.26882362365723,0.434453994035721,-0.388722002506256,0.617381989955902,-1056.30004882812,4.5,-885.300048828125,2.80988269773981,-0.212974549788147,0.170554151433948,ST
1.1,-2.15451097488403,-1.6263507604599,9.18807411193848,0.411587983369827,-0.381099998950958,0.693601965904236,-1065.90002441406,3.90000009536743,-870.900024414062,2.80309143065723,-0.226475052567135,0.174171458875246,ST
1.13333333333333,-2.19159579277039,-1.68676316738129,9.23712158203125,0.350611984729767,-0.487807989120483,0.670735955238342,-1056.30004882812,11.7000007629395,-873.300048828125,2.79687304116479,-0.228666144511666,0.179699584305087,ST
1.16666666666667,-2.37223505973816,-1.7405960559845,9.14799880981445,0.457319974899292,-0.617381989955902,0.807931959629059,-1044.30004882812,7.50000047683716,-873.300048828125,2.78968994563374,-0.248638078927277,0.186819857823112,ST
1.2,-2.81964588165283,-1.84527111053467,8.9835090637207,0.632625997066498,-0.907018005847931,1.06708002090454,-1056.30004882812,6.30000019073486,-878.100036621094,2.78201852590484,-0.297082188556104,0.200824007136024,ST
1.23333333333333,-3.18331694602966,-1.82433605194092,8.85909557342529,0.853663980960846,-1.28049600124359,1.47104597091675,-1044.30004882812,5.70000028610229,-866.100036621094,2.76525582112528,-0.336721428071449,0.200561131188074,ST
1.26666666666667,-3.14862465858459,-1.64429497718811,8.21669006347656,0.983237981796265,-2.14940404891968,1.91312193870544,-1068.30004882812,5.70000028610229,-885.300048828125,2.7409937043017,-0.356388679020978,0.194299639377216,ST
1.3,-3.34541368484497,-1.47023546695709,8.584547996521,0.731711983680725,-1.71494996547699,2.17989206314087,-1056.30004882812,5.70000028610229,-887.700012207031,2.70728597524046,-0.364411818481242,0.166726188891996,ST
1.33333333333333,-3.01404237747192,-1.45946884155273,8.91292858123779,0.724089980125427,-1.82165801525116,1.93598794937134,-1068.30004882812,6.90000009536743,-870.900024414062,2.68164328588708,-0.319504476322422,0.159770637586595,ST
1.36666666666667,-2.95602250099182,-1.30574607849121,8.71374702453613,0.541162014007568,-2.05031800270081,1.57775402069092,-1073.10009765625,6.30000019073486,-882.900024414062,2.65911936839311,-0.32055381098339,0.146721813888758,ST
1.4,-2.7622241973877,-1.39666378498077,8.96975231170654,0.221037998795509,-1.97409796714783,1.39482593536377,-1056.30004882812,11.1000003814697,-873.300048828125,2.64333081528701,-0.292356510709593,0.153196057881296,ST
1.43333333333333,-2.48707842826843,-1.40443968772888,9.00504207611084,0.190549999475479,-2.33233189582825,1.13567793369293,-1065.90002441406,5.70000028610229,-870.900024414062,2.62761030855818,-0.262692567780506,0.153686773283646,ST
1.46666666666667,-2.18023109436035,-1.46724474430084,8.5666036605835,-0.0,-2.69818782806396,0.922261953353882,-1075.5,7.50000047683716,-880.500061035156,2.6148836201376,-0.241410622593795,0.16904053800151,ST
1.5,-2.34531855583191,-1.50911474227905,8.96377086639404,0.0228659994900227,-2.78965187072754,0.731711983680725,-1075.5,6.90000009536743,-878.100036621094,2.60103705308321,-0.247913481350641,0.166230655172646,ST
1.53333333333333,-1.95532941818237,-1.64848208427429,9.06007194519043,0.205793991684914,-3.10215401649475,0.602137982845306,-1085.10009765625,13.5000009536743,-878.100036621094,2.59160156898758,-0.204099057025771,0.179202974341772,ST
1.56666666666667,-1.46245956420898,-1.63472473621368,9.09954929351807,0.495429992675781,-3.20886182785034,0.289635986089706,-1092.30004882812,2.70000004768372,-880.500061035156,2.58238751335664,-0.151478527491192,0.17666172358904,ST
1.6,-1.40623414516449,-1.66104304790497,9.11031532287598,0.945127964019775,-2.69818782806396,0.0685980021953583,-1101.90002441406,1.5,-875.700012207031,2.57804003057662,-0.14609047494562,0.178552725958745,ST
1.63333333333333,-1.15740668773651,-1.8685986995697,9.61275577545166,1.07470202445984,-2.43141794204712,-0.121951997280121,-1111.5,9.90000057220459,-870.900024414062,2.5771529282858,-0.113448752167432,0.190045045312141,ST
1.66666666666667,-0.725547432899475,-1.73820352554321,9.39682579040527,1.31860601902008,-2.98020195960999,-0.655492007732391,-1097.10009765625,3.30000019073486,-868.500061035156,2.57880257570783,-0.0704641850283698,0.180623157447439,ST
1.7,-0.363670915365219,-1.80818617343903,9.52841758728027,1.21189796924591,-2.00458598136902,-0.320124000310898,-1104.30004882812,15.3000001907349,-880.500061035156,2.57897362330846,-0.0339434373415398,0.185418439738724,ST
1.73333333333333,-0.430064797401428,-1.81955087184906,10.1421117782593,1.30336201190948,-1.74543797969818,-0.358233988285065,-1099.5,6.30000019073486,-856.500061035156,2.57969958826863,-0.0386031157973081,0.175248619429272,ST
1.76666666666667,-0.28411790728569,-1.72085738182068,10.4322118759155,1.82927989959717,-1.41006994247437,0.0381099991500378,-1097.10009765625,3.30000019073486,-878.100036621094,2.57665132818472,-0.024449810753926,0.160283473809064,ST
1.8,-0.14056359231472,-1.59524726867676,10.4710912704468,2.14940404891968,-1.10518991947174,0.266770005226135,-1099.5,-5.70000028610229,-870.900024414062,2.57153921157998,-0.0114329148482657,0.147427537403545,ST
1.83333333333333,0.1214230209589,-1.58507883548737,10.3048067092896,2.28659987449646,-0.548784017562866,0.274392008781433,-1111.5,1.5,-880.500061035156,2.56724333782846,0.0125141151186684,0.148639571898129,ST
1.86666666666667,0.0753660127520561,-1.46365582942963,10.2683200836182,2.15702605247498,-0.190549999475479,-0.0381099991500378,-1116.30004882812,1.5,-873.300048828125,2.56727433923209,0.0076063312991451,0.137825865427847,ST
1.9,-0.251220047473907,-1.23396897315979,10.5817470550537,1.75305998325348,-0.0762199983000755,0.472563982009888,-1099.5,8.10000038146973,-875.700012207031,2.56149147679535,-0.0235335534709371,0.113012662302855,ST
1.93333333333333,-0.227892473340034,-1.18910825252533,10.3580417633057,1.2423859834671,-0.129574000835419,0.655492007732391,-1106.70007324219,-0.300000011920929,-870.900024414062,2.55411728120794,-0.021758355796037,0.11210672933728,ST
1.96666666666667,-0.835007607936859,-0.82663357257843,10.6032800674438,0.304879993200302,-0.777444005012512,0.960371971130371,-1116.30004882812,2.70000004768372,-875.700012207031,2.5395080367087,-0.0771219806064309,0.077136897332594,ST
2.0,-0.321202784776688,-0.82364284992218,10.5033903121948,-0.243903994560242,-1.44055795669556,0.769822001457214,-1116.30004882812,3.90000009536743,-880.500061035156,2.52935292844129,-0.0280931786544341,0.0786385188585738,ST
2.03333333333333,-0.0640012994408607,-1.31651270389557,9.90883636474609,-0.716467976570129,-1.09756803512573,-0.533540010452271,-1101.90002441406,2.70000004768372,-870.900024414062,2.53469702449734,-0.0043882670564191,0.133324164460058,ST
2.06666666666667,-0.534739792346954,-1.68377244472504,10.4764738082886,-0.846041977405548,-0.6250039935112,-2.0731840133667,-1109.10009765625,-3.90000009536743,-878.100036621094,2.55746508760748,-0.0486814081298036,0.160989096185049,ST
2.1,-0.66334056854248,-1.62814521789551,10.242600440979,-0.129574000835419,-0.434453994035721,-2.32470989227295,-1109.10009765625,3.30000019073486,-873.300048828125,2.58281716748327,-0.0624804953240986,0.158109330929213,ST
2.13333333333333,-0.923532724380493,-1.3440272808075,10.0087261199951,0.861285984516144,0.327746003866196,-1.80641400814056,-1111.5,-0.900000035762787,-866.100036621094,2.60274043217813,-0.0913394992939077,0.132285201420004,ST
2.16666666666667,-0.390587359666824,-1.15501403808594,8.90275955200195,1.6920839548111,0.594515979290009,-0.754577994346619,-1106.70007324219,-0.300000011920929,-875.700012207031,2.6140540224464,-0.0443490082904179,0.126127290577728,ST
2.2,-1.22260427474976,-0.753062009811401,8.71913051605225,1.47866797447205,1.11281192302704,0.289635986089706,-1109.10009765625,-0.300000011920929,-861.300048828125,2.61009942755813,-0.140748569534854,0.083541036030258,ST
2.23333333333333,-1.63711726665497,-0.565843224525452,8.83995532989502,1.43293595314026,1.07470202445984,2.31708788871765,-1111.5,5.10000038146973,-878.100036621094,2.58388196894434,-0.184858721318221,0.0606973734782395,ST
2.26666666666667,-1.03777801990509,-0.581394970417023,8.36323547363281,0.868907988071442,0.228659987449646,2.27135586738586,-1104.30004882812,0.900000035762787,-878.100036621094,2.56053575354725,-0.123848227063519,0.0673980060961028,ST
2.3,-0.976767480373383,-0.906186580657959,8.95898532867432,0.0914639979600906,-0.221037998795509,1.97409796714783,-1111.5,-1.5,-870.900024414062,2.54171034735946,-0.108016488195797,0.100258834590308,ST
2.33333333333333,-1.14484560489655,-0.899008870124817,9.37648963928223,0.0457319989800453,-0.632625997066498,1.71494996547699,-1109.10009765625,5.10000038146973,-870.900024414062,2.52096640971647,-0.120127996362436,0.0951364364142943,ST
2.36666666666667,-0.991122901439667,-0.934299349784851,9.26104736328125,-0.0609759986400604,-0.449698001146317,1.6920839548111,-1106.70007324219,-0.900000035762787,-868.500061035156,2.50167905946249,-0.105599967197791,0.100329398323623,ST
2.4,-1.59763991832733,-0.948056638240814,9.13184833526611,-0.0228659994900227,0.617381989955902,2.32470989227295,-1116.30004882812,1.5,-875.700012207031,2.47640364020378,-0.173757317966606,0.102799064684972,ST
2.43333333333333,-1.78784930706024,-1.23516523838043,9.35495567321777,-0.0076219998300075,0.983237981796265,2.60672402381897,-1097.10009765625,-9.90000057220459,-868.500061035156,2.45351062662063,-0.189536178879926,0.130455968854707,ST
2.46666666666667,-2.25978422164917,-1.12570512294769,9.41596698760986,0.25152599811554,0.800309956073761,2.41617393493652,-1109.10009765625,-4.5,-880.500061035156,2.42254697549286,-0.235812386387332,0.117584177912112,ST
2.5,-2.1252019405365,-0.810483753681183,9.11928749084473,0.37347799539566,0.792688012123108,2.9344699382782,-1106.70007324219,-2.70000004768372,-868.500061035156,2.38447014495877,-0.229915013472851,0.0868357559608478,ST
2.53333333333333,-2.15750169754028,-0.915158748626709,9.28258037567139,0.175305992364883,0.868907988071442,2.94971394538879,-1092.30004882812,0.900000035762787,-873.300048828125,2.35517853576623,-0.22931283276282,0.0968008145046629,ST
2.56666666666667,-2.40692734718323,-0.842783451080322,9.52363204956055,-0.213415995240211,0.78506600856781,2.75154185295105,-1094.70007324219,-0.300000011920929,-880.500061035156,2.32251465171926,-0.248401296657524,0.0874571757309092,ST
2.6,-2.32438349723816,-0.721958577632904,9.39144325256348,-0.236281991004944,0.617381989955902,2.95733594894409,-1097.10009765625,3.90000009536743,-878.100036621094,2.28660770430517,-0.243405446012151,0.0758819103161834,ST
2.63333333333333,-2.23585844039917,-0.869101762771606,9.82031154632568,-0.518296003341675,0.731711983680725,2.66770005226135,-1094.70007324219,2.70000004768372,-866.100036621094,2.25805445630722,-0.224704072907702,0.0881375692756369,ST
2.66666666666667,-1.8045973777771,-0.943869590759277,9.74673938751221,-0.396344006061554,0.67835795879364,2.14940404891968,-1094.70007324219,2.70000004768372,-866.100036621094,2.23394800723735,-0.183789245335808,0.0965555940261142,ST
2.7,-2.11383724212646,-1.00308573246002,10.0039415359497,0.129574000835419,0.442075997591019,1.21189796924591,-1097.10009765625,3.90000009536743,-873.300048828125,2.22166913113567,-0.208197252055019,0.0992797567106208,ST
2.73333333333333,-2.4697322845459,-0.79074501991272,9.94651985168457,0.724089980125427,0.236281991004944,1.37958192825317,-1101.90002441406,3.30000019073486,-873.300048828125,2.20357282622145,-0.243229750736601,0.0774890500991796,ST
2.76666666666667,-2.39317011833191,-0.738108456134796,9.52423095703125,1.18140995502472,0.457319974899292,1.42531394958496,-1099.5,5.10000038146973,-870.900024414062,2.19070636506052,-0.246449812505654,0.0746739580032465,ST
2.8,-2.77837419509888,-0.650181412696838,9.2281494140625,1.08994603157043,0.0990860015153885,0.975615978240967,-1099.5,10.5,-885.300048828125,2.18154595829801,-0.292038574177667,0.0679325567131979,ST
2.83333333333333,-3.92142534255981,-0.25839775800705,9.78262805938721,0.884151995182037,-1.29574000835419,0.78506600856781,-1085.10009765625,2.10000014305115,-875.700012207031,2.16193183704926,-0.378868221543704,0.0243107692300388,ST
2.86666666666667,-3.58048391342163,-0.101086162030697,8.58933353424072,1.09756803512573,-2.62196803092957,0.990859985351562,-1109.10009765625,6.90000009536743,-875.700012207031,2.14977678620693,-0.390363642820373,0.0091216874784304,ST
2.9,-2.87946033477783,-0.177050322294235,7.96726417541504,0.167683988809586,-2.27135586738586,1.17378795146942,-1109.10009765625,6.30000019073486,-882.900024414062,2.14120096318163,-0.342817304589212,0.0211603831384711,ST
2.93333333333333,-2.46434903144836,-0.684275567531586,9.24489784240723,-0.564027965068817,-2.14940404891968,0.472563982009888,-1097.10009765625,-0.300000011920929,-873.300048828125,2.14763246792602,-0.256158636565322,0.0745712380461324,ST
2.96666666666667,-1.89790761470795,-0.758445262908936,8.89737701416016,-0.396344006061554,-2.43141794204712,-0.3125019967556,-1111.5,2.70000004768372,-870.900024414062,2.1504344178344,-0.205166012777349,0.0857642792792616,ST
3.0,-1.41999137401581,-1.17475283145905,8.69041919708252,-0.655492007732391,-2.11129403114319,-1.01372599601746,-1113.90002441406,-1.5,-878.100036621094,2.16654371536086,-0.156657390981962,0.135690172230501,ST
3.03333333333333,-1.75076448917389,-1.04794645309448,9.57567119598389,-0.335367977619171,-1.73019397258759,-1.6615959405899,-1116.30004882812,2.10000014305115,-882.900024414062,2.17812326624208,-0.176460274600479,0.110053869248612,ST
3.06666666666667,-1.10058307647705,-1.38828980922699,9.27301025390625,-0.556405961513519,-1.64635193347931,-1.94360995292664,-1111.5,5.10000038146973,-861.300048828125,2.2034978794515,-0.113507711242257,0.14990735517987,ST
3.1,-1.49715185165405,-0.923532724380493,9.25985145568848,-0.46494197845459,-1.28811800479889,-2.13416004180908,-1116.30004882812,7.50000047683716,-882.900024414062,2.21864793514724,-0.156890569000669,0.100784990325586,ST
3.13333333333333,-0.931906759738922,-1.35120499134064,9.47578048706055,-0.304879993200302,-0.861285984516144,-1.2347639799118,-1116.30004882812,6.30000019073486,-875.700012207031,2.23618233035014,-0.0952824340971531,0.142343090745698,ST
3.16666666666667,-0.647788822650909,-1.49117040634155,10.0242776870728,-1.05183601379395,-1.31860601902008,-2.15702605247498,-1123.5,0.300000011920929,-868.500061035156,2.25822560668407,-0.0610061527330401,0.149713366173621,ST
3.2,-1.22679126262665,-1.1556122303009,10.3137788772583,-0.335367977619171,-1.45580196380615,-2.00458598136902,-1125.90002441406,2.70000004768372,-868.500061035156,2.27538286178535,-0.114725196884269,0.112545421527786,ST
3.23333333333333,-0.286510497331619,-1.54859220981598,9.62292385101318,-0.67835795879364,-0.365855991840363,-1.33385002613068,-1109.10009765625,8.70000076293945,-863.700012207031,2.29303623061167,-0.0284131795114396,0.160790309478919,ST
3.26666666666667,-0.807493031024933,-1.49954438209534,9.89866828918457,-0.388722002506256,-0.152439996600151,-1.79879200458527,-1113.90002441406,5.10000038146973,-878.100036621094,2.31235734456742,-0.0797281252913312,0.151272312893943,ST
3.3,-0.75246387720108,-1.71427774429321,9.55114650726318,-0.434453994035721,1.15092194080353,-0.899396002292633,-1111.5,8.10000038146973,-878.100036621094,2.32805290744931,-0.0790868142061614,0.178499220667451,ST
3.33333333333333,-0.852951884269714,-1.79024195671082,9.36332988739014,-0.274392008781433,0.937505960464478,-1.265251994133,-1128.30004882812,2.70000004768372,-866.100036621094,2.34498375145365,-0.0904235254518549,0.189616714556548,ST
3.36666666666667,-1.65207087993622,-1.93259990215302,8.73587799072266,-0.0,2.19513607025146,-0.685979962348938,-1111.5,10.5,-868.500061035156,2.3618017730318,-0.186041947235077,0.218084644176519,ST
3.4,-0.767417430877686,-1.81416761875153,9.22575759887695,0.792688012123108,1.63110792636871,-0.243903994560242,-1104.30004882812,-0.900000035762787,-868.500061035156,2.36591281401824,-0.0841760632031223,0.19286873443133,ST
3.43333333333333,-1.27225005626678,-1.41879510879517,9.09835243225098,1.32622802257538,1.57775402069092,0.106707997620106,-1097.10009765625,2.70000004768372,-878.100036621094,2.36525181340867,-0.140034302881707,0.152420398690095,ST
3.46666666666667,-1.40085089206696,-1.24174475669861,9.36213397979736,1.44817996025085,1.2500079870224,0.960371971130371,-1111.5,6.90000009536743,-870.900024414062,2.35539224326232,-0.149633502176821,0.129138080569119,ST
3.5,-1.23456704616547,-1.21064138412476,9.90644359588623,1.04421401023865,0.46494197845459,0.503051996231079,-1092.30004882812,1.5,-878.100036621094,2.35057379801555,-0.123996346174699,0.119688723492143,ST
3.53333333333333,-1.15920102596283,-1.15022897720337,9.60737228393555,0.67835795879364,-0.0685980021953583,0.510673999786377,-1109.10009765625,-0.300000011920929,-880.500061035156,2.34494412764051,-0.119220274112556,0.117864979390882,ST
3.56666666666667,-0.987534046173096,-1.07665729522705,9.76647853851318,0.693601965904236,0.0152439996600151,0.457319974899292,-1106.70007324219,2.10000014305115,-878.100036621094,2.33955287038106,-0.100288672413959,0.108509681971553,ST
3.6,-1.04076874256134,-0.977963745594025,9.5744743347168,0.724089980125427,0.6250039935112,0.739333987236023,-1092.30004882812,5.10000038146973,-868.500061035156,2.33169800595361,-0.108933851957784,0.10039975891491,ST
3.63333333333333,-0.986935913562775,-0.69863098859787,9.92498588562012,0.655492007732391,0.830797970294952,0.701223969459534,-1104.30004882812,2.70000004768372,-873.300048828125,2.32187425752769,-0.10040464153557,0.0690288129933759,ST
3.66666666666667,-1.05512416362762,-0.687266290187836,9.43570518493652,0.670735955238342,0.762199997901917,0.175305992364883,-1104.30004882812,8.70000076293945,-870.900024414062,2.32157822049715,-0.112414730851802,0.0715137275421689,ST
3.7,-1.48100197315216,-0.375633776187897,9.7778434753418,0.259148001670837,0.449698001146317,-0.0914639979600906,-1094.70007324219,-2.70000004768372,-887.700012207031,2.31891820673891,-0.150982116817475,0.0379827833093821,ST
3.73333333333333,-0.847568571567535,-0.473729223012924,9.41776084899902,-0.175305992364883,0.0457319989800453,-0.282013982534409,-1094.70007324219,0.300000011920929,-875.700012207031,2.32348887455445,-0.0897175174460415,0.0506057841498873,ST
3.76666666666667,-0.829026162624359,-0.90977543592453,9.68333625793457,-0.6250039935112,-0.0685980021953583,-0.762199997901917,-1092.30004882812,6.30000019073486,-887.700012207031,2.33537536092878,-0.0847894531261862,0.0948654426076376,ST
3.8,-1.17535090446472,-1.00428199768066,10.0200910568237,-0.510673999786377,0.175305992364883,-1.2423859834671,-1087.5,5.70000028610229,-878.100036621094,2.34969112710725,-0.116264262194759,0.101037815598102,ST
3.83333333333333,-0.729734420776367,-1.31770896911621,9.67974758148193,-0.221037998795509,0.282013982534409,-1.49391198158264,-1092.30004882812,6.90000009536743,-880.500061035156,2.37075416032763,-0.0747052167321974,0.135874594271029,ST
3.86666666666667,-0.891831159591675,-1.26028728485107,9.07382869720459,-0.152439996600151,-0.0304879993200302,-1.98171997070312,-1077.90002441406,5.70000028610229,-885.300048828125,2.39531009538838,-0.0965121780003597,0.138606090913652,ST
3.9,-1.39128053188324,-1.5061240196228,8.20771789550781,-0.25152599811554,0.411587983369827,-1.6920839548111,-1089.90002441406,3.30000019073486,-863.700012207031,2.4203683725903,-0.165353575524168,0.182411907174083,ST
3.93333333333333,-1.92781484127045,-1.80220472812653,8.66529750823975,-1.03659200668335,1.32622802257538,-1.18903195858002,-1082.70007324219,12.3000001907349,-878.100036621094,2.43878397213524,-0.216286070040213,0.207406750509333,ST
3.96666666666667,-2.575603723526,-1.83689701557159,9.75152492523193,-0.914639949798584,0.495429992675781,0.236281991004944,-1085.10009765625,8.70000076293945,-873.300048828125,2.42979199393384,-0.25487407793048,0.18772461245137,ST
4.0,-2.14793133735657,-1.77110135555267,9.46022891998291,-0.670735955238342,-0.472563982009888,0.419209986925125,-1094.70007324219,5.70000028610229,-887.700012207031,2.4220704785874,-0.21890991597233,0.186050404979857,ST
4.03333333333333,-1.39247679710388,-1.75674593448639,9.47398662567139,-0.739333987236023,-1.64635193347931,0.403965979814529,-1085.10009765625,8.10000038146973,-875.700012207031,2.41141469994936,-0.140834117930218,0.184463791147477,ST
4.06666666666667,-0.727940022945404,-1.91704821586609,9.78621673583984,-1.12805593013763,-1.72257196903229,-0.0152439996600151,-1097.10009765625,12.3000001907349,-890.100036621094,2.40787800539451,-0.069936829538441,0.195369568517298,ST
4.1,-0.504832684993744,-1.83390629291534,10.2437963485718,-0.945127964019775,-1.95885396003723,-0.0685980021953583,-1089.90002441406,4.5,-880.500061035156,2.40310562002827,-0.0450952302512366,0.178782546986956,ST
4.13333333333333,0.169274464249611,-2.26935434341431,9.56789493560791,-0.792688012123108,-1.50915598869324,-0.457319974899292,-1094.70007324219,8.70000076293945,-880.500061035156,2.40521723148421,0.0199481127004583,0.23425103755316,ST
4.16666666666667,0.03828115016222,-2.64259552955627,9.82449817657471,-1.18903195858002,-0.769822001457214,-1.15854394435883,-1092.30004882812,9.30000019073486,-875.700012207031,2.41554771693276,0.0055933977417795,0.264817092249189,ST
4.2,-0.943271458148956,-2.66353058815002,9.82748889923096,-0.381099998950958,0.350611984729767,-1.13567793369293,-1089.90002441406,5.70000028610229,-861.300048828125,2.42927359600287,-0.0924232195416153,0.265526986392453,ST
4.23333333333333,-1.32548487186432,-2.70599889755249,10.0260725021362,0.213415995240211,0.670735955238342,-0.472563982009888,-1089.90002441406,10.5,-875.700012207031,2.43700810012686,-0.127859411552775,0.263384498481436,ST
4.26666666666667,-1.33625137805939,-2.66472697257996,9.76348781585693,0.640248000621796,0.457319974899292,-0.0990860015153885,-1089.90002441406,5.10000038146973,-880.500061035156,2.44069169580918,-0.131997147075404,0.265370595113136,ST
4.3,-1.23097825050354,-2.26636362075806,9.75810432434082,1.18140995502472,-0.0838419944047928,-0.327746003866196,-1099.5,11.7000007629395,-885.300048828125,2.44083586623361,-0.121998367469495,0.226223876479339,ST
4.33333333333333,-0.917551338672638,-2.19099760055542,9.44168663024902,1.13567793369293,0.0990860015153885,-0.426831990480423,-1097.10009765625,9.30000019073486,-887.700012207031,2.44713267731153,-0.0943950246246893,0.226110346299416,ST
4.36666666666667,-1.17654716968536,-1.83211195468903,9.5744743347168,1.2576299905777,0.381099998950958,-0.449698001146317,-1089.90002441406,-0.300000011920929,-880.500061035156,2.45050647915546,-0.120612013401059,0.186994797663775,ST
4.4,-1.64130425453186,-1.92243146896362,9.3358154296875,1.01372599601746,0.746955990791321,-0.342989981174469,-1077.90002441406,11.7000007629395,-868.500061035156,2.46070189610503,-0.171673095057602,0.201457297067776,ST
4.43333333333333,-1.9026927947998,-1.64668762683868,9.17910194396973,0.556405961513519,0.640248000621796,-0.182927995920181,-1092.30004882812,6.30000019073486,-873.300048828125,2.4606774053017,-0.202299621997804,0.176649193672939,ST
4.46666666666667,-2.15032386779785,-1.57491040229797,9.41716289520264,0.335367977619171,0.3125019967556,0.167683988809586,-1085.10009765625,11.7000007629395,-882.900024414062,2.45780378445439,-0.222096937081359,0.165078490776253,ST
4.5,-1.67061328887939,-1.77528834342957,8.78971099853516,-0.121951997280121,0.0457319989800453,-0.114329993724823,-1082.70007324219,5.10000038146973,-885.300048828125,2.46585981005727,-0.184242391768847,0.199533295483939,ST
4.53333333333333,-1.96071267127991,-2.01275110244751,8.65692329406738,-0.67835795879364,0.0762199983000755,-0.0381099991500378,-1099.5,6.90000009536743,-882.900024414062,2.47082825513536,-0.217232332222893,0.229638125907888,ST
4.56666666666667,-2.07196736335754,-2.60192203521729,9.186279296875,-1.13567793369293,-0.449698001146317,0.243903994560242,-1087.5,4.5,-870.900024414062,2.47434985960632,-0.213063286914428,0.277841856301862,ST
4.6,-2.20056796073914,-2.50143384933472,8.73228931427002,-0.655492007732391,-0.6250039935112,0.342989981174469,-1082.70007324219,8.10000038146973,-882.900024414062,2.46743843274204,-0.236789802211085,0.27991913540741,ST
4.63333333333333,-2.21671795845032,-2.63661432266235,8.91532135009766,-0.282013982534409,-0.144817993044853,0.823175966739655,-1075.5,6.90000009536743,-878.100036621094,2.4588853774501,-0.234228649520405,0.287688093336584,ST
4.66666666666667,-2.04684519767761,-2.95602250099182,9.06605339050293,-0.114329993724823,-0.419209986925125,-0.0076219998300075,-1092.30004882812,8.10000038146973,-882.900024414062,2.46319247028082,-0.21074369267153,0.315334931243753,ST
4.7,-1.91046869754791,-2.68326926231384,8.74843883514404,-0.0152439996600151,-0.457319974899292,0.221037998795509,-1097.10009765625,14.1000003814697,-875.700012207031,2.45533276733169,-0.205173162553852,0.297509410668901,ST
4.73333333333333,-1.77289581298828,-2.96200394630432,8.85789966583252,0.0152439996600151,-0.190549999475479,0.25152599811554,-1082.70007324219,9.30000019073486,-885.300048828125,2.45687669394974,-0.18741520857055,0.322568469559811,ST
4.76666666666667,-1.7926344871521,-2.85912346839905,8.9715461730957,0.160062000155449,0.0762199983000755,0.259148001670837,-1085.10009765625,5.10000038146973,-880.500061035156,2.45200213625657,-0.188391767279934,0.308163262345588,ST
4.8,-1.5444051027298,-2.74547624588013,9.54157638549805,0.762199997901917,-0.320124000310898,0.67835795879364,-1089.90002441406,11.7000007629395,-878.100036621094,2.43993975815045,-0.154112900092075,0.278648432325221,ST
4.83333333333333,-1.33625137805939,-2.33515024185181,8.18379211425781,1.08994603157043,0.342989981174469,0.304879993200302,-1077.90002441406,3.90000009536743,-878.100036621094,2.43920900573092,-0.156462376727195,0.275995874204543,ST
4.86666666666667,-1.90807604789734,-2.44819927215576,8.83816051483154,0.891773998737335,1.13567793369293,0.975615978240967,-1097.10009765625,4.5,-882.900024414062,2.43267254909376,-0.2074757221591,0.268439833812629,ST
4.9,-1.94276833534241,-2.51220059394836,9.15996170043945,0.564027965068817,0.746955990791321,1.34909391403198,-1080.30004882812,13.5000009536743,-890.100036621094,2.42109170343908,-0.203636283935621,0.266295572945567,ST
4.93333333333333,-1.85185062885284,-2.2071475982666,8.42424583435059,0.701223969459534,0.0838419944047928,1.73781597614288,-1087.5,8.10000038146973,-892.500061035156,2.40162072535739,-0.210428642426527,0.254401261345457,ST
4.96666666666667,-2.09768748283386,-2.52236890792847,9.01700496673584,0.228659987449646,0.777444005012512,3.01068997383118,-1073.10009765625,9.30000019073486,-885.300048828125,2.37552124583132,-0.223107783478159,0.271292651738401,ST
5.0,-2.04983592033386,-2.07675242424011,9.31248760223389,0.739333987236023,-0.0685980021953583,3.28508186340332,-1082.70007324219,10.5,-870.900024414062,2.32830929355815,-0.212743140132787,0.216924991818916,ST
5.03333333333333,-1.27225005626678,-2.50263023376465,8.98470592498779,0.403965979814529,-0.907018005847931,2.5076379776001,-1082.70007324219,8.10000038146973,-894.900024414062,2.3079557899908,-0.135240185089243,0.270302185152632,ST
5.06666666666667,-2.24542880058289,-1.98762905597687,8.92249870300293,0.449698001146317,-0.0457319989800453,2.11891603469849,-1080.30004882812,14.1000003814697,-880.500061035156,2.27587571669592,-0.241554817542498,0.217527540157694,ST
5.1,-1.66523003578186,-2.25739169120789,8.33871078491211,0.579271972179413,0.175305992364883,1.99696397781372,-1075.5,8.70000076293945,-873.300048828125,2.26559450145588,-0.191641786742103,0.26271201541709,ST
5.13333333333333,-1.73222208023071,-2.27473783493042,8.78791618347168,0.46494197845459,-0.0685980021953583,1.2500079870224,-1073.10009765625,12.3000001907349,-885.300048828125,2.25070482065731,-0.188987137464398,0.252071335652077,ST
5.16666666666667,-1.90448725223541,-2.04265832901001,8.84294605255127,1.12805593013763,-0.602137982845306,1.44055795669556,-1080.30004882812,6.30000019073486,-890.100036621094,2.23054557080232,-0.206371307840774,0.224489305058329,ST
5.2,-1.76811063289642,-1.88355219364166,8.99367809295654,1.35671591758728,-0.99848198890686,1.91312193870544,-1085.10009765625,8.70000076293945,-868.500061035156,2.20588630448931,-0.189071117052025,0.203391954226291,ST
5.23333333333333,-1.09280717372894,-2.2071475982666,9.21977615356445,0.419209986925125,-1.21189796924591,1.40244793891907,-1080.30004882812,3.30000019073486,-880.500061035156,2.19232333122473,-0.1132997416554,0.233901499810144,ST
5.26666666666667,-1.22200608253479,-2.2071475982666,9.56310939788818,0.304879993200302,-1.33385002613068,0.92988395690918,-1089.90002441406,7.50000047683716,-882.900024414062,2.17721492354136,-0.121966050694568,0.226037551363431,ST
5.3,-0.955234348773956,-2.48408770561218,9.53679180145264,0.510673999786377,-0.518296003341675,0.518296003341675,-1092.30004882812,3.90000009536743,-885.300048828125,2.17359810990257,-0.0959871470701423,0.253805314107675,ST
5.33333333333333,-1.29737210273743,-2.56483697891235,9.81672286987305,0.823175966739655,0.160062000155449,0.228659987449646,-1080.30004882812,12.3000001907349,-897.300048828125,2.17261394878981,-0.127544787217504,0.254082155933148,ST
5.36666666666667,-1.85603761672974,-2.42487168312073,9.99078178405762,1.32622802257538,0.320124000310898,0.365855991840363,-1070.70007324219,11.1000003814697,-890.100036621094,2.16923178330113,-0.17928547911017,0.235709559418566,ST
5.4,-2.31002807617188,-2.28670048713684,10.5273160934448,1.63110792636871,-0.0533539988100529,1.08994603157043,-1087.5,7.50000047683716,-870.900024414062,2.15608267710515,-0.21152977203085,0.210651404129006,ST
5.43333333333333,-1.79801774024963,-1.8967113494873,10.0260725021362,1.80641400814056,-0.381099998950958,1.44055795669556,-1080.30004882812,5.70000028610229,-873.300048828125,2.13772985851601,-0.174236372333842,0.183367721199459,ST
5.46666666666667,-1.4241783618927,-1.49954438209534,9.49791240692139,1.65397393703461,-1.21189796924591,1.46342396736145,-1077.90002441406,8.10000038146973,-875.700012207031,2.11715407703691,-0.145353001502494,0.153294297004747,ST
5.5,-1.0515353679657,-1.54081630706787,8.27829837799072,1.16616594791412,-0.975615978240967,1.41769194602966,-1097.10009765625,9.90000057220459,-875.700012207031,2.10472429601969,-0.123015019897897,0.181637216845041,ST
5.53333333333333,-1.53842377662659,-1.75016629695892,8.96018123626709,0.228659987449646,0.137196004390717,1.60824191570282,-1089.90002441406,9.90000057220459,-878.100036621094,2.0874232248303,-0.167707501162107,0.192039398598012,ST
5.56666666666667,-2.04026556015015,-1.80220472812653,9.03255653381348,0.198172003030777,-0.137196004390717,1.76068198680878,-1087.5,10.5,-882.900024414062,2.06887904607656,-0.218339379271378,0.19591125003491,ST
5.6,-2.06478953361511,-1.81416761875153,8.83875846862793,0.137196004390717,-0.25152599811554,1.94360995292664,-1087.5,-0.300000011920929,-882.900024414062,2.04848225172172,-0.225208490348377,0.201417098348117,ST
5.63333333333333,-1.82912123203278,-1.72504436969757,9.39084434509277,-0.0228659994900227,-1.44055795669556,1.6920839548111,-1089.90002441406,6.30000019073486,-875.700012207031,2.02115160289462,-0.187343969745638,0.181075519835157,ST
5.66666666666667,-1.73700714111328,-1.57012534141541,9.36213397979736,0.114329993724823,-1.98171997070312,1.77592599391937,-1089.90002441406,3.30000019073486,-878.100036621094,1.99492240598758,-0.178079395390068,0.165316205338638,ST
5.7,-1.59584546089172,-1.50732028484344,10.0314559936523,0.304879993200302,-2.99544596672058,2.26373386383057,-1089.90002441406,7.50000047683716,-887.700012207031,1.95838080470331,-0.151452871775017,0.14789809452363,ST
5.73333333333333,-0.536534249782562,-1.53603112697601,9.67855167388916,0.213415995240211,-3.18599581718445,1.61586391925812,-1089.90002441406,7.50000047683716,-875.700012207031,1.93396069504555,-0.0496619343780857,0.156835444235912,ST
5.76666666666667,-0.955832481384277,-1.19867849349976,10.0129137039185,0.632625997066498,-1.88263392448425,0.670735955238342,-1085.10009765625,7.50000047683716,-870.900024414062,1.92152538887845,-0.0913619894734954,0.117912956337718,ST
5.8,-0.939682602882385,-1.40623414516449,10.7288904190063,0.937505960464478,-1.37195992469788,0.617381989955902,-1097.10009765625,11.7000007629395,-870.900024414062,1.91435916817911,-0.0843900328163658,0.12857040845921,ST
5.83333333333333,-0.748276829719543,-1.54380702972412,10.4782686233521,0.861285984516144,-2.03507399559021,-0.381099998950958,-1104.30004882812,8.70000076293945,-885.300048828125,1.91729182504904,-0.0669275842436809,0.144782562852216,ST
5.86666666666667,-0.965402781963348,-1.24054849147797,10.4076881408691,0.46494197845459,-1.95123195648193,-0.434453994035721,-1101.90002441406,11.7000007629395,-875.700012207031,1.91788403412349,-0.0883692651916552,0.117864125792366,ST
5.9,-0.266771763563156,-1.42118775844574,9.2640380859375,0.152439996600151,-1.36433792114258,-0.190549999475479,-1099.5,8.10000038146973,-878.100036621094,1.91976840693629,-0.0260724446354024,0.151944156646291,ST
5.93333333333333,-0.803305983543396,-1.79323267936707,9.5032958984375,-0.586893975734711,-0.46494197845459,-0.457319974899292,-1113.90002441406,5.70000028610229,-878.100036621094,1.92539459693209,-0.0819085558368264,0.187567335063896,ST
5.96666666666667,-1.18432307243347,-1.78844749927521,9.23233699798584,-0.282013982534409,0.213415995240211,-0.167683988809586,-1109.10009765625,11.7000007629395,-873.300048828125,1.92780213556988,-0.125574451660377,0.191881558282539,ST
6.0,-1.48578715324402,-2.12998723983765,9.40819072723389,-0.221037998795509,0.78506600856781,0.0990860015153885,-1111.5,5.70000028610229,-870.900024414062,1.93264824293126,-0.154196530235808,0.223046264707726,ST
6.03333333333333,-1.30574607849121,-1.98882532119751,8.99128532409668,0.335367977619171,0.0457319989800453,-0.129574000835419,-1106.70007324219,4.5,-885.300048828125,1.93388520467704,-0.140890741291501,0.21714004120253,ST
6.06666666666667,-2.19578289985657,-1.79562520980835,9.06784725189209,0.815553963184357,0.92988395690918,0.358233988285065,-1106.70007324219,6.90000009536743,-878.100036621094,1.92970942766317,-0.234897810236952,0.194005180464426,ST
6.1,-2.06598591804504,-1.8967113494873,9.90464973449707,0.884151995182037,0.807931959629059,0.335367977619171,-1094.70007324219,8.70000076293945,-875.700012207031,1.92842198891233,-0.203566850914318,0.187600007421073,ST
6.13333333333333,-1.84945809841156,-1.48578715324402,9.14740085601807,1.73019397258759,-0.525918006896973,-0.335367977619171,-1092.30004882812,9.90000057220459,-878.100036621094,1.92985413346301,-0.195983870636736,0.158090673410492,ST
6.16666666666667,-2.02531218528748,-1.05632042884827,8.90634918212891,1.80641400814056,-0.0228659994900227,-0.0914639979600906,-1101.90002441406,9.90000057220459,-870.900024414062,1.92639147783317,-0.222027500016467,0.11494790775619,ST
6.2,-1.71906292438507,-1.42716908454895,8.82260894775391,0.579271972179413,-0.0381099991500378,-0.724089980125427,-1094.70007324219,10.5,-882.900024414062,1.94539252726494,-0.189765835458935,0.159592081948508,ST
6.23333333333333,-2.22030663490295,-1.11912548542023,9.06485652923584,0.0990860015153885,-0.0457319989800453,-0.586893975734711,-1089.90002441406,10.5,-880.500061035156,1.94432112456979,-0.238243741934794,0.122919827742776,ST
6.26666666666667,-1.15202331542969,-1.69453907012939,8.85191822052002,-0.37347799539566,-0.945127964019775,-1.06708002090454,-1109.10009765625,9.90000057220459,-868.500061035156,1.96616705669501,-0.125190193741139,0.189970674886602,ST
6.3,-1.07306849956512,-1.78426051139832,9.18448543548584,-0.78506600856781,-1.21189796924591,-1.95123195648193,-1094.70007324219,5.10000038146973,-875.700012207031,1.98481981140234,-0.111465634232989,0.193577025781842,ST
6.33333333333333,-0.344530344009399,-1.77528834342957,8.67008209228516,-0.518296003341675,-1.38720393180847,-2.17989206314087,-1094.70007324219,10.5,-878.100036621094,2.00787892823107,-0.0357857777347665,0.202987782467071,ST
6.36666666666667,-0.345128506422043,-2.35728144645691,8.80167388916016,-1.28811800479889,-0.190549999475479,-1.83690190315247,-1109.10009765625,8.70000076293945,-875.700012207031,2.03121248285141,-0.0367010767328031,0.264031128837447,ST
6.4,-0.511412262916565,-2.27653217315674,8.56540775299072,-0.960371971130371,0.228659987449646,-1.37958192825317,-1106.70007324219,6.90000009536743,-882.900024414062,2.04650384443189,-0.0573953957046681,0.261592756476498,ST
6.43333333333333,-0.984543323516846,-2.94944310188293,7.8356728553772,-0.967993974685669,2.22562384605408,-0.304879993200302,-1092.30004882812,8.10000038146973,-878.100036621094,2.06613848152322,-0.120480644599189,0.361889641358632,ST
6.46666666666667,-1.7405960559845,-3.20006489753723,8.65572738647461,-1.2347639799118,2.0655620098114,-0.0990860015153885,-1101.90002441406,6.30000019073486,-882.900024414062,2.07201082802384,-0.189719834547298,0.356548270329091,ST
6.5,-1.7286331653595,-2.984135389328,8.83696460723877,-0.190549999475479,0.983237981796265,1.01372599601746,-1097.10009765625,9.30000019073486,-890.100036621094,2.05769055528142,-0.185445379000264,0.325788518351391,ST
6.53333333333333,-1.34103655815125,-3.16836333274841,9.3358154296875,0.0381099991500378,-0.564027965068817,1.53964400291443,-1094.70007324219,12.9000005722046,-863.700012207031,2.03920865887717,-0.135141195133363,0.326723850988957,ST
6.56666666666667,-1.39128053188324,-2.47391939163208,10.2838716506958,1.13567793369293,-2.76678586006165,2.24848985671997,-1085.10009765625,10.5,-882.900024414062,1.99324660408417,-0.12699611302684,0.233475791167432,ST
6.6,-0.610105812549591,-2.01693820953369,9.98480033874512,1.81403601169586,-3.14788603782654,3.13264203071594,-1099.5,13.5000009536743,-882.900024414062,1.94866704449191,-0.0555210862875123,0.195805081643758,ST
6.63333333333333,-0.0508421510457993,-1.88594484329224,9.83466720581055,1.61586391925812,-1.95885396003723,3.06404399871826,-1104.30004882812,4.5,-885.300048828125,1.90969694968095,-0.0027272934699736,0.186630418265388,ST
6.66666666666667,-0.102282449603081,-1.77409207820892,10.788106918335,1.13567793369293,-1.17378795146942,2.31708788871765,-1111.5,7.50000047683716,-880.500061035156,1.88109723634771,-0.0079796239486771,0.16098182275745,ST
6.7,0.137572884559631,-1.46425402164459,9.89507961273193,1.09756803512573,-0.937505960464478,1.31860601902008,-1104.30004882812,8.10000038146973,-878.100036621094,1.86439490311279,0.015031294270905,0.145039129468746,ST
6.73333333333333,-0.120824880897999,-1.43853390216827,9.73657131195068,0.967993974685669,0.388722002506256,0.983237981796265,-1106.70007324219,12.3000001907349,-870.900024414062,1.8539324342803,-0.0131853924395013,0.144973842799422,ST
6.76666666666667,-0.589768946170807,-1.58986401557922,9.65761661529541,0.693601965904236,1.03659200668335,0.46494197845459,-1101.90002441406,12.3000001907349,-875.700012207031,1.85161737818331,-0.0620840672051115,0.161911753688568,ST
6.8,-1.00248765945435,-1.46724474430084,8.81543064117432,0.716467976570129,1.57013201713562,0.182927995920181,-1099.5,7.50000047683716,-875.700012207031,1.85356444051678,-0.11445247091608,0.163693193632743,ST
6.83333333333333,-1.12690138816833,-1.83031749725342,9.21977615356445,0.0533539988100529,1.22714197635651,-0.106707997620106,-1099.5,7.50000047683716,-870.900024414062,1.86129590053415,-0.12137979470257,0.195942144375905,ST
6.86666666666667,-1.23875403404236,-2.03488230705261,9.35734844207764,-0.37347799539566,-0.815553963184357,-0.78506600856781,-1101.90002441406,11.1000003814697,-882.900024414062,1.86991271560402,-0.126960565452116,0.214907483868905,ST
6.9,-1.11493849754333,-2.26636362075806,9.13962459564209,-0.640248000621796,-1.36433792114258,-0.67835795879364,-1094.70007324219,15.3000001907349,-880.500061035156,1.87669216887737,-0.115259625428766,0.244248532656998,ST
6.93333333333333,-0.982150733470917,-2.5056209564209,9.23353290557861,-1.19665396213531,-0.853663980960846,-0.769822001457214,-1101.90002441406,5.70000028610229,-885.300048828125,1.88371068069545,-0.100510436069965,0.267152345985348,ST
6.96666666666667,-1.36675667762756,-2.79930901527405,9.54815578460693,-1.2576299905777,-0.503051996231079,-0.236281991004944,-1099.5,6.90000009536743,-878.100036621094,1.88519159327683,-0.135537379027523,0.287394890950978,ST
7.0,-0.629844546318054,-3.08701586723328,9.56490421295166,-1.31860601902008,-1.37958192825317,-0.495429992675781,-1121.10009765625,14.7000007629395,-885.300048828125,1.88730260649087,-0.0600414236198318,0.314491662380979,ST
7.03333333333333,-0.831418752670288,-3.06368827819824,9.41177940368652,-0.449698001146317,-1.42531394958496,0.0,-1099.5,11.1000003814697,-870.900024414062,1.88188660893268,-0.0814310371297559,0.315420634735817,ST
7.06666666666667,-0.901401460170746,-3.01703310012817,9.186279296875,-0.0,-0.533540010452271,0.297257989645004,-1097.10009765625,6.90000009536743,-873.300048828125,1.8768970753973,-0.0922304390212217,0.317256389702915,ST
7.1,-1.03299295902252,-2.96499466896057,9.53140830993652,0.205793991684914,-0.0076219998300075,0.457319974899292,-1101.90002441406,15.3000001907349,-868.500061035156,1.87039267270254,-0.103340571194027,0.301152596916027,ST
7.13333333333333,-0.997702479362488,-2.80110359191895,9.24609375,0.884151995182037,-0.586893975734711,0.777444005012512,-1104.30004882812,10.5,-880.500061035156,1.8594950383949,-0.102316206056133,0.292455544648475,ST
7.16666666666667,-1.24174475669861,-2.72573757171631,9.45783710479736,0.983237981796265,-0.365855991840363,0.899396002292633,-1111.5,4.5,-868.500061035156,1.84826329132886,-0.125305463894738,0.278671489643205,ST
7.2,-1.24353921413422,-2.38180541992188,9.70726203918457,1.19665396213531,-1.04421401023865,1.21951997280121,-1109.10009765625,12.9000005722046,-870.900024414062,1.82853742601345,-0.122510399557004,0.238226724779978,ST
7.23333333333333,-0.796128273010254,-2.143146276474,9.13424110412598,1.32622802257538,-0.830797970294952,1.49391198158264,-1116.30004882812,13.5000009536743,-887.700012207031,1.80998213672961,-0.0838412160209808,0.227906352856612,ST
7.26666666666667,-0.643003702163696,-2.01394748687744,9.10493278503418,1.10518991947174,-0.525918006896973,1.40244793891907,-1104.30004882812,0.900000035762787,-880.500061035156,1.79290406657744,-0.0684780042165109,0.215585449100217,ST
7.3,-0.592161536216736,-1.88175773620605,8.41228294372559,0.861285984516144,-0.175305992364883,1.18903195858002,-1116.30004882812,20.7000007629395,-868.500061035156,1.78000071980871,-0.068737971216503,0.218420593048619,ST
7.33333333333333,-0.730332553386688,-1.93738508224487,8.97094821929932,0.3125019967556,0.114329993724823,1.34147191047668,-1109.10009765625,6.90000009536743,-875.700012207031,1.76502023453642,-0.0800928577116884,0.21197204512467,ST
7.36666666666667,-0.486888378858566,-2.00736784934998,9.18568134307861,0.0685980021953583,-0.518296003341675,1.36433792114258,-1101.90002441406,12.3000001907349,-880.500061035156,1.74865316683253,-0.0513703157092673,0.214899430169416,ST
7.4,-0.412718653678894,-2.31421518325806,9.11569881439209,-0.381099998950958,-0.411587983369827,0.716467976570129,-1106.70007324219,12.9000005722046,-873.300048828125,1.74093867809999,-0.043470119490141,0.249212289235117,ST
7.43333333333333,-0.628648281097412,-2.37582397460938,9.21798133850098,-0.449698001146317,0.0609759986400604,0.708845973014832,-1109.10009765625,14.1000003814697,-866.100036621094,1.73310074980416,-0.0663491222496031,0.252953965010025,ST
7.46666666666667,-0.875681281089783,-2.47092866897583,9.60497951507568,-0.0762199983000755,0.571649968624115,1.2347639799118,-1104.30004882812,6.90000009536743,-882.900024414062,1.72084141203615,-0.0895616346292971,0.251763534714752,ST
7.5,-1.00906717777252,-2.33455204963684,9.68572902679443,0.388722002506256,0.564027965068817,1.95123195648193,-1099.5,15.9000005722046,-873.300048828125,1.69951888190225,-0.102683851684007,0.235528327602342,ST
7.53333333333333,-0.723154842853546,-2.12998723983765,9.10194206237793,0.571649968624115,0.221037998795509,2.14940404891968,-1104.30004882812,9.30000019073486,-878.100036621094,1.67319333860056,-0.078434956806551,0.228600507524001,ST
7.56666666666667,-0.919943869113922,-2.21970868110657,9.6881217956543,0.297257989645004,0.396344006061554,2.27897787094116,-1104.30004882812,7.50000047683716,-878.100036621094,1.64866430262823,-0.0938487429360118,0.224361397444163,ST
7.6,-0.596348524093628,-2.17245531082153,9.67974758148193,0.297257989645004,0.3125019967556,1.95885396003723,-1106.70007324219,8.10000038146973,-873.300048828125,1.62673460978385,-0.0613267301053259,0.220059202142017,ST
7.63333333333333,-0.501841962337494,-1.96370339393616,9.26344013214111,0.457319974899292,0.388722002506256,1.53964400291443,-1101.90002441406,13.5000009536743,-875.700012207031,1.60993541604992,-0.0541683146803494,0.20796271412736,ST
7.66666666666667,-0.848166704177856,-2.16228675842285,9.85560131072998,0.518296003341675,1.02134799957275,1.39482593536377,-1104.30004882812,5.70000028610229,-887.700012207031,1.59774186583321,-0.0861129551497721,0.214895760267957,ST
7.7,-0.596348524093628,-2.1090521812439,9.20362567901611,0.548784017562866,1.02134799957275,0.609759986400604,-1101.90002441406,13.5000009536743,-878.100036621094,1.59463982069937,-0.0650557678747684,0.22426262065179,ST
7.73333333333333,-1.33684957027435,-2.25141024589539,9.33701133728027,0.297257989645004,1.42531394958496,0.663114011287689,-1097.10009765625,11.1000003814697,-878.100036621094,1.59232568778298,-0.140981665972689,0.236013955883908,ST
7.76666666666667,-1.41759884357452,-2.37522578239441,10.0757179260254,0.434453994035721,0.419209986925125,1.08994603157043,-1092.30004882812,10.5,-878.100036621094,1.58124219580977,-0.13724270727559,0.230521858823553,ST
7.8,-0.788352429866791,-2.15809988975525,8.95240592956543,0.960371971130371,-0.152439996600151,0.647870004177094,-1092.30004882812,12.3000001907349,-882.900024414062,1.57511044671676,-0.0854215014529617,0.234773306892031,ST
7.83333333333333,-1.45229113101959,-2.19937181472778,9.45664024353027,0.983237981796265,0.868907988071442,1.22714197635651,-1094.70007324219,7.50000047683716,-863.700012207031,1.56432457737157,-0.150418152061556,0.226534834015191,ST
7.86666666666667,-1.47262799739838,-2.16647386550903,9.27480506896973,1.41006994247437,0.335367977619171,1.15092194080353,-1106.70007324219,12.3000001907349,-878.100036621094,1.55493333503938,-0.154421552766466,0.226727627448178,ST
7.9,-1.55517172813416,-1.96370339393616,8.53968715667725,1.72257196903229,0.236281991004944,1.21189796924591,-1099.5,7.50000047683716,-870.900024414062,1.5448649086246,-0.176513136889012,0.222664925189851,ST
7.93333333333333,-1.66582822799683,-1.57012534141541,9.58703517913818,1.78354799747467,-0.67835795879364,2.43903994560242,-1092.30004882812,14.7000007629395,-878.100036621094,1.50870750471597,-0.169329317438861,0.158492039277124,ST
7.96666666666667,-1.61977112293243,-1.06170380115509,10.3861541748047,2.41617393493652,-1.89025592803955,1.75305998325348,-1094.70007324219,12.3000001907349,-878.100036621094,1.48105385926717,-0.150940676129152,0.0971582499437009,ST
8.0,-0.766819298267365,-0.71059387922287,9.88730335235596,2.31708788871765,-1.98934197425842,0.922261953353882,-1089.90002441406,15.3000001907349,-878.100036621094,1.46781305609867,-0.0738735899349666,0.0675740458572655,ST
8.03333333333333,-0.634629666805267,-0.457579374313354,9.38007831573486,0.914639949798584,-0.975615978240967,-0.434453994035721,-1097.10009765625,10.5,-866.100036621094,1.47167606790056,-0.0657396379332321,0.0471964759680039,ST
8.06666666666667,-1.65924859046936,-0.674705266952515,10.0260725021362,-0.114329993724823,0.0304879993200302,-0.983237981796265,-1101.90002441406,8.10000038146973,-887.700012207031,1.48569165469052,-0.163562655788319,0.0676724399144744,ST
8.1,-1.32069969177246,-0.837400138378143,9.7120475769043,-0.663114011287689,-0.0533539988100529,-1.57775402069092,-1099.5,12.3000001907349,-873.300048828125,1.50546195130129,-0.13433956311407,0.0875307940398439,ST
8.13333333333333,-1.11075150966644,-1.47202980518341,8.81602954864502,-1.48628997802734,-0.907018005847931,-2.16464805603027,-1094.70007324219,15.3000001907349,-878.100036621094,1.53650084323824,-0.121449544558427,0.168435919167484,ST
8.16666666666667,-1.62934148311615,-1.69992232322693,9.41536808013916,-1.78354799747467,-0.175305992364883,-2.46190595626831,-1101.90002441406,8.70000076293945,-875.700012207031,1.56241075678935,-0.167584993817667,0.182437209780547,ST
8.2,-1.25550210475922,-1.61139714717865,9.27001953125,-1.15092194080353,-0.304879993200302,-2.27135586738586,-1109.10009765625,11.1000003814697,-902.100036621094,1.58504352158434,-0.131448607623892,0.174624351615134,ST
8.23333333333333,-1.02402079105377,-2.04804158210754,8.84115123748779,-0.800309956073761,-0.853663980960846,-2.40855193138123,-1097.10009765625,6.30000019073486,-878.100036621094,1.61606063736102,-0.109960062298454,0.229432150510073,ST
8.26666666666667,-1.66582822799683,-2.34711313247681,9.27719783782959,-0.792688012123108,-0.289635986089706,-2.57623600959778,-1097.10009765625,11.1000003814697,-866.100036621094,1.6474123308658,-0.170740016612916,0.249908963978121,ST
8.3,-1.6024249792099,-2.46016192436218,10.5823450088501,-0.762199997901917,-1.34909391403198,-2.02745199203491,-1101.90002441406,3.90000009536743,-873.300048828125,1.66410525166779,-0.143338299067049,0.230173308912911,ST
8.33333333333333,-0.781174719333649,-2.48348951339722,9.75870227813721,-0.259148001670837,-2.56861400604248,-1.65397393703461,-1104.30004882812,4.5,-880.500061035156,1.6771674462061,-0.0723874632101765,0.249768632313447,ST
8.36666666666667,-0.327782362699509,-2.49126553535461,9.17312049865723,-0.3125019967556,-1.41006994247437,-1.40244793891907,-1101.90002441406,13.5000009536743,-866.100036621094,1.6892202767222,-0.0314662868066475,0.265781200054192,ST
8.4,-0.151928320527077,-2.47272300720215,9.03315544128418,-0.152439996600151,-0.0762199983000755,-0.685979962348938,-1099.5,11.7000007629395,-873.300048828125,1.69661562774751,-0.0157812120863661,0.26747628640245,ST
8.43333333333333,-0.376830071210861,-2.54629468917847,9.63369083404541,0.449698001146317,0.221037998795509,-0.137196004390717,-1111.5,15.9000005722046,-870.900024414062,1.69870873092535,-0.0381038028904131,0.257633207886261,ST
8.46666666666667,-0.374437510967255,-2.34830927848816,8.81722545623779,1.28811800479889,0.655492007732391,0.167683988809586,-1094.70007324219,11.7000007629395,-875.700012207031,1.69940053185068,-0.0421927142326863,0.258042075574009,ST
8.5,-0.979758203029633,-2.31062626838684,8.87823581695557,1.32622802257538,1.46342396736145,0.769822001457214,-1101.90002441406,16.5,-890.100036621094,1.69612341053082,-0.109180847667864,0.252224416372447,ST
8.53333333333333,-1.10118126869202,-2.26875638961792,9.93575286865234,1.53964400291443,0.99848198890686,0.907018005847931,-1082.70007324219,14.7000007629395,-868.500061035156,1.68717311467351,-0.109680009397006,0.221689467483699,ST
8.56666666666667,-0.814670741558075,-1.99480676651001,9.59540939331055,1.77592599391937,-0.182927995920181,0.548784017562866,-1094.70007324219,11.1000003814697,-875.700012207031,1.68044355013713,-0.0828227404996496,0.201795882276767,ST
8.6,-0.793137550354004,-1.87577641010284,9.38007831573486,1.43293595314026,0.0,0.564027965068817,-1099.5,11.1000003814697,-882.900024414062,1.67442592395779,-0.0829155146525283,0.194790789641923,ST
8.63333333333333,-0.504234552383423,-1.97446990013123,9.51824951171875,0.655492007732391,1.2423859834671,0.266770005226135,-1099.5,12.9000005722046,-868.500061035156,1.67531731254782,-0.0540521779105574,0.203391751786523,ST
8.66666666666667,-0.677097856998444,-1.79203629493713,9.10134315490723,0.640248000621796,0.884151995182037,-0.152439996600151,-1094.70007324219,8.10000038146973,-873.300048828125,1.6791381660235,-0.0743242815510773,0.193337093404458,ST
8.7,-0.84158718585968,-1.76093292236328,9.24848651885986,0.541162014007568,0.78506600856781,-0.205793991684914,-1089.90002441406,10.5,-887.700012207031,1.68319088021836,-0.0904284324265215,0.187262898392189,ST
8.73333333333333,-0.903195858001709,-1.78784930706024,9.15338230133057,0.365855991840363,1.60061991214752,-0.0838419944047928,-1094.70007324219,11.7000007629395,-887.700012207031,1.68851866357305,-0.0992536025001633,0.192320044969153,ST
8.76666666666667,-0.861325860023499,-1.88295412063599,9.41357421875,0.304879993200302,1.51677799224854,-0.434453994035721,-1085.10009765625,18.9000015258789,-894.900024414062,1.69757095260302,-0.0919315173647062,0.197002759879074,ST
8.8,-1.36735486984253,-1.60302317142487,9.42434024810791,0.236281991004944,1.53202199935913,-0.25152599811554,-1085.10009765625,8.70000076293945,-863.700012207031,1.70706514064361,-0.144632264109313,0.168197402360424,ST
8.83333333333333,-1.3440272808075,-2.31481337547302,8.72511196136475,-1.53964400291443,-0.823175966739655,-2.53050398826599,-1073.10009765625,9.30000019073486,-873.300048828125,1.82958653955281,-0.145270293250648,0.262586721713598,ST
8.86666666666667,-0.939682602882385,-3.82153534889221,8.6383810043335,-2.19513607025146,-2.85824990272522,-2.95733594894409,-1077.90002441406,11.7000007629395,-887.700012207031,1.88760703212184,-0.0924930090993989,0.420589372441861,ST
8.9,-0.693247675895691,-4.17384147644043,9.15936374664307,-1.2500079870224,-2.47714996337891,-1.76068198680878,-1094.70007324219,15.3000001907349,-873.300048828125,1.89443555686637,-0.0635581152807081,0.429821011004448,ST
8.93333333333333,-1.05213344097137,-4.54110145568848,9.37050819396973,-0.586893975734711,-2.33995389938354,-0.137196004390717,-1104.30004882812,7.50000047683716,-873.300048828125,1.88537179581922,-0.0969103529928715,0.452129927254046,ST
8.96666666666667,-0.774595141410828,-4.52674579620361,9.80715179443359,0.952749967575073,-2.85062789916992,1.13567793369293,-1101.90002441406,12.9000005722046,-882.900024414062,1.85877723696719,-0.0679051035631639,0.430518211383351,ST
9.0,-0.409129798412323,-4.18161773681641,9.56610012054443,1.91312193870544,-2.78965187072754,1.87501192092896,-1109.10009765625,13.5000009536743,-870.900024414062,1.82590102255198,-0.0360109695313179,0.408587877602563,ST
9.03333333333333,-0.0861325860023499,-3.77488040924072,8.88900279998779,2.41617393493652,-2.01982998847961,2.41617393493652,-1106.70007324219,15.3000001907349,-866.100036621094,1.79024318375005,-0.0073066132806027,0.397336353890652,ST
9.06666666666667,-0.644798099994659,-3.29696416854858,9.2287483215332,2.46190595626831,-1.01372599601746,3.43752193450928,-1109.10009765625,18.3000011444092,-868.500061035156,1.7485322376831,-0.0660058758916401,0.338428695206519,ST
9.1,-0.41152235865593,-3.24253296852112,9.00025749206543,2.59148001670837,-0.777444005012512,3.71953582763672,-1097.10009765625,11.7000007629395,-866.100036621094,1.70673576799474,-0.0438896646322007,0.34098236425624,ST
9.13333333333333,-0.522776961326599,-2.9261155128479,9.36572265625,2.53050398826599,-0.724089980125427,4.17685604095459,-1106.70007324219,8.10000038146973,-882.900024414062,1.65780258523899,-0.0541578628688145,0.298018999370052,ST
9.16666666666667,0.15312460064888,-2.51937818527222,8.85849761962891,2.9268479347229,-0.853663980960846,4.32167387008667,-1109.10009765625,16.5,-885.300048828125,1.60652511661319,0.0160097751875897,0.272107127247527,ST
9.2,-0.196789041161537,-2.25619530677795,8.77236461639404,2.56861400604248,0.510673999786377,4.07776975631714,-1101.90002441406,14.1000003814697,-890.100036621094,1.56289671660766,-0.0243142995420331,0.247100728721686,ST
9.23333333333333,-0.146545022726059,-2.03069543838501,9.11868953704834,2.27135586738586,0.243903994560242,4.2302098274231,-1104.30004882812,11.7000007629395,-870.900024414062,1.51575290985691,-0.0176791051568083,0.215040358952883,ST
9.26666666666667,-0.327782362699509,-1.91046869754791,8.70597076416016,2.09605002403259,0.327746003866196,4.25307607650757,-1106.70007324219,11.1000003814697,-878.100036621094,1.46943811317591,-0.0388732916652684,0.212084951076349,ST
9.3,-0.836203873157501,-2.12759447097778,9.97702503204346,1.27287399768829,0.0152439996600151,4.24545383453369,-1097.10009765625,5.70000028610229,-887.700012207031,1.42255986173934,-0.0833231468704879,0.207278159452235,ST
9.33333333333333,-0.418700069189072,-2.14194989204407,9.78442287445068,0.884151995182037,-0.182927995920181,3.83386588096619,-1111.5,6.30000019073486,-870.900024414062,1.37988328142042,-0.0428981279207595,0.213684796696922,ST
9.36666666666667,-0.455784946680069,-2.05462121963501,8.75262641906738,0.983237981796265,1.2576299905777,3.05642199516296,-1101.90002441406,10.5,-873.300048828125,1.35017028412858,-0.0539954017100327,0.228594189750177,ST
9.4,-1.79562520980835,-2.08692073822021,9.53619384765625,1.10518991947174,2.94971394538879,3.74240183830261,-1101.90002441406,11.1000003814697,-863.700012207031,1.31593765235649,-0.188275505806664,0.212517766830796,ST
9.43333333333333,-1.90209460258484,-2.05820989608765,9.96446418762207,1.36433792114258,2.0579400062561,4.48173570632935,-1089.90002441406,10.5,-880.500061035156,1.27024166932057,-0.189882961791187,0.199979621847193,ST
9.46666666666667,-0.854148149490356,-1.80818617343903,8.89259147644043,1.50915598869324,1.22714197635651,3.84148788452148,-1094.70007324219,8.70000076293945,-880.500061035156,1.22790056978993,-0.0972763133871228,0.197367554871213,ST
9.5,-1.26626861095428,-1.62455630302429,9.13244724273682,1.46342396736145,1.56251001358032,3.72715783119202,-1082.70007324219,9.90000057220459,-875.700012207031,1.18622308459597,-0.139471513696422,0.172665468113355,ST
9.53333333333333,-1.14723825454712,-1.53363859653473,9.6941032409668,1.58537602424622,1.21951997280121,3.62045001983643,-1085.10009765625,9.30000019073486,-878.100036621094,1.14723889149283,-0.11943868111423,0.153432818635181,ST
9.56666666666667,-1.06888151168823,-1.34283101558685,9.38187217712402,1.75305998325348,0.0990860015153885,2.69818782806396,-1085.10009765625,15.9000005722046,-880.500061035156,1.11568402624645,-0.113130186845269,0.138580942823581,ST
9.6,-1.64549136161804,-1.2058562040329,9.50389385223389,1.39482593536377,0.198172003030777,2.33233189582825,-1082.70007324219,10.5,-878.100036621094,1.09005254143093,-0.170926526739482,0.123087625461025,ST
9.63333333333333,-1.02641332149506,-1.0054783821106,9.37708759307861,0.800309956073761,0.0762199983000755,1.92074394226074,-1080.30004882812,3.30000019073486,-880.500061035156,1.06687232176681,-0.108913798042726,0.105064717513285,ST
9.66666666666667,-0.500645637512207,-0.900205194950104,8.84773063659668,0.396344006061554,-0.472563982009888,0.693601965904236,-1089.90002441406,6.30000019073486,-870.900024414062,1.05806669917661,-0.0555488098156858,0.100632864986168,ST
9.7,-1.47561872005463,-1.00966536998749,9.32325458526611,-0.0,0.411587983369827,0.0533539988100529,-1082.70007324219,8.10000038146973,-873.300048828125,1.05872195424088,-0.156783896347723,0.107871585446422,ST
9.73333333333333,-1.80160665512085,-1.1597992181778,10.02308177948,-0.0685980021953583,0.884151995182037,-0.160062000155449,-1077.90002441406,8.70000076293945,-885.300048828125,1.06278678529433,-0.178185936632664,0.115399614016294,ST
9.76666666666667,-1.67001521587372,-1.14065861701965,9.48953819274902,0.221037998795509,0.754577994346619,-0.769822001457214,-1087.5,13.5000009536743,-873.300048828125,1.07363358015724,-0.174129660781071,0.119502946063958,ST
9.8,-1.8889354467392,-0.939084470272064,9.14381122589111,0.182927995920181,0.685979962348938,-0.533540010452271,-1077.90002441406,13.5000009536743,-873.300048828125,1.07848295102276,-0.203771288234084,0.102241914687232,ST
9.83333333333333,-1.96549785137177,-1.10776078701019,9.55712795257568,0.0762199983000755,-0.342989981174469,-0.777444005012512,-1080.30004882812,6.90000009536743,-887.700012207031,1.08960407231222,-0.200767187740701,0.115517296834871,ST
9.86666666666667,-1.42597281932831,-1.36197149753571,9.34478759765625,-0.152439996600151,-1.22714197635651,-2.13416004180908,-1075.5,9.90000057220459,-890.100036621094,1.11857864041152,-0.147216019928356,0.145490721327912,ST
9.9,-1.98583471775055,-1.45528185367584,9.67914962768555,-0.175305992364883,-0.861285984516144,-2.21037983894348,-1085.10009765625,4.5,-875.700012207031,1.14366692405222,-0.198095824086717,0.150260196131439,ST
9.93333333333333,-1.16936945915222,-1.60541570186615,9.19525146484375,0.137196004390717,-1.08232402801514,-2.4923939704895,-1075.5,9.30000019073486,-887.700012207031,1.17346748638453,-0.12204221616464,0.173089137467547,ST
9.96666666666667,-2.36744999885559,-1.70949256420135,10.1492900848389,0.160062000155449,0.304879993200302,-1.37195992469788,-1082.70007324219,6.90000009536743,-890.100036621094,1.19010555776136,-0.226202114810873,0.167153353102223,ST
10.0,-1.74897003173828,-2.04564905166626,10.1271591186523,-0.266770005226135,-1.40244793891907,-0.647870004177094,-1075.5,10.5,-882.900024414062,1.20027815550787,-0.165079811965295,0.199878068877965,ST
10.0333333333333,-1.4540855884552,-1.75674593448639,8.25377464294434,0.0533539988100529,0.304879993200302,-1.15092194080353,-1080.30004882812,8.70000076293945,-875.700012207031,1.21639168844611,-0.170737452482373,0.20997501427033,ST
10.0666666666667,-1.62336003780365,-1.95832014083862,9.60737228393555,0.0609759986400604,0.0152439996600151,-0.480185985565186,-1080.30004882812,5.70000028610229,-885.300048828125,1.22041057345559,-0.163938186864509,0.201113725252025,ST
10.1,-1.43733751773834,-1.87816894054413,9.42015361785889,0.6250039935112,-1.01372599601746,-0.609759986400604,-1082.70007324219,10.5,-875.700012207031,1.22521684947097,-0.146597190723235,0.195811145276678,ST
10.1333333333333,-1.08443319797516,-1.7124832868576,9.27181434631348,0.274392008781433,-0.907018005847931,-0.708845973014832,-1080.30004882812,10.5,-878.100036621094,1.2299071162069,-0.112741863284373,0.182270360386043,ST
10.1666666666667,-1.66463184356689,-1.85783207416534,9.61096096038818,-0.25152599811554,0.3125019967556,-0.358233988285065,-1094.70007324219,6.90000009536743,-885.300048828125,1.23541354552958,-0.168839873809064,0.191506462442248,ST
10.2,-1.4301598072052,-2.167072057724,10.1528787612915,-0.937505960464478,-0.87652999162674,-0.0304879993200302,-1075.5,8.10000038146973,-875.700012207031,1.23515935434732,-0.135399308140382,0.211883350410645,ST
10.2333333333333,-0.834409415721893,-2.21073651313782,9.29035663604736,-0.388722002506256,-0.67835795879364,0.0609759986400604,-1094.70007324219,4.5,-873.300048828125,1.23475139643524,-0.0860429939617789,0.234253949369397,ST
10.2666666666667,-1.85543954372406,-2.2131290435791,9.07981014251709,0.350611984729767,1.29574000835419,0.0152439996600151,-1080.30004882812,10.5,-878.100036621094,1.23938069711119,-0.198153330684411,0.238568715047451,ST
10.3,-1.36496222019196,-2.04624700546265,8.644362449646,0.884151995182037,2.26373386383057,-0.0838419944047928,-1080.30004882812,13.5000009536743,-892.500061035156,1.24680910663876,-0.156286177663334,0.231060868165148,ST
10.3333333333333,-2.31840205192566,-1.9026927947998,9.16055965423584,1.44817996025085,-0.114329993724823,0.243903994560242,-1077.90002441406,12.3000001907349,-885.300048828125,1.24202436796089,-0.242783012819526,0.2021560550611,ST
10.3666666666667,-1.26626861095428,-1.81955087184906,9.08459568023682,1.02134799957275,-0.853663980960846,0.121951997280121,-1075.5,3.90000009536743,-885.300048828125,1.23924459507018,-0.134430231105657,0.195824783787222,ST
10.4,-1.84586918354034,-1.70052051544189,9.67376613616943,0.815553963184357,-0.807931959629059,0.304879993200302,-1087.5,11.7000007629395,-880.500061035156,1.23197730953754,-0.184456917002121,0.172446564575577,ST
10.4333333333333,-0.988730311393738,-1.40264523029327,9.25865459442139,0.685979962348938,-1.30336201190948,-0.213415995240211,-1080.30004882812,13.5000009536743,-882.900024414062,1.22972890908068,-0.102910578973276,0.149163560188268,ST
10.4666666666667,-1.80519545078278,-1.5180869102478,9.91840648651123,0.0457319989800453,-0.503051996231079,-0.792688012123108,-1085.10009765625,8.10000038146973,-873.300048828125,1.23825473887361,-0.176903203835056,0.152018578352721,ST
10.5,-1.24174475669861,-1.70949256420135,9.521240234375,-0.403965979814529,-1.07470202445984,-1.85214591026306,-1082.70007324219,9.30000019073486,-878.100036621094,1.26088803167887,-0.125260016041855,0.178710043214996,ST
10.5333333333333,-0.73451954126358,-1.56892895698547,8.6503438949585,-0.495429992675781,-0.861285984516144,-2.59910202026367,-1089.90002441406,8.10000038146973,-882.900024414062,1.28814224358291,-0.0810764471671233,0.180626798091246,ST
10.5666666666667,-0.385204076766968,-1.51389980316162,8.74485015869141,-0.396344006061554,-0.67835795879364,-2.37806391716003,-1085.10009765625,5.10000038146973,-887.700012207031,1.31300829836172,-0.0415114817303778,0.172276340668991,ST
10.6,-0.74947315454483,-1.66164112091064,8.82380485534668,-0.0,-0.92988395690918,-2.56861400604248,-1075.5,4.5,-878.100036621094,1.34091716856606,-0.0808384406735995,0.186461039879693,ST
10.6333333333333,-1.37094366550446,-1.81715834140778,9.23772048950195,-0.152439996600151,0.327746003866196,-2.56861400604248,-1092.30004882812,10.5,-885.300048828125,1.37114301057398,-0.144270833563007,0.195148249929233,ST
10.6666666666667,-1.46963727474213,-1.9589182138443,9.6821403503418,-0.259148001670837,-0.160062000155449,-2.16464805603027,-1087.5,12.3000001907349,-885.300048828125,1.39530972994824,-0.146663264433457,0.200617347884305,ST
10.7,-1.14664006233215,-1.73222208023071,9.85380744934082,-0.342989981174469,-1.54726600646973,-2.33233189582825,-1077.90002441406,14.7000007629395,-892.500061035156,1.41466919976884,-0.110753556273536,0.175015474947642,ST
10.7333333333333,-0.607115089893341,-1.85843026638031,8.98590183258057,-0.129574000835419,-2.24848985671997,-3.01068997383118,-1085.10009765625,8.10000038146973,-887.700012207031,1.44585257619334,-0.0611739365126383,0.204424310456486,ST
10.7666666666667,-0.428270369768143,-2.42247915267944,8.55105209350586,-1.06708002090454,-2.11891603469849,-4.22258806228638,-1080.30004882812,14.7000007629395,-878.100036621094,1.48953374375239,-0.0425776906044327,0.278159439796803,ST
10.8,-0.967197179794312,-2.90458226203918,8.25736331939697,-1.29574000835419,-0.67835795879364,-4.12350177764893,-1089.90002441406,8.70000076293945,-882.900024414062,1.53494952986364,-0.106504296926515,0.341161654959742,ST
10.8333333333333,-1.16996765136719,-3.58287644386292,10.2569561004639,-1.41769194602966,-2.01982998847961,-2.43903994560242,-1092.30004882812,16.5,-866.100036621094,1.55270498537441,-0.102532839764009,0.338830290285441,ST
10.8666666666667,-0.343334078788757,-3.86878871917725,9.88730335235596,-0.922261953353882,-4.35978412628174,-2.00458598136902,-1099.5,5.10000038146973,-880.500061035156,1.55807223431919,-0.023983718718662,0.374586703534139,ST
10.9,0.229088753461838,-3.94953799247742,8.46731185913086,-0.434453994035721,-2.98020195960999,-1.93598794937134,-1104.30004882812,14.1000003814697,-873.300048828125,1.56420542096702,0.0306437729219669,0.43716184200778,ST
10.9333333333333,-0.112450875341892,-3.97466015815735,9.30471229553223,-0.198172003030777,-0.518296003341675,-0.647870004177094,-1104.30004882812,3.30000019073486,-882.900024414062,1.56955747805198,-0.0098331388188176,0.404059938640841,ST
10.9666666666667,-0.202770471572876,-3.7072901725769,8.6503438949585,1.08232402801514,-0.792688012123108,0.403965979814529,-1111.5,16.5,-875.700012207031,1.56168400337639,-0.0205433073603261,0.402978523542251,ST
11.0,-0.0185424312949181,-3.76590824127197,9.59481143951416,1.05183601379395,-1.18903195858002,1.53964400291443,-1101.90002441406,14.1000003814697,-887.700012207031,1.53986756047281,-0.0008496266168708,0.372190498919492,ST
11.0333333333333,0.131591454148293,-3.64568138122559,9.86517238616943,1.20427596569061,-1.84452390670776,2.27897787094116,-1109.10009765625,11.1000003814697,-873.300048828125,1.50782894513072,0.014157183434996,0.3519575949117,ST
11.0666666666667,0.831418752670288,-3.55895066261292,9.43809795379639,1.21189796924591,-2.03507399559021,2.78965187072754,-1109.10009765625,10.5,-882.900024414062,1.4682421557369,0.0838329443594869,0.358964998451555,ST
11.1,0.0227294322103262,-3.48896789550781,9.33940410614014,1.28811800479889,0.266770005226135,4.03203773498535,-1121.10009765625,12.3000001907349,-875.700012207031,1.42570119286834,-0.0005762012275376,0.35527104351227,ST
11.1333333333333,-0.631040811538696,-3.50571584701538,10.1343364715576,1.12043392658234,1.41006994247437,4.87807989120483,-1118.70007324219,12.3000001907349,-858.900024414062,1.37788277125372,-0.0638491254492438,0.330629898937119,ST
11.1666666666667,-0.24224790930748,-3.02122020721436,9.37349891662598,1.39482593536377,0.243903994560242,5.42686367034912,-1101.90002441406,9.90000057220459,-880.500061035156,1.31880488724569,-0.027891295984562,0.309124873153338,ST
11.2,-0.21712589263916,-2.76641130447388,8.52413558959961,1.40244793891907,0.754577994346619,6.18906402587891,-1109.10009765625,14.7000007629395,-880.500061035156,1.2501528981877,-0.0287819480745463,0.311081573548587,ST
11.2333333333333,-0.645396292209625,-2.66113805770874,8.64974594116211,1.63110792636871,1.71494996547699,6.15095376968384,-1101.90002441406,12.3000001907349,-885.300048828125,1.18874678226723,-0.0771631862006,0.29489881059133,ST
11.2666666666667,-1.32668113708496,-2.48588228225708,9.54875469207764,1.6768399477005,0.907018005847931,7.01986169815063,-1097.10009765625,13.5000009536743,-878.100036621094,1.10701866492642,-0.138211073498192,0.250171026236843,ST
11.3,-1.48698341846466,-2.51519107818604,10.5620088577271,1.6692179441452,0.426831990480423,6.95126390457153,-1089.90002441406,12.9000005722046,-885.300048828125,1.03068789262337,-0.13959212726189,0.229240964892203,ST
11.3333333333333,-0.679490387439728,-2.36386108398438,9.87294769287109,1.98171997070312,-0.0914639979600906,5.9222936630249,-1106.70007324219,11.1000003814697,-880.500061035156,0.966191403415448,-0.0690645576326642,0.230845009270022,ST
11.3666666666667,-0.665134966373444,-1.79323267936707,9.07681941986084,1.97409796714783,0.708845973014832,5.40399789810181,-1111.5,11.7000007629395,-873.300048828125,0.905679738953038,-0.0747692230295208,0.190942611028177,ST
11.4,-0.863120317459106,-1.47023546695709,9.17312049865723,1.99696397781372,0.975615978240967,5.49546194076538,-1101.90002441406,11.1000003814697,-880.500061035156,0.844228420813633,-0.0957940657537008,0.154567851344533,ST
11.4333333333333,-0.991721034049988,-1.61797678470612,9.16115760803223,1.95123195648193,1.04421401023865,5.10673999786377,-1101.90002441406,14.7000007629395,-875.700012207031,0.79258218610868,-0.109505802206044,0.170469351393994,ST
11.4666666666667,-1.20286548137665,-1.3159145116806,9.42374229431152,2.27135586738586,1.18903195858002,4.91618967056274,-1097.10009765625,10.5,-878.100036621094,0.73772259995924,-0.128944793595032,0.133724758372785,ST
11.5,-0.962412059307098,-1.15441596508026,9.63070011138916,2.08842802047729,0.663114011287689,4.71039581298828,-1085.10009765625,15.3000001907349,-878.100036621094,0.685366744745249,-0.100999888806116,0.11484659082614,ST
11.5333333333333,-1.00368392467499,-0.995309889316559,9.57746505737305,1.51677799224854,-0.823175966739655,3.53660798072815,-1097.10009765625,11.7000007629395,-880.500061035156,0.641990149084016,-0.103048483997487,0.100255508591246,ST
11.5666666666667,-1.12091994285583,-0.860129594802856,9.63488674163818,1.34147191047668,-0.381099998950958,3.14026403427124,-1092.30004882812,4.5,-890.100036621094,0.60286800274887,-0.115171649165267,0.0860587140723336,ST
11.6,-0.724351167678833,-0.979758203029633,9.81253528594971,0.891773998737335,-0.967993974685669,2.60672402381897,-1085.10009765625,10.5,-887.700012207031,0.573888454664571,-0.0720982612590504,0.0976179636389445,ST
11.6333333333333,0.110656447708607,-0.893625617027283,9.15637302398682,0.358233988285065,-1.65397393703461,0.99848198890686,-1080.30004882812,11.7000007629395,-878.100036621094,0.559756118444935,0.0147167374923157,0.0966922406919652,ST
11.6666666666667,-0.926523447036743,-0.684275567531586,9.01700496673584,0.449698001146317,0.121951997280121,0.426831990480423,-1087.5,13.5000009536743,-880.500061035156,0.554460774003712,-0.102331112101881,0.0748900615814913,ST
11.7,-1.58926582336426,-0.465355217456818,9.00863170623779,0.960371971130371,1.6768399477005,0.800309956073761,-1089.90002441406,12.9000005722046,-887.700012207031,0.544719930605542,-0.177359195985695,0.0497202081728306,ST
11.7333333333333,-1.8907299041748,-0.464757084846497,8.84832859039307,1.08232402801514,1.57775402069092,0.762199997901917,-1080.30004882812,11.7000007629395,-870.900024414062,0.539722038877156,-0.213040626771511,0.0503313255280058,ST
11.7666666666667,-2.58098697662354,-0.503636360168457,8.82619762420654,1.07470202445984,1.97409796714783,-0.266770005226135,-1085.10009765625,11.1000003814697,-885.300048828125,0.54847995894066,-0.287443879588504,0.0553175202924961,ST
11.8,-3.19169092178345,-0.707004964351654,10.5949068069458,0.259148001670837,1.12043392658234,0.510673999786377,-1073.10009765625,12.3000001907349,-878.100036621094,0.547324758336435,-0.293996942544618,0.0659477978543227,ST
11.8333333333333,-1.42836546897888,-1.17056584358215,10.5255222320557,-0.480185985565186,-2.80489587783813,-0.83841997385025,-1089.90002441406,15.3000001907349,-875.700012207031,0.562285108237174,-0.129091419551323,0.111699172621009,ST
11.8666666666667,-1.62934148311615,-0.571824669837952,9.43690204620361,0.0685980021953583,-2.89635992050171,-2.99544596672058,-1089.90002441406,8.10000038146973,-882.900024414062,0.586719832720836,-0.165285628669712,0.0612368467123039,ST
11.9,-1.34462535381317,-0.762632310390472,10.1540746688843,0.541162014007568,-0.297257989645004,-1.55488801002502,-1099.5,11.1000003814697,-882.900024414062,0.606952259549401,-0.130583352965341,0.0743669947396001,ST
11.9333333333333,-0.709397554397583,-0.681882977485657,9.72341251373291,0.922261953353882,-1.32622802257538,-2.28659987449646,-1089.90002441406,8.10000038146973,-878.100036621094,0.633140100262108,-0.0700826283188445,0.0686736306482687,ST
11.9666666666667,0.205163031816483,-0.334960073232651,7.93556261062622,0.46494197845459,-1.41006994247437,-4.35216188430786,-1092.30004882812,7.50000047683716,-873.300048828125,0.684802072003906,0.0285788489290262,0.0411655099946976,ST
12.0,-0.0119628589600325,-0.66334056854248,8.37699222564697,-0.282013982534409,-0.274392008781433,-4.5808219909668,-1087.5,5.70000028610229,-875.700012207031,0.736642465742439,-0.0003022420475602,0.0795023253155538,ST
12.0333333333333,-0.506627082824707,-0.733921408653259,8.86806774139404,-0.243903994560242,0.594515979290009,-4.61893177032471,-1101.90002441406,2.70000004768372,-878.100036621094,0.790124376208651,-0.0572162162831867,0.0834601926180078,ST
12.0666666666667,-1.51330173015594,-1.20884692668915,9.75631046295166,-0.266770005226135,1.19665396213531,-3.67380380630493,-1094.70007324219,14.7000007629395,-866.100036621094,0.83985654442992,-0.153991218096992,0.124760563901262,ST
12.1,-2.48049879074097,-1.81596207618713,11.1284503936768,-0.602137982845306,1.56251001358032,-3.84148788452148,-1101.90002441406,8.10000038146973,-897.300048828125,0.891258381506098,-0.218111213923563,0.164356812305409,ST
12.1333333333333,-1.75614774227142,-1.88415038585663,10.7552089691162,-1.18140995502472,0.228659987449646,-4.18447780609131,-1075.5,14.1000003814697,-880.500061035156,0.942626282603319,-0.158586358030773,0.176647510251639,ST
12.1666666666667,-0.980356335639954,-1.87996339797974,9.1928596496582,-1.01372599601746,0.716467976570129,-4.47411394119263,-1085.10009765625,9.30000019073486,-878.100036621094,0.996729852384728,-0.103761982904434,0.204305133622442,ST
12.2,-1.07306849956512,-1.96609592437744,8.59710884094238,-0.914639949798584,1.37958192825317,-4.49697971343994,-1080.30004882812,5.10000038146973,-880.500061035156,1.05170421972282,-0.121651381766576,0.227415665726604,ST
12.2333333333333,-1.35957896709442,-2.179034948349,8.94522857666016,-0.861285984516144,1.55488801002502,-3.65093803405762,-1077.90002441406,15.3000001907349,-878.100036621094,1.09678681663677,-0.147714348298241,0.241458608456699,ST
12.2666666666667,-1.2698575258255,-2.05342483520508,8.53550052642822,-0.632625997066498,0.693601965904236,-3.10215401649475,-1082.70007324219,12.9000005722046,-892.500061035156,1.1314542363294,-0.143551657592646,0.237995417179165,ST
12.3,-1.78605496883392,-2.08632278442383,8.52772426605225,-0.426831990480423,0.945127964019775,-2.13416004180908,-1077.90002441406,9.90000057220459,-873.300048828125,1.15709289034314,-0.201393704671459,0.241500678838007,ST
12.3333333333333,-1.52287197113037,-2.48468589782715,9.23173904418945,-0.952749967575073,0.800309956073761,-1.04421401023865,-1065.90002441406,8.70000076293945,-880.500061035156,1.17328844291313,-0.158850145610855,0.264911130121749,ST
12.3666666666667,-1.56593835353851,-2.42128276824951,10.0876808166504,-0.975615978240967,-0.167683988809586,-1.16616594791412,-1073.10009765625,9.30000019073486,-882.900024414062,1.17984772062739,-0.149054537540595,0.237566254980783,ST
12.4,-1.07785367965698,-2.62106251716614,9.59122276306152,-0.640248000621796,-0.724089980125427,-1.55488801002502,-1070.70007324219,11.1000003814697,-882.900024414062,1.19921407873437,-0.106050840864991,0.268120528351087,ST
12.4333333333333,-0.763828575611115,-2.40393662452698,8.66290473937988,-0.708845973014832,0.25152599811554,-1.84452390670776,-1073.10009765625,11.1000003814697,-882.900024414062,1.22004482343159,-0.0843227917721196,0.272194940271611,ST
12.4666666666667,-1.12450873851776,-2.60192203521729,9.18508338928223,-0.571649968624115,0.381099998950958,-1.03659200668335,-1082.70007324219,9.90000057220459,-887.700012207031,1.23242169734822,-0.117385987372578,0.277267307104688,ST
12.5,-1.5444051027298,-2.67429733276367,9.42075157165527,0.0762199983000755,-0.0152439996600151,-0.518296003341675,-1073.10009765625,8.70000076293945,-887.700012207031,1.23809271471681,-0.156131566011594,0.276599489159645,ST
12.5333333333333,-1.56534016132355,-2.72872829437256,9.48834228515625,0.594515979290009,0.0,-0.274392008781433,-1077.90002441406,12.9000005722046,-878.100036621094,1.24254906376077,-0.157107809769647,0.279065067714269,ST
12.5666666666667,-1.42657101154327,-2.67788600921631,9.46800518035889,0.769822001457214,0.198172003030777,-0.282013982534409,-1070.70007324219,11.1000003814697,-880.500061035156,1.2468429713376,-0.144185961820681,0.27437635081435,ST
12.6,-1.0335910320282,-2.24602675437927,8.86986255645752,0.92988395690918,0.541162014007568,-0.434453994035721,-1070.70007324219,17.7000007629395,-890.100036621094,1.25087602945919,-0.113227486607947,0.24650328030083,ST
12.6333333333333,-1.37453258037567,-2.39077734947205,9.1988410949707,0.670735955238342,-0.762199997901917,-0.350611984729767,-1073.10009765625,15.3000001907349,-880.500061035156,1.25448701071718,-0.142173504051467,0.253138211720986,ST
12.6666666666667,-1.30873680114746,-2.53492999076843,8.77356147766113,0.3125019967556,-1.07470202445984,-0.647870004177094,-1061.10009765625,15.9000005722046,-873.300048828125,1.26302707720174,-0.140222137354537,0.280799295216972,ST
12.7,-1.41759884357452,-2.64259552955627,8.75681304931641,-0.0609759986400604,-1.46342396736145,-0.6250039935112,-1065.90002441406,9.90000057220459,-890.100036621094,1.26675813186844,-0.150994698002354,0.29323419692963,ST
12.7333333333333,-1.08323693275452,-2.77957034111023,8.87644195556641,-0.259148001670837,-2.01220798492432,-0.358233988285065,-1065.90002441406,17.1000003814697,-878.100036621094,1.26486134217481,-0.112411170638401,0.303865576137525,ST
12.7666666666667,-1.55397546291351,-3.22099995613098,9.0433235168457,-0.571649968624115,-1.57775402069092,0.411587983369827,-1080.30004882812,11.1000003814697,-897.300048828125,1.25773031868775,-0.158125376745333,0.342902077596819,ST
12.8,-1.32608294487,-3.81555390357971,9.81732082366943,-1.18140995502472,-0.899396002292633,1.57775402069092,-1065.90002441406,12.9000005722046,-887.700012207031,1.23960607652465,-0.124792729373232,0.372346948963005,ST
12.8333333333333,-1.1496307849884,-3.59184861183167,9.79399299621582,-0.99848198890686,-1.74543797969818,1.92074394226074,-1085.10009765625,12.9000005722046,-887.700012207031,1.20848453637015,-0.108066061049752,0.352803003805229,ST
12.8666666666667,-1.04794645309448,-3.64986848831177,8.82141208648682,-0.213415995240211,-1.47104597091675,3.17837381362915,-1080.30004882812,12.3000001907349,-880.500061035156,1.17239307730712,-0.109078195608906,0.391994695886027,ST
12.9,-1.14544379711151,-3.50212717056274,8.77116870880127,0.403965979814529,-0.495429992675781,3.83386588096619,-1070.70007324219,8.10000038146973,-878.100036621094,1.12854330406296,-0.122355973869377,0.378378950181633,ST
12.9333333333333,-0.703416109085083,-3.05411791801453,9.10373592376709,1.42531394958496,-1.60824191570282,3.89484190940857,-1080.30004882812,7.50000047683716,-863.700012207031,1.07593231717811,-0.0726198427586018,0.320677354690778,ST
12.9666666666667,-0.820053994655609,-2.99310731887817,9.21857929229736,2.14940404891968,-1.18903195858002,3.63569402694702,-1092.30004882812,8.10000038146973,-882.900024414062,1.0306380391104,-0.0843628755913737,0.309630271506855,ST
13.0,-1.05273163318634,-2.76521492004395,9.46561241149902,2.44666194915771,-0.342989981174469,3.45276594161987,-1085.10009765625,17.7000007629395,-882.900024414062,0.991565004887473,-0.107431370614339,0.279321670513757,ST
13.0333333333333,-1.24174475669861,-2.37462759017944,9.69769191741943,2.46952795982361,-0.823175966739655,3.40703392028809,-1075.5,13.5000009536743,-880.500061035156,0.949805459034849,-0.123720111458243,0.235084100914726,ST
13.0666666666667,-0.984543323516846,-2.35249638557434,8.94462966918945,2.59148001670837,-0.92988395690918,3.68904781341553,-1094.70007324219,9.30000019073486,-868.500061035156,0.911400296395971,-0.106091362754864,0.251946242366971,ST
13.1,-1.48279643058777,-2.27234506607056,9.27659893035889,2.04269599914551,0.160062000155449,3.88721990585327,-1082.70007324219,12.3000001907349,-873.300048828125,0.865396821714947,-0.155875187071976,0.235635951833184,ST
13.1333333333333,-0.796128273010254,-2.24064350128174,9.26164531707764,2.21800184249878,-1.2576299905777,3.94819593429565,-1089.90002441406,11.7000007629395,-880.500061035156,0.820063124772794,-0.0828351841249401,0.232895917303791,ST
13.1666666666667,-0.836203873157501,-1.92302966117859,8.56241703033447,2.77440786361694,-0.480185985565186,4.07014799118042,-1092.30004882812,3.90000009536743,-873.300048828125,0.774711422589103,-0.0956962223143874,0.215404537706301,ST
13.2,-1.11613476276398,-1.79981219768524,9.4907341003418,3.00306797027588,-0.0304879993200302,4.33691787719727,-1082.70007324219,5.10000038146973,-870.900024414062,0.723426799134611,-0.116344214820473,0.181308094051996,ST
13.2333333333333,-0.863718450069427,-1.52227389812469,9.51585674285889,3.39178991317749,-0.663114011287689,3.91008591651917,-1094.70007324219,8.70000076293945,-885.300048828125,0.678574501143088,-0.0892889200277372,0.152098032168315,ST
13.2666666666667,-1.63651919364929,-1.27344644069672,9.42912578582764,3.39178991317749,0.617381989955902,3.39941191673279,-1082.70007324219,12.3000001907349,-854.100036621094,0.644133939881157,-0.172130874400109,0.127334628547845,ST
13.3,-1.59106028079987,-1.36974740028381,10.2808809280396,2.62959003448486,0.365855991840363,3.30032587051392,-1089.90002441406,5.10000038146973,-875.700012207031,0.612065545704104,-0.153588214329533,0.126992015064081,ST
13.3333333333333,-1.45827257633209,-1.13706982135773,10.4962129592896,2.10367202758789,-0.952749967575073,2.38568592071533,-1104.30004882812,5.10000038146973,-897.300048828125,0.58230715103914,-0.136037941912976,0.103651982710497,ST
13.3666666666667,-0.512608528137207,-0.809885561466217,9.32624530792236,1.51677799224854,-1.87501192092896,1.47866797447205,-1087.5,7.50000047683716,-882.900024414062,0.561686961440754,-0.051673973242509,0.0838304159609186,ST
13.4,-0.832016885280609,-0.507225215435028,8.36802005767822,1.2347639799118,0.106707997620106,0.579271972179413,-1089.90002441406,3.90000009536743,-878.100036621094,0.554512766101186,-0.0991514247970268,0.0582949198444877,ST
13.4333333333333,-1.41759884357452,-0.436046212911606,8.73767280578613,0.510673999786377,0.556405961513519,1.31098401546478,-1082.70007324219,4.5,-868.500061035156,0.538314295007937,-0.161714930575678,0.0486080345077767,ST
13.4666666666667,-1.08263874053955,-0.529954671859741,8.81961822509766,-0.365855991840363,-0.990859985351562,1.06708002090454,-1101.90002441406,2.10000014305115,-875.700012207031,0.526604740669943,-0.120324595260768,0.0604131288744354,ST
13.5,-0.865512907505035,-0.735715866088867,9.27001953125,-1.09756803512573,-1.28811800479889,0.106707997620106,-1082.70007324219,2.70000004768372,-878.100036621094,0.524886006046433,-0.0905852278645269,0.0810789210643127,ST
13.5333333333333,-1.26028728485107,-0.913364291191101,10.0529890060425,-1.41006994247437,-1.50915598869324,0.0533539988100529,-1082.70007324219,4.5,-880.500061035156,0.521949628331007,-0.12158626249868,0.0930239207382834,ST
13.5666666666667,-0.697434723377228,-1.33086812496185,9.66240119934082,-1.52439999580383,-1.28049600124359,-0.221037998795509,-1087.5,6.30000019073486,-873.300048828125,0.525600312590999,-0.0691345702261863,0.139526073132137,ST
13.6,-1.3159145116806,-1.67180955410004,10.5536346435547,-1.2576299905777,-0.121951997280121,-0.960371971130371,-1089.90002441406,8.10000038146973,-873.300048828125,0.537303086920598,-0.122052625429631,0.159496549643169,ST
13.6333333333333,-1.29617583751678,-1.51748871803284,10.4495573043823,-0.350611984729767,-0.160062000155449,-1.21951997280121,-1099.5,11.1000003814697,-875.700012207031,0.548585469508694,-0.121558533064225,0.145081407843933,ST
13.6666666666667,-0.477916240692139,-1.19329524040222,9.01401424407959,0.449698001146317,-1.2500079870224,-1.36433792114258,-1111.5,11.7000007629395,-882.900024414062,0.561752646649427,-0.050056001503172,0.130939711860227,ST
13.7,-0.771604418754578,-1.00368392467499,8.26035404205322,0.708845973014832,-0.442075997591019,-1.63110792636871,-1094.70007324219,4.5,-863.700012207031,0.579634364244873,-0.0913437305302392,0.119930005702202,ST
13.7333333333333,-1.18910825252533,-1.07187223434448,9.32803916931152,0.25152599811554,0.175305992364883,-0.663114011287689,-1092.30004882812,8.70000076293945,-875.700012207031,0.587115604946602,-0.126133385289718,0.114119922882111,ST
13.7666666666667,-0.783567309379578,-1.39786016941071,9.72101974487305,0.0990860015153885,-0.87652999162674,-1.37195992469788,-1087.5,13.5000009536743,-880.500061035156,0.604338117348801,-0.0777773416724602,0.142804233291249,ST
13.8,-1.21662282943726,-1.44750595092773,10.0027446746826,-0.182927995920181,-0.365855991840363,-1.6768399477005,-1099.5,12.3000001907349,-868.500061035156,0.622646090577653,-0.118732044205838,0.144366342390757,ST
13.8333333333333,-1.32907366752625,-1.64967834949493,10.68044090271,-0.381099998950958,0.0762199983000755,-1.81403601169586,-1089.90002441406,11.7000007629395,-878.100036621094,0.643935882930637,-0.122011044366233,0.154294861551548,ST
13.8666666666667,-0.876279473304749,-1.75315701961517,9.44766807556152,-0.266770005226135,-0.0533539988100529,-2.90398192405701,-1092.30004882812,15.3000001907349,-866.100036621094,0.679471782153616,-0.0899327030344818,0.184381924286003,ST
13.9,-0.910971760749817,-1.81656014919281,9.19345760345459,-0.525918006896973,0.632625997066498,-3.28508186340332,-1097.10009765625,2.70000004768372,-880.500061035156,0.71837544471359,-0.0968660551631002,0.196560907907045,ST
13.9333333333333,-0.698032855987549,-1.87099123001099,8.75980377197266,-0.495429992675781,0.342989981174469,-3.05642199516296,-1097.10009765625,2.70000004768372,-875.700012207031,0.755419713547411,-0.0772402486367184,0.211700984041856,ST
13.9666666666667,-1.1657806634903,-1.93499255180359,8.65692329406738,-0.586893975734711,0.579271972179413,-2.71343183517456,-1101.90002441406,6.30000019073486,-885.300048828125,0.787330155788649,-0.130600634645191,0.22156143899354,ST
14.0,-1.64070618152618,-2.10187435150146,8.96676158905029,-0.746955990791321,1.21951997280121,-1.81403601169586,-1099.5,8.10000038146973,-868.500061035156,0.810711536437101,-0.177625522138798,0.232190530130823,ST
14.0333333333333,-1.22499680519104,-2.29447650909424,10.2629375457764,-0.975615978240967,-0.419209986925125,-1.12805593013763,-1101.90002441406,6.30000019073486,-873.300048828125,0.819325585304741,-0.114837029448921,0.221861772349125,ST
14.0666666666667,-0.814670741558075,-2.41111421585083,9.80117034912109,-0.579271972179413,-1.00610399246216,-1.39482593536377,-1092.30004882812,16.5,-866.100036621094,0.833558374302057,-0.0782621150261518,0.242369837030782,ST
14.1,-0.516197383403778,-2.34711313247681,9.51884746551514,-0.708845973014832,-0.114329993724823,-1.82165801525116,-1097.10009765625,16.5,-868.500061035156,0.853169243345776,-0.051653121476768,0.24314709009953,ST
14.1333333333333,-0.814670741558075,-2.32079482078552,9.34658241271973,-0.564027965068817,0.739333987236023,-1.62348592281342,-1101.90002441406,7.50000047683716,-880.500061035156,0.872890623929515,-0.0849473110183874,0.244626211708945,ST
14.1666666666667,-0.742295444011688,-2.24901747703552,9.06186580657959,-0.320124000310898,0.327746003866196,-1.18903195858002,-1077.90002441406,7.50000047683716,-882.900024414062,0.887959309405396,-0.0793898600001071,0.243999539255382,ST
14.2,-0.978561878204346,-2.35249638557434,9.12467098236084,-0.381099998950958,0.693601965904236,-0.807931959629059,-1087.5,8.70000076293945,-878.100036621094,0.899942440844357,-0.104291083194174,0.25316028721545,ST
14.2333333333333,-0.936691880226135,-2.28670048713684,9.02238845825195,-0.137196004390717,0.792688012123108,-1.04421401023865,-1092.30004882812,18.9000015258789,-870.900024414062,0.913158446552236,-0.101192369304048,0.248675444867732,ST
14.2666666666667,-1.13467717170715,-2.44102144241333,9.47398662567139,0.0533539988100529,0.746955990791321,-0.67835795879364,-1082.70007324219,16.5,-878.100036621094,0.923263417209087,-0.116425772565503,0.252248196279235,ST
14.3,-1.10536825656891,-2.50322842597961,10.0482034683228,0.205793991684914,-0.518296003341675,-0.823175966739655,-1080.30004882812,12.9000005722046,-875.700012207031,0.930783030709851,-0.105118603873102,0.243918495401402,ST
14.3333333333333,-0.486888378858566,-2.43503999710083,9.24729061126709,0.297257989645004,-0.586893975734711,-1.30336201190948,-1087.5,15.3000001907349,-878.100036621094,0.945182440777162,-0.0493171761211404,0.25705357664539,ST
14.3666666666667,-0.904392182826996,-2.34113168716431,9.41835880279541,0.190549999475479,0.533540010452271,-0.983237981796265,-1085.10009765625,8.10000038146973,-899.700012207031,0.957601223501883,-0.0934021862300907,0.243480170917105,ST
14.4,-0.620274245738983,-2.26277494430542,8.47508811950684,0.0228659994900227,0.106707997620106,-1.2347639799118,-1085.10009765625,6.90000009536743,-858.900024414062,0.973076653512745,-0.0702251029553845,0.261009683362521,ST
14.4333333333333,-1.36436414718628,-2.50861167907715,8.47389125823975,-0.266770005226135,1.71494996547699,-1.01372599601746,-1087.5,8.10000038146973,-897.300048828125,0.993809995671154,-0.15552988095511,0.288680770967719,ST
14.4666666666667,-1.43853390216827,-2.8842453956604,10.1762065887451,-0.663114011287689,-0.198172003030777,-0.990859985351562,-1080.30004882812,14.1000003814697,-890.100036621094,1.00223970377087,-0.134372172023961,0.277557827672626,ST
14.5,-0.44322395324707,-3.68157005310059,8.85969352722168,0.0609759986400604,-1.38720393180847,0.899396002292633,-1085.10009765625,18.9000015258789,-878.100036621094,0.924333044706305,-0.0473841278160327,0.390213620859036,ST
14.5333333333333,-0.464158952236176,-3.23176646232605,8.63718414306641,1.265251994133,-1.2576299905777,2.08842802047729,-1087.5,6.90000009536743,-878.100036621094,0.872170798047989,-0.0495005226389117,0.355626283079001,ST
14.5666666666667,-1.1777435541153,-3.71865487098694,9.281982421875,1.11281192302704,-0.121951997280121,2.37806391716003,-1087.5,5.70000028610229,-882.900024414062,0.84815596023115,-0.118567853964408,0.378636214710338,ST
14.6,-1.10177934169769,-3.54280090332031,10.5757656097412,0.945127964019775,-1.2500079870224,2.28659987449646,-1089.90002441406,10.5,-873.300048828125,0.81360892570987,-0.0976620728405586,0.321173459008147,ST
14.6333333333333,-0.253612607717514,-2.97516322135925,9.1802978515625,1.85976791381836,-2.20275783538818,2.67532205581665,-1089.90002441406,12.3000001907349,-880.500061035156,0.776585723527903,-0.0240617247879496,0.310022016871216,ST
14.6666666666667,-0.30325847864151,-2.89800262451172,9.10254001617432,2.20275783538818,-1.12043392658234,3.62045001983643,-1094.70007324219,8.70000076293945,-892.500061035156,0.733546815433408,-0.0317593033785873,0.304173612049815,ST
14.7,-0.205761179327965,-2.85254383087158,9.22515869140625,2.01220798492432,0.0990860015153885,3.49849796295166,-1097.10009765625,10.5,-870.900024414062,0.695701971227816,-0.0232564353548574,0.296243935825812,ST
14.7333333333333,-0.215331465005875,-2.37881469726562,8.91532135009766,2.27897787094116,-0.0609759986400604,3.61282801628113,-1101.90002441406,14.1000003814697,-880.500061035156,0.6550195560841,-0.0248299122722394,0.256632033756882,ST
14.7666666666667,-0.46236452460289,-2.25260639190674,9.13483905792236,2.19513607025146,0.388722002506256,3.87959790229797,-1104.30004882812,6.90000009536743,-875.700012207031,0.613186022008018,-0.0513488379125257,0.237617366273881,ST
14.8,-0.71059387922287,-2.05701375007629,9.05468845367432,2.10367202758789,0.472563982009888,3.99392795562744,-1089.90002441406,11.7000007629395,-880.500061035156,0.566428762280917,-0.0786969541996808,0.219194610679457,ST
14.8333333333333,-0.673509001731873,-1.8847484588623,9.62651252746582,2.12653803825378,0.236281991004944,4.1997218132019,-1101.90002441406,14.1000003814697,-868.500061035156,0.516359959690648,-0.0703381283032838,0.189134181477351,ST
14.8666666666667,-0.878073871135712,-1.89252436161041,9.69589710235596,1.87501192092896,0.106707997620106,3.46800994873047,-1089.90002441406,11.7000007629395,-885.300048828125,0.479355667890105,-0.0899649638699912,0.188959676985039,ST
14.9,-1.32727921009064,-1.89013183116913,9.46800518035889,1.63110792636871,0.800309956073761,2.71343183517456,-1101.90002441406,11.7000007629395,-882.900024414062,0.453684791707321,-0.138883012741726,0.193584363900369,ST
14.9333333333333,-1.26088535785675,-1.58149003982544,9.2466926574707,1.58537602424622,1.22714197635651,2.9268479347229,-1092.30004882812,8.10000038146973,-868.500061035156,0.42013075674857,-0.136565921648782,0.165989668300065,ST
14.9666666666667,-1.19150078296661,-1.50911474227905,9.09476375579834,1.64635193347931,0.221037998795509,2.85062789916992,-1092.30004882812,11.1000003814697,-870.900024414062,0.387538600883717,-0.129709570775805,0.160929272891681,ST
15.0,-1.49236667156219,-1.49176859855652,9.23951435089111,1.52439999580383,1.07470202445984,2.32470989227295,-1094.70007324219,10.5,-875.700012207031,0.365460042635008,-0.160600833155587,0.156814505245231,ST
15.0333333333333,-1.52945160865784,-1.39726197719574,9.2640380859375,1.6615959405899,1.17378795146942,2.34757590293884,-1085.10009765625,6.30000019073486,-880.500061035156,0.342434650212358,-0.164445102228795,0.146180025278843,ST
15.0666666666667,-1.7184647321701,-1.41819703578949,9.60378360748291,1.60061991214752,0.685979962348938,2.45428395271301,-1080.30004882812,5.10000038146973,-873.300048828125,0.317977923074029,-0.17699549112942,0.143091647284884,ST
15.1,-1.76093292236328,-1.43315052986145,9.93276214599609,1.40244793891907,-0.304879993200302,2.21800184249878,-1085.10009765625,3.30000019073486,-882.900024414062,0.294866019511087,-0.173715823990269,0.140163790082036,ST
15.1333333333333,-1.31830716133118,-1.21542656421661,9.54875469207764,1.2423859834671,-0.617381989955902,2.13416004180908,-1082.70007324219,3.30000019073486,-882.900024414062,0.269344156496872,-0.135513260672578,0.123919891093391,ST
15.1666666666667,-0.551487803459167,-0.938486337661743,8.78731822967529,1.21189796924591,-0.640248000621796,2.17989206314087,-1080.30004882812,8.70000076293945,-866.100036621094,0.241207849933551,-0.0616211707103841,0.104044059474883,ST
15.2,-0.684873700141907,-0.909177303314209,9.07083797454834,0.701223969459534,-0.815553963184357,2.08842802047729,-1085.10009765625,7.50000047683716,-868.500061035156,0.215133460562243,-0.0739249362232925,0.0983952690585237,ST
15.2333333333333,-0.771604418754578,-0.958823204040527,9.21140193939209,0.274392008781433,-0.87652999162674,1.82165801525116,-1089.90002441406,6.30000019073486,-870.900024414062,0.19390920108455,-0.0819264771103198,0.102964377603093,ST
15.2666666666667,-0.820053994655609,-1.1597992181778,9.33162879943848,-0.0457319989800453,-0.434453994035721,1.84452390670776,-1097.10009765625,9.90000057220459,-878.100036621094,0.173972793687216,-0.0866300831566781,0.123440282169619,ST
15.3,-1.41520631313324,-1.30514800548553,10.0105209350586,-0.243903994560242,0.129574000835419,2.17227005958557,-1089.90002441406,4.5,-863.700012207031,0.149884224637777,-0.139974056132303,0.129544908560702,ST
15.3333333333333,-1.44451522827148,-1.39307498931885,9.86696624755859,0.0762199983000755,0.25152599811554,2.18751406669617,-1094.70007324219,8.10000038146973,-866.100036621094,0.124932872497787,-0.144923917594916,0.139581581701122,ST
15.3666666666667,-1.66762256622314,-1.24413740634918,10.1331396102905,0.762199997901917,0.320124000310898,1.89787793159485,-1094.70007324219,4.5,-866.100036621094,0.10240787653736,-0.162861360365831,0.120314850832856,ST
15.4,-1.32967185974121,-0.897812604904175,9.7778434753418,1.59299790859222,-0.350611984729767,1.89787793159485,-1092.30004882812,3.90000009536743,-870.900024414062,0.0770953478325527,-0.134288487318941,0.0883365095896121,ST
15.4333333333333,-1.22021162509918,-0.439635097980499,9.21738338470459,2.17227005958557,-0.579271972179413,1.29574000835419,-1101.90002441406,6.30000019073486,-870.900024414062,0.059344078935809,-0.130559546246681,0.043580750894308,ST
15.4666666666667,-1.68197798728943,-0.189611315727234,9.1569709777832,2.05031800270081,0.396344006061554,0.78506600856781,-1082.70007324219,11.1000003814697,-882.900024414062,0.0504749899590199,-0.182318690642937,0.016884435112488,ST
15.5,-1.62934148311615,-0.0759641602635384,9.533203125,1.55488801002502,0.152439996600151,0.388722002506256,-1077.90002441406,5.70000028610229,-885.300048828125,0.0470759397127835,-0.169545868875792,0.0051425242731668,ST
15.5333333333333,-1.78126978874207,-0.0101684303954244,9.8316764831543,0.990859985351562,-0.3125019967556,-0.320124000310898,-1097.10009765625,6.30000019073486,-887.700012207031,0.0517242453638579,-0.178684386164303,-0.0005924275892109,ST
15.5666666666667,-1.45946884155273,-0.148339450359344,9.38665771484375,0.274392008781433,-0.503051996231079,-1.79117000102997,-1094.70007324219,3.30000019073486,-878.100036621094,0.0752290744667073,-0.153310595565968,0.0157986425445865,ST
15.6,-1.35539197921753,-0.238659039139748,9.18269062042236,-0.236281991004944,-0.304879993200302,-2.46190595626831,-1087.5,1.5,-870.900024414062,0.107799425532921,-0.145848843762415,0.0270245175099428,ST
15.6333333333333,-1.60302317142487,-0.355895072221756,9.2407112121582,-0.518296003341675,-0.335367977619171,-2.9192259311676,-1073.10009765625,4.5,-892.500061035156,0.141880890401658,-0.170842001622736,0.0402691723383368,ST
15.6666666666667,-1.50313329696655,-0.812278151512146,9.69709396362305,-0.922261953353882,-0.83841997385025,-2.63721203804016,-1082.70007324219,2.70000004768372,-885.300048828125,0.177563697128114,-0.151409361537368,0.0858498559879187,ST
15.7,-1.10118126869202,-0.951047301292419,9.16594314575195,-1.36433792114258,-0.586893975734711,-3.40703392028809,-1085.10009765625,4.5,-873.300048828125,0.21645362117622,-0.117294680588193,0.10644822918125,ST
15.7333333333333,-1.29198884963989,-1.32309222221375,9.69649600982666,-1.32622802257538,0.221037998795509,-3.05642199516296,-1082.70007324219,3.90000009536743,-873.300048828125,0.253407799389114,-0.130901848246581,0.138619621109233,ST
15.7666666666667,-1.36077523231506,-1.58806955814362,9.96147346496582,-1.01372599601746,-0.0762199983000755,-2.9116039276123,-1087.5,9.30000019073486,-875.700012207031,0.290267028612855,-0.133147414999587,0.160526554556278,ST
15.8,-0.869699895381927,-1.66822075843811,9.31787109375,-0.564027965068817,-0.182927995920181,-3.66618180274963,-1085.10009765625,6.30000019073486,-875.700012207031,0.332677241241203,-0.0901817087346687,0.178701155996006,ST
15.8333333333333,-1.51270353794098,-1.67539846897125,8.69460582733154,-0.396344006061554,1.03659200668335,-3.30794787406921,-1089.90002441406,12.9000005722046,-880.500061035156,0.37287135705397,-0.169853066177314,0.192077977833643,ST
15.8666666666667,-2.00856399536133,-1.90209460258484,9.54396915435791,-0.640248000621796,1.57775402069092,-2.38568592071533,-1080.30004882812,8.70000076293945,-880.500061035156,0.402563305122037,-0.205402413520335,0.198798295635252,ST
15.9,-1.58149003982544,-2.08991146087646,9.76946926116943,-0.480185985565186,-0.160062000155449,-2.25611186027527,-1080.30004882812,5.70000028610229,-887.700012207031,0.428765700226606,-0.155910895972184,0.2121764493873,ST
15.9333333333333,-1.41400992870331,-1.94575905799866,9.29334735870361,-0.297257989645004,0.78506600856781,-2.42379593849182,-1077.90002441406,9.90000057220459,-878.100036621094,0.456415793576087,-0.148308752451344,0.207570882422312,ST
15.9666666666667,-1.31890523433685,-1.94097399711609,9.35435771942139,-0.160062000155449,0.731711983680725,-2.12653803825378,-1082.70007324219,11.1000003814697,-873.300048828125,0.4813012667775,-0.137682685301001,0.205410618040778,ST
16.0,-1.49834811687469,-1.92123520374298,9.24429988861084,0.0838419944047928,0.137196004390717,-2.00458598136902,-1068.30004882812,14.7000007629395,-863.700012207031,0.504089585465123,-0.156894822283828,0.20531531240388,ST
16.0333333333333,-1.16936945915222,-1.80698990821838,8.7101583480835,-0.160062000155449,0.129574000835419,-1.63872992992401,-1080.30004882812,9.30000019073486,-875.700012207031,0.522441506741868,-0.130352482361701,0.205208831159233,ST
16.0666666666667,-1.12570512294769,-1.89372062683105,9.31727313995361,-0.381099998950958,-0.495429992675781,-1.49391198158264,-1068.30004882812,0.900000035762787,-882.900024414062,0.537062997481083,-0.116485435916952,0.201462347076143,ST
16.1,-0.428270369768143,-1.71906292438507,9.01700496673584,-0.114329993724823,-1.85976791381836,-1.60061991214752,-1070.70007324219,9.90000057220459,-878.100036621094,0.549999139557439,-0.0429338367505443,0.188682041839021,ST
16.1333333333333,-0.739304721355438,-1.80639171600342,8.8997688293457,-0.152439996600151,-1.11281192302704,-1.2500079870224,-1082.70007324219,2.70000004768372,-880.500061035156,0.562495618622977,-0.0788840503796887,0.200651757787643,ST
16.1666666666667,-1.07247030735016,-2.29627084732056,9.25985145568848,-0.701223969459534,-0.0533539988100529,-1.47866797447205,-1068.30004882812,8.10000038146973,-880.500061035156,0.583054197158709,-0.111223651467796,0.244570901164028,ST
16.2,-1.36137342453003,-2.39795517921448,9.33102989196777,-0.83841997385025,-0.129574000835419,-1.85976791381836,-1073.10009765625,5.10000038146973,-870.900024414062,0.603047488741628,-0.139334671216943,0.253437127471286,ST
16.2333333333333,-1.29139065742493,-2.69642853736877,9.54157638549805,-0.541162014007568,-0.724089980125427,-1.92074394226074,-1070.70007324219,10.5,-870.900024414062,0.624231467231311,-0.12738631866912,0.276722040224972,ST
16.2666666666667,-1.05811488628387,-2.67070841789246,8.76698112487793,-0.221037998795509,-0.564027965068817,-2.02745199203491,-1082.70007324219,5.70000028610229,-880.500061035156,0.647244679572587,-0.112974411054539,0.296433993028195,ST
16.3,-0.992917358875275,-2.79930901527405,8.70118618011475,-0.167683988809586,-0.419209986925125,-1.54726600646973,-1082.70007324219,17.7000007629395,-866.100036621094,0.66413431678035,-0.106682675437591,0.311797475690706,ST
16.3333333333333,-1.56294763088226,-3.09897875785828,9.63070011138916,-0.480185985565186,-1.29574000835419,-1.41769194602966,-1075.5,6.30000019073486,-873.300048828125,0.674261838944885,-0.150348299156994,0.312407508647204,ST
16.3666666666667,-1.42118775844574,-3.01942563056946,9.87115383148193,-0.0228659994900227,-1.64635193347931,-0.632625997066498,-1080.30004882812,13.5000009536743,-882.900024414062,0.673393852411369,-0.133751602953686,0.296919985230153,ST
16.4,-1.01564681529999,-3.44231271743774,10.0906715393066,-0.167683988809586,-2.43903994560242,-0.358233988285065,-1085.10009765625,11.1000003814697,-882.900024414062,0.671782063149226,-0.0907585308385394,0.328969078198954,ST
16.4333333333333,-0.75545459985733,-3.20185923576355,9.94173431396484,0.0685980021953583,-2.96495795249939,-0.579271972179413,-1089.90002441406,14.7000007629395,-875.700012207031,0.666138543276988,-0.0669739770787476,0.311415381994086,ST
16.4666666666667,-0.257201462984085,-3.10675454139709,9.1868782043457,0.564027965068817,-1.93598794937134,0.419209986925125,-1082.70007324219,6.90000009536743,-870.900024414062,0.655298120302446,-0.0235609992932035,0.325068968375272,ST
16.5,-0.0825437307357788,-3.15998935699463,9.533203125,0.853663980960846,-1.27287399768829,-0.0762199983000755,-1097.10009765625,8.70000076293945,-882.900024414062,0.651515235681162,-0.0060729760138978,0.318583090467396,ST
16.5333333333333,-0.0041870009154081,-2.7963182926178,9.15398025512695,1.6920839548111,-1.09756803512573,-0.190549999475479,-1101.90002441406,7.50000047683716,-875.700012207031,0.649798507449145,0.0014906034400734,0.293526008501037,ST
16.5666666666667,-0.353502482175827,-2.68386745452881,9.05409049987793,2.45428395271301,-0.221037998795509,0.46494197845459,-1089.90002441406,13.5000009536743,-882.900024414062,0.644657982487458,-0.0372603569666337,0.283861285079452,ST
16.6,-0.733323276042938,-2.36206650733948,8.92070388793945,2.4923939704895,0.350611984729767,1.16616594791412,-1094.70007324219,9.90000057220459,-863.700012207031,0.633117551176426,-0.0803904487820831,0.254358623089947,ST
16.6333333333333,-1.05273163318634,-2.17664217948914,9.07502555847168,2.34757590293884,0.731711983680725,2.46190595626831,-1099.5,11.7000007629395,-868.500061035156,0.607623994722014,-0.114548271779449,0.230865099065833,ST
16.6666666666667,-1.0916109085083,-2.32019662857056,9.50808048248291,1.63110792636871,0.670735955238342,2.86587190628052,-1085.10009765625,6.90000009536743,-863.700012207031,0.577677937819658,-0.113385113713952,0.235976766296982,ST
16.7,-1.1556122303009,-2.34172964096069,9.36751747131348,0.87652999162674,0.335367977619171,2.58385801315308,-1087.5,4.5,-873.300048828125,0.551113250687539,-0.120765503287514,0.242918435856477,ST
16.7333333333333,-0.83261501789093,-2.167072057724,9.33761024475098,0.403965979814529,-0.0762199983000755,3.16313004493713,-1087.5,5.70000028610229,-873.300048828125,0.514336022534257,-0.0877651343103655,0.226866918514996,ST
16.7666666666667,-0.582591235637665,-2.14673519134521,9.62112998962402,0.46494197845459,-0.46494197845459,3.18599581718445,-1094.70007324219,12.9000005722046,-868.500061035156,0.477135599172996,-0.0594532848672558,0.218388496939702,ST
16.8,-0.159106031060219,-2.2173159122467,9.27360820770264,0.792688012123108,-0.167683988809586,3.3689239025116,-1077.90002441406,6.30000019073486,-878.100036621094,0.438560124061559,-0.0177689935753672,0.233202993874941,ST
16.8333333333333,0.0167480036616325,-2.15152025222778,9.37828350067139,0.884151995182037,0.541162014007568,2.82013988494873,-1089.90002441406,13.5000009536743,-873.300048828125,0.405476536143532,-0.0002757926889513,0.223969557306193,ST
16.8666666666667,-1.0216281414032,-1.98224580287933,9.62651252746582,1.2500079870224,1.64635193347931,3.3460578918457,-1080.30004882812,11.1000003814697,-868.500061035156,0.370761004801833,-0.107526079097536,0.200347068143594,ST
16.9,-0.846970438957214,-2.00078821182251,9.84543323516846,1.28811800479889,0.884151995182037,3.27745985984802,-1080.30004882812,0.300000011920929,-880.500061035156,0.336970651036181,-0.086748893280536,0.197781341279577,ST
16.9333333333333,-1.13049018383026,-1.82732677459717,9.67556095123291,1.22714197635651,0.533540010452271,2.96495795249939,-1080.30004882812,7.50000047683716,-894.900024414062,0.304915916213531,-0.116162484910523,0.183951462082042,ST
16.9666666666667,-1.34881234169006,-1.85843026638031,9.31308650970459,1.02134799957275,1.21951997280121,2.66007804870605,-1085.10009765625,11.1000003814697,-878.100036621094,0.280822465495876,-0.144062914400153,0.19457729471713,ST
17.0,-1.60661196708679,-1.84287846088409,9.38426494598389,1.01372599601746,1.15092194080353,2.63721203804016,-1073.10009765625,7.50000047683716,-868.500061035156,0.254579908054244,-0.169282034015658,0.191437896631618,ST
17.0333333333333,-1.54679775238037,-1.85364508628845,9.18927001953125,0.960371971130371,0.541162014007568,2.64483404159546,-1068.30004882812,6.30000019073486,-887.700012207031,0.228996080294444,-0.165359403939289,0.196645452049077,ST
17.0666666666667,-1.42358028888702,-1.77169942855835,9.42912578582764,1.05183601379395,-0.579271972179413,2.61434602737427,-1077.90002441406,8.10000038146973,-887.700012207031,0.194745580715741,-0.147144968622585,0.183204035676745,ST
17.1,-1.13826608657837,-1.65147268772125,8.90754508972168,1.32622802257538,-0.960371971130371,2.56099200248718,-1082.70007324219,11.1000003814697,-875.700012207031,0.165554157070935,-0.124151798819393,0.180419399101465,ST
17.1333333333333,-1.04854464530945,-1.46903908252716,8.86746978759766,1.28049600124359,-0.792688012123108,2.78202986717224,-1087.5,3.90000009536743,-885.300048828125,0.132109570592864,-0.115549408031944,0.161364093051464,ST
17.1666666666667,-0.942075192928314,-1.51150727272034,9.66599082946777,1.34147191047668,-1.13567793369293,3.11739802360535,-1085.10009765625,8.70000076293945,-873.300048828125,0.0931785358211969,-0.0948667832273802,0.152237087132591,ST
17.2,-1.26327800750732,-1.34821426868439,9.59600734710693,1.43293595314026,-0.533540010452271,3.3613018989563,-1080.30004882812,2.70000004768372,-882.900024414062,0.0512059213628452,-0.129505544934334,0.1363116796277,ST
17.2333333333333,-1.24593186378479,-1.09998488426208,9.67316818237305,1.36433792114258,-0.434453994035721,3.44514393806458,-1089.90002441406,9.90000057220459,-873.300048828125,0.0067471185983719,-0.127194141382278,0.110075920385252,ST
17.2666666666667,-1.3218959569931,-1.06708705425262,9.89208889007568,1.44055795669556,-1.05945801734924,3.3460578918457,-1106.70007324219,3.90000009536743,-870.900024414062,-0.031133563374968,-0.130854920913363,0.104154749869729,ST
17.3,-1.03837621212006,-0.833811283111572,9.7658805847168,1.37958192825317,-1.08232402801514,2.59148001670837,-1094.70007324219,11.7000007629395,-870.900024414062,-0.0626114564025229,-0.104046507218973,0.0822852219094737,ST
17.3333333333333,-1.16996765136719,-0.643601834774017,9.58464336395264,1.6844619512558,-0.327746003866196,1.6615959405899,-1077.90002441406,9.30000019073486,-875.700012207031,-0.0836580552689101,-0.12080869022064,0.0637545780308044,ST
17.3666666666667,-1.03598368167877,-0.333165645599365,9.1151008605957,1.91312193870544,0.0152439996600151,1.08232402801514,-1082.70007324219,3.30000019073486,-887.700012207031,-0.0974058316217216,-0.11318682418241,0.032988718595396,ST
17.4,-1.67180955410004,-0.293090045452118,9.22695350646973,1.28049600124359,0.0990860015153885,0.548784017562866,-1092.30004882812,5.10000038146973,-878.100036621094,-0.10207567734214,-0.17934963650645,0.0293468046916511,ST
17.4333333333333,-1.90209460258484,-0.41152235865593,9.79997444152832,0.67835795879364,-0.274392008781433,0.114329993724823,-1080.30004882812,9.90000057220459,-870.900024414062,-0.0999191270511871,-0.191070368595542,0.0407383108531379,ST
17.4666666666667,-1.43973016738892,-0.552684128284454,9.11868953704834,-0.182927995920181,-1.13567793369293,-0.289635986089706,-1089.90002441406,6.90000009536743,-882.900024414062,-0.0942457505308875,-0.154315975381453,0.0609084599122382,ST
17.5,-1.70052051544189,-0.843381583690643,9.42015361785889,-0.701223969459534,-0.182927995920181,-0.937505960464478,-1099.5,3.30000019073486,-882.900024414062,-0.0802918237132698,-0.17742576521278,0.0907923671762307,ST
17.5333333333333,-1.69394087791443,-1.20465993881226,10.3993139266968,-0.891773998737335,-0.586893975734711,-0.861285984516144,-1082.70007324219,2.70000004768372,-878.100036621094,-0.0685656757446125,-0.159230742074603,0.11709495272781,ST
