seconds,sensor_accX_m_s_,sensor_accY_m_s_,sensor_accZ_m_s_,sensor_gyroX___s_,sensor_gyroY___s_,sensor_gyroZ___s_,sensor_magX__T_,sensor_magY__T_,sensor_magZ__T_,sensor_yaw___,sensor_pitch___,sensor_roll___,label3
0.0,-2.02890086174011,-1.32369041442871,9.3238525390625,0.640248000621796,-0.487807989120483,0.342989981174469,-1068.30004882812,4.5,-880.500061035156,-2.99072011958745,-0.211445134260841,0.139755277851774,ST
0.0333333333333333,-2.09649109840393,-1.30813872814178,9.37589073181152,0.571649968624115,-0.396344006061554,0.411587983369827,-1073.10009765625,3.90000009536743,-887.700012207031,-2.99386045639048,-0.21733354035971,0.137459261935526,ST
0.0666666666666667,-2.02232146263123,-1.27284824848175,9.46082782745361,0.640248000621796,-0.487807989120483,0.503051996231079,-1080.30004882812,12.3000001907349,-873.300048828125,-2.99859839691945,-0.208052294409618,0.132420285529901,ST
0.1,-1.98703098297119,-1.22619307041168,9.39622783660889,0.647870004177094,-0.609759986400604,0.503051996231079,-1065.90002441406,5.70000028610229,-897.300048828125,-3.00290411086066,-0.205763956381642,0.128438555729226,ST
0.133333333333333,-1.97985327243805,-1.18731379508972,9.40101337432861,0.609759986400604,-0.525918006896973,0.525918006896973,-1085.10009765625,7.50000047683716,-887.700012207031,-3.00736976782,-0.205182361698552,0.124368507608822,ST
0.166666666666667,-1.92183339595795,-1.18611752986908,9.44288349151611,0.617381989955902,-0.525918006896973,0.564027965068817,-1073.10009765625,10.5,-875.700012207031,-3.01145952801506,-0.198490876212757,0.123660717834458,ST
0.2,-1.93738508224487,-1.15680849552155,9.36871337890625,0.525918006896973,-0.419209986925125,0.579271972179413,-1070.70007324219,0.900000035762787,-887.700012207031,-3.01594459094465,-0.201808032345127,0.121719553199067,ST
0.233333333333333,-1.84586918354034,-1.18791198730469,9.51226806640625,0.365855991840363,-0.472563982009888,0.304879993200302,-1068.30004882812,6.90000009536743,-887.700012207031,-3.01789454652832,-0.189519842910018,0.123472905168824,ST
0.266666666666667,-1.87099123001099,-1.14544379711151,9.50209903717041,0.426831990480423,-0.472563982009888,0.243903994560242,-1068.30004882812,-2.10000014305115,-887.700012207031,-3.02042631797138,-0.192274683388977,0.119137088254985,ST
0.3,-1.89013183116913,-1.16219174861908,9.41477012634277,0.442075997591019,-0.259148001670837,0.434453994035721,-1068.30004882812,3.90000009536743,-870.900024414062,-3.02286383299368,-0.196302762282658,0.12187978949886,ST
0.333333333333333,-1.91525375843048,-1.1436493396759,9.36632061004639,0.396344006061554,-0.160062000155449,0.46494197845459,-1075.5,5.10000038146973,-890.100036621094,-3.02627524810067,-0.20006159167177,0.120643531445124,ST
0.366666666666667,-2.00976037979126,-1.19329524040222,9.46262168884277,0.236281991004944,-0.0533539988100529,0.442075997591019,-1080.30004882812,-1.5,-887.700012207031,-3.02873603770579,-0.207667489305476,0.124857790812544,ST
0.4,-2.02232146263123,-1.21841728687286,9.37828350067139,0.335367977619171,-0.137196004390717,0.46494197845459,-1073.10009765625,9.30000019073486,-875.700012207031,-3.03130486172431,-0.210526605127562,0.128420863140099,ST
0.433333333333333,-2.04385447502136,-1.23935222625732,9.40699481964111,0.335367977619171,-0.160062000155449,0.533540010452271,-1082.70007324219,4.5,-885.300048828125,-3.03469871234634,-0.212004782304686,0.130195091176837,ST
0.466666666666667,-1.98344206809998,-1.20645439624786,9.44707012176514,0.442075997591019,-0.236281991004944,0.442075997591019,-1087.5,3.90000009536743,-882.900024414062,-3.0385138675199,-0.205040506464537,0.126092591518545,ST
0.5,-2.02710652351379,-1.1777435541153,9.38845252990723,0.510673999786377,-0.25152599811554,0.457319974899292,-1063.5,5.10000038146973,-885.300048828125,-3.04215019309434,-0.210694958644295,0.123727480126711,ST
0.533333333333333,-2.01992893218994,-1.15321969985962,9.42314434051514,0.510673999786377,-0.289635986089706,0.503051996231079,-1075.5,6.30000019073486,-885.300048828125,-3.04613990966455,-0.20925386349601,0.120697806186353,ST
0.566666666666667,-1.96968483924866,-1.1496307849884,9.38905048370361,0.480185985565186,-0.426831990480423,0.442075997591019,-1085.10009765625,7.50000047683716,-887.700012207031,-3.04956778007362,-0.204657216560368,0.120821241104356,ST
0.6,-2.00557327270508,-1.14723825454712,9.47817325592041,0.434453994035721,-0.411587983369827,0.411587983369827,-1068.30004882812,6.30000019073486,-873.300048828125,-3.05272754994285,-0.206421359809652,0.11953314484824,ST
0.633333333333333,-1.98104953765869,-1.12929391860962,9.43570518493652,0.472563982009888,-0.449698001146317,0.434453994035721,-1063.5,3.90000009536743,-878.100036621094,-3.0560646016991,-0.204837238741234,0.118121063670367,ST
0.666666666666667,-1.96310520172119,-1.14903259277344,9.4195556640625,0.434453994035721,-0.37347799539566,0.365855991840363,-1070.70007324219,0.300000011920929,-882.900024414062,-3.05832867948544,-0.203428719024765,0.120474170646048,ST
0.7,-1.90030026435852,-1.14125680923462,9.46621036529541,0.419209986925125,-0.457319974899292,0.342989981174469,-1058.70007324219,2.70000004768372,-882.900024414062,-3.06128182401585,-0.196017775358474,0.119115962609075,ST
0.733333333333333,-1.9188426733017,-1.15680849552155,9.38007831573486,0.381099998950958,-0.365855991840363,0.25152599811554,-1073.10009765625,8.70000076293945,-885.300048828125,-3.06244555534929,-0.199711036912777,0.121927012081562,ST
0.766666666666667,-1.91166496276855,-1.15142524242401,9.48236083984375,0.304879993200302,-0.266770005226135,0.335367977619171,-1063.5,-0.300000011920929,-894.900024414062,-3.06526541580383,-0.1971383026862,0.120182328336779,ST
0.8,-1.94874978065491,-1.1418548822403,9.377685546875,0.403965979814529,-0.342989981174469,0.297257989645004,-1075.5,2.70000004768372,-880.500061035156,-3.06729885871334,-0.202880963046949,0.120340199510704,ST
0.833333333333333,-1.84347665309906,-1.24054849147797,9.34299278259277,0.228659987449646,-0.25152599811554,0.259148001670837,-1068.30004882812,5.10000038146973,-878.100036621094,-3.0670436087279,-0.19281711500431,0.13146741582076,ST
0.866666666666667,-1.94217026233673,-1.24294114112854,9.59301662445068,0.221037998795509,-0.297257989645004,0.228659987449646,-1075.5,9.30000019073486,-875.700012207031,-3.06938962977709,-0.197662633980133,0.12838248248568,ST
0.9,-1.89013183116913,-1.24473547935486,9.38127422332764,0.381099998950958,-0.396344006061554,0.304879993200302,-1077.90002441406,3.30000019073486,-885.300048828125,-3.07125142637032,-0.196520790671039,0.131118900070941,ST
0.933333333333333,-1.93439435958862,-1.23157632350922,9.39862060546875,0.327746003866196,-0.152439996600151,0.472563982009888,-1077.90002441406,9.30000019073486,-861.300048828125,-3.0751970911939,-0.201141917363365,0.129552861330391,ST
0.966666666666667,-1.89431881904602,-1.28122222423553,9.43391132354736,0.342989981174469,-0.228659987449646,0.419209986925125,-1077.90002441406,5.10000038146973,-873.300048828125,-3.07726101869581,-0.196128077797591,0.134213844117619,ST
1.0,-1.96011447906494,-1.25849282741547,9.40579795837402,0.327746003866196,-0.243903994560242,0.426831990480423,-1073.10009765625,2.70000004768372,-882.900024414062,-3.08071205608064,-0.203338839619429,0.132281039349233,ST
1.03333333333333,-1.88833737373352,-1.25251138210297,9.42613506317139,0.358233988285065,-0.266770005226135,0.46494197845459,-1070.70007324219,11.1000003814697,-894.900024414062,-3.08425942709622,-0.195707014233038,0.131309196474275,ST
1.06666666666667,-1.93140363693237,-1.29318511486053,9.38665771484375,0.396344006061554,-0.236281991004944,0.350611984729767,-1063.5,2.70000004768372,-873.300048828125,-3.08582857548387,-0.200742857078169,0.13606860537839,ST
1.1,-2.05641555786133,-1.31292378902435,9.40101337432861,0.381099998950958,-0.259148001670837,0.403965979814529,-1073.10009765625,3.30000019073486,-880.500061035156,-3.08824177244832,-0.212948591744885,0.137923836156754,ST
1.13333333333333,-1.98583471775055,-1.24952065944672,9.47099590301514,0.487807989120483,-0.350611984729767,0.487807989120483,-1080.30004882812,6.90000009536743,-887.700012207031,-3.09322511215712,-0.204490363220111,0.130159122626745,ST
1.16666666666667,-1.94994604587555,-1.26267981529236,9.36153602600098,0.556405961513519,-0.403965979814529,0.510673999786377,-1068.30004882812,-0.900000035762787,-887.700012207031,-3.09618566415359,-0.202989817920477,0.132888034752874,ST
1.2,-2.03009724617004,-1.27464270591736,9.39383506774902,0.541162014007568,-0.472563982009888,0.518296003341675,-1075.5,8.10000038146973,-882.900024414062,-3.09988316254283,-0.210246628055085,0.133704259366311,ST
1.23333333333333,-2.06239700317383,-1.28959619998932,9.37409687042236,0.571649968624115,-0.632625997066498,0.525918006896973,-1089.90002441406,-1.5,-878.100036621094,-3.10365994805191,-0.213624696501778,0.135480992264565,ST
1.26666666666667,-2.1592960357666,-1.338045835495,9.25566387176514,0.602137982845306,-0.716467976570129,0.533540010452271,-1077.90002441406,5.10000038146973,-887.700012207031,-3.10605670085262,-0.225767063288427,0.142241941457412,ST
1.3,-2.38419795036316,-1.34761607646942,9.08698844909668,0.495429992675781,-0.754577994346619,0.67835795879364,-1068.30004882812,6.30000019073486,-899.700012207031,-3.11060080957035,-0.252738152566989,0.146002937630458,ST
1.33333333333333,-2.67489528656006,-1.53662931919098,9.210205078125,0.571649968624115,-0.975615978240967,0.693601965904236,-1097.10009765625,6.30000019073486,-880.500061035156,-3.11168739680999,-0.277465732417623,0.163865056789039,ST
1.36666666666667,-2.90398406982422,-1.32608294487,8.92668533325195,0.83841997385025,-1.50915598869324,0.83841997385025,-1075.5,8.70000076293945,-873.300048828125,-3.12309922166997,-0.30881187469964,0.145494992895658,ST
1.4,-2.86929178237915,-1.3458217382431,8.83516979217529,0.846041977405548,-1.53964400291443,1.37195992469788,-1080.30004882812,1.5,-873.300048828125,-3.13219751740656,-0.308358989596436,0.148791742875501,ST
1.43333333333333,-2.81785154342651,-1.36974740028381,8.83277702331543,0.78506600856781,-1.63872992992401,1.33385002613068,-1085.10009765625,1.5,-878.100036621094,-3.1414947564082,-0.302936624479855,0.151613097477415,ST
1.46666666666667,-2.72095227241516,-1.26925933361053,8.76399040222168,0.632625997066498,-1.91312193870544,1.13567793369293,-1085.10009765625,9.30000019073486,-882.900024414062,3.12957157703796,-0.295112308150829,0.142015572596953,ST
1.5,-2.84716057777405,-1.23636150360107,8.97932243347168,0.396344006061554,-2.10367202758789,1.33385002613068,-1089.90002441406,5.70000028610229,-875.700012207031,3.11511004429452,-0.301021340036929,0.135279452268133,ST
1.53333333333333,-2.49545240402222,-1.06589078903198,9.02896785736084,0.419209986925125,-2.72105383872986,1.44055795669556,-1097.10009765625,3.90000009536743,-878.100036621094,3.0970120441822,-0.263593061216418,0.11602059281573,ST
1.56666666666667,-1.76691436767578,-1.14723825454712,9.2287483215332,0.442075997591019,-3.33843588829041,0.99848198890686,-1082.70007324219,2.70000004768372,-880.500061035156,3.08811608504425,-0.182486128303043,0.122426679006134,ST
1.6,-1.7244461774826,-1.04256319999695,9.13005447387695,0.655492007732391,-3.86435389518738,0.708845973014832,-1099.5,-0.300000011920929,-873.300048828125,3.07814188652723,-0.178948894340191,0.11223034325144,ST
1.63333333333333,-1.27882969379425,-1.04196500778198,9.62412071228027,0.868907988071442,-3.81862187385559,0.602137982845306,-1111.5,0.900000035762787,-885.300048828125,3.06924996760445,-0.124913282769625,0.106116629589695,ST
1.66666666666667,-0.980954468250275,-0.97258049249649,9.18328857421875,1.17378795146942,-3.76526784896851,0.0381099991500378,-1104.30004882812,0.900000035762787,-878.100036621094,3.06649837980535,-0.0993932137994194,0.103399750570016,ST
1.7,-0.878672003746033,-0.976169347763062,9.33222675323486,0.990859985351562,-2.9268479347229,-0.167683988809586,-1113.90002441406,3.30000019073486,-875.700012207031,3.06606567420958,-0.0883009428822954,0.102475672265517,ST
1.73333333333333,-0.727341830730438,-1.02641332149506,9.59540939331055,1.20427596569061,-2.88873791694641,-0.411587983369827,-1121.10009765625,-2.10000014305115,-875.700012207031,3.06796223971625,-0.0701748476144535,0.104470849773703,ST
1.76666666666667,-0.739304721355438,-0.946860313415527,9.5744743347168,1.00610399246216,-2.19513607025146,-0.37347799539566,-1135.5,6.90000009536743,-882.900024414062,3.06942707308599,-0.0728093122789372,0.0968522845448259,ST
1.8,-0.66334056854248,-0.987534046173096,9.5391845703125,0.891773998737335,-1.82165801525116,-0.0533539988100529,-1123.5,0.900000035762787,-873.300048828125,3.06917620039683,-0.0659070669446309,0.101570447235783,ST
1.83333333333333,-0.374437510967255,-1.0216281414032,9.57387638092041,0.655492007732391,-1.48628997802734,0.0152439996600151,-1123.5,0.900000035762787,-873.300048828125,3.06821447760934,-0.0364018063162387,0.105139389429005,ST
1.86666666666667,-0.317613929510117,-1.04734838008881,9.91003227233887,0.472563982009888,-0.746955990791321,0.0838419944047928,-1128.30004882812,-0.900000035762787,-863.700012207031,3.06694080043598,-0.0305941315240729,0.104462979090607,ST
1.9,-0.176452174782753,-1.10177934169769,9.81253528594971,0.457319974899292,-0.198172003030777,0.0,-1147.5,0.900000035762787,-873.300048828125,3.06698830154357,-0.0175496683331689,0.111002991050775,ST
1.93333333333333,-0.209350034594536,-1.09938681125641,10.6176357269287,0.419209986925125,0.114329993724823,-0.0914639979600906,-1128.30004882812,-0.300000011920929,-870.900024414062,3.06772377876415,-0.0197837331010321,0.102479097105837,ST
1.96666666666667,-0.104675017297268,-0.879270195960999,10.6164398193359,0.670735955238342,-0.106707997620106,-0.114329993724823,-1121.10009765625,3.90000009536743,-863.700012207031,3.06843265638007,-0.0096396110622552,0.0814967159027512,ST
2.0,0.148937597870827,-1.07605922222137,11.0315504074097,0.411587983369827,-0.228659987449646,-0.236281991004944,-1123.5,-0.300000011920929,-885.300048828125,3.07024946862297,0.013827867678346,0.0964837482140668,ST
2.03333333333333,0.192602038383484,-0.949851036071777,11.0668411254883,0.632625997066498,-0.37347799539566,-0.381099998950958,-1133.10009765625,1.5,-873.300048828125,3.07315108719527,0.0180284035095694,0.0845477100557736,ST
2.06666666666667,-0.276342064142227,-0.821848452091217,10.8897905349731,0.663114011287689,0.0228659994900227,-0.0304879993200302,-1128.30004882812,3.90000009536743,-861.300048828125,3.07347044602659,-0.0252056807817547,0.0742017884912857,ST
2.1,-0.266173630952835,-0.547300815582275,11.3055000305176,0.457319974899292,-0.907018005847931,0.769822001457214,-1133.10009765625,2.70000004768372,-875.700012207031,3.06614440079314,-0.0220048445819855,0.047622214428048,ST
2.13333333333333,0.402550220489502,-0.0831418707966805,10.7181234359741,0.152439996600151,-1.86738991737366,1.56251001358032,-1140.30004882812,1.5,-873.300048828125,3.05364268439648,0.0405440547193717,0.007746096822372,ST
2.16666666666667,1.12331247329712,-0.0436644367873669,10.4447727203369,-0.25152599811554,-1.88263392448425,0.815553963184357,-1133.10009765625,-1.5,-882.900024414062,3.0474296974522,0.11015718806656,0.0047873368083755,ST
2.2,0.814670741558075,0.158507883548737,9.58583927154541,-0.548784017562866,-0.899396002292633,-0.46494197845459,-1121.10009765625,-0.300000011920929,-858.900024414062,3.05364636854197,0.0864166232579403,-0.0155744353658926,ST
2.23333333333333,-0.267369896173477,-0.213537037372589,9.64086818695068,-0.663114011287689,1.31098401546478,-0.342989981174469,-1125.90002441406,-3.30000019073486,-863.700012207031,3.05552769599437,-0.0296458868134893,0.0232049916284365,ST
2.26666666666667,-0.641807436943054,-0.622068703174591,9.74554347991943,-1.11281192302704,0.853663980960846,-1.10518991947174,-1140.30004882812,0.300000011920929,-868.500061035156,3.06631909837812,-0.0668533195871069,0.0656636099540228,ST
2.3,-1.23038005828857,-0.548497080802917,9.61514854431152,-0.960371971130371,0.381099998950958,-1.43293595314026,-1125.90002441406,1.5,-870.900024414062,3.07643176987703,-0.127359841209039,0.0590058799786306,ST
2.33333333333333,-1.37453258037567,-1.17535090446472,9.79817962646484,-1.21189796924591,0.746955990791321,-0.861285984516144,-1130.70007324219,5.10000038146973,-866.100036621094,3.09109379103972,-0.139473962601656,0.121544670080828,ST
2.36666666666667,-1.48937594890594,-1.24952065944672,10.1175880432129,-1.12043392658234,0.0838419944047928,-1.06708002090454,-1137.90002441406,-1.5,-875.700012207031,3.09883483740662,-0.144963387210324,0.125092345898369,ST
2.4,-1.70231485366821,-1.51868498325348,8.68383979797363,-0.769822001457214,1.60824191570282,-0.6250039935112,-1133.10009765625,3.30000019073486,-878.100036621094,3.11338192099281,-0.193213925808351,0.174662312740177,ST
2.43333333333333,-1.60541570186615,-2.13656663894653,9.51585674285889,-1.21189796924591,2.14940404891968,-1.08232402801514,-1125.90002441406,1.5,-866.100036621094,3.13274283164697,-0.166471342363735,0.223283784749182,ST
2.46666666666667,-2.55407047271729,-1.95473122596741,9.29753398895264,-0.640248000621796,1.50153398513794,-0.937505960464478,-1123.5,5.70000028610229,-885.300048828125,3.13880872501553,-0.264652037834519,0.208948132009566,ST
2.5,-2.28131723403931,-1.93439435958862,9.7598991394043,-0.144817993044853,1.03659200668335,-0.266770005226135,-1109.10009765625,7.50000047683716,-878.100036621094,3.13917504105007,-0.227183669330182,0.196140559108507,ST
2.53333333333333,-1.67001521587372,-1.79502701759338,8.65752124786377,0.472563982009888,0.663114011287689,-0.434453994035721,-1123.5,-0.300000011920929,-885.300048828125,-3.13696380153381,-0.187756341926227,0.203784061605696,ST
2.56666666666667,-2.00198459625244,-1.39367318153381,9.07741737365723,0.3125019967556,0.46494197845459,0.0609759986400604,-1118.70007324219,0.300000011920929,-868.500061035156,3.13649574787626,-0.215351212637437,0.151993072083382,ST
2.6,-1.06050753593445,-1.65207087993622,8.68563365936279,0.0609759986400604,0.0990860015153885,-0.243903994560242,-1111.5,-5.10000038146973,-875.700012207031,-3.13852153038052,-0.119755290434115,0.18780592020555,ST
2.63333333333333,-2.02112507820129,-1.17116391658783,8.72570991516113,-0.0533539988100529,0.6250039935112,-0.266770005226135,-1109.10009765625,-0.300000011920929,-878.100036621094,3.1380643485997,-0.226286382369294,0.133858690957218,ST
2.66666666666667,-1.16398620605469,-1.54859220981598,9.13543796539307,-0.0533539988100529,0.175305992364883,0.144817993044853,-1109.10009765625,7.50000047683716,-870.900024414062,-3.14014253055832,-0.125683611917364,0.167863596636865,ST
2.7,-1.40384149551392,-1.42716908454895,8.47568607330322,0.152439996600151,0.586893975734711,-0.289635986089706,-1106.70007324219,7.50000047683716,-882.900024414062,-3.13687674148367,-0.162739652588729,0.166665306315351,ST
2.73333333333333,-1.83450448513031,-1.34342908859253,9.15218544006348,0.144817993044853,1.37958192825317,0.586893975734711,-1118.70007324219,-4.5,-882.900024414062,3.13975611821863,-0.19817961935543,0.14544029914389,ST
2.76666666666667,-1.62336003780365,-1.54919028282166,8.96197605133057,0.0609759986400604,1.12805593013763,-0.182927995920181,-1109.10009765625,-2.70000004768372,-875.700012207031,-3.13563050801943,-0.178589985038043,0.171088031026448,ST
2.8,-2.25798964500427,-1.27882969379425,9.05947303771973,0.182927995920181,1.53202199935913,-0.167683988809586,-1104.30004882812,0.300000011920929,-890.100036621094,-3.13872375948073,-0.244323390080635,0.140194121752434,ST
2.83333333333333,-1.76631617546082,-1.97626435756683,9.53140830993652,-0.289635986089706,1.41769194602966,-0.282013982534409,-1109.10009765625,0.300000011920929,-878.100036621094,-3.12115252956853,-0.182058466497434,0.204898167562133,ST
2.86666666666667,-2.58098697662354,-1.53962004184723,9.29813289642334,0.0304879993200302,1.28811800479889,-0.777444005012512,-1099.5,2.10000014305115,-878.100036621094,-3.12193742044656,-0.269084172784202,0.164609734372755,ST
2.9,-2.34352421760559,-2.12580013275146,9.91780853271484,-0.182927995920181,1.84452390670776,-0.46494197845459,-1094.70007324219,6.90000009536743,-868.500061035156,-3.10380393085102,-0.230134969273301,0.211698746372243,ST
2.93333333333333,-2.54749083518982,-1.99959194660187,9.56610012054443,0.0533539988100529,1.21189796924591,-1.18140995502472,-1099.5,5.10000038146973,-880.500061035156,-3.09393686910086,-0.256545135503158,0.206629246400053,ST
2.96666666666667,-2.63422155380249,-1.79741966724396,9.86517238616943,0.556405961513519,0.922261953353882,-0.754577994346619,-1080.30004882812,3.90000009536743,-882.900024414062,-3.09178685168953,-0.258237831152387,0.179721040309011,ST
3.0,-2.07555603981018,-1.83988773822784,10.018895149231,0.78506600856781,0.3125019967556,-0.78506600856781,-1082.70007324219,7.50000047683716,-882.900024414062,-3.08302423065546,-0.201406100338345,0.180543124652669,ST
3.03333333333333,-2.27413964271545,-1.16099548339844,8.75621509552002,1.06708002090454,0.655492007732391,-0.350611984729767,-1082.70007324219,7.50000047683716,-880.500061035156,-3.08851695038073,-0.252922083851092,0.130277308425608,ST
3.06666666666667,-1.66044485569,-1.58328449726105,9.23891639709473,0.190549999475479,0.853663980960846,-0.342989981174469,-1097.10009765625,1.5,-880.500061035156,-3.07611009388954,-0.176971501621276,0.169400546679003,ST
3.1,-2.2472231388092,-1.30933499336243,9.41596698760986,-0.0533539988100529,0.907018005847931,-0.602137982845306,-1092.30004882812,-2.70000004768372,-885.300048828125,-3.07674918850818,-0.233339839848134,0.138674702558774,ST
3.13333333333333,-1.50971281528473,-1.58089184761047,8.95061111450195,-0.0838419944047928,0.442075997591019,-0.411587983369827,-1070.70007324219,3.90000009536743,-890.100036621094,-3.06540874625033,-0.165338880268436,0.175052674985628,ST
3.16666666666667,-2.06957459449768,-1.69693160057068,9.30889892578125,-0.0381099991500378,0.541162014007568,-0.846041977405548,-1087.5,5.70000028610229,-887.700012207031,-3.05706540818682,-0.21580479928269,0.180710899747523,ST
3.2,-1.84885990619659,-1.6544634103775,8.97633171081543,0.320124000310898,0.716467976570129,-0.609759986400604,-1087.5,6.30000019073486,-885.300048828125,-3.05052547662585,-0.200946622744,0.18196483608783,ST
3.23333333333333,-2.28012108802795,-1.92183339595795,9.39144325256348,-0.205793991684914,0.594515979290009,-1.21189796924591,-1077.90002441406,2.70000004768372,-882.900024414062,-3.0361735675235,-0.233988424684392,0.202674029317781,ST
3.26666666666667,-2.69702672958374,-1.79502701759338,9.54636192321777,-0.0457319989800453,0.525918006896973,-0.693601965904236,-1077.90002441406,-1.5,-882.900024414062,-3.03426931268715,-0.271370648732078,0.186380209841922,ST
3.3,-1.84885990619659,-2.32019662857056,9.10074520111084,0.106707997620106,0.0685980021953583,-0.137196004390717,-1080.30004882812,3.30000019073486,-887.700012207031,-3.01837087675724,-0.194715187773107,0.249266852897141,ST
3.33333333333333,-2.19159579277039,-1.98164761066437,9.46321964263916,-0.121951997280121,-0.342989981174469,-0.236281991004944,-1075.5,8.70000076293945,-882.900024414062,-3.02611959926348,-0.222136603130919,0.206856189055964,ST
3.36666666666667,-2.22389554977417,-1.73581087589264,9.76049709320068,0.381099998950958,-0.823175966739655,0.693601965904236,-1058.70007324219,6.30000019073486,-885.300048828125,-3.03893586281058,-0.219480897427093,0.175130018701626,ST
3.4,-1.01624488830566,-2.22568988800049,8.99906063079834,0.213415995240211,-0.92988395690918,0.114329993724823,-1075.5,5.10000038146973,-885.300048828125,-3.03038636866316,-0.108073993538716,0.24178153949871,ST
3.43333333333333,-2.0911078453064,-1.5802937746048,9.01401424407959,0.655492007732391,0.106707997620106,0.396344006061554,-1075.5,5.10000038146973,-885.300048828125,-3.04375700564039,-0.224517558851677,0.172523756871377,ST
3.46666666666667,-1.9128612279892,-1.69274461269379,8.68084907531738,0.92988395690918,0.800309956073761,1.35671591758728,-1070.70007324219,0.300000011920929,-880.500061035156,-3.04756669395624,-0.214855227369532,0.190442854179096,ST
3.5,-2.00138640403748,-1.81775653362274,9.16654109954834,0.777444005012512,0.769822001457214,0.640248000621796,-1068.30004882812,3.90000009536743,-890.100036621094,-3.04922759720242,-0.212521396210562,0.19421276922479,ST
3.53333333333333,-2.74009299278259,-1.6084064245224,9.00623893737793,0.945127964019775,0.739333987236023,0.724089980125427,-1077.90002441406,3.90000009536743,-885.300048828125,-3.05651408557185,-0.292200305772877,0.174843935489382,ST
3.56666666666667,-2.23406410217285,-1.734614610672,9.56669902801514,0.823175966739655,0.144817993044853,0.99848198890686,-1073.10009765625,6.90000009536743,-902.100036621094,-3.06174212078566,-0.226656651903578,0.177536313465231,ST
3.6,-2.11742615699768,-1.38051402568817,9.473388671875,1.49391198158264,-1.28811800479889,0.533540010452271,-1080.30004882812,5.70000028610229,-885.300048828125,-3.07270097473616,-0.215613450302207,0.141932555318717,ST
3.63333333333333,-1.92661845684052,-1.21303391456604,9.36392784118652,1.47104597091675,-1.41006994247437,0.830797970294952,-1068.30004882812,3.30000019073486,-873.300048828125,-3.08205677361183,-0.199054746852961,0.125935138069112,ST
3.66666666666667,-1.43255245685577,-1.11673295497894,9.45305156707764,1.11281192302704,-1.76068198680878,0.967993974685669,-1080.30004882812,4.5,-882.900024414062,-3.09176216354419,-0.146712086920194,0.115382960555233,ST
3.7,-1.69095015525818,-0.989926636219025,9.40041446685791,0.724089980125427,-1.86738991737366,0.708845973014832,-1085.10009765625,11.7000007629395,-894.900024414062,-3.09986880612895,-0.173805332657585,0.10342537866297,ST
3.73333333333333,-1.32907366752625,-1.04854464530945,9.32863807678223,0.221037998795509,-1.37958192825317,0.899396002292633,-1075.5,-0.300000011920929,-890.100036621094,-3.106726245488,-0.138557142708972,0.111259967170276,ST
3.76666666666667,-1.12151801586151,-0.997702479362488,9.1988410949707,-0.472563982009888,-1.00610399246216,0.205793991684914,-1075.5,6.30000019073486,-882.900024414062,-3.11002497179355,-0.118985879971346,0.108805485899384,ST
3.8,-1.31830716133118,-1.3458217382431,9.10852146148682,-0.99848198890686,-0.503051996231079,-0.0457319989800453,-1077.90002441406,1.5,-878.100036621094,-3.10619580872954,-0.141250487000963,0.148282560443605,ST
3.83333333333333,-1.31651270389557,-1.7405960559845,9.07801628112793,-1.51677799224854,-0.518296003341675,-0.632625997066498,-1075.5,2.10000014305115,-894.900024414062,-3.09754903325983,-0.140382192128219,0.192053433213972,ST
3.86666666666667,-1.36914920806885,-2.13895916938782,9.65641975402832,-1.6920839548111,-0.655492007732391,-1.03659200668335,-1092.30004882812,2.70000004768372,-882.900024414062,-3.08828677403919,-0.136058227015237,0.221061485767115,ST
3.9,-1.66463184356689,-2.19398832321167,8.87285327911377,-1.00610399246216,-0.381099998950958,-0.724089980125427,-1073.10009765625,6.30000019073486,-885.300048828125,-3.08093344308493,-0.179095722398043,0.244299763093402,ST
3.93333333333333,-1.77648460865021,-2.27952289581299,9.17611122131348,-0.960371971130371,0.297257989645004,-0.0990860015153885,-1085.10009765625,5.10000038146973,-882.900024414062,-3.08085503161047,-0.186158431467078,0.245218330060482,ST
3.96666666666667,-1.97805881500244,-2.29028940200806,9.33342266082764,0.0152439996600151,-0.243903994560242,0.236281991004944,-1087.5,5.70000028610229,-887.700012207031,-3.0840133158058,-0.202615893135949,0.240519061420042,ST
4.0,-2.02650833129883,-2.26636362075806,10.7348718643188,0.685979962348938,-1.19665396213531,0.571649968624115,-1080.30004882812,3.30000019073486,-885.300048828125,-3.09587132247065,-0.180890209619505,0.20673498267585,ST
4.03333333333333,-1.53064787387848,-1.96370339393616,9.96087455749512,1.18140995502472,-1.97409796714783,0.342989981174469,-1077.90002441406,8.70000076293945,-880.500061035156,-3.10247660778303,-0.146497387591447,0.192450480572259,ST
4.06666666666667,-0.77579140663147,-1.5444051027298,9.28736591339111,1.10518991947174,-1.76068198680878,0.548784017562866,-1089.90002441406,8.70000076293945,-873.300048828125,-3.11170619479402,-0.0795854712579528,0.162845514705027,ST
4.1,-0.56464695930481,-1.49894630908966,9.45305156707764,0.78506600856781,-1.21189796924591,0.724089980125427,-1087.5,10.5,-887.700012207031,-3.11928737139039,-0.0571002897024663,0.155817999307463,ST
4.13333333333333,-0.410924226045609,-1.80938243865967,9.6821403503418,0.350611984729767,-1.02134799957275,-0.571649968624115,-1092.30004882812,10.5,-878.100036621094,-3.11452897520491,-0.0398020128371351,0.184093561068985,ST
4.16666666666667,-0.573020994663239,-2.12639832496643,9.5625114440918,-0.0152439996600151,-0.640248000621796,-0.731711983680725,-1094.70007324219,8.70000076293945,-882.900024414062,-3.10803702718707,-0.0570096904049668,0.218787948660927,ST
4.2,-0.985739588737488,-2.2711489200592,10.3233499526978,-0.198172003030777,-0.846041977405548,-0.449698001146317,-1087.5,7.50000047683716,-878.100036621094,-3.1061294205422,-0.0912937457684998,0.216942730675284,ST
4.23333333333333,-1.12211620807648,-2.14852952957153,9.88610744476318,0.129574000835419,-0.564027965068817,-0.0304879993200302,-1077.90002441406,8.70000076293945,-875.700012207031,-3.10713530893778,-0.109462195361714,0.213761971856519,ST
4.26666666666667,-1.06170380115509,-2.32199096679688,9.87414455413818,0.0609759986400604,-0.152439996600151,0.533540010452271,-1087.5,-0.300000011920929,-880.500061035156,-3.1102503091515,-0.10425065634046,0.230728283282569,ST
4.3,-1.10297560691833,-2.27832651138306,9.26643085479736,0.0304879993200302,-0.0762199983000755,0.137196004390717,-1097.10009765625,-5.70000028610229,-899.700012207031,-3.11031554981241,-0.114964484690723,0.240965286697378,ST
4.33333333333333,-1.56354570388794,-2.27533578872681,9.19764423370361,0.175305992364883,0.922261953353882,0.289635986089706,-1092.30004882812,13.5000009536743,-878.100036621094,-3.11041030701795,-0.165044990094186,0.24218604721453,ST
4.36666666666667,-1.55098474025726,-2.57500553131104,9.53200626373291,0.266770005226135,0.434453994035721,0.0990860015153885,-1082.70007324219,4.5,-885.300048828125,-3.10656528067413,-0.156617808862824,0.26330672301551,ST
4.4,-1.71128702163696,-2.46853613853455,8.77176666259766,0.365855991840363,0.0152439996600151,-0.25152599811554,-1094.70007324219,3.90000009536743,-880.500061035156,-3.10231140710451,-0.185434403274477,0.273726643212111,ST
4.43333333333333,-2.1610906124115,-2.63781046867371,9.69051456451416,0.0457319989800453,0.381099998950958,0.304879993200302,-1089.90002441406,5.70000028610229,-882.900024414062,-3.10536079589826,-0.212630834939118,0.265643567345042,ST
4.46666666666667,-1.89970207214355,-2.69343781471252,9.53380107879639,0.190549999475479,-0.716467976570129,0.37347799539566,-1085.10009765625,6.90000009536743,-892.500061035156,-3.1076170241403,-0.188516592612518,0.274787897783212,ST
4.5,-1.98523652553558,-2.55407047271729,9.13184833526611,0.556405961513519,-0.381099998950958,0.655492007732391,-1092.30004882812,0.900000035762787,-878.100036621094,-3.11315841209763,-0.205983320278703,0.271493414132927,ST
4.53333333333333,-1.8907299041748,-2.39915156364441,8.77475738525391,0.884151995182037,-0.0152439996600151,0.746955990791321,-1087.5,9.30000019073486,-890.100036621094,-3.11898793412007,-0.205245355473296,0.26510116596927,ST
4.56666666666667,-2.25200819969177,-2.26696181297302,9.37469482421875,1.07470202445984,0.167683988809586,1.82165801525116,-1104.30004882812,9.30000019073486,-882.900024414062,-3.13719243835336,-0.230317176868334,0.234791981929897,ST
4.6,-1.86800050735474,-2.05282664299011,8.85251617431641,1.56251001358032,-0.899396002292633,1.34909391403198,-1094.70007324219,6.90000009536743,-880.500061035156,3.13329893175961,-0.201774693842703,0.224610661189564,ST
4.63333333333333,-1.54739582538605,-1.91585195064545,8.09885597229004,1.82927989959717,-0.731711983680725,1.52439999580383,-1085.10009765625,0.900000035762787,-882.900024414062,3.12372304836783,-0.183260909271317,0.228545790246438,ST
4.66666666666667,-1.81656014919281,-2.10426688194275,9.75511360168457,1.55488801002502,-1.61586391925812,0.769822001457214,-1106.70007324219,5.10000038146973,-878.100036621094,3.11384341972124,-0.177601075282998,0.209467613439631,ST
4.7,-1.35419571399689,-1.56055498123169,8.51994895935059,1.69970595836639,-1.80641400814056,0.472563982009888,-1097.10009765625,-0.900000035762787,-882.900024414062,3.10450262559232,-0.152226005944019,0.178093304066912,ST
4.73333333333333,-1.51031100749969,-1.51449799537659,9.07203483581543,1.28811800479889,-1.31098401546478,1.01372599601746,-1080.30004882812,0.300000011920929,-875.700012207031,3.0936022754409,-0.160764349946664,0.162860594867993,ST
4.76666666666667,-1.98344206809998,-1.4821982383728,9.10732460021973,1.01372599601746,-0.602137982845306,1.2423859834671,-1087.5,4.5,-873.300048828125,3.08407594093915,-0.210856995197365,0.15908617070408,ST
4.8,-1.88056147098541,-1.65924859046936,9.31248760223389,0.746955990791321,0.0228659994900227,1.31860601902008,-1087.5,5.10000038146973,-880.500061035156,3.07706365606,-0.196710724490688,0.174546121008936,ST
4.83333333333333,-1.62934148311615,-1.51389980316162,9.82689094543457,1.11281192302704,-1.02897000312805,0.556405961513519,-1104.30004882812,7.50000047683716,-878.100036621094,3.06844823864828,-0.160884921738789,0.150769224442225,ST
4.86666666666667,-1.64130425453186,-1.45767438411713,9.77963733673096,0.823175966739655,-0.967993974685669,0.0152439996600151,-1106.70007324219,2.70000004768372,-875.700012207031,3.06758168811109,-0.162820610944222,0.146496471343357,ST
4.9,-1.77947533130646,-1.29976463317871,9.39503192901611,0.548784017562866,-0.807931959629059,-0.129574000835419,-1099.5,7.50000047683716,-892.500061035156,3.06678865042937,-0.18395731166556,0.136557956867357,ST
4.93333333333333,-1.92781484127045,-1.49834811687469,9.56729698181152,-0.731711983680725,-0.365855991840363,0.37347799539566,-1089.90002441406,-0.900000035762787,-880.500061035156,3.06604207690256,-0.195931400486335,0.156406092931038,ST
4.96666666666667,-1.62156558036804,-1.88175773620605,9.38067626953125,-1.57775402069092,0.198172003030777,0.350611984729767,-1097.10009765625,8.70000076293945,-882.900024414062,3.06938786269519,-0.168453042186053,0.200472822521863,ST
5.0,-1.64908015727997,-2.25978422164917,9.58524131774902,-1.57013201713562,0.449698001146317,0.289635986089706,-1099.5,-0.300000011920929,-880.500061035156,3.07114276037536,-0.16679804788812,0.234151473307806,ST
5.03333333333333,-1.8949168920517,-2.29028940200806,8.98410701751709,-0.87652999162674,0.92988395690918,0.213415995240211,-1109.10009765625,-1.5,-880.500061035156,3.07301360130846,-0.203161828765464,0.251097637359318,ST
5.06666666666667,-2.38539409637451,-2.48289155960083,9.10194206237793,-0.685979962348938,1.87501192092896,1.05945801734924,-1097.10009765625,6.30000019073486,-894.900024414062,3.07064420690336,-0.25119830330276,0.267237371825133,ST
5.1,-2.8082811832428,-2.45657324790955,8.40331077575684,0.0533539988100529,1.6692179441452,1.50153398513794,-1099.5,9.30000019073486,-887.700012207031,3.06779371158992,-0.313693825128919,0.283705666216027,ST
5.13333333333333,-2.68087673187256,-2.74906516075134,9.0433235168457,0.160062000155449,1.08232402801514,2.13416004180908,-1085.10009765625,5.70000028610229,-890.100036621094,3.05774446080733,-0.279387184798647,0.293928230398346,ST
5.16666666666667,-2.47810626029968,-2.26098036766052,9.31846904754639,1.04421401023865,-0.884151995182037,1.95123195648193,-1094.70007324219,6.30000019073486,-880.500061035156,3.02810183974931,-0.252302921890272,0.235476653509701,ST
5.2,-2.35907578468323,-2.26636362075806,8.88601207733154,1.31860601902008,-0.990859985351562,2.10367202758789,-1094.70007324219,4.5,-882.900024414062,3.01472500256702,-0.251009539609135,0.246374692606742,ST
5.23333333333333,-1.69693160057068,-1.76212918758392,9.34718036651611,1.88263392448425,-1.85976791381836,2.26373386383057,-1094.70007324219,6.30000019073486,-868.500061035156,2.98366229296796,-0.174360272332002,0.182482930153619,ST
5.26666666666667,-0.788950562477112,-1.70111858844757,8.91292858123779,1.44817996025085,-1.74543797969818,1.54726600646973,-1092.30004882812,4.5,-880.500061035156,2.97052039552939,-0.0845662349434898,0.185773476886719,ST
5.3,-1.02940404415131,-1.37871956825256,9.92797660827637,0.922261953353882,-1.94360995292664,0.175305992364883,-1101.90002441406,2.70000004768372,-873.300048828125,2.96277805258636,-0.0989965199928298,0.136399491238054,ST
5.33333333333333,-0.541319370269775,-1.47262799739838,9.34299278259277,1.21189796924591,-1.45580196380615,0.106707997620106,-1106.70007324219,9.30000019073486,-885.300048828125,2.9621637626703,-0.0548503463846867,0.154119895039112,ST
5.36666666666667,-0.466551512479782,-1.62515449523926,8.81782341003418,0.853663980960846,-1.02897000312805,-0.297257989645004,-1101.90002441406,11.1000003814697,-875.700012207031,2.96493656880097,-0.0501362632037897,0.18072589446399,ST
5.4,-0.391185492277145,-1.82852303981781,8.73528003692627,-0.0076219998300075,-0.647870004177094,-0.67835795879364,-1099.5,7.50000047683716,-878.100036621094,2.97069283665065,-0.0424737637225505,0.206337892635533,ST
5.43333333333333,-1.00069320201874,-1.87517821788788,9.29274940490723,-0.152439996600151,-0.221037998795509,-0.403965979814529,-1104.30004882812,3.90000009536743,-878.100036621094,2.97289945611875,-0.104421866687932,0.199471057131771,ST
5.46666666666667,-0.875681281089783,-1.9828439950943,9.41118144989014,0.0838419944047928,-0.137196004390717,0.190549999475479,-1109.10009765625,5.10000038146973,-878.100036621094,2.97201663528685,-0.0906824688724335,0.207443326199924,ST
5.5,-0.997702479362488,-2.17006278038025,10.338303565979,-0.396344006061554,-0.297257989645004,0.541162014007568,-1099.5,4.5,-887.700012207031,2.96698089091446,-0.0938430919250509,0.207495896420799,ST
5.53333333333333,-0.732127010822296,-2.04564905166626,10.7486295700073,-0.297257989645004,-0.754577994346619,0.434453994035721,-1113.90002441406,8.70000076293945,-885.300048828125,2.96042221094918,-0.0657294410905231,0.188566712448003,ST
5.56666666666667,0.0669920146465302,-2.07017278671265,9.76887130737305,-0.152439996600151,0.571649968624115,-0.0762199983000755,-1099.5,4.5,-878.100036621094,2.9625664078514,0.005497031123031,0.209015660101126,ST
5.6,-0.119030453264713,-1.96370339393616,9.83825588226318,-0.0838419944047928,2.03507399559021,-0.335367977619171,-1104.30004882812,4.5,-882.900024414062,2.96840791297281,-0.0151560261405638,0.197218218747839,ST
5.63333333333333,-0.434849947690964,-1.75315701961517,9.14859676361084,0.365855991840363,3.13264203071594,-0.144817993044853,-1087.5,15.9000005722046,-875.700012207031,2.97418136379144,-0.0518360538789619,0.188793765933832,ST
5.66666666666667,-1.48040390014648,-1.87996339797974,9.01879978179932,0.137196004390717,4.2149658203125,0.548784017562866,-1089.90002441406,8.70000076293945,-890.100036621094,2.97883094716255,-0.166505133736581,0.205329007088938,ST
5.7,-2.5217707157135,-2.17544603347778,9.47099590301514,-0.487807989120483,3.14026403427124,1.34909391403198,-1082.70007324219,0.300000011920929,-885.300048828125,2.97707302680001,-0.259548758587477,0.226297745430965,ST
5.73333333333333,-2.90159153938293,-2.6156792640686,9.93934154510498,-1.07470202445984,1.74543797969818,1.72257196903229,-1073.10009765625,6.90000009536743,-885.300048828125,2.97299737576856,-0.278822959627776,0.258517605689136,ST
5.76666666666667,-2.65037155151367,-2.79512214660645,9.83586311340332,-1.22714197635651,-0.0914639979600906,1.6920839548111,-1082.70007324219,6.30000019073486,-882.900024414062,2.96275373523032,-0.254362559745105,0.278195282867352,ST
5.8,-2.18621253967285,-2.4476010799408,8.7221212387085,-0.518296003341675,-1.39482593536377,1.79879200458527,-1068.30004882812,1.5,-882.900024414062,2.94253472005961,-0.235342844718467,0.273613098036717,ST
5.83333333333333,-1.83510267734528,-2.12639832496643,8.03066730499268,0.266770005226135,-1.18903195858002,2.21800184249878,-1070.70007324219,8.10000038146973,-885.300048828125,2.91840546353139,-0.216424171959081,0.257469174088488,ST
5.86666666666667,-2.20296049118042,-2.19757723808289,9.3597412109375,0.769822001457214,-1.27287399768829,2.5076379776001,-1077.90002441406,12.9000005722046,-887.700012207031,2.89189187146645,-0.224048069416483,0.2282911484454,ST
5.9,-1.96789038181305,-1.89431881904602,9.53559494018555,1.79879200458527,-2.23324584960938,1.57013201713562,-1085.10009765625,6.30000019073486,-887.700012207031,2.8701016490331,-0.196462355431688,0.192333409083505,ST
5.93333333333333,-1.96968483924866,-1.46066510677338,9.73178577423096,2.63721203804016,-2.43903994560242,1.86738991737366,-1089.90002441406,6.30000019073486,-892.500061035156,2.8472383275607,-0.193814913797131,0.14379907565772,ST
5.96666666666667,-1.42657101154327,-0.978561878204346,9.37948036193848,2.95733594894409,-2.63721203804016,2.19513607025146,-1097.10009765625,9.90000057220459,-882.900024414062,2.82165699297675,-0.14600906316877,0.0982300597857787,ST
6.0,-1.58687329292297,-0.845774173736572,9.06545448303223,1.51677799224854,-2.88111591339111,0.472563982009888,-1097.10009765625,5.70000028610229,-882.900024414062,2.81219699827784,-0.167622834788404,0.0901617811200396,ST
6.03333333333333,-0.0610105842351913,-1.33026993274689,10.246787071228,-0.510673999786377,-0.556405961513519,-1.265251994133,-1104.30004882812,5.70000028610229,-880.500061035156,2.84694483739658,-0.0046552841894045,0.130001828283055,ST
6.06666666666667,-0.700425446033478,-1.78784930706024,10.6439542770386,-1.15854394435883,1.265251994133,-0.945127964019775,-1109.10009765625,3.30000019073486,-878.100036621094,2.85695190804536,-0.0664791021023263,0.168425271943397,ST
6.1,-1.20465993881226,-1.96908664703369,10.0745220184326,-1.30336201190948,1.85976791381836,-1.04421401023865,-1099.5,3.30000019073486,-885.300048828125,2.86936154343007,-0.119456306394118,0.195480334621255,ST
6.13333333333333,-1.71009075641632,-1.80818617343903,10.018895149231,-0.861285984516144,1.62348592281342,-0.0609759986400604,-1106.70007324219,5.10000038146973,-887.700012207031,2.86890578184336,-0.169005381504517,0.180219093797627,ST
6.16666666666667,-1.70291304588318,-1.81715834140778,9.25028133392334,-0.335367977619171,2.47714996337891,0.327746003866196,-1118.70007324219,11.7000007629395,-885.300048828125,2.87212001831886,-0.183014371082358,0.194556243422422,ST
6.2,-2.06239700317383,-1.6544634103775,8.82201099395752,-0.175305992364883,2.98782396316528,-0.0381099991500378,-1099.5,0.900000035762787,-890.100036621094,2.87472684340245,-0.23078893358409,0.185963220990715,ST
6.23333333333333,-2.15211844444275,-1.76870882511139,8.68324184417725,-0.37347799539566,2.89635992050171,-0.365855991840363,-1085.10009765625,0.300000011920929,-892.500061035156,2.88504313437966,-0.243027649493374,0.201940853500506,ST
6.26666666666667,-2.65156769752502,-1.79622340202332,8.54806137084961,-0.609759986400604,2.67532205581665,-0.731711983680725,-1089.90002441406,7.50000047683716,-892.500061035156,2.89529369994183,-0.298822634871144,0.208836011705405,ST
6.3,-2.29148578643799,-1.93200182914734,8.15567970275879,-0.78506600856781,1.98934197425842,-0.67835795879364,-1077.90002441406,13.5000009536743,-894.900024414062,2.90937522982208,-0.270089258393404,0.234420806865086,ST
6.33333333333333,-2.64917516708374,-2.37402939796448,8.99307918548584,-1.2347639799118,0.274392008781433,-0.663114011287689,-1065.90002441406,5.70000028610229,-892.500061035156,2.91932348871635,-0.277618187809246,0.260526799643204,ST
6.36666666666667,-2.17424964904785,-2.37941265106201,8.34230041503906,-0.884151995182037,-1.16616594791412,-0.198172003030777,-1087.5,8.10000038146973,-882.900024414062,2.92139480525114,-0.243649017582078,0.279263289579197,ST
6.4,-2.14194989204407,-2.52236890792847,8.10304260253906,-0.815553963184357,-0.800309956073761,0.160062000155449,-1082.70007324219,8.70000076293945,-880.500061035156,2.92250261147263,-0.245971414966191,0.302943966091943,ST
6.43333333333333,-2.34232783317566,-2.5558648109436,8.76518726348877,-0.396344006061554,-1.18140995502472,0.830797970294952,-1085.10009765625,6.30000019073486,-887.700012207031,2.90733738200348,-0.249551087766474,0.283952646601687,ST
6.46666666666667,-2.20475506782532,-2.5295467376709,8.45355415344238,0.228659987449646,-2.17227005958557,0.907018005847931,-1085.10009765625,14.7000007629395,-880.500061035156,2.89753455291853,-0.241696102658937,0.289686604185088,ST
6.5,-2.46733975410461,-2.59474420547485,8.82799243927002,0.518296003341675,-3.10215401649475,0.548784017562866,-1092.30004882812,15.3000001907349,-882.900024414062,2.88513965220741,-0.257032829718175,0.284332833179189,ST
6.53333333333333,-1.54560148715973,-2.88783431053162,9.75810432434082,0.449698001146317,-4.16923379898071,0.701223969459534,-1092.30004882812,9.90000057220459,-894.900024414062,2.87146423357754,-0.144509221344023,0.286459794030589,ST
6.56666666666667,-0.678294122219086,-2.51399493217468,9.43630313873291,1.16616594791412,-3.3460578918457,-0.297257989645004,-1109.10009765625,6.30000019073486,-873.300048828125,2.86457714185748,-0.0638666565287236,0.258372174149806,ST
6.6,-0.105871304869652,-2.43444180488586,10.3173685073853,1.27287399768829,-1.53202199935913,-0.106707997620106,-1092.30004882812,6.90000009536743,-875.700012207031,2.8616997790022,-0.0075487026899889,0.229598365465332,ST
6.63333333333333,-0.394176214933395,-2.00318074226379,9.6462516784668,1.18140995502472,0.861285984516144,0.198172003030777,-1099.5,4.5,-880.500061035156,2.86125664641912,-0.041448807353356,0.202755440843172,ST
6.66666666666667,-0.554478526115417,-2.03727507591248,10.0386333465576,0.564027965068817,2.12653803825378,0.975615978240967,-1106.70007324219,3.90000009536743,-870.900024414062,2.85678396590105,-0.0580134689191886,0.199194555260801,ST
6.7,-0.66932201385498,-1.93559062480927,9.18448543548584,0.37347799539566,2.36281991004944,0.0457319989800453,-1097.10009765625,8.10000038146973,-878.100036621094,2.86149857660721,-0.0752139867593618,0.207100161015986,ST
6.73333333333333,-1.04076874256134,-1.8267285823822,9.5026969909668,0.114329993724823,2.18751406669617,-0.289635986089706,-1106.70007324219,10.5,-873.300048828125,2.86616690757601,-0.110727249419568,0.189884662365291,ST
6.76666666666667,-0.249425619840622,-1.62993955612183,8.41407680511475,0.510673999786377,0.975615978240967,-0.693601965904236,-1085.10009765625,9.30000019073486,-870.900024414062,2.87337797122965,-0.030832388093292,0.190502057549882,ST
6.8,-0.968991637229919,-1.66463184356689,8.50559329986572,0.228659987449646,1.36433792114258,-0.518296003341675,-1089.90002441406,9.30000019073486,-880.500061035156,2.88010357558242,-0.113257895763166,0.193012098527752,ST
6.83333333333333,-1.55816245079041,-1.77528834342957,9.14261531829834,0.243903994560242,1.64635193347931,0.0762199983000755,-1094.70007324219,1.5,-880.500061035156,2.88229284367161,-0.168507504002296,0.191438716666726,ST
6.86666666666667,-2.35249638557434,-2.41231060028076,9.31607723236084,-0.0304879993200302,1.53964400291443,0.121951997280121,-1087.5,8.70000076293945,-882.900024414062,2.89680995215156,-0.242140463154383,0.253311331282025,ST
6.9,-3.11393237113953,-2.77957034111023,10.5464572906494,-0.815553963184357,1.10518991947174,-0.0457319989800453,-1073.10009765625,6.90000009536743,-887.700012207031,2.89911131013049,-0.279815443028837,0.259259691805049,ST
6.93333333333333,-2.65754914283752,-2.75803732872009,9.90584564208984,-0.685979962348938,-1.2347639799118,-0.175305992364883,-1070.70007324219,14.7000007629395,-873.300048828125,2.89988204368322,-0.250844632810193,0.272632650599402,ST
6.96666666666667,-2.07136917114258,-2.76102805137634,9.329833984375,-0.533540010452271,-1.92074394226074,-0.259148001670837,-1073.10009765625,2.10000014305115,-878.100036621094,2.8999683228159,-0.206501189552905,0.288515664108691,ST
7.0,-0.985739588737488,-2.57081842422485,8.83756256103516,-0.0838419944047928,-2.85824990272522,-0.282013982534409,-1085.10009765625,4.5,-890.100036621094,2.89480169355268,-0.102151549769521,0.283154976833637,ST
7.03333333333333,-1.23337078094482,-2.27832651138306,9.66120529174805,0.510673999786377,-3.12502002716064,-0.129574000835419,-1087.5,7.50000047683716,-880.500061035156,2.88426138746767,-0.118221567563923,0.230703999730114,ST
7.06666666666667,-0.37623193860054,-2.03069543838501,8.79928112030029,1.47866797447205,-3.48325395584106,-0.0990860015153885,-1097.10009765625,8.10000038146973,-875.700012207031,2.87889973272655,-0.0359759721331148,0.224207415685279,ST
7.1,-0.320006489753723,-2.07794857025146,9.14321327209473,1.14329993724823,-2.59148001670837,-0.0762199983000755,-1094.70007324219,11.1000003814697,-885.300048828125,2.87464468329379,-0.0296839060190913,0.221453781838954,ST
7.13333333333333,-0.283519774675369,-2.10965037345886,9.97702503204346,0.342989981174469,-2.94971394538879,-0.388722002506256,-1092.30004882812,3.90000009536743,-885.300048828125,2.87233743198665,-0.022634966750787,0.20780645757024,ST
7.16666666666667,-0.522776961326599,-1.99540495872498,9.95668792724609,0.243903994560242,-2.9116039276123,-0.807931959629059,-1104.30004882812,6.90000009536743,-892.500061035156,2.87378948702368,-0.0460898808517166,0.197418529859897,ST
7.2,-0.634629666805267,-2.01873254776001,9.21439266204834,-0.0533539988100529,-1.27287399768829,-0.541162014007568,-1118.70007324219,15.3000001907349,-892.500061035156,2.8768818428013,-0.0647359816270507,0.21573144580594,ST
7.23333333333333,-1.25669836997986,-2.69224143028259,9.7838249206543,-1.72257196903229,0.411587983369827,-1.11281192302704,-1111.5,6.90000009536743,-875.700012207031,2.89005520627187,-0.123174367331724,0.271579308461408,ST
7.26666666666667,-1.74358677864075,-2.8160572052002,9.49312686920166,-1.84452390670776,0.945127964019775,-1.21951997280121,-1116.30004882812,6.30000019073486,-875.700012207031,2.90208959867921,-0.175075128405448,0.291958457824709,ST
7.3,-1.46245956420898,-3.18630766868591,8.58215522766113,-1.73019397258759,1.28811800479889,-1.18903195858002,-1111.5,6.30000019073486,-885.300048828125,2.92333108960846,-0.159851924795748,0.358712194122407,ST
7.33333333333333,-1.92781484127045,-3.13187670707703,9.30351543426514,-1.16616594791412,1.21189796924591,-1.00610399246216,-1104.30004882812,10.5,-880.500061035156,2.92671071621616,-0.195224667097687,0.327331083351735,ST
7.36666666666667,-1.77110135555267,-3.07864189147949,8.99606990814209,-0.0457319989800453,0.472563982009888,-1.02134799957275,-1092.30004882812,8.10000038146973,-882.900024414062,2.93604433013832,-0.184401245604647,0.330161964379981,ST
7.4,-1.64967834949493,-3.11094164848328,8.76758003234863,0.525918006896973,0.0533539988100529,-0.983237981796265,-1101.90002441406,7.50000047683716,-882.900024414062,2.94610671631141,-0.175050492261782,0.340301880144075,ST
7.43333333333333,-1.52526462078094,-2.89142322540283,9.2048225402832,0.967993974685669,-1.12043392658234,-0.46494197845459,-1111.5,11.7000007629395,-866.100036621094,2.94198860758696,-0.154755875261344,0.302838269917725,ST
7.46666666666667,-1.22858572006226,-2.52117252349854,8.23283958435059,1.54726600646973,-0.602137982845306,0.121951997280121,-1106.70007324219,3.30000019073486,-880.500061035156,2.94020370931039,-0.140840354610175,0.294423864206439,ST
7.5,-1.18791198730469,-2.86390852928162,9.2281494140625,0.830797970294952,0.182927995920181,0.586893975734711,-1097.10009765625,12.3000001907349,-885.300048828125,2.937347753438,-0.122970566088646,0.299351338570348,ST
7.53333333333333,-1.22080981731415,-2.78196287155151,9.52602481842041,0.87652999162674,0.0152439996600151,0.6250039935112,-1099.5,9.90000057220459,-878.100036621094,2.93115063443778,-0.122732401785651,0.282518898397018,ST
7.56666666666667,-0.91276615858078,-2.68925070762634,9.37349891662598,0.87652999162674,-0.0609759986400604,0.922261953353882,-1101.90002441406,6.90000009536743,-880.500061035156,2.92408981661185,-0.0937753306179047,0.277733583923045,ST
7.6,-0.763828575611115,-2.59235167503357,8.88541412353516,0.541162014007568,0.403965979814529,1.49391198158264,-1113.90002441406,9.90000057220459,-882.900024414062,2.91427896440717,-0.0837783073761555,0.282717198112612,ST
7.63333333333333,-1.00308573246002,-2.84895491600037,9.33162879943848,0.266770005226135,1.40244793891907,2.15702605247498,-1087.5,12.3000001907349,-870.900024414062,2.90238178537083,-0.105804566457049,0.295494833624751,ST
7.66666666666667,-1.09400343894958,-2.98114466667175,9.79937648773193,0.762199997901917,1.82927989959717,2.31708788871765,-1104.30004882812,3.90000009536743,-875.700012207031,2.8881625579955,-0.110621095316699,0.293668507629065,ST
7.7,-1.16637873649597,-2.44700288772583,9.497314453125,1.83690190315247,1.64635193347931,2.55336999893188,-1097.10009765625,14.1000003814697,-870.900024414062,2.86741113649953,-0.122228434550279,0.248628438220478,ST
7.73333333333333,-1.23157632350922,-2.42307710647583,8.78552436828613,2.18751406669617,2.5076379776001,2.34757590293884,-1085.10009765625,14.7000007629395,-890.100036621094,2.85834655719364,-0.139578645534253,0.264864794428927,ST
7.76666666666667,-1.70710003376007,-2.23645663261414,8.94821929931641,2.11129403114319,2.17989206314087,2.24848985671997,-1075.5,10.5,-875.700012207031,2.84401883221919,-0.187501665180133,0.240758018551447,ST
7.8,-1.49655365943909,-1.79143822193146,9.00444412231445,2.26373386383057,1.02897000312805,2.15702605247498,-1087.5,9.30000019073486,-890.100036621094,2.82342336158898,-0.164158289369009,0.192058903059883,ST
7.83333333333333,-1.46903908252716,-1.76511991024017,8.87225437164307,2.01982998847961,0.320124000310898,1.80641400814056,-1089.90002441406,8.70000076293945,-885.300048828125,2.81248733725328,-0.162148523907714,0.192369498210566,ST
7.86666666666667,-2.01813435554504,-1.81895279884338,9.79877853393555,1.44055795669556,-0.78506600856781,1.61586391925812,-1085.10009765625,0.900000035762787,-882.900024414062,2.79884148420405,-0.198821318099024,0.180464224493013,ST
7.9,-1.48758161067963,-1.73760533332825,9.25446796417236,1.02134799957275,-2.44666194915771,0.899396002292633,-1097.10009765625,5.70000028610229,-873.300048828125,2.78955407827322,-0.152885077433577,0.183447439263323,ST
7.93333333333333,-1.2698575258255,-1.92003893852234,9.18448543548584,0.510673999786377,-3.68904781341553,0.381099998950958,-1101.90002441406,3.90000009536743,-875.700012207031,2.7834899530995,-0.128396670979956,0.204896979605095,ST
7.96666666666667,-1.3781213760376,-1.80758810043335,9.25506591796875,0.335367977619171,-4.32167387008667,0.190549999475479,-1094.70007324219,10.5,-875.700012207031,2.77374438560294,-0.137747940875512,0.192087451163849,ST
8.0,-0.492271661758423,-1.82134532928467,9.71623420715332,0.358233988285065,-2.82013988494873,0.480185985565186,-1104.30004882812,6.30000019073486,-878.100036621094,2.76524885831597,-0.0454128135575796,0.184623989414172,ST
8.03333333333333,-0.347521066665649,-1.57550859451294,9.94293022155762,0.228659987449646,-1.57013201713562,0.731711983680725,-1109.10009765625,8.70000076293945,-885.300048828125,2.75636746956342,-0.0320501253516361,0.156797335713744,ST
8.06666666666667,0.0675901547074318,-1.51330173015594,9.44049072265625,-0.335367977619171,-0.289635986089706,1.47866797447205,-1092.30004882812,11.7000007629395,-878.100036621094,2.7442549099909,0.0070145196979082,0.159538301798296,ST
8.1,-0.519188106060028,-1.80041038990021,10.4154634475708,-1.28811800479889,0.754577994346619,1.15854394435883,-1099.5,11.1000003814697,-882.900024414062,2.73598397115542,-0.0505132541558688,0.173278464876671,ST
8.13333333333333,-0.502440094947815,-1.9146556854248,9.83526515960693,-0.83841997385025,1.03659200668335,0.983237981796265,-1111.5,12.3000001907349,-885.300048828125,2.72987916499006,-0.0522042614529859,0.193621713034049,ST
8.16666666666667,-1.28540921211243,-1.87039303779602,9.98719310760498,-0.495429992675781,3.10215401649475,0.716467976570129,-1099.5,8.10000038146973,-878.100036621094,2.7277176146249,-0.131099273345434,0.185998086181463,ST
8.2,-1.56115317344666,-1.81356954574585,9.01281833648682,0.0228659994900227,3.66618180274963,0.198172003030777,-1106.70007324219,6.30000019073486,-880.500061035156,2.73380292925611,-0.174388280366072,0.198644441021437,ST
8.23333333333333,-2.4876766204834,-1.88355219364166,9.58763408660889,0.25152599811554,2.98782396316528,0.434453994035721,-1085.10009765625,11.1000003814697,-885.300048828125,2.73439677248181,-0.254272440675402,0.193633477400548,ST
8.26666666666667,-2.10486507415771,-2.04445266723633,9.04093074798584,0.457319974899292,0.967993974685669,-0.0762199983000755,-1087.5,8.10000038146973,-870.900024414062,2.74438284603682,-0.224970968996571,0.221655752923175,ST
8.3,-2.41290879249573,-1.84885990619659,9.31428241729736,0.762199997901917,-1.39482593536377,-0.350611984729767,-1094.70007324219,10.5,-887.700012207031,2.74026489283695,-0.246283256468148,0.194704105639847,ST
8.33333333333333,-2.39496445655823,-1.82553231716156,9.38845252990723,1.12043392658234,-2.21800184249878,-0.259148001670837,-1065.90002441406,13.5000009536743,-890.100036621094,2.740002651426,-0.241492881475678,0.190037042052074,ST
8.36666666666667,-1.75554966926575,-1.86201906204224,8.95479869842529,1.08994603157043,-1.97409796714783,-0.617381989955902,-1085.10009765625,3.90000009536743,-882.900024414062,2.74618505120155,-0.186246304625329,0.203131664161763,ST
8.4,-1.81297135353088,-1.81656014919281,9.1689338684082,0.83841997385025,-1.2576299905777,-1.2500079870224,-1077.90002441406,-1.5,-892.500061035156,2.75360549226445,-0.188995307615084,0.194484542184407,ST
8.43333333333333,-2.14733338356018,-2.02890086174011,9.52901554107666,0.564027965068817,-1.34909391403198,-1.11281192302704,-1092.30004882812,5.70000028610229,-880.500061035156,2.76388238230762,-0.214139145739557,0.20905261646362,ST
8.46666666666667,-1.37572884559631,-2.03667688369751,8.53609848022461,0.213415995240211,-1.6768399477005,-1.29574000835419,-1106.70007324219,2.70000004768372,-878.100036621094,2.77616196808631,-0.152278752597973,0.2340199085639,ST
8.5,-1.45767438411713,-2.11144471168518,9.18269062042236,0.3125019967556,-1.55488801002502,-0.967993974685669,-1092.30004882812,13.5000009536743,-887.700012207031,2.78031065937191,-0.15046894872319,0.22564121133386,ST
8.53333333333333,-1.96549785137177,-2.04385447502136,9.00265026092529,0.685979962348938,-0.975615978240967,-0.952749967575073,-1104.30004882812,8.70000076293945,-894.900024414062,2.78704803095956,-0.20763591921358,0.222314427153532,ST
8.56666666666667,-1.62216377258301,-2.2651674747467,10.2473850250244,0.922261953353882,-2.4847719669342,-1.12805593013763,-1097.10009765625,8.10000038146973,-885.300048828125,2.79163899225054,-0.148913944984485,0.216112847746559,ST
8.6,-0.549095273017883,-2.02591013908386,10.1367292404175,1.50153398513794,-4.45124769210815,-1.64635193347931,-1116.30004882812,5.10000038146973,-887.700012207031,2.79626832526453,-0.0452725169456197,0.194779448222601,ST
8.63333333333333,0.315819501876831,-1.56175124645233,9.75690841674805,1.28049600124359,-2.33233189582825,-1.11281192302704,-1099.5,3.90000009536743,-873.300048828125,2.80166174689484,0.0359761745540631,0.156582703056343,ST
8.66666666666667,0.985739588737488,-1.24413740634918,9.1928596496582,0.739333987236023,-0.487807989120483,-0.6250039935112,-1116.30004882812,11.7000007629395,-880.500061035156,2.80733123225738,0.106641014860837,0.133197837966034,ST
8.7,0.745884299278259,-1.40563595294952,9.22575759887695,-0.152439996600151,1.2347639799118,0.137196004390717,-1111.5,4.5,-887.700012207031,2.80612743307281,0.0776963692489074,0.15138948458394,ST
8.73333333333333,0.202172324061394,-1.80579364299774,9.19465351104736,-1.11281192302704,2.82776188850403,0.0076219998300075,-1111.5,3.30000019073486,-880.500061035156,2.80845729449972,0.0169522873809469,0.19569014044502,ST
8.76666666666667,-0.715378999710083,-2.24841952323914,9.75870227813721,-1.54726600646973,3.39941191673279,-0.525918006896973,-1106.70007324219,12.3000001907349,-880.500061035156,2.81890258374816,-0.07653999172967,0.229193345675224,ST
8.8,-1.16996765136719,-2.60909962654114,10.4549407958984,-1.30336201190948,3.19361782073975,-0.663114011287689,-1099.5,6.90000009536743,-892.500061035156,2.8308169263085,-0.113139994396436,0.247049268046528,ST
8.83333333333333,-1.0455539226532,-2.51100420951843,9.86756420135498,-0.304879993200302,2.24086785316467,-0.891773998737335,-1092.30004882812,7.50000047683716,-882.900024414062,2.84223290924836,-0.10575925967103,0.249965929628417,ST
8.86666666666667,-1.32428848743439,-2.49246168136597,9.61574649810791,0.0152439996600151,2.59910202026367,-0.830797970294952,-1073.10009765625,13.5000009536743,-882.900024414062,2.85436185512793,-0.136447088958781,0.25393043552937,ST
8.9,-1.09819054603577,-2.26217675209045,9.43211650848389,0.236281991004944,2.39330792427063,-0.495429992675781,-1085.10009765625,8.10000038146973,-894.900024414062,2.86088300479553,-0.116659072717256,0.235248081408441,ST
8.93333333333333,-0.942673325538635,-2.01454544067383,8.55344486236572,0.716467976570129,1.72257196903229,0.259148001670837,-1070.70007324219,6.90000009536743,-885.300048828125,2.86208509374806,-0.109921166247761,0.23010491939941,ST
8.96666666666667,-1.35000872612,-1.9026927947998,8.52652835845947,0.685979962348938,1.41006994247437,0.335367977619171,-1082.70007324219,6.30000019073486,-887.700012207031,2.86126975397747,-0.155775254186586,0.21836824623954,ST
9.0,-1.90448725223541,-2.33395385742188,8.47568607330322,0.221037998795509,1.39482593536377,0.182927995920181,-1085.10009765625,12.3000001907349,-885.300048828125,2.87237256621083,-0.21562833845238,0.2682768570295,ST
9.03333333333333,-2.30763554573059,-2.48707842826843,9.401611328125,0.0304879993200302,0.0076219998300075,-0.160062000155449,-1063.5,10.5,-880.500061035156,2.87163252284732,-0.232887745742973,0.258643857273194,ST
9.06666666666667,-2.32438349723816,-2.7682056427002,9.14022254943848,0.0914639979600906,-1.45580196380615,-0.815553963184357,-1065.90002441406,7.50000047683716,-880.500061035156,2.88291427370573,-0.2358893405366,0.293938809422261,ST
9.1,-2.03607869148254,-2.48887300491333,9.10254001617432,0.304879993200302,-3.01068997383118,-0.78506600856781,-1073.10009765625,4.5,-892.500061035156,2.87698439016087,-0.207130672333725,0.266409915104496,ST
9.13333333333333,-1.50253510475159,-2.51937818527222,8.47030258178711,0.640248000621796,-3.01831197738647,-1.05183601379395,-1089.90002441406,11.7000007629395,-885.300048828125,2.88334266369853,-0.162930023429335,0.287987278726216,ST
9.16666666666667,-1.19748222827911,-2.68087673187256,9.17371845245361,0.472563982009888,-3.14026403427124,-1.09756803512573,-1085.10009765625,8.70000076293945,-875.700012207031,2.88463554357074,-0.118977320493804,0.283542256885049,ST
9.2,-0.760239720344543,-2.48289155960083,9.57925987243652,0.693601965904236,-4.62655401229858,-1.34909391403198,-1087.5,10.5,-882.900024414062,2.88321922990554,-0.0683885259096911,0.252495093229569,ST
9.23333333333333,0.294286340475082,-2.49844312667847,9.10194206237793,0.937505960464478,-4.74088382720947,-1.28811800479889,-1094.70007324219,11.7000007629395,-885.300048828125,2.88334484278171,0.0395337121956384,0.26623583210745,ST
9.26666666666667,0.352306216955185,-2.65156769752502,10.2743015289307,0.632625997066498,-2.95733594894409,-0.739333987236023,-1101.90002441406,3.90000009536743,-880.500061035156,2.88348404191661,0.038514029861752,0.2515182637952,ST
9.3,0.78476357460022,-2.77239274978638,9.79219818115234,0.693601965904236,-1.63110792636871,-0.92988395690918,-1104.30004882812,3.90000009536743,-890.100036621094,2.88563064562592,0.080038371033768,0.274573179586102,ST
9.33333333333333,0.142956167459488,-2.75743913650513,10.0494003295898,0.381099998950958,0.0762199983000755,-0.602137982845306,-1104.30004882812,3.30000019073486,-885.300048828125,2.89102793040622,0.0140257389887437,0.267134867949153,ST
9.36666666666667,-0.385802209377289,-2.87048816680908,9.72819709777832,0.25152599811554,1.15854394435883,0.0914639979600906,-1106.70007324219,11.7000007629395,-880.500061035156,2.89322490370058,-0.0398048351635141,0.286432977842262,ST
9.4,-0.674705266952515,-3.10137128829956,9.70845890045166,0.0152439996600151,1.44817996025085,0.525918006896973,-1109.10009765625,6.30000019073486,-875.700012207031,2.89391291838936,-0.0686848255876004,0.309086972120885,ST
9.43333333333333,-0.718967854976654,-2.71497106552124,8.67666149139404,0.0685980021953583,1.72257196903229,0.792688012123108,-1111.5,3.90000009536743,-885.300048828125,2.89152035262932,-0.0821592294530866,0.303117258410087,ST
9.46666666666667,-1.19508969783783,-2.68984889984131,9.07562351226807,-0.0228659994900227,2.5152599811554,1.76068198680878,-1109.10009765625,11.7000007629395,-885.300048828125,2.88217256446172,-0.130492885137323,0.288008966517443,ST
9.5,-0.897214472293854,-2.68925070762634,8.65692329406738,-0.106707997620106,1.46342396736145,1.98171997070312,-1089.90002441406,10.5,-885.300048828125,2.87150268990095,-0.102203063975237,0.301081117122848,ST
9.53333333333333,-0.867307305335999,-2.74547624588013,8.00674152374268,-0.571649968624115,1.49391198158264,2.01982998847961,-1082.70007324219,4.5,-880.500061035156,2.8618693333655,-0.105711241300528,0.330993277187507,ST
9.56666666666667,-1.34223282337189,-2.6336236000061,8.68563365936279,-1.46342396736145,2.76678586006165,1.86738991737366,-1092.30004882812,12.9000005722046,-890.100036621094,2.847311472691,-0.152304099268224,0.296763388965562,ST
9.6,-1.33744764328003,-2.82084226608276,9.87115383148193,-1.28811800479889,1.84452390670776,1.98934197425842,-1082.70007324219,6.90000009536743,-885.300048828125,2.83241576094433,-0.133670097039724,0.280325065860002,ST
9.63333333333333,-1.09101283550262,-2.73112082481384,9.48894023895264,-0.0990860015153885,-0.327746003866196,1.59299790859222,-1070.70007324219,4.5,-887.700012207031,2.81930842043785,-0.110350110625265,0.280105372421318,ST
9.66666666666667,-1.01445043087006,-2.72872829437256,8.86866569519043,0.632625997066498,-0.663114011287689,1.39482593536377,-1094.70007324219,4.5,-880.500061035156,2.80876365329771,-0.1085052484074,0.297053763506244,ST
9.7,-2.00617146492004,-2.82861804962158,8.86208629608154,0.99848198890686,0.167683988809586,1.52439999580383,-1080.30004882812,10.5,-882.900024414062,2.80068879691231,-0.21310122302488,0.30665841758784,ST
9.73333333333333,-2.37103867530823,-2.65156769752502,10.500997543335,1.49391198158264,-0.807931959629059,2.99544596672058,-1092.30004882812,14.7000007629395,-878.100036621094,2.76544912187292,-0.215414401909485,0.243775529822915,ST
9.76666666666667,-0.61249840259552,-2.19159579277039,8.93805027008057,1.79879200458527,-2.10367202758789,2.42379593849182,-1073.10009765625,11.1000003814697,-885.300048828125,2.74299986488791,-0.0644407773396848,0.237004355432363,ST
9.8,-0.407933503389359,-2.06778025627136,8.49542427062988,1.53964400291443,-1.6844619512558,1.85976791381836,-1085.10009765625,10.5,-882.900024414062,2.72580776801218,-0.0445954559739358,0.235899962460434,ST
9.83333333333333,-0.560459971427917,-2.1592960357666,8.89259147644043,1.44055795669556,-0.548784017562866,0.960371971130371,-1082.70007324219,11.7000007629395,-899.700012207031,2.71790492621629,-0.0605705860278493,0.235584339130329,ST
9.86666666666667,-1.16936945915222,-2.15391278266907,8.93326568603516,1.6920839548111,-0.381099998950958,0.823175966739655,-1085.10009765625,9.90000057220459,-880.500061035156,2.71177486966753,-0.126101622858784,0.233452169255483,ST
9.9,-0.697434723377228,-2.55347228050232,9.27540302276611,0.815553963184357,-1.34909391403198,1.12805593013763,-1085.10009765625,11.1000003814697,-890.100036621094,2.70406196149531,-0.0708190486987609,0.266912735565183,ST
9.93333333333333,-0.539524972438812,-2.19638109207153,9.17910194396973,0.510673999786377,-2.0655620098114,0.78506600856781,-1097.10009765625,6.30000019073486,-863.700012207031,2.69214008906585,-0.0539761975291443,0.233976441957443,ST
9.96666666666667,-0.41750380396843,-2.23226952552795,9.38546180725098,0.213415995240211,-1.84452390670776,1.13567793369293,-1085.10009765625,4.5,-894.900024414062,2.67983381491667,-0.0406244988695033,0.233026266550912,ST
10.0,0.123815596103668,-2.33933711051941,9.353759765625,0.0152439996600151,-2.24848985671997,0.6250039935112,-1092.30004882812,6.90000009536743,-878.100036621094,2.67073453927971,0.0161742918036726,0.245028412264579,ST
10.0333333333333,-0.348717361688614,-2.46434903144836,10.60866355896,-0.3125019967556,-0.983237981796265,0.655492007732391,-1101.90002441406,8.10000038146973,-897.300048828125,2.66338592603531,-0.0304570411580752,0.22879740078404,ST
10.0666666666667,0.365465342998505,-2.02172327041626,9.61754035949707,-0.442075997591019,0.259148001670837,0.602137982845306,-1099.5,1.5,-878.100036621094,2.6588395074012,0.0363805660529726,0.208040657384805,ST
10.1,-0.0436644367873669,-1.95473122596741,8.95719146728516,-0.685979962348938,2.09605002403259,1.13567793369293,-1106.70007324219,7.50000047683716,-878.100036621094,2.65305363605894,-0.0086522113461644,0.216030695126605,ST
10.1333333333333,-1.09699416160583,-2.30285048484802,9.27360820770264,-1.01372599601746,3.76526784896851,1.76068198680878,-1092.30004882812,12.3000001907349,-873.300048828125,2.64753315338079,-0.121010038569787,0.244896385487063,ST
10.1666666666667,-2.00318074226379,-2.72872829437256,10.6044769287109,-0.708845973014832,3.91008591651917,1.78354799747467,-1087.5,8.70000076293945,-887.700012207031,2.64090563239673,-0.188220977033537,0.252830474213832,ST
10.2,-1.55576992034912,-2.50502276420593,9.17551326751709,0.304879993200302,2.5076379776001,0.564027965068817,-1087.5,8.70000076293945,-878.100036621094,2.64450029666606,-0.166695687286991,0.265970754472847,ST
10.2333333333333,-2.64379191398621,-2.50203204154968,8.92907810211182,0.899396002292633,2.47714996337891,0.769822001457214,-1070.70007324219,9.90000057220459,-897.300048828125,2.64694760802435,-0.281838247357041,0.271577335833617,ST
10.2666666666667,-2.88364720344543,-2.44939541816711,9.34299278259277,1.42531394958496,1.44055795669556,0.853663980960846,-1063.5,10.5,-892.500061035156,2.64162658885811,-0.292905081637817,0.253717346823363,ST
10.3,-2.71915793418884,-2.36744999885559,8.82380485534668,1.62348592281342,-0.236281991004944,0.983237981796265,-1058.70007324219,8.70000076293945,-887.700012207031,2.63900470714801,-0.289340653189508,0.258751756933941,ST
10.3333333333333,-2.38359975814819,-2.23346590995789,8.65752124786377,1.58537602424622,-0.800309956073761,0.564027965068817,-1070.70007324219,8.70000076293945,-892.500061035156,2.63402871103779,-0.259534014721703,0.24939609841501,ST
10.3666666666667,-2.43145108222961,-2.29866337776184,9.26762676239014,0.990859985351562,-1.2423859834671,0.922261953353882,-1065.90002441406,6.90000009536743,-882.900024414062,2.62454883627173,-0.24766727060543,0.240899465113614,ST
10.4,-1.85364508628845,-2.04146194458008,8.9177131652832,0.67835795879364,-1.75305998325348,1.16616594791412,-1080.30004882812,5.70000028610229,-875.700012207031,2.60906488516795,-0.197502016446741,0.223366718339224,ST
10.4333333333333,-2.11742615699768,-2.32976698875427,9.00623893737793,0.114329993724823,-0.541162014007568,0.754577994346619,-1070.70007324219,4.5,-882.900024414062,2.60854251941956,-0.223120810596161,0.252484954924758,ST
10.4666666666667,-2.20355868339539,-2.29268193244934,9.67496299743652,-0.419209986925125,-0.548784017562866,0.899396002292633,-1068.30004882812,2.70000004768372,-885.300048828125,2.59567504080994,-0.217548310287062,0.233094885749836,ST
10.5,-1.88594484329224,-2.09230422973633,8.78253364562988,0.160062000155449,-1.69970595836639,0.411587983369827,-1070.70007324219,10.5,-890.100036621094,2.58935877037125,-0.203245118299565,0.233309270362485,ST
10.5333333333333,-1.79801774024963,-2.37941265106201,9.1689338684082,-0.114329993724823,-0.967993974685669,0.525918006896973,-1082.70007324219,10.5,-890.100036621094,2.58703604069436,-0.186225716012441,0.253798106165715,ST
10.5666666666667,-1.81117689609528,-2.1210150718689,8.95001316070557,0.160062000155449,-0.861285984516144,0.495429992675781,-1085.10009765625,18.3000011444092,-890.100036621094,2.57780887593423,-0.193135907933987,0.232259771141818,ST
10.6,-1.08263874053955,-2.10426688194275,9.62112998962402,0.457319974899292,-1.85214591026306,0.541162014007568,-1087.5,9.30000019073486,-882.900024414062,2.56794951382844,-0.106789867524711,0.21440199814579,ST
10.6333333333333,-0.901401460170746,-1.80698990821838,9.11211013793945,0.914639949798584,-2.28659987449646,-0.350611984729767,-1082.70007324219,8.70000076293945,-885.300048828125,2.56577616421628,-0.0927311603867684,0.194202442265725,ST
10.6666666666667,-0.622068703174591,-2.01334929466248,8.5067892074585,0.556405961513519,0.0152439996600151,0.152439996600151,-1097.10009765625,3.90000009536743,-873.300048828125,2.56791241836609,-0.0711693723698346,0.231338233389061,ST
10.7,-1.45169293880463,-2.2310733795166,9.58882999420166,0.640248000621796,0.891773998737335,0.495429992675781,-1073.10009765625,5.10000038146973,-885.300048828125,2.56577456861465,-0.147962981684785,0.227424615905719,ST
10.7333333333333,-1.22858572006226,-2.30344867706299,9.86696624755859,0.87652999162674,-0.274392008781433,-0.167683988809586,-1077.90002441406,10.5,-885.300048828125,2.5675286820367,-0.120235436204002,0.227833330500845,ST
10.7666666666667,-1.1035737991333,-2.28251361846924,9.34239482879639,1.08232402801514,-0.617381989955902,-0.282013982534409,-1087.5,9.90000057220459,-880.500061035156,2.57072037926842,-0.113113939442027,0.237723515090316,ST
10.8,-1.77887713909149,-2.23884916305542,9.24310302734375,1.22714197635651,0.967993974685669,0.160062000155449,-1092.30004882812,0.900000035762787,-885.300048828125,2.57263108676435,-0.186347418682637,0.235531208428677,ST
10.8333333333333,-1.67180955410004,-2.38359975814819,9.4315185546875,1.16616594791412,1.09756803512573,0.0152439996600151,-1097.10009765625,11.1000003814697,-875.700012207031,2.57803805217459,-0.172109620365087,0.245548818047376,ST
10.8666666666667,-2.13297772407532,-1.97566628456116,9.95608997344971,1.54726600646973,-0.358233988285065,0.0533539988100529,-1082.70007324219,6.90000009536743,-890.100036621094,2.56969240002901,-0.206406750915465,0.193341790419104,ST
10.9,-1.24712812900543,-1.73820352554321,8.80047798156738,1.82927989959717,-1.36433792114258,0.266770005226135,-1082.70007324219,6.30000019073486,-878.100036621094,2.56726762517969,-0.136028489294125,0.191687096555691,ST
10.9333333333333,-1.07187223434448,-1.50193703174591,8.79987907409668,1.31860601902008,-1.39482593536377,-0.144817993044853,-1087.5,8.70000076293945,-885.300048828125,2.56468662116043,-0.117091428347147,0.166775992870997,ST
10.9666666666667,-1.69513714313507,-1.61259341239929,8.67068004608154,0.78506600856781,-1.28811800479889,-0.396344006061554,-1082.70007324219,7.50000047683716,-875.700012207031,2.56943123024753,-0.187295434056361,0.182502823135352,ST
11.0,-1.88415038585663,-1.95772194862366,9.05588436126709,-0.236281991004944,-0.647870004177094,-0.823175966739655,-1085.10009765625,13.5000009536743,-902.100036621094,2.58032033425096,-0.19917248047009,0.213438853264489,ST
11.0333333333333,-1.60122871398926,-2.179034948349,10.106822013855,-0.640248000621796,-2.23324584960938,-1.44055795669556,-1087.5,8.10000038146973,-875.700012207031,2.58758538849329,-0.149405501040828,0.213714202418938,ST
11.0666666666667,-0.510814070701599,-2.32737421989441,9.08818435668945,-0.647870004177094,-3.48325395584106,-2.40855193138123,-1087.5,6.90000009536743,-882.900024414062,2.60301266572059,-0.0478386434232006,0.25182049869199,ST
11.1,-0.386400371789932,-2.51459312438965,8.73647594451904,-1.07470202445984,-3.01831197738647,-3.15550804138184,-1118.70007324219,3.30000019073486,-890.100036621094,2.62179389389754,-0.0359307173874667,0.282154173469544,ST
11.1333333333333,-0.857737004756927,-2.76102805137634,10.0494003295898,-0.609759986400604,-2.25611186027527,-2.5076379776001,-1111.5,8.70000076293945,-875.700012207031,2.63529394211877,-0.077004064985277,0.269483233835549,ST
11.1666666666667,-0.336754500865936,-2.75803732872009,9.91063117980957,0.152439996600151,-2.53812599182129,-1.11281192302704,-1099.5,8.10000038146973,-873.300048828125,2.64208048361873,-0.0279352093156591,0.271176062366236,ST
11.2,0.0364867225289345,-3.08641767501831,8.93206882476807,0.175305992364883,-2.24848985671997,-0.983237981796265,-1109.10009765625,8.70000076293945,-878.100036621094,2.64453371999328,0.007996778012428,0.332165808335699,ST
11.2333333333333,-0.750071287155151,-2.92491912841797,9.05409049987793,-0.327746003866196,-0.213415995240211,-1.18903195858002,-1118.70007324219,12.9000005722046,-875.700012207031,2.65227500618843,-0.0773599363289997,0.313250687883524,ST
11.2666666666667,-0.82364284992218,-3.07505297660828,9.09237098693848,0.0838419944047928,0.503051996231079,0.304879993200302,-1109.10009765625,12.3000001907349,-890.100036621094,2.65221467761985,-0.0865895060832133,0.325940052504031,ST
11.3,-1.29497957229614,-3.09957695007324,9.47159385681152,0.289635986089706,0.868907988071442,1.38720393180847,-1106.70007324219,7.50000047683716,-882.900024414062,2.64225389793409,-0.131324141796493,0.315539614921587,ST
11.3333333333333,-0.773398876190186,-2.70121359825134,9.89567756652832,0.853663980960846,-0.777444005012512,2.02745199203491,-1099.5,11.7000007629395,-885.300048828125,2.6197467360532,-0.0750425000050095,0.264850196009526,ST
11.3666666666667,-0.0257201474159956,-2.46135830879211,8.86687183380127,1.16616594791412,-0.960371971130371,2.39330792427063,-1118.70007324219,6.90000009536743,-875.700012207031,2.59940565172583,-0.0025547164160247,0.268705179695719,ST
11.4,-0.278734624385834,-2.43025493621826,8.97992038726807,0.46494197845459,0.190549999475479,2.4923939704895,-1118.70007324219,6.90000009536743,-870.900024414062,2.57984222414289,-0.031321149790054,0.263378368567379,ST
11.4333333333333,-0.982748925685883,-2.70001745223999,10.1289529800415,0.365855991840363,0.937505960464478,2.67532205581665,-1099.5,3.90000009536743,-873.300048828125,2.55986463183753,-0.0961007692118638,0.259487433146292,ST
11.4666666666667,-0.141161739826202,-2.18142747879028,9.03076267242432,0.967993974685669,-0.0076219998300075,2.53050398826599,-1101.90002441406,5.70000028610229,-887.700012207031,2.53894041945284,-0.0165053815915562,0.235336248363764,ST
11.5,-0.365465342998505,-2.06658387184143,8.78492546081543,0.899396002292633,0.632625997066498,2.77440786361694,-1106.70007324219,4.5,-890.100036621094,2.51657927771263,-0.0425995184842778,0.22929432831058,ST
11.5333333333333,-0.725547432899475,-2.22868061065674,9.48355674743652,1.12805593013763,1.32622802257538,2.85824990272522,-1087.5,3.30000019073486,-875.700012207031,2.49718945440627,-0.0775955561676749,0.228516990465903,ST
11.5666666666667,-1.44032824039459,-2.36924433708191,10.0236797332764,1.15092194080353,1.65397393703461,2.21800184249878,-1094.70007324219,11.1000003814697,-870.900024414062,2.48423000801805,-0.142392127662866,0.229651065194971,ST
11.6,-1.59405100345612,-2.18202567100525,10.4447727203369,1.53964400291443,1.44055795669556,2.02745199203491,-1109.10009765625,8.70000076293945,-885.300048828125,2.46872695726105,-0.151439908561477,0.202910438620739,ST
11.6333333333333,-1.01265609264374,-1.60362136363983,9.69290637969971,2.15702605247498,0.510673999786377,1.90549993515015,-1089.90002441406,8.70000076293945,-880.500061035156,2.44934291109028,-0.104195212065347,0.159929867025619,ST
11.6666666666667,-0.160302311182022,-1.82014906406403,8.50559329986572,1.93598794937134,1.01372599601746,1.28811800479889,-1094.70007324219,8.10000038146973,-885.300048828125,2.4443282340586,-0.020927824908294,0.207221096034607,ST
11.7,-0.844577848911285,-1.61259341239929,8.68144702911377,1.40244793891907,1.70732796192169,0.907018005847931,-1092.30004882812,3.90000009536743,-880.500061035156,2.43897226620394,-0.0983453295567464,0.181190475174634,ST
11.7333333333333,-1.5964435338974,-1.80340111255646,9.44587421417236,1.20427596569061,0.960371971130371,1.05183601379395,-1094.70007324219,-0.300000011920929,-885.300048828125,2.43411900058601,-0.166295488447908,0.186283619376835,ST
11.7666666666667,-1.58986401557922,-1.75076448917389,9.89388275146484,1.04421401023865,-1.06708002090454,0.975615978240967,-1104.30004882812,3.90000009536743,-875.700012207031,2.42418639983301,-0.155431685142773,0.173053359013389,ST
11.8,-1.19568777084351,-1.60063064098358,9.41835880279541,0.434453994035721,-2.43141794204712,0.952749967575073,-1101.90002441406,9.30000019073486,-878.100036621094,2.4130707231507,-0.120731538039651,0.167315528525409,ST
11.8333333333333,-1.29438138008118,-1.72624063491821,9.83646106719971,-0.0914639979600906,-2.0579400062561,1.15854394435883,-1099.5,-0.300000011920929,-892.500061035156,2.40178722405348,-0.125683518699833,0.173531876148112,ST
11.8666666666667,-0.569432079792023,-1.27823150157928,9.87713527679443,0.114329993724823,-3.04879999160767,0.708845973014832,-1106.70007324219,11.7000007629395,-885.300048828125,2.38855944545921,-0.0522149226120927,0.128529578297536,ST
11.9,0.270360618829727,-0.936093747615814,8.83696460723877,0.525918006896973,-3.16313004493713,0.823175966739655,-1111.5,6.30000019073486,-875.700012207031,2.37889603179696,0.0354306496702743,0.104773223669929,ST
11.9333333333333,-1.27105379104614,-1.22858572006226,8.6503438949585,0.25152599811554,-0.327746003866196,-0.175305992364883,-1094.70007324219,-0.300000011920929,-885.300048828125,2.38224188634396,-0.14357462897725,0.140620115161268,ST
11.9666666666667,-2.26337289810181,-1.50313329696655,9.20183181762695,-0.167683988809586,1.05945801734924,-0.0381099991500378,-1101.90002441406,3.30000019073486,-887.700012207031,2.38766938648357,-0.239605651105614,0.162221082103643,ST
12.0,-2.78256106376648,-1.63592100143433,9.82988166809082,0.365855991840363,0.807931959629059,-0.0457319989800453,-1092.30004882812,8.70000076293945,-885.300048828125,2.39036309758304,-0.273548577387866,0.164352068806772,ST
12.0333333333333,-2.32019662857056,-1.79741966724396,10.4866428375244,0.182927995920181,-1.27287399768829,-0.533540010452271,-1106.70007324219,8.10000038146973,-882.900024414062,2.39439404314192,-0.212589200997005,0.169531292924588,ST
12.0666666666667,-1.00846910476685,-1.76452171802521,10.0081281661987,0.0457319989800453,-3.16313004493713,-0.99848198890686,-1104.30004882812,9.30000019073486,-885.300048828125,2.39869231843199,-0.0936111366279568,0.174491211411388,ST
12.1,-1.50313329696655,-1.98463833332062,9.79638576507568,-0.403965979814529,-2.27135586738586,-1.47866797447205,-1106.70007324219,13.5000009536743,-873.300048828125,2.40968249441222,-0.144712929119075,0.200762015200694,ST
12.1333333333333,-1.05512416362762,-2.03488230705261,9.62471866607666,-0.335367977619171,-0.792688012123108,-1.11281192302704,-1118.70007324219,0.900000035762787,-882.900024414062,2.41804396684807,-0.10520888995755,0.209086425820507,ST
12.1666666666667,-1.11194777488708,-2.07495808601379,10.65651512146,-0.0076219998300075,-0.586893975734711,-0.541162014007568,-1094.70007324219,11.7000007629395,-885.300048828125,2.41966784093069,-0.100894680664621,0.192455119673163,ST
12.2,0.638218522071838,-1.41879510879517,8.2681303024292,0.762199997901917,-2.03507399559021,-0.83841997385025,-1125.90002441406,4.5,-882.900024414062,2.42297351925407,0.079012409245,0.16863954276046,ST
12.2333333333333,0.317015767097473,-1.21542656421661,7.62333202362061,0.487807989120483,0.487807989120483,-0.236281991004944,-1106.70007324219,7.50000047683716,-890.100036621094,2.42610671304674,0.0403601229453576,0.157258296241172,ST
12.2666666666667,0.252416342496872,-1.79562520980835,7.84045791625977,-0.609759986400604,1.13567793369293,-0.708845973014832,-1109.10009765625,8.70000076293945,-873.300048828125,2.43206634143184,0.0297361460129701,0.22601935939468,ST
12.3,-1.57730305194855,-2.01813435554504,8.40869426727295,-1.02134799957275,2.59910202026367,-0.182927995920181,-1111.5,5.70000028610229,-875.700012207031,2.43817149006895,-0.184109292008992,0.237551612026567,ST
12.3333333333333,-1.94635725021362,-2.56005191802979,9.60019493103027,-0.670735955238342,2.79727387428284,0.243903994560242,-1101.90002441406,3.90000009536743,-873.300048828125,2.4455801321778,-0.198230547411945,0.261870124892675,ST
12.3666666666667,-1.97805881500244,-2.4577693939209,9.95728588104248,-0.221037998795509,0.815553963184357,-0.297257989645004,-1099.5,14.7000007629395,-887.700012207031,2.4453638391326,-0.191807310346817,0.242614939526189,ST
12.4,-1.83390629291534,-2.23765277862549,10.2964334487915,-0.106707997620106,-0.78506600856781,0.304879993200302,-1101.90002441406,7.50000047683716,-878.100036621094,2.43635201121161,-0.171172976561143,0.214145725569865,ST
12.4333333333333,-0.492869794368744,-2.23884916305542,10.2533664703369,-0.350611984729767,-2.22562384605408,0.830797970294952,-1097.10009765625,9.90000057220459,-892.500061035156,2.4249843777528,-0.0436910888033797,0.215486411828664,ST
12.4666666666667,-0.346922934055328,-2.01215291023254,9.11390399932861,-0.609759986400604,-1.38720393180847,1.02897000312805,-1104.30004882812,8.70000076293945,-882.900024414062,2.41407734673525,-0.0352033812837139,0.218267992904854,ST
12.5,-0.177050322294235,-2.17185711860657,9.95429515838623,-1.31860601902008,0.586893975734711,1.38720393180847,-1099.5,7.50000047683716,-882.900024414062,2.40360014980423,-0.0189460577462567,0.217080009181395,ST
12.5333333333333,-0.41152235865593,-2.11144471168518,9.73058986663818,-0.701223969459534,-0.175305992364883,1.2347639799118,-1106.70007324219,5.70000028610229,-897.300048828125,2.39267919994622,-0.0414127591502313,0.21481793092675,ST
12.5666666666667,-0.084936298429966,-2.21013832092285,8.98889255523682,-0.518296003341675,0.586893975734711,1.18903195858002,-1106.70007324219,11.1000003814697,-894.900024414062,2.38460163937069,-0.0107403398774926,0.241911517136512,ST
12.6,-0.645396292209625,-2.35728144645691,9.39263916015625,-0.426831990480423,1.09756803512573,1.38720393180847,-1097.10009765625,11.7000007629395,-873.300048828125,2.3753587222628,-0.0688561799445092,0.24649844154416,ST
12.6333333333333,-1.00846910476685,-2.48049879074097,8.89019870758057,-0.25152599811554,-0.0381099991500378,1.10518991947174,-1101.90002441406,12.9000005722046,-873.300048828125,2.36800595021903,-0.109206907811634,0.272279264421607,ST
12.6666666666667,-1.37453258037567,-3.04095888137817,9.60378360748291,-1.18140995502472,-0.0990860015153885,0.990859985351562,-1101.90002441406,11.7000007629395,-887.700012207031,2.36310358000673,-0.135889388400169,0.308375886003243,ST
12.7,-1.04734838008881,-3.09598803520203,9.10254001617432,-1.32622802257538,-0.922261953353882,0.388722002506256,-1111.5,8.70000076293945,-870.900024414062,2.35900384387547,-0.107287027687601,0.32997401875787,ST
12.7333333333333,-1.42238402366638,-2.98054647445679,9.5565299987793,-0.503051996231079,-0.99848198890686,1.37195992469788,-1099.5,12.3000001907349,-887.700012207031,2.34225004299443,-0.140075929308093,0.302909886461909,ST
12.7666666666667,-0.773398876190186,-3.35797452926636,9.12467098236084,-0.129574000835419,-0.907018005847931,1.31860601902008,-1109.10009765625,12.9000005722046,-878.100036621094,2.33515552030195,-0.0789091293299053,0.352456249004002,ST
12.8,-1.11314404010773,-3.10914707183838,9.38486289978027,0.304879993200302,-0.746955990791321,0.0228659994900227,-1113.90002441406,12.3000001907349,-890.100036621094,2.32996607927455,-0.110845908806318,0.319383657426659,ST
12.8333333333333,-1.08802211284637,-2.71078395843506,9.31607723236084,1.35671591758728,-0.937505960464478,-0.121951997280121,-1094.70007324219,12.3000001907349,-882.900024414062,2.32572280704082,-0.11004366484174,0.280857273491618,ST
12.8666666666667,-1.09639608860016,-2.20654940605164,8.88900279998779,1.97409796714783,-1.42531394958496,0.198172003030777,-1109.10009765625,12.9000005722046,-870.900024414062,2.31857421124181,-0.116785471993442,0.239911428965734,ST
12.9,-1.01923561096191,-2.31301879882812,9.42134952545166,1.69970595836639,-1.65397393703461,0.25152599811554,-1101.90002441406,9.30000019073486,-880.500061035156,2.31467974378628,-0.102032246387518,0.237673984581507,ST
12.9333333333333,-0.86192399263382,-1.94575905799866,9.02179050445557,1.58537602424622,-1.70732796192169,-0.289635986089706,-1109.10009765625,9.30000019073486,-885.300048828125,2.31252128727436,-0.0901450192373875,0.209743339338202,ST
12.9666666666667,-0.83859646320343,-2.31122446060181,9.38665771484375,0.922261953353882,-0.121951997280121,-0.426831990480423,-1106.70007324219,12.9000005722046,-868.500061035156,2.31915024679881,-0.0861581862888961,0.239798081032529,ST
13.0,-1.28839993476868,-2.55048155784607,9.76229190826416,0.480185985565186,0.472563982009888,-0.914639949798584,-1113.90002441406,7.50000047683716,-887.700012207031,2.3297676919278,-0.127300809774489,0.254895044941134,ST
13.0333333333333,-1.07247030735016,-2.47332119941711,8.75023365020752,0.487807989120483,0.693601965904236,-0.92988395690918,-1111.5,14.1000003814697,-880.500061035156,2.34188551196586,-0.118148809115504,0.27479687582039,ST
13.0666666666667,-0.602928102016449,-2.87048816680908,9.0732307434082,0.6250039935112,-0.221037998795509,0.243903994560242,-1101.90002441406,12.3000001907349,-885.300048828125,2.33787236479483,-0.0630317342908589,0.305281869179645,ST
13.1,-0.697434723377228,-2.39197373390198,9.34299278259277,1.60824191570282,1.41769194602966,0.716467976570129,-1092.30004882812,3.90000009536743,-878.100036621094,2.32853505088783,-0.0748956286390437,0.247782749693065,ST
13.1333333333333,-1.23935222625732,-2.2831118106842,9.06246376037598,1.42531394958496,1.91312193870544,-0.106707997620106,-1094.70007324219,13.5000009536743,-878.100036621094,2.33431178566395,-0.134859612646241,0.24445116389671,ST
13.1666666666667,-1.04256319999695,-2.09768748283386,9.44168663024902,1.40244793891907,0.87652999162674,-0.0533539988100529,-1092.30004882812,15.3000001907349,-882.900024414062,2.33414734406335,-0.108948169575514,0.216324311532068,ST
13.2,-0.62147057056427,-2.21492338180542,9.28497314453125,1.06708002090454,-0.914639949798584,-0.106707997620106,-1094.70007324219,7.50000047683716,-875.700012207031,2.33531471461771,-0.0635855875972287,0.232239979403325,ST
13.2333333333333,-0.218920320272446,-2.11084651947021,9.27839374542236,0.503051996231079,-1.76830399036407,-0.160062000155449,-1104.30004882812,10.5,-885.300048828125,2.33295466452161,-0.020015517077597,0.222825759011393,ST
13.2666666666667,-1.1035737991333,-2.41410493850708,9.51226806640625,0.403965979814529,0.655492007732391,0.541162014007568,-1092.30004882812,8.10000038146973,-890.100036621094,2.33179420836044,-0.11309667378902,0.247704869644493,ST
13.3,-0.913962483406067,-2.28131723403931,10.1331396102905,0.342989981174469,-0.335367977619171,1.01372599601746,-1097.10009765625,14.1000003814697,-875.700012207031,2.32081723070083,-0.087678030938885,0.220778561313059,ST
13.3333333333333,-0.0992917343974113,-1.89910387992859,8.68324184417725,0.99848198890686,-1.43293595314026,0.602137982845306,-1109.10009765625,6.90000009536743,-878.100036621094,2.31346797069866,-0.0092386265057144,0.213585877622129,ST
13.3666666666667,-0.300865918397903,-1.6143878698349,8.21369934082031,1.10518991947174,-0.487807989120483,0.472563982009888,-1104.30004882812,9.30000019073486,-894.900024414062,2.30862588032207,-0.0351715747988788,0.192175538717133,ST
13.4,-1.17893981933594,-1.67480027675629,9.74434757232666,1.06708002090454,-0.182927995920181,0.967993974685669,-1106.70007324219,9.90000057220459,-899.700012207031,2.29953197229517,-0.1183991498711,0.168218719340763,ST
13.4333333333333,-1.16697692871094,-1.66941702365875,10.0745220184326,1.50153398513794,-1.39482593536377,1.2500079870224,-1106.70007324219,10.5,-875.700012207031,2.28715953338694,-0.111741063151003,0.161318278792077,ST
13.4666666666667,-0.516197383403778,-1.81835460662842,9.63727951049805,1.02134799957275,-1.01372599601746,0.167683988809586,-1101.90002441406,4.5,-887.700012207031,2.28679402895859,-0.0511235567440298,0.184586951778467,ST
13.5,-0.964804589748383,-1.65805232524872,9.95429515838623,0.419209986925125,-1.18903195858002,-0.708845973014832,-1116.30004882812,5.10000038146973,-897.300048828125,2.29016464319369,-0.093001515173736,0.164432669342126,ST
13.5333333333333,-0.687864422798157,-1.78545677661896,9.25985145568848,-0.0609759986400604,-0.708845973014832,-1.31860601902008,-1106.70007324219,5.70000028610229,-878.100036621094,2.30193067987223,-0.0712273682035645,0.190652888440263,ST
13.5666666666667,-1.03897428512573,-1.76153099536896,9.1270637512207,-0.396344006061554,-0.213415995240211,-1.31098401546478,-1121.10009765625,2.10000014305115,-873.300048828125,2.31227162790108,-0.110413947065138,0.191586143992996,ST
13.6,-0.950449168682098,-2.0432562828064,9.44288349151611,-0.609759986400604,0.198172003030777,-0.556405961513519,-1118.70007324219,2.10000014305115,-880.500061035156,2.31921332816578,-0.0982158319239856,0.214216602543084,ST
13.6333333333333,-0.597544848918915,-2.02471399307251,9.03794002532959,-0.769822001457214,-0.609759986400604,-0.708845973014832,-1111.5,5.70000028610229,-878.100036621094,2.32412357795626,-0.0632010729908719,0.221772747139802,ST
13.6666666666667,-0.294884473085403,-2.33275747299194,9.71025276184082,-0.960371971130371,-0.670735955238342,-0.144817993044853,-1094.70007324219,8.70000076293945,-878.100036621094,2.32444278436652,-0.0284506577575295,0.237386541984599,ST
13.7,-0.533543527126312,-2.11742615699768,9.31906795501709,-0.701223969459534,-1.33385002613068,-0.121951997280121,-1111.5,5.70000028610229,-887.700012207031,2.32218603792902,-0.0533634221811685,0.224675686380599,ST
13.7333333333333,-0.321800917387009,-2.22808265686035,9.49970626831055,-0.571649968624115,-1.46342396736145,0.426831990480423,-1111.5,7.50000047683716,-875.700012207031,2.3162644596901,-0.0307357897194147,0.231310575662759,ST
13.7666666666667,0.0645994395017624,-2.67190456390381,9.74673938751221,-0.762199997901917,-2.05031800270081,-0.0609759986400604,-1116.30004882812,11.7000007629395,-885.300048828125,2.31241058410377,0.0098072974485227,0.268840098717833,ST
13.8,0.650779545307159,-2.60790324211121,9.23951435089111,-0.967993974685669,-1.80641400814056,-0.449698001146317,-1104.30004882812,11.7000007629395,-890.100036621094,2.31207564852632,0.0707049171478405,0.276766684751859,ST
13.8333333333333,0.44023323059082,-2.97097611427307,9.92139720916748,-1.34909391403198,1.96647596359253,0.213415995240211,-1106.70007324219,14.7000007629395,-882.900024414062,2.31454775247483,0.0392043496320178,0.293222426679831,ST
13.8666666666667,0.138769164681435,-2.86390852928162,9.86816310882568,-1.32622802257538,2.46952795982361,0.922261953353882,-1111.5,12.3000001907349,-868.500061035156,2.31336792815147,0.009005507108028,0.284800760682179,ST
13.9,-0.150133892893791,-2.98114466667175,9.56131553649902,-1.46342396736145,3.44514393806458,1.82927989959717,-1106.70007324219,11.7000007629395,-878.100036621094,2.30708251483701,-0.0216091263953948,0.304719694434285,ST
13.9333333333333,-1.06648886203766,-3.1468300819397,9.43630313873291,-1.73781597614288,3.68904781341553,2.25611186027527,-1101.90002441406,11.1000003814697,-880.500061035156,2.29923250739429,-0.1138252990333,0.324653326892346,ST
13.9666666666667,-1.13527536392212,-3.45068669319153,9.66599082946777,-1.2347639799118,2.27897787094116,1.99696397781372,-1099.5,8.70000076293945,-882.900024414062,2.29140330345399,-0.115081620612985,0.344746798652263,ST
14.0,-1.3559901714325,-3.20245742797852,9.4075927734375,-0.160062000155449,0.121951997280121,1.2576299905777,-1087.5,18.9000015258789,-887.700012207031,2.27996485866347,-0.136442226070202,0.328173370029498,ST
14.0333333333333,-1.25610029697418,-3.16058754920959,7.83387851715088,0.685979962348938,-1.20427596569061,0.746955990791321,-1092.30004882812,16.5,-885.300048828125,2.27927805052785,-0.146113345474217,0.381789304690307,ST
14.0666666666667,-0.86192399263382,-2.67489528656006,7.97264766693115,0.754577994346619,-2.5152599811554,0.411587983369827,-1092.30004882812,15.3000001907349,-890.100036621094,2.26295133655647,-0.0983814806153948,0.32240098641971,ST
14.1,-1.79562520980835,-2.83340334892273,7.65443563461304,1.2347639799118,-1.2423859834671,0.83841997385025,-1101.90002441406,17.7000007629395,-880.500061035156,2.25913792860682,-0.21479120440267,0.351850861502908,ST
14.1333333333333,-1.60302317142487,-3.45547199249268,10.2731056213379,0.0304879993200302,-1.20427596569061,1.27287399768829,-1097.10009765625,14.1000003814697,-890.100036621094,2.24150702445014,-0.145804891690759,0.324109309674112,ST
14.1666666666667,-0.404344648122787,-2.66532516479492,9.76408576965332,1.07470202445984,-4.85521411895752,-0.144817993044853,-1092.30004882812,14.7000007629395,-875.700012207031,2.22605273585756,-0.0318620386670508,0.264630715340325,ST
14.2,0.384605944156647,-3.08342695236206,9.21259784698486,0.0381099991500378,-2.90398192405701,-0.0533539988100529,-1101.90002441406,13.5000009536743,-890.100036621094,2.21895376891052,0.0441254112915024,0.322761138997488,ST
14.2333333333333,0.915158748626709,-2.8441698551178,10.1259622573853,-0.480185985565186,-2.82013988494873,-0.861285984516144,-1106.70007324219,11.1000003814697,-885.300048828125,2.22279011922809,0.0917619733618735,0.274828938191576,ST
14.2666666666667,0.421092659235001,-2.8680956363678,8.11380958557129,0.67835795879364,-2.27897787094116,-1.56251001358032,-1135.5,15.9000005722046,-870.900024414062,2.22439342371153,0.0536230532287741,0.33840009669612,ST
14.3,0.136376604437828,-2.61209034919739,8.50140571594238,1.02897000312805,-1.47866797447205,-1.79879200458527,-1121.10009765625,13.5000009536743,-887.700012207031,2.23594466198523,0.0188483251227523,0.296413494937112,ST
14.3333333333333,-0.579002380371094,-2.75504660606384,7.36971950531006,1.88263392448425,-2.99544596672058,-2.37806391716003,-1123.5,17.1000003814697,-882.900024414062,2.2480193839311,-0.0668014458373187,0.354380396186844,ST
14.3666666666667,-1.31172752380371,-3.64029812812805,9.39921855926514,0.701223969459534,-2.01220798492432,-2.29422187805176,-1133.10009765625,8.70000076293945,-880.500061035156,2.26140811439666,-0.124479465758002,0.368537644873734,ST
14.4,-0.205163031816483,-3.16417622566223,11.3587350845337,0.525918006896973,-3.99392795562744,-2.11129403114319,-1135.5,14.1000003814697,-878.100036621094,2.26201309897184,-0.0101153704438682,0.271141945593982,DLL
14.4333333333333,1.41999137401581,-3.34780621528625,10.8784265518188,0.190549999475479,1.20427596569061,0.381099998950958,-1140.30004882812,12.3000001907349,-885.300048828125,2.25993111927537,0.121912751991592,0.298218719396762,DLL
14.4666666666667,-1.20824885368347,-3.51409006118774,9.88550853729248,-0.846041977405548,1.34147191047668,3.24697184562683,-1116.30004882812,15.3000001907349,-882.900024414062,2.14681217475473,-0.117752541932887,0.342070592782397,DLL
14.5,-0.714780867099762,-3.3149082660675,9.15039157867432,-0.342989981174469,-0.861285984516144,4.05490398406982,-1123.5,11.1000003814697,-885.300048828125,2.11108188722045,-0.074392165778677,0.347612334659761,DLL
14.5333333333333,-1.14604198932648,-3.22757935523987,8.41527366638184,-0.0838419944047928,-0.99848198890686,5.09911775588989,-1116.30004882812,14.1000003814697,-870.900024414062,2.0717029029236,-0.127825447243774,0.365177141575378,DLL
14.5666666666667,-1.32129776477814,-2.9201340675354,8.17661476135254,-0.25152599811554,-2.55336999893188,7.14943599700928,-1116.30004882812,6.30000019073486,-870.900024414062,2.00194347619176,-0.150957792439876,0.341484791367759,DLL
14.6,-1.49954438209534,-2.89740467071533,8.27530765533447,-0.350611984729767,-2.88873791694641,9.51987743377686,-1121.10009765625,11.1000003814697,-866.100036621094,1.91394166294043,-0.170038104441548,0.334434602773512,DLL
14.6333333333333,0.0107665732502937,-3.32806754112244,9.5391845703125,-1.12043392658234,-3.65855979919434,10.9451913833618,-1125.90002441406,18.9000015258789,-873.300048828125,1.81794875862483,0.0002670032208327,0.337567901542314,DLL
14.6666666666667,0.0586180128157139,-2.77119636535645,8.82081413269043,-0.685979962348938,-4.39027214050293,10.3278093338013,-1118.70007324219,18.3000011444092,-866.100036621094,1.72238775737942,0.0081968261704791,0.305825453935271,DLL
14.7,0.273949474096298,-2.98353719711304,9.34658241271973,-1.39482593536377,-3.68142580986023,11.2729377746582,-1133.10009765625,21.9000015258789,-861.300048828125,1.62680036848708,0.0279270615362399,0.31196370983361,DLL
14.7333333333333,-0.675303399562836,-2.58218312263489,8.91891002655029,-1.44055795669556,-4.18447780609131,12.6448974609375,-1123.5,14.7000007629395,-861.300048828125,1.51807496760976,-0.0713939256218126,0.282812561747813,DLL
14.7666666666667,-0.340941488742828,-2.9141526222229,8.46731185913086,-3.20886182785034,-4.04728174209595,15.594612121582,-1130.70007324219,24.3000011444092,-870.900024414062,1.39010497811708,-0.0404250632078375,0.335719208545567,DLL
14.8,-0.955832481384277,-3.32148790359497,7.87215948104858,-4.79423809051514,-4.49697971343994,18.3385314941406,-1125.90002441406,29.1000003814697,-863.700012207031,1.2413135657721,-0.116426153882079,0.403623164871554,DLL
14.8333333333333,-1.29617583751678,-3.71566414833069,9.39981651306152,-5.8536958694458,-3.90246391296387,19.5428066253662,-1137.90002441406,36.3000030517578,-863.700012207031,1.06565550981925,-0.133890730783751,0.382100732663362,DLL
14.8666666666667,-0.459971934556961,-4.42087459564209,10.1528787612915,-5.67839002609253,-4.19210004806519,19.3979892730713,-1133.10009765625,35.7000007629395,-856.500061035156,0.909093940234972,-0.0488636292333209,0.418732126522855,DLL
14.9,-0.319408357143402,-4.15888786315918,9.96865081787109,-4.17685604095459,-4.49697971343994,13.3385000228882,-1128.30004882812,32.1000022888184,-839.700012207031,0.783581563630431,-0.0314729160873876,0.401785798354636,DLL
14.9333333333333,0.745884299278259,-4.26595544815063,9.3238525390625,-2.82013988494873,-3.43752193450928,9.1997537612915,-1118.70007324219,39.3000030517578,-839.700012207031,0.698066529486434,0.0711017833424945,0.435154431502101,DLL
14.9666666666667,0.0891233012080193,-3.39625573158264,8.26932621002197,-1.54726600646973,-2.85824990272522,6.04424571990967,-1123.5,38.7000007629395,-834.900024414062,0.641279112349994,0.0106541982631809,0.392614215400066,DLL
15.0,-0.452196091413498,-3.50691223144531,7.54617166519165,-0.388722002506256,-0.632625997066498,6.06711196899414,-1123.5,42.9000015258789,-854.100036621094,0.592680422965073,-0.0575800535817373,0.435038036975273,DLL
15.0333333333333,-0.714182734489441,-3.21920537948608,8.15986633300781,-1.34147191047668,-1.21189796924591,5.07625198364258,-1104.30004882812,44.7000007629395,-830.100036621094,0.543752576344868,-0.0824840627044321,0.377507313516636,DLL
15.0666666666667,-0.563450694084167,-4.02071714401245,8.70178413391113,-1.95123195648193,-2.22562384605408,5.42686367034912,-1109.10009765625,43.5,-834.900024414062,0.495302518644778,-0.0592245008968309,0.435519166505651,DLL
15.1,-0.37324121594429,-4.05062437057495,9.0373420715332,-2.30946588516235,-2.37044191360474,3.3689239025116,-1111.5,47.7000007629395,-837.300048828125,0.461415007959804,-0.0364111863634278,0.425172804574437,DLL
15.1333333333333,-0.154919028282166,-4.41668748855591,9.25267314910889,-2.08842802047729,-1.94360995292664,2.44666194915771,-1104.30004882812,46.5,-837.300048828125,0.437152355343832,-0.0139858743116556,0.448838585182672,DLL
15.1666666666667,-0.319408357143402,-4.07036304473877,9.39024639129639,-0.884151995182037,-1.2347639799118,0.282013982534409,-1113.90002441406,46.5,-837.300048828125,0.430010500463111,-0.0293640169967173,0.410666055788808,DLL
15.2,-0.252416342496872,-3.86759233474731,8.16584777832031,1.17378795146942,1.2500079870224,0.426831990480423,-1111.5,50.1000022888184,-834.900024414062,0.432288535490629,-0.0302172630191459,0.440180345117884,DLL
15.2333333333333,-0.862522184848785,-4.14393472671509,8.9476203918457,0.823175966739655,2.14940404891968,-1.45580196380615,-1121.10009765625,52.5000038146973,-820.500061035156,0.45079184514653,-0.0894123388613722,0.432651501254294,DLL
15.2666666666667,-1.75734400749207,-3.84905004501343,8.68324184417725,0.510673999786377,0.693601965904236,-1.73781597614288,-1111.5,44.7000007629395,-830.100036621094,0.464209630338959,-0.182485442170221,0.41700988633778,DLL
15.3,-1.36376595497131,-4.18700075149536,8.73348522186279,-0.160062000155449,1.13567793369293,-0.358233988285065,-1125.90002441406,45.3000030517578,-822.900024414062,0.47536363207403,-0.141557089983126,0.447419093368844,DLL
15.3333333333333,-1.02820777893066,-4.63082265853882,8.2681303024292,-1.04421401023865,0.571649968624115,-1.39482593536377,-1118.70007324219,48.3000030517578,-827.700012207031,0.494468980762901,-0.107881276707823,0.512417024135321,DLL
15.3666666666667,-1.06828331947327,-4.77557325363159,8.4176664352417,-1.31098401546478,-0.266770005226135,-1.36433792114258,-1118.70007324219,48.9000015258789,-842.100036621094,0.502433003285457,-0.108352097091473,0.518514933624653,DLL
15.4,-0.732127010822296,-4.45736122131348,7.27521276473999,-1.39482593536377,-0.213415995240211,-1.37958192825317,-1109.10009765625,50.7000007629395,-825.300048828125,0.513240772416565,-0.0841097966144983,0.552157059216038,DLL
15.4333333333333,-1.08802211284637,-4.47291326522827,7.78961610794067,-0.983237981796265,0.365855991840363,-0.419209986925125,-1121.10009765625,51.3000030517578,-830.100036621094,0.513759333530287,-0.120593127054399,0.523182223056066,DLL
15.4666666666667,-0.916953146457672,-4.21989870071411,8.13833332061768,-0.0076219998300075,0.693601965904236,-0.495429992675781,-1116.30004882812,50.7000007629395,-813.300048828125,0.5149673802363,-0.100442230371969,0.478665294846256,DLL
15.5,-1.81177508831024,-4.54827928543091,7.69451141357422,-0.46494197845459,0.861285984516144,-0.891773998737335,-1113.90002441406,44.7000007629395,-827.700012207031,0.532304565932706,-0.200122803798533,0.534877593111286,DLL
15.5333333333333,-1.62934148311615,-5.01662492752075,8.77475738525391,-1.73781597614288,-0.213415995240211,-1.72257196903229,-1113.90002441406,48.9000015258789,-834.900024414062,0.538828562662817,-0.158156583718705,0.522824245545436,DLL
15.5666666666667,-1.62156558036804,-5.3360333442688,8.79210376739502,-1.47104597091675,-0.564027965068817,-0.922261953353882,-1118.70007324219,51.3000030517578,-820.500061035156,0.544898903003614,-0.15471562568259,0.548095532119591,DLL
15.6,-1.17893981933594,-5.76609802246094,9.0433235168457,-1.21189796924591,-0.663114011287689,-0.746955990791321,-1116.30004882812,48.9000015258789,-820.500061035156,0.548849532195672,-0.107918618679024,0.569729708317117,DLL
15.6333333333333,-1.84706544876099,-5.28578948974609,8.77774810791016,0.87652999162674,0.266770005226135,-0.0609759986400604,-1125.90002441406,52.5000038146973,-825.300048828125,0.547589003618571,-0.178557519096855,0.540607888248367,DLL
15.6666666666667,-1.1538177728653,-5.38866996765137,8.26394367218018,1.61586391925812,0.640248000621796,-0.0457319989800453,-1118.70007324219,47.1000022888184,-834.900024414062,0.557682758574874,-0.117467629939244,0.575007219902271,DLL
15.7,-1.31112945079803,-4.60809326171875,7.67118358612061,1.63872992992401,-1.07470202445984,0.701223969459534,-1116.30004882812,51.9000015258789,-820.500061035156,0.544963223174234,-0.144431997687542,0.537872208678632,DLL
15.7333333333333,-1.85125243663788,-4.64158964157104,8.20652198791504,1.01372599601746,-0.518296003341675,2.27135586738586,-1128.30004882812,57.3000030517578,-827.700012207031,0.522971415185152,-0.194944096282553,0.512252830377034,DLL
15.7666666666667,-1.0975923538208,-4.61886024475098,8.16883850097656,1.02134799957275,-0.739333987236023,2.66770005226135,-1116.30004882812,52.5000038146973,-827.700012207031,0.501354703698919,-0.117775658119284,0.512266448945548,DLL
15.8,-1.1496307849884,-4.77019023895264,8.72032642364502,1.42531394958496,-1.04421401023865,2.21800184249878,-1118.70007324219,48.3000030517578,-825.300048828125,0.481377382985041,-0.115404709427149,0.497623153591755,DLL
15.8333333333333,-0.79074501991272,-4.83000469207764,8.06954669952393,1.61586391925812,-1.28049600124359,0.975615978240967,-1113.90002441406,55.5000038146973,-837.300048828125,0.47441097403927,-0.082950980788881,0.536170186270312,DLL
15.8666666666667,-1.39187872409821,-4.5931396484375,8.51576137542725,2.16464805603027,-0.830797970294952,0.609759986400604,-1123.5,53.1000022888184,-818.100036621094,0.463772340491119,-0.141958868668229,0.490745275016601,DLL
15.9,-1.31770896911621,-4.48068904876709,8.31179428100586,2.57623600959778,-0.297257989645004,1.15854394435883,-1111.5,44.7000007629395,-815.700012207031,0.457231556632393,-0.139159134434156,0.489641437180213,DLL
15.9333333333333,-1.85962653160095,-4.33534002304077,8.50858402252197,2.12653803825378,-0.922261953353882,2.080806016922,-1121.10009765625,48.9000015258789,-815.700012207031,0.437619396905831,-0.192401973387993,0.46681218885708,DLL
15.9666666666667,-1.92841291427612,-4.18221569061279,8.56421089172363,1.34909391403198,-1.34909391403198,2.99544596672058,-1121.10009765625,53.1000022888184,-822.900024414062,0.410678689002723,-0.199772941357047,0.450817878609378,DLL
16.0,-0.771006286144257,-4.64577627182007,8.30342102050781,0.670735955238342,-1.31098401546478,2.82013988494873,-1116.30004882812,53.7000007629395,-830.100036621094,0.394421393617544,-0.0816855042072218,0.508274400118286,DLL
16.0333333333333,-1.49296486377716,-4.24621677398682,8.536696434021,1.18903195858002,-1.57013201713562,2.33233189582825,-1130.70007324219,47.1000022888184,-834.900024414062,0.367612273032257,-0.154409200338039,0.458928037084736,DLL
16.0666666666667,-1.04375946521759,-4.19836568832397,8.23044681549072,1.57775402069092,-1.79879200458527,2.62959003448486,-1104.30004882812,50.1000022888184,-827.700012207031,0.345113057511466,-0.111917625479804,0.468284709171418,DLL
16.1,-0.833811283111572,-4.02430582046509,7.64067840576172,1.2423859834671,-2.37806391716003,2.31708788871765,-1121.10009765625,54.3000030517578,-834.900024414062,0.321475337309455,-0.0945041463140297,0.482041493180292,DLL
16.1333333333333,-1.26626861095428,-4.04524087905884,8.32973861694336,0.6250039935112,-2.58385801315308,3.20886182785034,-1113.90002441406,41.7000007629395,-837.300048828125,0.286293325090116,-0.13413729945021,0.450178464453496,DLL
16.1666666666667,-0.870298027992249,-4.26117038726807,9.41058349609375,0.121951997280121,-3.04117798805237,3.42989993095398,-1116.30004882812,45.9000015258789,-818.100036621094,0.244136546364208,-0.081758548242779,0.424382173820805,DLL
16.2,-0.470738530158997,-4.190589427948,9.2640380859375,0.388722002506256,-3.39178991317749,3.33081388473511,-1118.70007324219,47.1000022888184,-834.900024414062,0.205341668447642,-0.0433327457943695,0.423790724395575,DLL
16.2333333333333,0.455784946680069,-4.03327798843384,9.341796875,0.556405961513519,-3.57471799850464,2.65245604515076,-1133.10009765625,47.1000022888184,-813.300048828125,0.17415326997201,0.0483208156994231,0.406975241284826,DLL
16.2666666666667,1.24114668369293,-3.81734848022461,8.85849761962891,-0.0685980021953583,-3.25459384918213,1.29574000835419,-1125.90002441406,54.3000030517578,-830.100036621094,0.153100030961131,0.132083271849228,0.407566817080789,DLL
16.3,0.415709376335144,-3.33644151687622,8.5546407699585,1.17378795146942,-0.0076219998300075,1.50915598869324,-1121.10009765625,47.1000022888184,-820.500061035156,0.144121056244975,0.044561542147211,0.370044891279737,DLL
16.3333333333333,0.399559497833252,-3.6773829460144,8.95539665222168,1.18903195858002,1.56251001358032,1.12805593013763,-1118.70007324219,48.3000030517578,-818.100036621094,0.139309150178967,0.0380046857876512,0.387529369912956,DLL
16.3666666666667,-0.86491471529007,-3.38788175582886,9.64206504821777,0.556405961513519,0.144817993044853,-0.129574000835419,-1125.90002441406,54.3000030517578,-815.700012207031,0.139757949340317,-0.0841421279436071,0.337130171512685,DLL
16.4,-0.777585864067078,-3.26526236534119,8.97812557220459,0.861285984516144,0.685979962348938,0.586893975734711,-1121.10009765625,46.5,-810.900024414062,0.138602136820417,-0.082693818744897,0.347232782134752,DLL
16.4333333333333,-0.803305983543396,-3.09778237342834,9.53798770904541,0.769822001457214,1.34909391403198,0.647870004177094,-1121.10009765625,48.3000030517578,-839.700012207031,0.134740790069409,-0.082521516756325,0.312790627199199,DLL
16.4666666666667,-1.18193054199219,-3.06249189376831,9.06246376037598,0.830797970294952,1.95885396003723,0.335367977619171,-1116.30004882812,43.5,-834.900024414062,0.139155877280294,-0.126199305695756,0.324457801718424,DLL
16.5,-1.07785367965698,-3.2227942943573,8.31179428100586,-0.586893975734711,1.85976791381836,-0.907018005847931,-1113.90002441406,53.7000007629395,-827.700012207031,0.157466678185863,-0.122782023758477,0.371151440281899,DLL
16.5333333333333,-1.48040390014648,-3.36933946609497,8.30641174316406,0.213415995240211,2.4923939704895,0.487807989120483,-1113.90002441406,51.3000030517578,-834.900024414062,0.163933314213324,-0.167940725217092,0.385094654764099,DLL
16.5666666666667,-1.48698341846466,-3.71267342567444,8.77116870880127,-0.175305992364883,1.58537602424622,-1.08232402801514,-1099.5,50.7000007629395,-822.900024414062,0.180281748430988,-0.156702768838881,0.401134672545527,DLL
16.6,-1.53124594688416,-4.02610015869141,8.36084270477295,-0.830797970294952,0.983237981796265,-1.20427596569061,-1121.10009765625,44.7000007629395,-825.300048828125,0.199077088700579,-0.164141526801767,0.450476798519841,DLL
16.6333333333333,-1.23456704616547,-4.25997447967529,7.94393682479858,-0.99848198890686,0.640248000621796,-0.746955990791321,-1111.5,49.5000038146973,-825.300048828125,0.212917452570907,-0.136522626757699,0.494134731252221,DLL
16.6666666666667,-2.01634001731873,-4.59553241729736,9.25446796417236,-0.670735955238342,1.22714197635651,0.160062000155449,-1109.10009765625,48.3000030517578,-830.100036621094,0.21007616186592,-0.194622116052992,0.462289691662595,DLL
16.7,-1.15680849552155,-4.84675264358521,8.23642826080322,-0.434453994035721,0.769822001457214,-0.152439996600151,-1099.5,50.7000007629395,-820.500061035156,0.225093920103833,-0.121627244683782,0.532620619219724,DLL
16.7333333333333,-2.07974314689636,-4.34371423721313,8.17481994628906,0.0457319989800453,1.12805593013763,0.6250039935112,-1111.5,47.7000007629395,-818.100036621094,0.217491186095537,-0.22287101168946,0.488491425105422,DLL
16.7666666666667,-1.287801861763,-4.84316349029541,7.89728164672852,0.243903994560242,1.53202199935913,0.731711983680725,-1111.5,53.1000022888184,-832.500061035156,0.23007265409272,-0.141375535345707,0.549515612203665,DLL
16.8,-2.37044048309326,-4.51298856735229,9.02777194976807,-0.579271972179413,0.0076219998300075,0.480185985565186,-1097.10009765625,45.3000030517578,-830.100036621094,0.210001370710351,-0.230742970033805,0.464723912971539,DLL
16.8333333333333,-1.43075799942017,-4.91434288024902,8.2322416305542,-0.868907988071442,-0.0152439996600151,0.754577994346619,-1118.70007324219,48.9000015258789,-832.500061035156,0.217643046800229,-0.149094116562438,0.539253898762352,DLL
16.8666666666667,-1.51509618759155,-4.85811710357666,8.35127258300781,-0.0762199983000755,0.914639949798584,1.39482593536377,-1111.5,47.1000022888184,-818.100036621094,0.209737766032909,-0.158121670996632,0.526842684325004,DLL
16.9,-1.87398195266724,-4.58775663375854,9.09177303314209,0.92988395690918,0.3125019967556,1.2423859834671,-1101.90002441406,50.1000022888184,-815.700012207031,0.192239412692136,-0.183404880004015,0.465484324460469,DLL
16.9333333333333,-1.5623494386673,-4.20793581008911,7.58325672149658,1.35671591758728,-0.46494197845459,0.746955990791321,-1111.5,46.5,-820.500061035156,0.194113125376692,-0.178176281394331,0.503810372928419,DLL
16.9666666666667,-0.976767480373383,-3.99679136276245,7.75193309783936,1.57013201713562,-0.945127964019775,0.884151995182037,-1089.90002441406,53.1000022888184,-830.100036621094,0.181527216425518,-0.111012618031184,0.473170908463739,DLL
17.0,-1.21423017978668,-4.04344654083252,8.1012487411499,0.525918006896973,-0.945127964019775,0.594515979290009,-1101.90002441406,51.9000015258789,-830.100036621094,0.172839832080951,-0.132233184564966,0.461833571084648,DLL
17.0333333333333,-1.51689052581787,-3.92920112609863,8.44876956939697,0.114329993724823,-0.922261953353882,-0.396344006061554,-1104.30004882812,50.7000007629395,-820.500061035156,0.16881423926278,-0.159563319069731,0.435165219917169,DLL
17.0666666666667,-1.12690138816833,-4.14333629608154,8.49063968658447,0.739333987236023,-0.198172003030777,-0.670735955238342,-1099.5,53.1000022888184,-825.300048828125,0.176440309922753,-0.117994977490735,0.45276721014251,DLL
17.1,-2.23466205596924,-4.21092653274536,8.69998931884766,0.548784017562866,-0.0990860015153885,-0.480185985565186,-1092.30004882812,50.7000007629395,-820.500061035156,0.179940723583078,-0.226287044325469,0.449985353517452,DLL
17.1333333333333,-1.34701800346375,-4.82940626144409,8.98709774017334,-0.769822001457214,-1.21951997280121,-1.84452390670776,-1111.5,50.1000022888184,-832.500061035156,0.196045272874766,-0.128059537051239,0.49459102566247,DLL
17.1666666666667,-1.28959619998932,-4.49982976913452,8.584547996521,-0.342989981174469,-1.6844619512558,-1.21189796924591,-1104.30004882812,54.9000015258789,-832.500061035156,0.196551283873964,-0.128686602846818,0.483507536276574,DLL
17.2,-0.676499724388123,-4.54648494720459,8.51157474517822,0.472563982009888,-0.411587983369827,-0.716467976570129,-1111.5,55.5000038146973,-837.300048828125,0.201016345441702,-0.0689891451459767,0.48980125751961,DLL
17.2333333333333,-0.202172324061394,-4.14094400405884,8.36323547363281,2.53050398826599,0.609759986400604,-2.47714996337891,-1099.5,56.1000022888184,-825.300048828125,0.220183735216266,-0.0208886555771473,0.45555321741,DLL
17.2666666666667,-1.45348739624023,-3.77667474746704,8.74843883514404,4.15398979187012,1.33385002613068,-3.71191382408142,-1111.5,53.7000007629395,-830.100036621094,0.251127070666651,-0.150497602357186,0.401505035953875,DLL
17.3,-0.748276829719543,-4.21032857894897,8.33332824707031,4.77137184143066,1.76068198680878,-4.97716569900513,-1111.5,50.1000022888184,-822.900024414062,0.303560792125418,-0.0791476405213647,0.460025449970299,DLL
17.3333333333333,-1.71607220172882,-4.24561882019043,9.82748889923096,4.92381191253662,1.08232402801514,-6.97412967681885,-1113.90002441406,45.3000030517578,-846.900024414062,0.3603083851191,-0.155742424651138,0.401205638656392,DLL
17.3666666666667,-1.10118126869202,-4.60450458526611,10.2132911682129,4.29118585586548,-0.411587983369827,-7.60675573348999,-1118.70007324219,41.7000007629395,-842.100036621094,0.420416312463466,-0.092180470969794,0.417105727995461,DLL
17.4,-1.05512416362762,-3.89929413795471,9.21379470825195,5.04576396942139,0.0228659994900227,-8.58999347686768,-1135.5,40.5,-842.100036621094,0.4856761567454,-0.0993359982820516,0.393004514482649,DLL
17.4333333333333,0.83560574054718,-4.0177264213562,8.43321800231934,5.15247201919556,2.03507399559021,-8.40706539154053,-1121.10009765625,39.3000030517578,-856.500061035156,0.553997527281715,0.0915858699925009,0.434169272703454,DLL
17.4666666666667,0.626255691051483,-3.6133816242218,8.4116849899292,4.75612783432007,0.823175966739655,-10.5183601379395,-1130.70007324219,42.3000030517578,-851.700012207031,0.63445643329499,0.0741419664564852,0.396269225020895,DLL
17.5,-0.826035439968109,-2.948246717453,8.23941898345947,5.70887804031372,1.79117000102997,-10.8461055755615,-1140.30004882812,32.1000022888184,-861.300048828125,0.723470510768982,-0.0902037860612182,0.335537176182136,DLL
17.5333333333333,-1.76033473014832,-2.74846696853638,8.54686450958252,5.61741399765015,4.31405210494995,-8.36895561218262,-1147.5,35.1000022888184,-863.700012207031,0.800591640106297,-0.19601890610602,0.304628318847258,DLL
17.5666666666667,-1.86201906204224,-3.17733550071716,9.87115383148193,4.95429992675781,4.92381191253662,-7.29425382614136,-1130.70007324219,32.1000022888184,-868.500061035156,0.88386988278764,-0.182055175988307,0.305478080769931,DLL
17.6,0.139965459704399,-2.74607443809509,8.31777572631836,3.45276594161987,0.152439996600151,-9.79426956176758,-1133.10009765625,27.3000011444092,-861.300048828125,0.960515024301878,0.0202275540706863,0.3125564618414,DLL
