seconds,sensor_accX_m_s_,sensor_accY_m_s_,sensor_accZ_m_s_,sensor_gyroX___s_,sensor_gyroY___s_,sensor_gyroZ___s_,sensor_magX__T_,sensor_magY__T_,sensor_magZ__T_,sensor_yaw___,sensor_pitch___,sensor_roll___,label4
0.0,-1.54320883750916,0.587376415729523,9.5326042175293,0.327746003866196,-0.160062000155449,0.472563982009888,-1109.10009765625,-2.70000004768372,-904.500061035156,-2.9997743619922,-0.159849301248383,-0.0621646959260566,ST
0.0333333333333333,-1.52347016334534,0.56763768196106,9.52183818817139,0.388722002506256,-0.121951997280121,0.510673999786377,-1113.90002441406,-8.70000076293945,-914.100036621094,-3.00249533601701,-0.158124312922869,-0.0603769203688436,ST
0.0666666666666667,-1.56773269176483,0.60651695728302,9.45484638214111,0.350611984729767,-0.0457319989800453,0.533540010452271,-1111.5,-6.90000009536743,-902.100036621094,-3.00652089789491,-0.163807680573105,-0.0647951157973216,ST
0.1,-1.55935871601105,0.628050148487091,9.5146598815918,0.3125019967556,0.0,0.533540010452271,-1118.70007324219,-16.5,-911.700012207031,-3.01009454742539,-0.162051972194787,-0.0665955931347359,ST
0.133333333333333,-1.53304040431976,0.630442678928375,9.52004337310791,0.350611984729767,0.0,0.503051996231079,-1116.30004882812,-10.5,-914.100036621094,-3.01317826966421,-0.15928338699132,-0.0668765531187222,ST
0.166666666666667,-1.55876052379608,0.594554126262665,9.45843505859375,0.342989981174469,0.0304879993200302,0.434453994035721,-1104.30004882812,-11.1000003814697,-890.100036621094,-3.0152291229238,-0.162991257547162,-0.06352825223573,ST
0.2,-1.69095015525818,0.68965882062912,9.5391845703125,0.320124000310898,0.0533539988100529,0.381099998950958,-1101.90002441406,-3.90000009536743,-902.100036621094,-3.01901936126255,-0.174939940987327,-0.0727723448502719,ST
0.233333333333333,-1.70590376853943,0.688462555408478,9.49492168426514,0.37347799539566,-0.0304879993200302,0.434453994035721,-1101.90002441406,-6.30000019073486,-890.100036621094,-3.02171789351692,-0.177191208185632,-0.073166112567259,ST
0.266666666666667,-1.61678040027618,0.663938701152802,9.38905048370361,0.365855991840363,-0.0990860015153885,0.472563982009888,-1116.30004882812,-5.70000028610229,-887.700012207031,-3.02414023183049,-0.169938031036112,-0.0713890924713073,ST
0.3,-1.65625786781311,0.73451954126358,9.54995059967041,0.335367977619171,-0.114329993724823,0.411587983369827,-1109.10009765625,-6.30000019073486,-906.900024414062,-3.02750547224756,-0.170964311243182,-0.0774188695522278,ST
0.333333333333333,-1.61678040027618,0.692051410675049,9.38426494598389,0.335367977619171,-0.137196004390717,0.426831990480423,-1118.70007324219,-8.10000038146973,-911.700012207031,-3.0294212829353,-0.169873087420736,-0.0743477824657642,ST
0.366666666666667,-1.64309871196747,0.729136288166046,9.39503192901611,0.289635986089706,-0.0990860015153885,0.327746003866196,-1101.90002441406,-3.90000009536743,-904.500061035156,-3.03187870162837,-0.172392605877786,-0.0780255315794203,ST
0.4,-1.66164112091064,0.739304721355438,9.45783710479736,0.297257989645004,-0.182927995920181,0.304879993200302,-1109.10009765625,-2.70000004768372,-916.500061035156,-3.0335978674639,-0.173030782632065,-0.078612179344824,ST
0.433333333333333,-1.62515449523926,0.671714544296265,9.47578048706055,0.289635986089706,-0.282013982534409,0.304879993200302,-1113.90002441406,-9.30000019073486,-906.900024414062,-3.03396609598714,-0.168941339768223,-0.0714186121212683,ST
0.466666666666667,-1.65865051746368,0.699229121208191,9.50508975982666,0.160062000155449,-0.388722002506256,0.213415995240211,-1101.90002441406,-8.10000038146973,-899.700012207031,-3.03542856319065,-0.171579567311077,-0.0737472393051293,ST
0.5,-1.6203693151474,0.681284844875336,9.48415470123291,0.160062000155449,-0.396344006061554,0.289635986089706,-1116.30004882812,-10.5,-890.100036621094,-3.03673348793626,-0.168092032119464,-0.0720811363020016,ST
0.533333333333333,-1.58268630504608,0.672910869121552,9.48236083984375,0.137196004390717,-0.434453994035721,0.259148001670837,-1104.30004882812,-14.7000007629395,-902.100036621094,-3.03806024686924,-0.164210260645628,-0.0711563667056382,ST
0.566666666666667,-1.53902184963226,0.643601834774017,9.4434814453125,0.0914639979600906,-0.403965979814529,0.25152599811554,-1106.70007324219,-12.9000005722046,-897.300048828125,-3.03901779627382,-0.160481526905001,-0.0682942231018619,ST
0.6,-1.55935871601105,0.632835268974304,9.47039794921875,0.0304879993200302,-0.3125019967556,0.297257989645004,-1109.10009765625,-6.30000019073486,-909.300048828125,-3.04063445872002,-0.162241655377149,-0.0668669986351745,ST
0.633333333333333,-1.48638522624969,0.550889670848846,9.48774337768555,-0.0457319989800453,-0.266770005226135,0.327746003866196,-1109.10009765625,-0.900000035762787,-894.900024414062,-3.04154872349139,-0.154688554229476,-0.0580536846824869,ST
0.666666666666667,-1.53782558441162,0.528160214424133,9.50748252868652,-0.0,-0.236281991004944,0.243903994560242,-1118.70007324219,-4.5,-897.300048828125,-3.04273301978086,-0.159641153697865,-0.0555801166335531,ST
0.7,-1.60421943664551,0.538926839828491,9.53081035614014,0.0990860015153885,-0.266770005226135,0.198172003030777,-1116.30004882812,-1.5,-906.900024414062,-3.04404935282947,-0.165958598026057,-0.0567026335970005,ST
0.733333333333333,-1.59524726867676,0.547300815582275,9.59899806976318,0.167683988809586,-0.289635986089706,0.274392008781433,-1109.10009765625,-8.70000076293945,-897.300048828125,-3.04571547972798,-0.163906415135555,-0.0573167379543103,ST
0.766666666666667,-1.57909739017487,0.448607236146927,9.43869590759277,-0.0,-0.259148001670837,0.175305992364883,-1104.30004882812,-6.90000009536743,-897.300048828125,-3.04523293805051,-0.165105412434768,-0.0476201293491623,ST
0.8,-1.59524726867676,0.492869794368744,9.55174541473389,-0.0076219998300075,-0.221037998795509,0.228659987449646,-1111.5,-6.30000019073486,-902.100036621094,-3.0473712419139,-0.164864095007166,-0.0515713535113184,ST
0.833333333333333,-1.52466642856598,0.39537250995636,9.52961349487305,0.106707997620106,-0.25152599811554,0.243903994560242,-1121.10009765625,-5.70000028610229,-902.100036621094,-3.04735466975061,-0.158096104367098,-0.0417722643321699,ST
0.866666666666667,-1.57730305194855,0.419896364212036,9.50389385223389,0.160062000155449,-0.182927995920181,0.259148001670837,-1113.90002441406,-0.900000035762787,-899.700012207031,-3.04946189740158,-0.163940625678572,-0.0444915950322449,ST
0.9,-1.58268630504608,0.43724250793457,9.5146598815918,0.236281991004944,-0.175305992364883,0.388722002506256,-1111.5,-5.10000038146973,-911.700012207031,-3.0521042179172,-0.164321787903474,-0.0464287510670851,ST
0.933333333333333,-1.56593835353851,0.400755792856216,9.42015361785889,0.213415995240211,-0.144817993044853,0.46494197845459,-1116.30004882812,-2.10000014305115,-894.900024414062,-3.05469425571671,-0.164292957354194,-0.0430379460077404,ST
0.966666666666667,-1.55457353591919,0.381615221500397,9.50568771362305,0.152439996600151,-0.0457319989800453,0.442075997591019,-1118.70007324219,1.5,-909.300048828125,-3.05737333960961,-0.161878549261724,-0.0405278281407085,ST
1.0,-1.59524726867676,0.403746515512466,9.53559494018555,0.198172003030777,-0.0076219998300075,0.388722002506256,-1128.30004882812,-4.5,-892.500061035156,-3.06015783014135,-0.165540817692917,-0.0427562523641428,ST
1.03333333333333,-1.60900461673737,0.377428203821182,9.57686710357666,0.236281991004944,-0.0533539988100529,0.335367977619171,-1109.10009765625,-6.90000009536743,-906.900024414062,-3.06168951053859,-0.166206252008453,-0.0399232711621806,ST
1.06666666666667,-1.5964435338974,0.409129798412323,9.4907341003418,0.289635986089706,-0.137196004390717,0.289635986089706,-1106.70007324219,-5.10000038146973,-899.700012207031,-3.06390563789309,-0.166237428144508,-0.04363952438344,ST
1.1,-1.65027642250061,0.388194799423218,9.45185565948486,0.304879993200302,-0.0990860015153885,0.342989981174469,-1106.70007324219,-5.10000038146973,-914.100036621094,-3.06552558325725,-0.172463882743757,-0.0416986627147107,ST
1.13333333333333,-1.65805232524872,0.41152235865593,9.48714542388916,0.289635986089706,-0.0457319989800453,0.426831990480423,-1116.30004882812,-6.30000019073486,-904.500061035156,-3.06846091937773,-0.172746795786011,-0.043965718721269,ST
1.16666666666667,-1.6263507604599,0.406737208366394,9.49851036071777,0.403965979814529,-0.0304879993200302,0.510673999786377,-1106.70007324219,-3.30000019073486,-890.100036621094,-3.07158260208993,-0.169352370832766,-0.0436538017432363,ST
1.2,-1.64788389205933,0.387596637010574,9.48236083984375,0.518296003341675,-0.0838419944047928,0.46494197845459,-1111.5,-7.50000047683716,-906.900024414062,-3.07412135770854,-0.17173544970064,-0.0419038241584318,ST
1.23333333333333,-1.62993955612183,0.384007781744003,9.42613506317139,0.487807989120483,-0.0304879993200302,0.37347799539566,-1099.5,-11.1000003814697,-909.300048828125,-3.07621972722982,-0.171007950441518,-0.0416806661398192,ST
1.26666666666667,-1.69154834747314,0.501841962337494,9.53140830993652,0.381099998950958,0.0152439996600151,0.243903994560242,-1116.30004882812,-8.10000038146973,-906.900024414062,-3.07941970272064,-0.175372407963244,-0.0532479745151601,ST
1.3,-1.7423905134201,0.510814070701599,9.45723819732666,0.518296003341675,0.0381099991500378,0.457319974899292,-1113.90002441406,-5.10000038146973,-918.900024414062,-3.08220731813637,-0.18190509129508,-0.0549978375492538,ST
1.33333333333333,-1.72683870792389,0.477916240692139,9.42194843292236,0.541162014007568,0.198172003030777,0.586893975734711,-1109.10009765625,-4.5,-909.300048828125,-3.08501720000981,-0.181335884185176,-0.0518416226072599,ST
1.36666666666667,-1.67300593852997,0.467747807502747,9.44587421417236,0.647870004177094,0.25152599811554,0.594515979290009,-1109.10009765625,-12.3000001907349,-904.500061035156,-3.08817194934466,-0.175520722748724,-0.0508054478509787,ST
1.4,-1.74597930908203,0.550291538238525,9.52482891082764,0.792688012123108,0.144817993044853,0.579271972179413,-1109.10009765625,-5.70000028610229,-914.100036621094,-3.09267259014473,-0.18114677684307,-0.0592117117910272,ST
1.43333333333333,-1.79143822193146,0.690257012844086,9.5032958984375,0.853663980960846,0.137196004390717,0.693601965904236,-1106.70007324219,-5.10000038146973,-904.500061035156,-3.09907301305439,-0.185952773890488,-0.0741032729971475,ST
1.46666666666667,-1.64130425453186,0.611302137374878,9.43331241607666,0.952749967575073,0.144817993044853,0.945127964019775,-1109.10009765625,-2.70000004768372,-906.900024414062,-3.1037369758812,-0.172108924845446,-0.0666932854730339,ST
1.5,-1.6903520822525,0.611302137374878,9.37948036193848,0.792688012123108,0.182927995920181,0.823175966739655,-1113.90002441406,-12.3000001907349,-916.500061035156,-3.10845158081899,-0.178108100579965,-0.066727126873656,ST
1.53333333333333,-1.95592749118805,0.829026162624359,9.37110614776611,0.731711983680725,0.457319974899292,0.891773998737335,-1101.90002441406,-6.30000019073486,-909.300048828125,-3.11810648856708,-0.205418843003602,-0.0896594774063089,ST
1.56666666666667,-1.99839568138123,0.760239720344543,9.41237735748291,0.724089980125427,0.777444005012512,1.12805593013763,-1106.70007324219,-5.70000028610229,-916.500061035156,-3.12360784209844,-0.209704296769566,-0.0823599187121708,ST
1.6,-2.16348314285278,0.817063271999359,9.56909084320068,0.632625997066498,0.952749967575073,1.03659200668335,-1104.30004882812,-6.90000009536743,-899.700012207031,-3.13110029235801,-0.222963522171099,-0.0866873007988874,ST
1.63333333333333,-2.06359314918518,0.855942606925964,9.54396915435791,0.663114011287689,0.853663980960846,0.975615978240967,-1104.30004882812,-5.10000038146973,-911.700012207031,-3.13812197935939,-0.213523148563085,-0.0909641513623647,ST
1.66666666666667,-2.10247254371643,0.79672646522522,9.30052471160889,0.663114011287689,0.548784017562866,0.701223969459534,-1092.30004882812,-8.70000076293945,-904.500061035156,-3.14128748710974,-0.222313239880641,-0.0869404477816722,ST
1.7,-2.12460374832153,0.780576586723328,9.36512470245361,0.617381989955902,0.457319974899292,0.480185985565186,-1097.10009765625,-8.70000076293945,-909.300048828125,3.13990197934869,-0.223060207358643,-0.0844595633302559,ST
1.73333333333333,-2.01514363288879,0.634031534194946,9.25626277923584,0.533540010452271,0.0533539988100529,0.0533539988100529,-1089.90002441406,-12.9000005722046,-904.500061035156,-3.13957982696928,-0.214004858292982,-0.069414717716506,ST
1.76666666666667,-2.13836121559143,0.656760990619659,9.34658241271973,0.342989981174469,-0.0533539988100529,-0.388722002506256,-1099.5,-12.3000001907349,-899.700012207031,-3.13648192066969,-0.224275845390289,-0.070588492130144,ST
1.8,-2.14374446868896,0.756650865077972,9.43809795379639,0.617381989955902,-0.152439996600151,-0.396344006061554,-1104.30004882812,-12.9000005722046,-890.100036621094,-3.13506373487096,-0.222462385297939,-0.0808309551740923,ST
1.83333333333333,-2.20355868339539,0.785361707210541,9.53679180145264,0.975615978240967,-0.274392008781433,-0.259148001670837,-1092.30004882812,-6.90000009536743,-906.900024414062,-3.13220833594921,-0.225870857919799,-0.0837355906191992,ST
1.86666666666667,-2.10606145858765,0.898410737514496,9.41776084899902,1.20427596569061,-0.518296003341675,-0.0685980021953583,-1089.90002441406,-12.3000001907349,-911.700012207031,-3.13253620351718,-0.218218728676913,-0.0970540365828896,ST
1.9,-2.13776302337646,1.02342259883881,9.22755146026611,1.43293595314026,-0.724089980125427,0.297257989645004,-1106.70007324219,-13.5000009536743,-906.900024414062,-3.13528935774662,-0.224946306778997,-0.112914084098459,ST
1.93333333333333,-2.13297772407532,1.02521705627441,9.21439266204834,1.28811800479889,-0.701223969459534,0.403965979814529,-1101.90002441406,-8.10000038146973,-911.700012207031,-3.13555788841484,-0.224834204792783,-0.113183280513238,ST
1.96666666666667,-2.1533145904541,1.18013608455658,9.76288986206055,1.02897000312805,-0.907018005847931,0.556405961513519,-1094.70007324219,-8.70000076293945,-906.900024414062,-3.13898455072014,-0.213965658237277,-0.122186308191211,ST
2.0,-2.12819266319275,1.18611752986908,9.34598350524902,1.01372599601746,-1.38720393180847,0.746955990791321,-1097.10009765625,-8.70000076293945,-916.500061035156,3.14047067802626,-0.219571466130816,-0.128192536465218,ST
2.03333333333333,-2.11144471168518,1.12450873851776,9.00324821472168,0.861285984516144,-1.08994603157043,1.00610399246216,-1092.30004882812,-7.50000047683716,-902.100036621094,3.13645795715138,-0.226477974088086,-0.126124071376503,ST
2.06666666666667,-1.94276833534241,1.0975923538208,9.53679180145264,0.609759986400604,-0.693601965904236,0.922261953353882,-1097.10009765625,-2.70000004768372,-906.900024414062,3.13380581630469,-0.198521821338718,-0.11602842137574,ST
2.1,-1.62395811080933,1.02820777893066,9.51884746551514,0.632625997066498,-1.2347639799118,0.594515979290009,-1111.5,-12.3000001907349,-902.100036621094,3.13276169184587,-0.166031676124992,-0.108898443561418,ST
2.13333333333333,-1.76033473014832,1.02641332149506,9.28078651428223,0.609759986400604,-1.46342396736145,-0.0304879993200302,-1097.10009765625,-9.90000057220459,-906.900024414062,3.13442964537484,-0.183660712241451,-0.111132083632636,ST
2.16666666666667,-1.90329098701477,1.12690138816833,9.39084434509277,0.807931959629059,-1.31098401546478,-0.282013982534409,-1101.90002441406,-15.9000005722046,-906.900024414062,3.13690247259514,-0.196294752374595,-0.120633576737529,ST
2.2,-1.64070618152618,1.18073427677155,9.62352180480957,0.830797970294952,-1.89025592803955,-0.0762199983000755,-1099.5,-10.5,-902.100036621094,3.13956990124607,-0.164592725815802,-0.123423838559128,ST
2.23333333333333,-1.66044485569,1.29318511486053,9.83047962188721,0.746955990791321,-2.78202986717224,0.365855991840363,-1106.70007324219,-11.1000003814697,-897.300048828125,3.1389911773882,-0.161057271903657,-0.132030163068196,ST
2.26666666666667,-1.44571161270142,1.4080286026001,9.89986419677734,0.640248000621796,-2.61434602737427,0.6250039935112,-1118.70007324219,-12.9000005722046,-897.300048828125,3.13623814002264,-0.139016845358226,-0.142409315027674,ST
2.3,-1.40982294082642,1.22798752784729,9.25745868682861,0.655492007732391,-2.46190595626831,0.983237981796265,-1128.30004882812,-13.5000009536743,-892.500061035156,3.13368133655438,-0.14530645521307,-0.133251727071083,ST
2.33333333333333,-1.73341834545135,1.0975923538208,8.76698112487793,0.434453994035721,-1.21189796924591,0.861285984516144,-1123.5,-13.5000009536743,-880.500061035156,3.13073782628833,-0.191064468156107,-0.125606088426999,ST
2.36666666666667,-1.734614610672,1.20346367359161,9.30531024932861,0.983237981796265,-0.769822001457214,0.152439996600151,-1123.5,-14.1000003814697,-909.300048828125,3.13173404119265,-0.181441054167142,-0.130349782485263,ST
2.4,-1.94217026233673,1.37692511081696,9.33940410614014,1.02897000312805,-0.571649968624115,-0.106707997620106,-1123.5,-8.70000076293945,-911.700012207031,3.13104151245398,-0.201772462273318,-0.14796047067953,ST
2.43333333333333,-1.69693160057068,1.52406823635101,10.1205787658691,1.11281192302704,-1.2423859834671,-0.0304879993200302,-1125.90002441406,-16.5,-894.900024414062,3.13322428353709,-0.162495937455524,-0.151320068520278,ST
2.46666666666667,-1.77229762077332,1.52825534343719,9.38546180725098,0.960371971130371,-1.69970595836639,-0.411587983369827,-1125.90002441406,-10.5,-892.500061035156,3.13703827180291,-0.181298911289993,-0.162780632912603,ST
2.5,-1.80639171600342,1.6143878698349,9.32863807678223,0.87652999162674,-0.731711983680725,-0.358233988285065,-1123.5,-11.1000003814697,-892.500061035156,3.13958920355162,-0.187336425541346,-0.172650481412396,ST
2.53333333333333,-1.38769173622131,1.39905643463135,9.44168663024902,0.937505960464478,-0.6250039935112,-0.297257989645004,-1118.70007324219,-10.5,-902.100036621094,-3.1360117982535,-0.143735323026302,-0.148840584904687,ST
2.56666666666667,-1.29378318786621,1.51689052581787,8.99008846282959,0.937505960464478,-1.37958192825317,-0.708845973014832,-1140.30004882812,-12.3000001907349,-904.500061035156,-3.13153755544108,-0.138838061286868,-0.168402926800226,ST
2.6,-1.25370764732361,1.7184647321701,9.15218544006348,1.08994603157043,-1.42531394958496,-0.403965979814529,-1133.10009765625,-12.3000001907349,-892.500061035156,-3.12857534833746,-0.13157340916911,-0.187198939668976,ST
2.63333333333333,-0.850559294223785,1.58747148513794,9.20242977142334,1.04421401023865,-1.98171997070312,-0.0533539988100529,-1133.10009765625,-14.1000003814697,-902.100036621094,-3.12352703875821,-0.0878023409567586,-0.172704864356106,ST
2.66666666666667,-0.900803327560425,1.67599666118622,8.96496677398682,0.868907988071442,-1.80641400814056,-0.274392008781433,-1135.5,-4.5,-887.700012207031,-3.12007611902126,-0.0953771725345399,-0.186121813704635,ST
2.7,-0.635825991630554,1.56593835353851,9.59301662445068,0.746955990791321,-1.18140995502472,0.335367977619171,-1123.5,-13.5000009536743,-887.700012207031,-3.1188087441366,-0.0634549798660537,-0.163317487768908,ST
2.73333333333333,-0.504234552383423,1.56474196910858,9.35914325714111,0.693601965904236,-1.92074394226074,-0.129574000835419,-1137.90002441406,-17.7000007629395,-890.100036621094,-3.11567915585255,-0.049931892987412,-0.166799100824568,ST
2.76666666666667,-0.60651695728302,1.69513714313507,8.9117317199707,0.754577994346619,-1.65397393703461,0.0228659994900227,-1147.5,-21.3000011444092,-894.900024414062,-3.11463290860817,-0.0638214407355156,-0.189100368628478,ST
2.8,-0.543711960315704,1.69214642047882,9.98061370849609,0.731711983680725,-1.50915598869324,0.304879993200302,-1135.5,-12.9000005722046,-894.900024414062,-3.11349413832034,-0.0510780444320803,-0.169390195538372,ST
2.83333333333333,-0.579600512981415,1.81656014919281,9.2407112121582,0.632625997066498,-2.9420919418335,0.25152599811554,-1133.10009765625,-20.1000003814697,-887.700012207031,-3.11252220004823,-0.0563008053699299,-0.194968753593933,ST
2.86666666666667,-0.991721034049988,1.85125243663788,8.90096569061279,0.320124000310898,-2.05031800270081,0.78506600856781,-1137.90002441406,-12.9000005722046,-887.700012207031,-3.11581844028161,-0.104641078907756,-0.205631713680183,ST
2.9,-1.27045571804047,1.94635725021362,9.37290000915527,0.358233988285065,-1.04421401023865,1.57013201713562,-1147.5,-12.9000005722046,-873.300048828125,-3.12459871129876,-0.129395361433951,-0.205671668812681,ST
2.93333333333333,-1.22499680519104,1.66343557834625,9.43570518493652,0.167683988809586,-1.08232402801514,1.64635193347931,-1152.30004882812,-16.5,-887.700012207031,-3.13036075825188,-0.124838026995821,-0.175355599004296,ST
2.96666666666667,-0.751267552375793,1.59225654602051,8.80945014953613,-0.3125019967556,-1.83690190315247,0.807931959629059,-1159.5,-12.9000005722046,-880.500061035156,-3.1341002206946,-0.080683034926433,-0.178311946087551,ST
3.0,-1.21841728687286,1.55397546291351,8.84234714508057,-0.350611984729767,-2.03507399559021,0.556405961513519,-1149.90002441406,-15.3000001907349,-873.300048828125,-3.13520508708175,-0.130809483277907,-0.1734389947221,ST
3.03333333333333,-1.20166921615601,1.64908015727997,10.5524387359619,-0.205793991684914,-1.85214591026306,0.617381989955902,-1164.30004882812,-15.3000001907349,-887.700012207031,-3.13559434645993,-0.108765468349152,-0.154796823465333,ST
3.06666666666667,-0.690257012844086,1.59823799133301,8.97692966461182,0.0304879993200302,-2.94971394538879,0.289635986089706,-1152.30004882812,-12.3000001907349,-887.700012207031,-3.13599296722639,-0.0707145707843796,-0.176041725437883,ST
3.1,-0.754856407642365,1.69932413101196,9.60797023773193,-0.167683988809586,-1.96647596359253,0.396344006061554,-1161.90002441406,-14.1000003814697,-878.100036621094,-3.13631544518813,-0.0736864386675306,-0.174779626907525,ST
3.13333333333333,-0.698032855987549,1.9308055639267,9.29932880401611,-0.266770005226135,-1.81403601169586,0.571649968624115,-1164.30004882812,-15.9000005722046,-875.700012207031,-3.14010626427679,-0.070078371300401,-0.204138306145492,ST
3.16666666666667,-0.0514402948319912,1.75016629695892,9.19465351104736,-0.411587983369827,-1.2423859834671,1.42531394958496,-1157.10009765625,-12.9000005722046,-875.700012207031,3.13560106753479,-0.00345017482383,-0.187527843752337,ST
3.2,0.544908225536346,1.58208811283112,10.6983852386475,-0.426831990480423,-2.5152599811554,0.92988395690918,-1176.30004882812,-12.3000001907349,-870.900024414062,3.1310338655986,0.0544471405425761,-0.146362759076306,ST
3.23333333333333,1.7065018415451,1.51689052581787,9.94651985168457,-0.335367977619171,-4.45124769210815,0.0990860015153885,-1166.70007324219,-15.9000005722046,-882.900024414062,3.1360147577164,0.1750236289301,-0.150901129403983,ST
3.26666666666667,1.1675751209259,1.42537474632263,9.33461952209473,-0.266770005226135,-3.17075204849243,-0.358233988285065,-1178.70007324219,-11.7000007629395,-868.500061035156,-3.14099008733504,0.128717848406421,-0.151250129487228,ST
3.3,0.834409415721893,1.74298858642578,9.78322601318359,-0.114329993724823,-1.81403601169586,-0.632625997066498,-1183.5,-21.3000011444092,-880.500061035156,-3.13143907588358,0.0869354936370309,-0.176115326233324,ST
3.33333333333333,0.0065795728005468,2.04983592033386,9.42434024810791,0.289635986089706,-1.38720393180847,-0.160062000155449,-1181.10009765625,-11.1000003814697,-875.700012207031,-3.12671414704845,0.0036784662379446,-0.214366033780486,ST
3.36666666666667,0.363670915365219,1.90807604789734,10.1373271942139,0.0533539988100529,-1.00610399246216,0.365855991840363,-1193.10009765625,-13.5000009536743,-873.300048828125,-3.12843691273473,0.0368118545005918,-0.186360038835899,ST
3.4,0.669920146465302,2.16168880462646,10.1122055053711,-0.434453994035721,-2.86587190628052,-0.0685980021953583,-1190.70007324219,-12.3000001907349,-880.500061035156,-3.12254480191647,0.0692950250230473,-0.209728239265104,ST
3.43333333333333,0.480308800935745,2.16049242019653,9.61873722076416,-0.525918006896973,-2.27897787094116,0.198172003030777,-1185.90002441406,-11.1000003814697,-870.900024414062,-3.11965547761109,0.0527761663209683,-0.219972283527417,ST
3.46666666666667,0.368456065654755,2.34172964096069,9.67735481262207,-0.282013982534409,-1.07470202445984,0.503051996231079,-1183.5,-12.3000001907349,-882.900024414062,-3.12046986077107,0.0391309124547238,-0.236769595841343,ST
3.5,0.428868502378464,2.53552794456482,9.88012599945068,0.205793991684914,-0.762199997901917,0.693601965904236,-1190.70007324219,-14.7000007629395,-880.500061035156,-3.12327744903577,0.0435725042414459,-0.251409831703641,ST
3.53333333333333,0.664536833763123,2.43324565887451,10.2820777893066,-0.388722002506256,-1.21189796924591,0.670735955238342,-1217.10009765625,-17.1000003814697,-878.100036621094,-3.12694120852202,0.0650368561845866,-0.231747223105948,ST
3.56666666666667,0.881662726402283,2.46195650100708,10.0194931030273,-0.92988395690918,-1.98171997070312,0.632625997066498,-1200.30004882812,-15.9000005722046,-870.900024414062,-3.12685950068719,0.0886727246324248,-0.239236624115115,ST
3.6,1.20166921615601,2.08991146087646,9.95369720458984,-1.57013201713562,-1.47866797447205,0.556405961513519,-1193.10009765625,-10.5,-880.500061035156,-3.13085416186243,0.120070998978751,-0.204454391077261,ST
3.63333333333333,1.04914271831512,2.01454544067383,10.3245458602905,-2.09605002403259,-0.983237981796265,0.0762199983000755,-1190.70007324219,-14.1000003814697,-868.500061035156,-3.13022852599562,0.10127267602005,-0.189188802543018,ST
3.66666666666667,0.792539417743683,1.80340111255646,9.98001575469971,-1.92074394226074,-0.0304879993200302,0.25152599811554,-1207.5,-14.1000003814697,-870.900024414062,-3.13201102435739,0.0783075815231826,-0.175499293289883,ST
3.7,0.751267552375793,1.59046220779419,10.0039415359497,-1.93598794937134,0.693601965904236,0.182927995920181,-1200.30004882812,-8.10000038146973,-878.100036621094,-3.1346151238269,0.0729282508756941,-0.154421946849554,ST
3.73333333333333,0.886447906494141,1.0575168132782,9.29813289642334,-2.46952795982361,0.884151995182037,-0.525918006896973,-1200.30004882812,-11.7000007629395,-878.100036621094,-3.13397953369862,0.0926464145724902,-0.109377596827402,ST
3.76666666666667,0.476121813058853,0.424681514501572,8.93505954742432,-3.30032587051392,1.74543797969818,-0.739333987236023,-1193.10009765625,-8.70000076293945,-880.500061035156,-3.13249339137777,0.0502786440857078,-0.0421116572744183,ST
3.8,0.97557121515274,-0.219518467783928,8.26932621002197,-3.20123982429504,1.78354799747467,-0.525918006896973,-1188.30004882812,-1.5,-868.500061035156,-3.13257058369474,0.113782870835909,0.0314058000147311,ST
3.83333333333333,0.271556913852692,-0.73751026391983,8.88122653961182,-2.74391984939575,3.81099987030029,-0.472563982009888,-1200.30004882812,-0.900000035762787,-890.100036621094,-3.13036164205721,0.024642082881859,0.0871436527904599,ST
3.86666666666667,-0.732127010822296,-0.654966533184052,9.25865459442139,-2.40092992782593,4.93143367767334,-0.289635986089706,-1181.10009765625,-5.70000028610229,-882.900024414062,-3.12707654451392,-0.0863432140064924,0.0750084226368665,ST
3.9,-1.34223282337189,-0.870298027992249,9.51944541931152,-1.94360995292664,5.70125579833984,0.282013982534409,-1176.30004882812,-1.5,-899.700012207031,-3.12501231776099,-0.149023734544085,0.0944899270356181,ST
3.93333333333333,-1.70231485366821,-1.24234294891357,10.2372169494629,-1.77592599391937,6.05948972702026,0.46494197845459,-1161.90002441406,-11.1000003814697,-887.700012207031,-3.12070996526186,-0.173990924898374,0.123705127820281,ST
3.96666666666667,-1.43374872207642,-0.971384167671204,11.425726890564,-1.50153398513794,3.81862187385559,-0.975615978240967,-1154.70007324219,-8.70000076293945,-899.700012207031,-3.11843422719926,-0.131228709245094,0.0880284907774709,ST
4.0,-1.67300593852997,-0.889438569545746,9.40400409698486,-0.754577994346619,3.49087595939636,0.67835795879364,-1152.30004882812,-9.90000057220459,-894.900024414062,-3.12073109456951,-0.181187215838437,0.0954650863163519,ST
4.03333333333333,-1.49236667156219,-1.09699416160583,10.7223110198975,-0.495429992675781,4.65704202651978,1.21951997280121,-1133.10009765625,-0.900000035762787,-892.500061035156,-3.12568482386191,-0.146055751776286,0.1025947218758,ST
4.06666666666667,-2.14553880691528,-0.596946656703949,8.7221212387085,0.0838419944047928,4.6494197845459,0.663114011287689,-1135.5,-5.10000038146973,-909.300048828125,-3.13433315311223,-0.247992878375107,0.0683288278946206,ST
4.1,-2.31182265281677,-0.667527556419373,9.51226806640625,0.434453994035721,6.42534589767456,1.34909391403198,-1125.90002441406,-5.10000038146973,-897.300048828125,-3.13951151296027,-0.249190802621421,0.0688996261482418,ST
4.13333333333333,-2.39317011833191,-0.554478526115417,8.40091800689697,0.487807989120483,4.87807989120483,0.434453994035721,-1109.10009765625,-7.50000047683716,-892.500061035156,-3.14035796435623,-0.285195114517196,0.065029929542897,ST
4.16666666666667,-2.89561009407043,-0.305052906274796,8.94283580780029,0.503051996231079,5.27442407608032,0.967993974685669,-1116.30004882812,-5.70000028610229,-904.500061035156,3.12897663842277,-0.322051067621507,0.0329169813734578,ST
4.2,-2.32617807388306,-0.677695989608765,9.07861423492432,0.0990860015153885,3.95581793785095,0.78506600856781,-1099.5,-1.5,-918.900024414062,3.13723198453824,-0.257594143733122,0.0738341012247594,ST
4.23333333333333,-3.14144682884216,-0.0251220054924488,8.50977993011475,0.975615978240967,4.00154972076416,1.03659200668335,-1092.30004882812,-4.5,-916.500061035156,3.11106256103935,-0.359790535531718,0.0012045972306425,ST
4.26666666666667,-3.09419369697571,-0.236266478896141,9.15158748626709,1.70732796192169,4.72563982009888,1.82165801525116,-1087.5,-4.5,-899.700012207031,3.11060278949154,-0.334463115216556,0.0216320239983337,ST
4.3,-3.01404237747192,0.0358885787427425,8.76279449462891,0.914639949798584,3.24697184562683,0.632625997066498,-1080.30004882812,-0.900000035762787,-897.300048828125,3.09952276419897,-0.336922867967908,-0.0058597065773144,ST
4.33333333333333,-3.2586829662323,0.117834165692329,8.85909557342529,1.47104597091675,3.03355598449707,1.2347639799118,-1073.10009765625,0.300000011920929,-906.900024414062,3.09049643077104,-0.357624267969252,-0.0166559687439626,ST
4.36666666666667,-2.55945372581482,-0.418700069189072,8.1544828414917,0.937505960464478,1.70732796192169,0.358233988285065,-1068.30004882812,-1.5,-918.900024414062,3.1119809531596,-0.307188246826568,0.0489834979455366,ST
4.4,-3.46025705337524,0.647788822650909,8.92848014831543,1.62348592281342,2.28659987449646,0.46494197845459,-1070.70007324219,-6.30000019073486,-911.700012207031,3.07094958923374,-0.372253607701069,-0.074639896987532,ST
4.43333333333333,-2.539715051651,-0.0041870009154081,8.82201099395752,2.47714996337891,1.89025592803955,1.05183601379395,-1061.10009765625,-6.30000019073486,-921.300048828125,3.09139819442279,-0.284331026861912,-0.0049443253067029,ST
4.46666666666667,-2.6336236000061,0.15312460064888,8.81184196472168,1.18903195858002,-0.243903994560242,-0.297257989645004,-1068.30004882812,-9.30000019073486,-904.500061035156,3.09170092522234,-0.289919631064717,-0.0191763298567088,ST
4.5,-3.11213779449463,0.653770267963409,8.01870441436768,1.44055795669556,-0.129574000835419,0.365855991840363,-1061.10009765625,-6.90000009536743,-899.700012207031,3.07196102032792,-0.368285478166924,-0.0836471059465227,ST
4.53333333333333,-3.1928870677948,0.205761179327965,9.08579158782959,1.61586391925812,1.08994603157043,1.15092194080353,-1056.30004882812,-9.90000057220459,-906.900024414062,3.08776285788609,-0.339942688193015,-0.0266544347259547,ST
4.56666666666667,-3.308926820755,0.488682806491852,9.58225059509277,1.63110792636871,-0.403965979814529,0.282013982534409,-1061.10009765625,-11.7000007629395,-899.700012207031,3.08101784681256,-0.331402060523272,-0.0538516971134132,ST
4.6,-4.4681282043457,0.575413525104523,9.7718620300293,1.10518991947174,0.792688012123108,0.716467976570129,-1068.30004882812,-5.10000038146973,-911.700012207031,3.0764244830109,-0.428709464545048,-0.0612889051549046,ST
4.63333333333333,-3.9238178730011,0.897812604904175,10.5111665725708,1.14329993724823,0.495429992675781,1.2347639799118,-1051.5,-7.50000047683716,-902.100036621094,3.06098361142941,-0.357355390800748,-0.0878248987191795,ST
4.66666666666667,-3.1468300819397,0.988730311393738,9.43391132354736,1.82165801525116,-0.868907988071442,1.53202199935913,-1061.10009765625,-9.30000019073486,-918.900024414062,3.04853682691093,-0.318751445586053,-0.108315653153122,ST
4.7,-2.74607443809509,1.54679775238037,8.71314907073975,2.80489587783813,-0.87652999162674,1.41769194602966,-1051.5,-5.10000038146973,-904.500061035156,3.02404252424122,-0.299116384731898,-0.180665785381756,ST
4.73333333333333,-2.47451758384705,1.21482837200165,7.95649766921997,2.53050398826599,-1.64635193347931,0.868907988071442,-1070.70007324219,-5.70000028610229,-887.700012207031,3.0323276168143,-0.29523298791791,-0.156453740389914,ST
4.76666666666667,-3.30832886695862,1.33326065540314,8.22446632385254,1.6920839548111,-0.716467976570129,-0.342989981174469,-1070.70007324219,-13.5000009536743,-911.700012207031,3.03710345881068,-0.376174244184047,-0.163301604543509,ST
4.8,-3.36874127388,1.45946884155273,9.66180324554443,0.510673999786377,0.480185985565186,-0.342989981174469,-1073.10009765625,-12.3000001907349,-904.500061035156,3.04447342351186,-0.333209085183124,-0.150735823260125,ST
4.83333333333333,-3.14025068283081,0.901401460170746,9.12885761260986,-0.0304879993200302,-0.259148001670837,-0.266770005226135,-1073.10009765625,-10.5,-904.500061035156,3.0634321039192,-0.329443678391069,-0.0984945744150276,ST
4.86666666666667,-3.61577415466309,0.882260859012604,9.08997917175293,-0.320124000310898,0.0914639979600906,-0.87652999162674,-1080.30004882812,-9.30000019073486,-904.500061035156,3.06964887636559,-0.377059418932184,-0.0956156294061068,ST
4.9,-3.41778898239136,0.521580696105957,9.21259784698486,-0.213415995240211,0.236281991004944,-0.320124000310898,-1070.70007324219,-8.70000076293945,-902.100036621094,3.08516853783953,-0.355355004252102,-0.0563059479204419,ST
4.93333333333333,-3.87417197227478,0.551487803459167,9.53380107879639,-0.396344006061554,-0.182927995920181,-0.503051996231079,-1056.30004882812,-8.70000076293945,-892.500061035156,3.08730134933505,-0.384883921872197,-0.056724056619588,ST
4.96666666666667,-3.92202353477478,0.813474416732788,9.4554443359375,0.121951997280121,-0.609759986400604,0.335367977619171,-1058.70007324219,-10.5,-899.700012207031,3.07460170829069,-0.390745046350105,-0.0860681613801382,ST
5.0,-3.60022258758545,0.833213150501251,9.50150108337402,0.0076219998300075,-1.2576299905777,0.708845973014832,-1075.5,-9.30000019073486,-906.900024414062,3.06988521536407,-0.358815347132911,-0.087863598995735,ST
5.03333333333333,-3.71386981010437,1.21064138412476,9.26942157745361,0.396344006061554,-1.99696397781372,1.14329993724823,-1065.90002441406,-10.5,-909.300048828125,3.04971020268097,-0.37432417522142,-0.130805100594836,ST
5.06666666666667,-3.65046644210815,1.16398620605469,9.1569709777832,1.15092194080353,-1.75305998325348,2.04269599914551,-1073.10009765625,-0.900000035762787,-909.300048828125,3.04144741104188,-0.373113446036533,-0.129688115928276,ST
5.1,-3.40163898468018,1.12929391860962,9.20542049407959,1.04421401023865,-1.89025592803955,2.00458598136902,-1056.30004882812,-8.70000076293945,-909.300048828125,3.03424144492045,-0.348039234423525,-0.125043974909427,ST
5.13333333333333,-3.26526236534119,1.62754702568054,9.3717041015625,1.2347639799118,-3.01068997383118,1.76830399036407,-1077.90002441406,-12.9000005722046,-911.700012207031,3.01229414647538,-0.325128211889264,-0.174492068024822,ST
5.16666666666667,-2.84237551689148,1.57311606407166,8.38835716247559,1.76068198680878,-3.63569402694702,1.99696397781372,-1092.30004882812,-20.7000007629395,-909.300048828125,3.00302112076109,-0.314689745437982,-0.189070417881895,ST
5.2,-2.9422652721405,1.45348739624023,8.50260257720947,1.18140995502472,-3.28508186340332,1.6920839548111,-1094.70007324219,-22.5,-894.900024414062,3.003609615446,-0.322512023515802,-0.172138103225207,ST
5.23333333333333,-2.9201340675354,1.68556690216064,9.39802265167236,1.03659200668335,-3.07928800582886,1.40244793891907,-1092.30004882812,-13.5000009536743,-909.300048828125,2.99793162945594,-0.29133687399538,-0.179653533634422,ST
5.26666666666667,-2.33395385742188,1.50672209262848,8.90395641326904,0.899396002292633,-3.97106194496155,1.20427596569061,-1101.90002441406,-12.9000005722046,-890.100036621094,2.99881880426562,-0.246104177277295,-0.169514921535116,ST
5.3,-2.55466866493225,1.73999786376953,9.31009578704834,0.724089980125427,-3.94057393074036,0.365855991840363,-1106.70007324219,-14.1000003814697,-892.500061035156,2.99851055602459,-0.256508718569368,-0.185747521072198,ST
5.33333333333333,-1.78126978874207,1.63293027877808,9.18568134307861,0.564027965068817,-4.19210004806519,0.487807989120483,-1118.70007324219,-17.7000007629395,-899.700012207031,3.0030192692188,-0.181918056869872,-0.17690503141026,ST
5.36666666666667,-1.88235592842102,1.65625786781311,9.17611122131348,-0.106707997620106,-3.71953582763672,-0.213415995240211,-1121.10009765625,-11.1000003814697,-892.500061035156,3.00889947101466,-0.192811685678901,-0.178084782411634,ST
5.4,-1.77827906608582,1.55397546291351,9.473388671875,-0.792688012123108,-2.5152599811554,-0.266770005226135,-1130.70007324219,-8.10000038146973,-897.300048828125,3.01564007488777,-0.179017785917555,-0.161131658886294,ST
5.43333333333333,-1.55218100547791,1.47502052783966,9.8197135925293,-0.967993974685669,-2.12653803825378,-0.0609759986400604,-1113.90002441406,-12.3000001907349,-906.900024414062,3.01943377137923,-0.151630289466641,-0.147417985398348,ST
5.46666666666667,-1.49117040634155,1.50074076652527,9.36811542510986,-0.716467976570129,-1.6692179441452,0.175305992364883,-1133.10009765625,-14.1000003814697,-890.100036621094,3.01773044111777,-0.152959756645007,-0.157488941762308,ST
5.5,-1.31232571601868,1.40384149551392,9.16055965423584,-0.6250039935112,0.411587983369827,0.472563982009888,-1135.5,-15.3000001907349,-899.700012207031,3.01441532631963,-0.141351354351123,-0.151158698528096,ST
5.53333333333333,-1.04017066955566,1.39786016941071,9.2108039855957,-0.792688012123108,0.525918006896973,0.259148001670837,-1125.90002441406,-8.70000076293945,-904.500061035156,3.01152406437848,-0.11219768726621,-0.149307551447268,ST
5.56666666666667,-1.16996765136719,1.15441596508026,8.07193946838379,-1.11281192302704,0.861285984516144,0.327746003866196,-1109.10009765625,-13.5000009536743,-906.900024414062,3.00857220091414,-0.143658783728773,-0.140296566303991,ST
5.6,-1.28002595901489,1.22738933563232,8.85610485076904,-1.58537602424622,1.73019397258759,0.304879993200302,-1128.30004882812,-12.9000005722046,-887.700012207031,3.00406050203666,-0.14511003799462,-0.13512832284377,ST
5.63333333333333,-0.976169347763062,1.31890523433685,9.42075157165527,-1.16616594791412,1.02897000312805,0.381099998950958,-1118.70007324219,-13.5000009536743,-902.100036621094,2.99933688570908,-0.104285593798392,-0.13714125797951,ST
5.66666666666667,-0.853550016880035,1.00368392467499,8.81842136383057,-1.11281192302704,0.754577994346619,-0.472563982009888,-1116.30004882812,-9.90000057220459,-909.300048828125,3.0038323879445,-0.0973252580558766,-0.111497528188293,ST
5.7,-0.979758203029633,1.12809765338898,9.71025276184082,-1.32622802257538,0.663114011287689,-1.08232402801514,-1113.90002441406,-13.5000009536743,-899.700012207031,3.00963339898875,-0.101222952689104,-0.113152275603245,ST
5.73333333333333,-0.948654770851135,1.29677391052246,10.1941509246826,-0.891773998737335,-0.434453994035721,-1.27287399768829,-1116.30004882812,-14.1000003814697,-897.300048828125,3.01700343186157,-0.0916559144806884,-0.124664524085432,ST
5.76666666666667,-0.864316582679749,1.03000223636627,10.0942611694336,-0.586893975734711,-0.388722002506256,-0.754577994346619,-1121.10009765625,-9.90000057220459,-904.500061035156,3.02420905131458,-0.0844951524681451,-0.100742204820065,ST
5.8,-1.41460812091827,0.647788822650909,9.90225696563721,-1.39482593536377,1.15092194080353,-1.15092194080353,-1125.90002441406,-13.5000009536743,-899.700012207031,3.03456815756608,-0.143248244198853,-0.0629390499689692,ST
5.83333333333333,-1.82912123203278,0.549693405628204,9.57148361206055,-1.59299790859222,2.62196803092957,-1.21951997280121,-1128.30004882812,-6.90000009536743,-906.900024414062,3.04130983889305,-0.192798620773254,-0.054298015762721,ST
5.86666666666667,-2.27533578872681,0.196190893650055,10.2132911682129,-0.960371971130371,3.11739802360535,-0.815553963184357,-1101.90002441406,-6.90000009536743,-909.300048828125,3.052442521524,-0.22437058459387,-0.0175367379895275,ST
5.9,-2.05581736564636,-0.218920320272446,10.0242776870728,-1.28811800479889,2.42379593849182,-1.12043392658234,-1094.70007324219,-2.10000014305115,-911.700012207031,3.06729725623582,-0.206565795926903,0.0241711095226737,ST
5.93333333333333,-2.59055709838867,-0.128600731492043,9.64864444732666,-1.41769194602966,1.87501192092896,-1.85976791381836,-1101.90002441406,-8.10000038146973,-911.700012207031,3.07581736175755,-0.265016808976681,0.0167510475762061,ST
5.96666666666667,-2.69523215293884,-0.361278355121613,9.66240119934082,-0.640248000621796,2.22562384605408,-1.14329993724823,-1092.30004882812,-6.30000019073486,-911.700012207031,3.08864327110407,-0.275564228491295,0.0389108456177314,ST
6.0,-2.56902408599854,-0.495262384414673,9.377685546875,-0.487807989120483,1.88263392448425,-1.06708002090454,-1089.90002441406,-2.10000014305115,-914.100036621094,3.09954727439706,-0.270261438801073,0.054054106648681,ST
6.03333333333333,-2.79153323173523,-0.18183545768261,9.1982421875,-0.243903994560242,1.22714197635651,-0.830797970294952,-1085.10009765625,-3.30000019073486,-909.300048828125,3.09553480061927,-0.296491652346192,0.020921866612076,ST
6.06666666666667,-2.7622241973877,-0.166283741593361,8.74126148223877,0.518296003341675,1.12805593013763,0.289635986089706,-1092.30004882812,-1.5,-914.100036621094,3.09396870969182,-0.307900489187651,0.0179914678820508,ST
6.1,-2.70181179046631,-0.212340757250786,9.15637302398682,0.236281991004944,0.746955990791321,0.518296003341675,-1077.90002441406,-5.70000028610229,-916.500061035156,3.0924353918486,-0.28834388766022,0.0224773384428923,ST
6.13333333333333,-3.17015767097473,-0.0867307335138321,9.53021240234375,0.426831990480423,0.411587983369827,1.16616594791412,-1070.70007324219,-4.5,-921.300048828125,3.0813001145865,-0.321578124362161,0.0078043594958452,ST
6.16666666666667,-2.71317648887634,-0.540721237659454,9.66838264465332,0.182927995920181,0.144817993044853,1.84452390670776,-1068.30004882812,-0.300000011920929,-918.900024414062,3.08172993249206,-0.273794672927995,0.0544667793810849,ST
6.2,-2.65575480461121,-0.264977335929871,9.43809795379639,-0.419209986925125,-1.15092194080353,0.907018005847931,-1082.70007324219,-0.300000011920929,-918.900024414062,3.06766198582486,-0.272244106349605,0.0285555970304197,ST
6.23333333333333,-2.85074949264526,0.0137572884559631,9.16534519195557,0.335367977619171,-0.777444005012512,2.29422187805176,-1092.30004882812,-3.30000019073486,-914.100036621094,3.04419979312658,-0.299958150854298,-0.0030567416786426,ST
6.26666666666667,-2.53313541412354,-0.237462759017944,8.77655220031738,0.403965979814529,-0.213415995240211,2.53812599182129,-1080.30004882812,-3.30000019073486,-921.300048828125,3.0346793469622,-0.280718676150975,0.0249310188547416,ST
6.3,-2.52595782279968,-0.0328978635370731,8.92010593414307,0.518296003341675,0.381099998950958,2.24848985671997,-1077.90002441406,-5.10000038146973,-909.300048828125,3.01438805170104,-0.276659338388387,0.0018593143758429,ST
6.33333333333333,-2.37642192840576,-0.03828115016222,8.79090690612793,0.739333987236023,0.381099998950958,2.01220798492432,-1082.70007324219,-4.5,-904.500061035156,3.0023999488294,-0.264785356991596,0.0021092229419946,ST
6.36666666666667,-2.76461672782898,0.20097604393959,9.02418327331543,0.830797970294952,0.0228659994900227,1.50153398513794,-1077.90002441406,-0.300000011920929,-906.900024414062,2.98676443586157,-0.296923379625731,-0.0242962556023862,ST
6.4,-2.76760745048523,0.18183545768261,9.28078651428223,0.914639949798584,0.0228659994900227,1.70732796192169,-1087.5,-5.10000038146973,-914.100036621094,2.97791552554114,-0.289793070779373,-0.0220939260436231,ST
6.43333333333333,-2.23226952552795,-0.0275145769119263,8.70836353302002,0.0609759986400604,-0.907018005847931,0.701223969459534,-1080.30004882812,-2.70000004768372,-890.100036621094,2.97992499519084,-0.249682799621309,0.0025369974787682,ST
6.46666666666667,-2.78136491775513,0.213537037372589,8.91831207275391,0.3125019967556,-0.724089980125427,0.975615978240967,-1073.10009765625,-9.90000057220459,-897.300048828125,2.96655217509727,-0.300576902251988,-0.0248088868366676,ST
6.5,-2.91594696044922,0.0855344459414482,9.11629676818848,0.922261953353882,0.388722002506256,1.36433792114258,-1085.10009765625,-3.90000009536743,-911.700012207031,2.96251168775519,-0.310176977219847,-0.0118079970798257,ST
6.53333333333333,-2.91953587532043,0.0651975870132446,9.38007831573486,0.952749967575073,0.907018005847931,1.45580196380615,-1077.90002441406,-5.10000038146973,-914.100036621094,2.95555001129507,-0.303353420414133,-0.0094322130428865,ST
6.56666666666667,-3.00088334083557,0.105871304869652,9.84662914276123,1.16616594791412,0.67835795879364,1.53964400291443,-1077.90002441406,0.300000011920929,-914.100036621094,2.9464684693861,-0.297005289043822,-0.0135796002089175,ST
6.6,-2.41051626205444,-0.102282449603081,9.15218544006348,0.594515979290009,-0.731711983680725,1.05945801734924,-1082.70007324219,-11.1000003814697,-918.900024414062,2.94658830700585,-0.256536066102517,0.0094899543094075,ST
6.63333333333333,-2.5295467376709,0.312828779220581,9.18209266662598,0.67835795879364,-1.41769194602966,0.884151995182037,-1082.70007324219,-9.30000019073486,-902.100036621094,2.93057654785123,-0.266069181016787,-0.0352668483796566,ST
6.66666666666667,-2.26456928253174,0.270958751440048,8.43441390991211,1.6692179441452,-1.6692179441452,1.78354799747467,-1082.70007324219,-5.10000038146973,-914.100036621094,2.92112532610178,-0.259187562099284,-0.0358255736494473,ST
6.7,-2.34113168716431,0.116039738059044,8.59770679473877,1.16616594791412,-1.2576299905777,1.62348592281342,-1099.5,-7.50000047683716,-916.500061035156,2.91756787738744,-0.263551192643309,-0.0164473221915284,ST
6.73333333333333,-2.78555178642273,0.513206660747528,9.97941780090332,0.861285984516144,-1.03659200668335,1.41769194602966,-1089.90002441406,-8.10000038146973,-909.300048828125,2.90031354791716,-0.269874090322867,-0.0532377898435979,ST
6.76666666666667,-2.83579587936401,0.608311414718628,10.3442850112915,1.56251001358032,-1.54726600646973,1.96647596359253,-1089.90002441406,-6.30000019073486,-916.500061035156,2.88829157414313,-0.264267721619443,-0.0622762907505436,ST
6.8,-2.65814733505249,0.654966533184052,10.0266704559326,1.60824191570282,-1.37958192825317,1.94360995292664,-1097.10009765625,-9.90000057220459,-914.100036621094,2.87623218547542,-0.256025007567793,-0.0688510767314789,ST
6.83333333333333,-2.11024832725525,1.00069320201874,9.61215782165527,1.32622802257538,-1.82927989959717,1.51677799224854,-1094.70007324219,-10.5,-902.100036621094,2.86038603581412,-0.211837609994021,-0.106291508208312,ST
6.86666666666667,-1.66582822799683,1.04316139221191,8.69041919708252,1.44055795669556,-2.62959003448486,1.52439999580383,-1109.10009765625,-12.3000001907349,-902.100036621094,2.8509732636047,-0.183426799365481,-0.122238185272506,ST
6.9,-1.92422592639923,1.15022897720337,8.46790981292725,1.45580196380615,-2.24086785316467,1.35671591758728,-1101.90002441406,-9.90000057220459,-909.300048828125,2.84289218042416,-0.217001277896691,-0.137818752648708,ST
6.93333333333333,-2.1951847076416,1.42716908454895,9.47039794921875,1.30336201190948,-0.823175966739655,1.30336201190948,-1104.30004882812,-17.1000003814697,-904.500061035156,2.83386581969281,-0.223497662031185,-0.152190707560266,ST
6.96666666666667,-1.99600315093994,1.57730305194855,9.74135684967041,1.47104597091675,-1.40244793891907,1.63872992992401,-1113.90002441406,-7.50000047683716,-902.100036621094,2.82413251223523,-0.196913529207466,-0.16348711626805,ST
7.0,-1.87099123001099,1.51689052581787,9.85440540313721,1.21951997280121,-2.02745199203491,1.57775402069092,-1101.90002441406,-4.5,-902.100036621094,2.8187943295387,-0.181699540119546,-0.155329146739362,ST
7.03333333333333,-1.73581087589264,1.53184413909912,9.305908203125,0.396344006061554,-2.9268479347229,0.670735955238342,-1109.10009765625,-3.30000019073486,-906.900024414062,2.81644208376648,-0.176816830128968,-0.163838248272075,ST
7.06666666666667,-1.78605496883392,1.36017715930939,9.3717041015625,0.342989981174469,-2.68294382095337,0.594515979290009,-1113.90002441406,-11.1000003814697,-909.300048828125,2.81895529404209,-0.181591121540239,-0.14494986452203,ST
7.1,-1.73401641845703,1.1777435541153,9.1031379699707,0.121951997280121,-1.86738991737366,0.106707997620106,-1121.10009765625,-12.3000001907349,-890.100036621094,2.82297240929932,-0.183439812142728,-0.128964557601322,ST
7.13333333333333,-1.85783207416534,1.25669836997986,9.19166278839111,0.0685980021953583,-1.59299790859222,-0.0228659994900227,-1135.5,-3.30000019073486,-906.900024414062,2.82351687645252,-0.19484057374844,-0.135883903487597,ST
7.16666666666667,-1.85005617141724,1.2238005399704,9.39622783660889,0.0685980021953583,-1.41769194602966,0.213415995240211,-1123.5,-12.3000001907349,-906.900024414062,2.82461455027957,-0.190354073038755,-0.129695095954364,ST
7.2,-1.89192616939545,1.07904994487762,9.75212287902832,-0.0838419944047928,-0.92988395690918,0.198172003030777,-1140.30004882812,-9.30000019073486,-906.900024414062,2.82752275554166,-0.188844423984062,-0.110196222284798,ST
7.23333333333333,-1.64489316940308,1.27643704414368,10.2874612808228,-0.236281991004944,-1.34147191047668,-0.0228659994900227,-1130.70007324219,-7.50000047683716,-887.700012207031,2.82641987471547,-0.155205219326616,-0.122922249611942,ST
7.26666666666667,-1.3440272808075,1.22499680519104,9.74075794219971,0.0838419944047928,-2.14178204536438,0.365855991840363,-1137.90002441406,-12.3000001907349,-897.300048828125,2.82550405387438,-0.132454733038033,-0.125252788751362,ST
7.3,-1.25251138210297,1.22499680519104,9.04751014709473,0.243903994560242,-0.830797970294952,0.198172003030777,-1130.70007324219,-5.70000028610229,-892.500061035156,2.82384516206141,-0.134831512313943,-0.134943444740314,ST
7.33333333333333,-1.43315052986145,1.29677391052246,9.26164531707764,0.503051996231079,0.746955990791321,0.266770005226135,-1121.10009765625,-14.7000007629395,-894.900024414062,2.82111576479441,-0.153137610980028,-0.140045681488233,ST
7.36666666666667,-1.03598368167877,1.09220910072327,8.3871603012085,0.525918006896973,1.18903195858002,-0.121951997280121,-1130.70007324219,-8.70000076293945,-904.500061035156,2.8226609833702,-0.12420305864082,-0.130498704859621,ST
7.4,-1.27703523635864,1.1938933134079,8.46970462799072,0.236281991004944,1.41769194602966,-0.518296003341675,-1128.30004882812,-12.9000005722046,-904.500061035156,2.82394696097454,-0.150656940667306,-0.140320341876649,ST
7.43333333333333,-1.27045571804047,1.32668113708496,8.91950798034668,-0.297257989645004,0.724089980125427,-0.487807989120483,-1113.90002441406,-12.9000005722046,-899.700012207031,2.8252664347328,-0.141415536324733,-0.146989356602744,ST
7.46666666666667,-1.5444051027298,1.38111209869385,9.90345287322998,-0.426831990480423,0.0304879993200302,0.114329993724823,-1137.90002441406,-12.9000005722046,-904.500061035156,2.82520642063685,-0.153219522408171,-0.137886368819836,ST
7.5,-1.15202331542969,1.22439861297607,9.78681564331055,-0.647870004177094,-0.3125019967556,0.419209986925125,-1125.90002441406,-6.90000009536743,-899.700012207031,2.82381164818109,-0.115856471116697,-0.123489180633231,ST
7.53333333333333,-1.04316139221191,1.42118775844574,10.5183439254761,-0.304879993200302,-0.884151995182037,0.518296003341675,-1135.5,-10.5,-890.100036621094,2.81977340945493,-0.0964780125675252,-0.133752636859115,ST
7.56666666666667,-1.23277270793915,1.11374223232269,10.051194190979,-0.25152599811554,-0.304879993200302,0.518296003341675,-1140.30004882812,-14.7000007629395,-887.700012207031,2.81883068467004,-0.120477883654428,-0.110213533148022,ST
7.6,-1.11613476276398,0.846970438957214,10.0679426193237,-1.05945801734924,0.503051996231079,0.0152439996600151,-1128.30004882812,-13.5000009536743,-899.700012207031,2.82081204375582,-0.110975371146897,-0.0823199267356987,ST
7.63333333333333,-1.09340536594391,0.741697311401367,9.44766807556152,-1.03659200668335,0.3125019967556,-0.335367977619171,-1121.10009765625,-6.90000009536743,-894.900024414062,2.8228994879987,-0.115437551976224,-0.07650092783812,ST
7.66666666666667,-1.2118376493454,0.699827253818512,8.84414196014404,-0.739333987236023,0.6250039935112,-0.442075997591019,-1116.30004882812,-9.30000019073486,-890.100036621094,2.82478413731268,-0.136726181173568,-0.077571588900873,ST
7.7,-1.39068245887756,0.494664251804352,8.83397388458252,-0.762199997901917,1.48628997802734,-0.152439996600151,-1130.70007324219,-9.30000019073486,-904.500061035156,2.82775915907026,-0.158329534951579,-0.0547764142114236,ST
7.73333333333333,-2.07555603981018,0.503038227558136,9.75272083282471,-0.449698001146317,2.24848985671997,0.129574000835419,-1116.30004882812,-3.30000019073486,-892.500061035156,2.8261300595962,-0.212951389160187,-0.0508674987050709,ST
7.76666666666667,-1.66104304790497,0.30923992395401,9.82330226898193,-0.541162014007568,2.30184388160706,0.0990860015153885,-1130.70007324219,-0.900000035762787,-899.700012207031,2.82807159786601,-0.171776359473372,-0.0307428868896181,ST
7.8,-2.13357591629028,0.688462555408478,10.4513521194458,-0.0990860015153885,0.922261953353882,0.0914639979600906,-1109.10009765625,-3.90000009536743,-914.100036621094,2.82039242062768,-0.202403977015585,-0.0654932630188744,ST
7.83333333333333,-2.22389554977417,0.626255691051483,10.58473777771,0.282013982534409,0.320124000310898,0.663114011287689,-1104.30004882812,-0.900000035762787,-892.500061035156,2.81706917494419,-0.207201393992758,-0.0598710652457972,ST
7.86666666666667,-2.07735061645508,0.461766362190247,9.98061370849609,-0.198172003030777,-0.37347799539566,0.739333987236023,-1113.90002441406,-0.900000035762787,-902.100036621094,2.8146995051493,-0.204308034399069,-0.0462606670442679,ST
7.9,-2.26397109031677,0.394176214933395,8.74305534362793,-0.701223969459534,0.868907988071442,0.350611984729767,-1111.5,-5.70000028610229,-902.100036621094,2.8114367464257,-0.254209758609381,-0.0440235007343819,ST
7.93333333333333,-2.45298433303833,0.53234726190567,9.09835243225098,-0.320124000310898,2.47714996337891,0.37347799539566,-1116.30004882812,-2.70000004768372,-916.500061035156,2.80373567136444,-0.267107172970732,-0.0580348866475104,ST
7.96666666666667,-2.56244444847107,0.60950767993927,9.08220291137695,0.533540010452271,3.31556987762451,0.815553963184357,-1109.10009765625,-12.3000001907349,-894.900024414062,2.79508886426131,-0.279975366644988,-0.0683742311131469,ST
8.0,-1.96549785137177,0.489879101514816,9.19046688079834,0.663114011287689,2.82776188850403,0.533540010452271,-1111.5,-6.30000019073486,-909.300048828125,2.79479116444812,-0.215805606518287,-0.0547843598082322,ST
8.03333333333333,-2.08093929290771,0.989926636219025,8.81961822509766,0.87652999162674,1.60824191570282,-0.0152439996600151,-1101.90002441406,-0.300000011920929,-909.300048828125,2.78226574405896,-0.232965550215383,-0.112889988909608,ST
8.06666666666667,-2.03667688369751,0.851755619049072,8.24899005889893,1.19665396213531,1.63872992992401,0.914639949798584,-1085.10009765625,-3.90000009536743,-916.500061035156,2.77869854653455,-0.243418264756984,-0.105507522515787,ST
8.1,-2.2191104888916,0.73451954126358,8.57079029083252,0.518296003341675,1.91312193870544,0.731711983680725,-1077.90002441406,-6.30000019073486,-899.700012207031,2.7781286793088,-0.25558047336516,-0.0869559858341031,ST
8.13333333333333,-2.7442798614502,0.881064593791962,9.533203125,0.221037998795509,1.6844619512558,0.594515979290009,-1089.90002441406,0.900000035762787,-909.300048828125,2.7720127304189,-0.281774163633916,-0.0928716874186349,ST
8.16666666666667,-2.64319372177124,0.910373628139496,9.76528167724609,0.640248000621796,0.815553963184357,0.92988395690918,-1094.70007324219,-7.50000047683716,-911.700012207031,2.76606015397751,-0.264654871026182,-0.0945353662080754,ST
8.2,-2.40393662452698,0.559861838817596,8.99726676940918,0.259148001670837,-0.175305992364883,0.121951997280121,-1087.5,-3.30000019073486,-916.500061035156,2.77400226836054,-0.260317120645555,-0.0628670889889069,ST
8.23333333333333,-2.67250275611877,0.753660142421722,9.20003700256348,0.25152599811554,0.213415995240211,-0.518296003341675,-1082.70007324219,-6.90000009536743,-902.100036621094,2.77274026931043,-0.28207840223532,-0.0817671667988001,ST
8.26666666666667,-2.8782639503479,0.722556710243225,9.01102352142334,1.03659200668335,0.533540010452271,-0.495429992675781,-1075.5,-3.90000009536743,-918.900024414062,2.77852618552699,-0.309137998546708,-0.0815740740913582,ST
8.3,-3.31610465049744,0.818259596824646,9.34837627410889,0.99848198890686,0.663114011287689,-0.708845973014832,-1089.90002441406,-11.1000003814697,-918.900024414062,2.78316942604024,-0.340758740372482,-0.0886096479465376,ST
8.33333333333333,-3.19707417488098,1.14544379711151,9.31248760223389,0.983237981796265,-0.457319974899292,-0.365855991840363,-1082.70007324219,-5.10000038146973,-906.900024414062,2.77689702976801,-0.327765279430528,-0.123653499182489,ST
8.36666666666667,-3.21142959594727,1.12630319595337,9.38845252990723,0.960371971130371,-1.83690190315247,-0.0381099991500378,-1077.90002441406,-9.90000057220459,-923.700012207031,2.78159187992662,-0.324258428674631,-0.12094403549994,ST
8.4,-2.92312479019165,1.31292378902435,9.70965480804443,0.632625997066498,-2.66007804870605,-0.46494197845459,-1089.90002441406,-14.7000007629395,-904.500061035156,2.78420354150868,-0.285705147872775,-0.134990768411149,ST
8.43333333333333,-2.5235652923584,1.34342908859253,9.95549201965332,0.846041977405548,-3.3613018989563,-0.297257989645004,-1085.10009765625,-14.7000007629395,-909.300048828125,2.79058831101523,-0.240743252827544,-0.135285833559678,ST
8.46666666666667,-2.2711489200592,1.24353921413422,9.65941047668457,1.16616594791412,-3.55185198783875,-0.350611984729767,-1077.90002441406,-9.90000057220459,-906.900024414062,2.79913498030615,-0.223181751399933,-0.12979608011171,ST
8.5,-1.52646088600159,1.29797029495239,9.24190711975098,1.30336201190948,-2.76678586006165,-0.83841997385025,-1094.70007324219,-6.30000019073486,-897.300048828125,2.80792823734854,-0.157808410053819,-0.141420048207629,ST
8.53333333333333,-1.96071267127991,1.48937594890594,9.75690841674805,1.52439999580383,-2.01982998847961,-0.967993974685669,-1094.70007324219,-14.1000003814697,-897.300048828125,2.8166136163786,-0.192636398026304,-0.153628979177692,ST
8.56666666666667,-1.95114243030548,1.52406823635101,9.65522384643555,1.37958192825317,-0.891773998737335,-0.411587983369827,-1099.5,-6.30000019073486,-906.900024414062,2.82117968258859,-0.195573191159792,-0.158734512733003,ST
8.6,-1.94994604587555,1.3900842666626,9.21977615356445,0.769822001457214,-0.457319974899292,-0.152439996600151,-1097.10009765625,-9.30000019073486,-914.100036621094,2.82528883219933,-0.205331898455212,-0.15097339150889,ST
8.63333333333333,-1.77827906608582,1.26327800750732,8.76758003234863,0.198172003030777,0.358233988285065,0.0685980021953583,-1099.5,-12.9000005722046,-897.300048828125,2.82624018147914,-0.198773614617499,-0.143549193479646,ST
8.66666666666667,-1.9308055639267,1.10237753391266,8.44757270812988,-0.0304879993200302,1.09756803512573,0.0838419944047928,-1099.5,-11.1000003814697,-897.300048828125,2.82738375281907,-0.224634330511165,-0.129864813321588,ST
8.7,-2.46913409233093,1.05452609062195,9.10254001617432,-0.0685980021953583,1.84452390670776,0.106707997620106,-1094.70007324219,-9.90000057220459,-904.500061035156,2.82858531914878,-0.266038996647148,-0.115486509559118,ST
8.73333333333333,-2.29387831687927,0.748875021934509,9.66359806060791,-0.472563982009888,1.60824191570282,0.274392008781433,-1092.30004882812,-8.70000076293945,-904.500061035156,2.83458611402704,-0.235402748604252,-0.0769978478230557,ST
8.76666666666667,-2.5576593875885,0.888242304325104,9.59361553192139,-0.480185985565186,0.564027965068817,0.46494197845459,-1075.5,-15.9000005722046,-899.700012207031,2.82673868597887,-0.260182454916414,-0.0916023559495747,ST
8.8,-2.44520854949951,1.02342259883881,8.96018123626709,0.0533539988100529,0.663114011287689,1.29574000835419,-1080.30004882812,-11.1000003814697,-914.100036621094,2.81102747517203,-0.265636343798117,-0.114357765053399,ST
8.83333333333333,-2.27832651138306,0.893027484416962,9.31607723236084,0.167683988809586,0.365855991840363,1.63110792636871,-1094.70007324219,-11.1000003814697,-911.700012207031,2.80426934061462,-0.239337738349212,-0.0966889668494321,ST
8.86666666666667,-2.31541132926941,0.793137550354004,8.96735954284668,-0.121951997280121,-0.0838419944047928,1.2347639799118,-1070.70007324219,-12.3000001907349,-904.500061035156,2.79783430170324,-0.251307982577083,-0.0886182934165892,ST
8.9,-2.69822287559509,0.871494293212891,9.27301025390625,-0.289635986089706,0.640248000621796,0.823175966739655,-1080.30004882812,-8.10000038146973,-904.500061035156,2.78973807179922,-0.282778512996668,-0.0936166152400853,ST
8.93333333333333,-2.4458065032959,0.806296706199646,9.29035663604736,-0.0838419944047928,0.525918006896973,0.884151995182037,-1077.90002441406,-14.7000007629395,-902.100036621094,2.78519150849819,-0.257488390861532,-0.0869077007818595,ST
8.96666666666667,-2.72753190994263,0.890036761760712,9.2161865234375,-0.0762199983000755,0.198172003030777,0.548784017562866,-1087.5,-5.70000028610229,-916.500061035156,2.77875480247535,-0.286489908935935,-0.0963525552137819,ST
9.0,-2.72693371772766,0.671116411685944,9.07801628112793,-0.449698001146317,1.03659200668335,0.556405961513519,-1092.30004882812,-12.3000001907349,-897.300048828125,2.77987517909082,-0.29276015441079,-0.0734715490397554,ST
9.03333333333333,-2.65336227416992,0.799717128276825,9.05050086975098,-0.823175966739655,0.83841997385025,0.510673999786377,-1080.30004882812,-17.1000003814697,-909.300048828125,2.77042999219772,-0.28556456953299,-0.0869027309578602,ST
9.06666666666667,-2.67788600921631,0.495860517024994,9.13663387298584,-0.556405961513519,0.442075997591019,1.09756803512573,-1073.10009765625,-8.70000076293945,-906.900024414062,2.7711405509358,-0.285378744813348,-0.0540914948638218,ST
9.1,-2.33634638786316,0.144750595092773,9.18328857421875,-1.39482593536377,-0.190549999475479,0.67835795879364,-1075.5,-12.9000005722046,-918.900024414062,2.77477905177027,-0.24904815059497,-0.0139569191427373,ST
9.13333333333333,-3.40941500663757,0.857138872146606,10.3753881454468,-1.31860601902008,-0.792688012123108,0.571649968624115,-1073.10009765625,-6.90000009536743,-899.700012207031,2.75031117438649,-0.314494183014714,-0.0798501042373519,ST
9.16666666666667,-2.47870445251465,0.410924226045609,10.3843603134155,0.198172003030777,-0.92988395690918,2.78965187072754,-1094.70007324219,-5.10000038146973,-909.300048828125,2.74274339504458,-0.23297943450508,-0.0413616940493598,ST
9.2,-1.66343557834625,0.183629885315895,9.31727313995361,-0.335367977619171,-2.45428395271301,1.82927989959717,-1085.10009765625,-5.10000038146973,-906.900024414062,2.73465022562963,-0.172785487967716,-0.0198461874481529,ST
9.23333333333333,-2.10845398902893,0.629246413707733,8.98111629486084,-0.37347799539566,-2.40092992782593,0.967993974685669,-1089.90002441406,-2.70000004768372,-911.700012207031,2.7187313958757,-0.225319709848363,-0.0692006530536389,ST
9.26666666666667,-2.03607869148254,0.542515695095062,9.03016471862793,0.106707997620106,-0.6250039935112,1.06708002090454,-1085.10009765625,-0.900000035762787,-918.900024414062,2.7134571624048,-0.220207665037971,-0.0606428841077907,ST
9.3,-2.25200819969177,0.467149674892426,9.16953182220459,-0.403965979814529,-0.0304879993200302,0.807931959629059,-1085.10009765625,-6.30000019073486,-914.100036621094,2.70895514519807,-0.240326530824251,-0.0505801972270099,ST
9.33333333333333,-2.46733975410461,0.327184200286865,9.91421985626221,-0.472563982009888,0.457319974899292,0.541162014007568,-1094.70007324219,-2.70000004768372,-923.700012207031,2.70875381591021,-0.24451819033951,-0.0325555179639847,ST
9.36666666666667,-2.26038217544556,0.323595345020294,9.62950325012207,-0.0914639979600906,0.25152599811554,0.129574000835419,-1089.90002441406,-6.30000019073486,-911.700012207031,2.70739677182817,-0.230944204277056,-0.0334837511384495,ST
9.4,-2.4757137298584,0.385802209377289,8.64914703369141,0.457319974899292,0.510673999786377,-0.274392008781433,-1104.30004882812,-12.9000005722046,-899.700012207031,2.70697224853501,-0.279035761636973,-0.0451526029452064,ST
9.43333333333333,-2.61807179450989,0.509019672870636,8.77356147766113,0.297257989645004,1.28049600124359,-0.266770005226135,-1094.70007324219,-5.70000028610229,-909.300048828125,2.70516439818033,-0.291686314616003,-0.0582622664015958,ST
9.46666666666667,-2.72693371772766,0.546104550361633,9.0313606262207,0.190549999475479,0.868907988071442,0.137196004390717,-1080.30004882812,-5.70000028610229,-904.500061035156,2.7035044424401,-0.294216313633721,-0.060812166465176,ST
9.5,-2.61209034919739,0.433653652667999,9.0074348449707,0.144817993044853,0.868907988071442,0.259148001670837,-1089.90002441406,-8.70000076293945,-914.100036621094,2.70515352555045,-0.283495299513341,-0.0485823129778306,ST
9.53333333333333,-2.56543517112732,0.523973226547241,9.12526893615723,0.503051996231079,0.670735955238342,0.198172003030777,-1089.90002441406,-9.30000019073486,-914.100036621094,2.70186967872552,-0.274852768707328,-0.0582716723293194,ST
9.56666666666667,-2.75803732872009,0.629246413707733,9.96506214141846,1.16616594791412,-0.0076219998300075,0.0152439996600151,-1080.30004882812,-4.5,-909.300048828125,2.70210608693461,-0.269529949963698,-0.0650480233873151,ST
9.6,-2.58936095237732,0.741697311401367,9.48176193237305,1.20427596569061,-0.78506600856781,-0.129574000835419,-1082.70007324219,-5.10000038146973,-914.100036621094,2.70161970762985,-0.264508082043836,-0.0799534554443778,ST
9.63333333333333,-2.46853613853455,0.805698573589325,8.99726676940918,1.05945801734924,-0.884151995182037,-0.0304879993200302,-1089.90002441406,-6.90000009536743,-916.500061035156,2.70136429745276,-0.265221061733262,-0.0910170761166637,ST
9.66666666666667,-2.29985976219177,0.700425446033478,8.77415943145752,0.503051996231079,-1.08232402801514,-0.25152599811554,-1082.70007324219,-3.30000019073486,-897.300048828125,2.70752239737155,-0.253779441051624,-0.0804345825936984,ST
9.7,-2.70360612869263,0.809885561466217,9.75511360168457,0.480185985565186,-1.06708002090454,-0.137196004390717,-1077.90002441406,-11.7000007629395,-911.700012207031,2.70923288228224,-0.267564243146038,-0.0835445366761544,ST
9.73333333333333,-2.67848420143127,0.843381583690643,9.94412708282471,0.952749967575073,-0.6250039935112,-0.205793991684914,-1080.30004882812,-5.10000038146973,-906.900024414062,2.71219823230945,-0.261191249448559,-0.0861371054167698,ST
9.76666666666667,-2.15869808197021,0.985141456127167,9.0672492980957,1.35671591758728,-1.59299790859222,-0.388722002506256,-1087.5,-14.7000007629395,-894.900024414062,2.71296788075422,-0.229841093300431,-0.110268614997449,ST
9.8,-2.49305987358093,1.17893981933594,8.53550052642822,1.37195992469788,-1.16616594791412,-0.213415995240211,-1094.70007324219,-6.30000019073486,-897.300048828125,2.71090302221456,-0.279395660487632,-0.139296095332317,ST
9.83333333333333,-3.08881020545959,1.41042113304138,10.0009508132935,1.37958192825317,0.396344006061554,0.388722002506256,-1087.5,-17.7000007629395,-911.700012207031,2.70976542964809,-0.297234525505686,-0.142719664680129,ST
9.86666666666667,-2.78555178642273,1.5121054649353,10.4549407958984,1.60061991214752,-0.0609759986400604,1.40244793891907,-1092.30004882812,-11.7000007629395,-914.100036621094,2.70192917120208,-0.257586063554147,-0.147040123734842,ST
9.9,-2.39675879478455,1.34761607646942,8.79629039764404,1.2500079870224,-0.0990860015153885,1.08232402801514,-1087.5,-11.1000003814697,-904.500061035156,2.6948710233329,-0.262599194877582,-0.154653523890932,ST
9.93333333333333,-2.1012761592865,1.34342908859253,8.84773063659668,0.967993974685669,0.411587983369827,0.617381989955902,-1085.10009765625,-9.30000019073486,-904.500061035156,2.69242220522172,-0.231427920799573,-0.152671009500354,ST
9.96666666666667,-2.29088759422302,1.37154185771942,9.00623893737793,0.807931959629059,0.137196004390717,0.0304879993200302,-1089.90002441406,-11.1000003814697,-928.500061035156,2.69351101478013,-0.246501921608004,-0.15256005885064,ST
10.0,-2.503826379776,1.39367318153381,9.09416580200195,0.724089980125427,-0.388722002506256,-0.0076219998300075,-1094.70007324219,-9.90000057220459,-914.100036621094,2.69506092427297,-0.264890077667615,-0.153292784414927,ST
10.0333333333333,-2.56842589378357,1.3721399307251,8.28188800811768,0.274392008781433,-0.434453994035721,-0.0152439996600151,-1087.5,-6.90000009536743,-909.300048828125,2.69311493745272,-0.295989352076614,-0.16455659555201,ST
10.0666666666667,-2.44999361038208,1.24652993679047,8.2860746383667,-0.0990860015153885,0.693601965904236,0.442075997591019,-1087.5,-6.90000009536743,-892.500061035156,2.69362828773936,-0.285624241401777,-0.149544872880628,ST
10.1,-2.45717144012451,1.24712812900543,8.28308391571045,-0.25152599811554,1.03659200668335,0.510673999786377,-1070.70007324219,-14.1000003814697,-909.300048828125,2.68882294857388,-0.286983552507514,-0.149342956855488,ST
10.1333333333333,-2.94645237922668,1.41161739826202,8.91352653503418,-0.175305992364883,1.52439999580383,0.792688012123108,-1077.90002441406,-7.50000047683716,-904.500061035156,2.67938366133681,-0.317737539944066,-0.157275605793529,ST
10.1666666666667,-2.73052263259888,1.44152450561523,10.0673446655273,-0.0228659994900227,1.69970595836639,1.19665396213531,-1075.5,-9.30000019073486,-902.100036621094,2.67336985515216,-0.265239389695667,-0.142942299543532,ST
10.2,-2.95781707763672,1.50432956218719,10.0924663543701,-0.213415995240211,0.495429992675781,1.02134799957275,-1063.5,-9.30000019073486,-916.500061035156,2.66390852606099,-0.282629918218865,-0.148111067088258,ST
10.2333333333333,-2.912358045578,1.36436414718628,9.21917724609375,-0.564027965068817,0.0152439996600151,1.05183601379395,-1063.5,-5.70000028610229,-906.900024414062,2.65633335821735,-0.30247800326924,-0.146520521047443,ST
10.2666666666667,-2.54928541183472,0.628648281097412,8.77894401550293,-1.59299790859222,0.525918006896973,0.640248000621796,-1077.90002441406,-12.9000005722046,-899.700012207031,2.67085215506049,-0.282931342809085,-0.0696815206449544,ST
10.3,-2.38479614257812,0.101086162030697,8.10902404785156,-2.80489587783813,0.541162014007568,-0.746955990791321,-1080.30004882812,-4.5,-909.300048828125,2.68767758597832,-0.286935898715846,-0.0077009158593068,ST
10.3333333333333,-2.22868061065674,0.028710862621665,8.09347248077393,-3.09453201293945,-0.0457319989800453,-1.60824191570282,-1075.5,-11.7000007629395,-914.100036621094,2.69541873986516,-0.268774659874924,0.0025434561941106,ST
10.3666666666667,-3.1767373085022,0.084936298429966,9.52542686462402,-1.44817996025085,-0.541162014007568,-0.487807989120483,-1080.30004882812,-3.30000019073486,-906.900024414062,2.69312033471777,-0.3205946107011,-0.0060432290445967,ST
10.4,-2.72513937950134,0.0634031519293785,10.1893653869629,-0.602137982845306,-1.70732796192169,0.213415995240211,-1068.30004882812,-4.5,-923.700012207031,2.69063902921778,-0.258640501661318,-0.0052700349405745,ST
10.4333333333333,-2.96140575408936,0.009570287540555,10.5021944046021,0.0685980021953583,-2.43903994560242,0.83841997385025,-1080.30004882812,-5.70000028610229,-914.100036621094,2.68620899874602,-0.270486453553145,-0.0014664959192628,ST
10.4666666666667,-2.08692073822021,-0.283519774675369,10.266526222229,-0.365855991840363,-3.10215401649475,0.556405961513519,-1075.5,-8.10000038146973,-923.700012207031,2.68824243189531,-0.195699129915005,0.0277844710243335,ST
10.5,-1.90628159046173,0.0059814294800162,9.01879978179932,-0.823175966739655,-4.06252574920654,-0.144817993044853,-1099.5,-1.5,-909.300048828125,2.68260076154624,-0.201174080858304,0.0010104927139249,ST
10.5333333333333,-2.07017278671265,-0.117236025631428,8.59770679473877,-0.289635986089706,-2.33233189582825,0.335367977619171,-1082.70007324219,-3.30000019073486,-894.900024414062,2.6822372551057,-0.232054231230749,0.013927804159286,ST
10.5666666666667,-2.15391278266907,-0.101684302091599,9.16594314575195,-0.0533539988100529,-0.907018005847931,0.213415995240211,-1094.70007324219,0.900000035762787,-906.900024414062,2.68000282763458,-0.229234095965377,0.0111184796901058,ST
10.6,-2.4356381893158,0.11484345048666,9.45185565948486,0.3125019967556,-0.586893975734711,0.350611984729767,-1094.70007324219,-1.5,-911.700012207031,2.67255034421686,-0.250973992102334,-0.0126512324641908,ST
10.6333333333333,-2.38060903549194,0.305052906274796,9.09476375579834,1.32622802257538,0.449698001146317,0.807931959629059,-1089.90002441406,-6.30000019073486,-911.700012207031,2.66309165924627,-0.256587454007335,-0.0361280507921857,ST
10.6666666666667,-2.45059180259705,0.364269077777863,9.39921855926514,1.37195992469788,0.731711983680725,0.769822001457214,-1094.70007324219,-5.70000028610229,-916.500061035156,2.65862395472742,-0.256086152642708,-0.041464369504692,ST
10.7,-1.82493424415588,0.305052906274796,8.95121002197266,0.823175966739655,-0.289635986089706,0.388722002506256,-1085.10009765625,-6.90000009536743,-911.700012207031,2.65855294742845,-0.200856649931893,-0.0356776832336164,ST
10.7333333333333,-2.31361699104309,0.482103228569031,8.94522857666016,0.457319974899292,0.0076219998300075,0.594515979290009,-1092.30004882812,-5.70000028610229,-909.300048828125,2.65102830298519,-0.252277975899625,-0.0547474485580237,ST
10.7666666666667,-2.48648023605347,0.578404247760773,9.66838264465332,0.487807989120483,1.00610399246216,0.945127964019775,-1092.30004882812,8.70000076293945,-918.900024414062,2.6434129050081,-0.252939015532707,-0.0610140347625766,ST
10.8,-1.40683221817017,0.312230616807938,9.22456073760986,0.419209986925125,-0.495429992675781,1.04421401023865,-1089.90002441406,-0.300000011920929,-916.500061035156,2.64217918197331,-0.151169244959793,-0.0350570422834492,ST
10.8333333333333,-1.76571810245514,0.386400371789932,8.84593677520752,0.6250039935112,-0.823175966739655,0.457319974899292,-1094.70007324219,-7.50000047683716,-906.900024414062,2.63842375304562,-0.195003149921591,-0.0448074439034717,ST
10.8666666666667,-1.95832014083862,0.641209244728088,9.52423095703125,1.18140995502472,0.594515979290009,0.358233988285065,-1089.90002441406,-5.10000038146973,-904.500061035156,2.63240071092022,-0.203302773180519,-0.0693310262269141,ST
10.9,-1.84826183319092,0.485692083835602,9.11270809173584,0.945127964019775,-0.365855991840363,0.114329993724823,-1094.70007324219,-8.70000076293945,-906.900024414062,2.63595051283174,-0.19921200377888,-0.055029141599344,ST
10.9333333333333,-3.04753851890564,0.951645493507385,10.3933324813843,0.670735955238342,-0.411587983369827,-0.114329993724823,-1097.10009765625,-3.30000019073486,-909.300048828125,2.62929051762945,-0.282714004939175,-0.0920917979184482,ST
10.9666666666667,-2.44879722595215,1.30036282539368,10.3012180328369,1.64635193347931,-0.922261953353882,1.21951997280121,-1094.70007324219,-4.5,-911.700012207031,2.61477349044263,-0.229955330017659,-0.128750248223644,ST
11.0,-2.69403600692749,1.18193054199219,8.98709774017334,1.85214591026306,-0.914639949798584,1.54726600646973,-1092.30004882812,-17.1000003814697,-894.900024414062,2.60731045066069,-0.286484465054685,-0.134671668100156,ST
11.0333333333333,-2.80648684501648,1.43853390216827,10.3843603134155,1.64635193347931,1.01372599601746,1.54726600646973,-1094.70007324219,-5.10000038146973,-906.900024414062,2.5963923557174,-0.26303630234703,-0.141287241939709,ST
11.0666666666667,-2.20415687561035,1.35718643665314,9.54038047790527,0.960371971130371,-0.663114011287689,1.21951997280121,-1099.5,-10.5,-904.500061035156,2.58956870344895,-0.223639549345376,-0.143417218769548,ST
11.1,-2.131183385849,1.11493849754333,8.48406028747559,0.358233988285065,-0.602137982845306,0.655492007732391,-1094.70007324219,-14.1000003814697,-902.100036621094,2.58886588923396,-0.242789453244183,-0.13160664261546,ST
11.1333333333333,-2.54210758209229,1.34881234169006,8.82320690155029,0.297257989645004,0.945127964019775,0.602137982845306,-1097.10009765625,-11.1000003814697,-892.500061035156,2.57874333821522,-0.278761977600978,-0.152483022440126,ST
11.1666666666667,-1.76691436767578,1.14065861701965,8.31957054138184,0.182927995920181,0.503051996231079,0.746955990791321,-1097.10009765625,-5.70000028610229,-914.100036621094,2.57700445765158,-0.208480086860085,-0.136964424091196,ST
11.2,-2.34830927848816,1.34821426868439,8.77535533905029,0.381099998950958,0.548784017562866,0.800309956073761,-1097.10009765625,-8.70000076293945,-904.500061035156,2.56751032349519,-0.259071551722702,-0.15343332664978,ST
11.2333333333333,-2.27174711227417,1.24353921413422,9.37349891662598,0.335367977619171,0.670735955238342,0.983237981796265,-1089.90002441406,-6.30000019073486,-914.100036621094,2.56551757489177,-0.236843773408934,-0.133045391310071,ST
11.2666666666667,-2.19339036941528,1.21482837200165,9.31667518615723,-0.129574000835419,-0.320124000310898,0.487807989120483,-1087.5,-12.3000001907349,-904.500061035156,2.56293288084889,-0.228724890009398,-0.129634604458318,ST
11.3,-2.17245531082153,1.30574607849121,8.79748725891113,0.236281991004944,-0.0609759986400604,0.388722002506256,-1089.90002441406,-11.7000007629395,-904.500061035156,2.55651329589739,-0.23929615580496,-0.147793798413633,ST
11.3333333333333,-2.40991806983948,1.29258692264557,9.46082782745361,0.129574000835419,-0.236281991004944,0.121951997280121,-1101.90002441406,-11.7000007629395,-902.100036621094,2.55891859346131,-0.246745888002588,-0.136105213172262,ST
11.3666666666667,-2.58397769927979,1.04435765743256,9.09895133972168,-0.388722002506256,-0.586893975734711,0.182927995920181,-1087.5,-2.10000014305115,-916.500061035156,2.5631942715514,-0.273710357083381,-0.113840473939439,ST
11.4,-2.37642192840576,0.905588448047638,9.09655857086182,-0.853663980960846,-0.449698001146317,0.0685980021953583,-1080.30004882812,-3.90000009536743,-906.900024414062,2.56556053430947,-0.253632355043958,-0.0978225823470461,LD
11.4333333333333,-1.71487593650818,0.500047504901886,8.20173645019531,-1.34147191047668,-1.47866797447205,-0.442075997591019,-1087.5,-10.5,-914.100036621094,2.57622948654612,-0.203503973397481,-0.0585820187606214,LD
11.4666666666667,-2.13537049293518,0.513206660747528,9.38426494598389,-1.28811800479889,-2.0655620098114,-1.10518991947174,-1094.70007324219,-2.10000014305115,-906.900024414062,2.58448161101592,-0.219838887048562,-0.0519433077140722,LD
11.5,-2.20654940605164,0.119628593325615,9.97642707824707,-1.00610399246216,-2.82776188850403,-0.861285984516144,-1092.30004882812,-6.90000009536743,-914.100036621094,2.5984541460999,-0.212780464799597,-0.0101357056806214,LD
11.5333333333333,-2.26217675209045,-0.0406737215816975,11.4753732681274,-1.50915598869324,-4.04728174209595,-1.10518991947174,-1101.90002441406,3.90000009536743,-906.900024414062,2.60716422708816,-0.187768493728374,0.0064056942418597,LD
11.5666666666667,-1.71188521385193,0.0795530155301094,10.8030605316162,-1.32622802257538,-5.86131763458252,-1.18140995502472,-1101.90002441406,-2.10000014305115,-904.500061035156,2.61244461411613,-0.147164120071092,-0.0046671811432489,LD
11.6,-1.26088535785675,0.0586180128157139,9.92438793182373,-0.304879993200302,-6.46345567703247,0.0381099991500378,-1125.90002441406,-5.10000038146973,-909.300048828125,2.61206323298962,-0.115351199180917,-0.0053686162533799,LD
11.6333333333333,-1.40264523029327,0.0651975870132446,9.60198879241943,0.175305992364883,-6.53205394744873,0.663114011287689,-1116.30004882812,-4.5,-899.700012207031,2.60762317364691,-0.133515543268787,-0.0072274726854497,LD
11.6666666666667,-1.17056584358215,-0.153722748160362,9.18986892700195,0.160062000155449,-6.36436986923218,1.07470202445984,-1142.70007324219,-2.70000004768372,-899.700012207031,2.60281918733953,-0.115744305768442,0.0160141342552259,LD
11.7,-0.480308800935745,-0.289501190185547,8.3219633102417,-0.137196004390717,-6.82931184768677,0.266770005226135,-1149.90002441406,-8.10000038146973,-899.700012207031,2.60059501093473,-0.0459944477045174,0.034897413840599,LD
11.7333333333333,-0.812278151512146,0.0903195887804031,8.50559329986572,0.716467976570129,-5.44210767745972,-0.0152439996600151,-1152.30004882812,0.900000035762787,-894.900024414062,2.59810682262421,-0.0855202760731665,-0.0116365097190092,LD
11.7666666666667,-0.595750391483307,0.19798532128334,9.77724456787109,1.10518991947174,-4.67228603363037,0.617381989955902,-1166.70007324219,-3.30000019073486,-890.100036621094,2.59402612759198,-0.0528552352161469,-0.0221648166219945,LD
11.8,0.0346922911703587,0.238060906529427,11.717022895813,1.01372599601746,-6.82931184768677,1.04421401023865,-1176.30004882812,-5.70000028610229,-887.700012207031,2.58786972272489,0.0143626501844017,-0.0220666305983556,LD
11.8333333333333,0.52935653924942,0.336156338453293,10.8497152328491,1.30336201190948,-8.68145751953125,1.02897000312805,-1173.90002441406,0.900000035762787,-897.300048828125,2.58255576055829,0.0635254490437574,-0.0330756456374094,LD
11.8666666666667,0.75246387720108,0.334361910820007,10.3377046585083,1.42531394958496,-9.1997537612915,1.06708002090454,-1195.5,-6.90000009536743,-873.300048828125,2.57651194414218,0.0885624430234559,-0.0346916453150509,LD
11.9,1.49475932121277,0.397765070199966,9.30770301818848,0.868907988071442,-8.98633766174316,0.602137982845306,-1214.70007324219,-4.5,-880.500061035156,2.57527986986809,0.174100983565826,-0.044082596305596,LD
11.9333333333333,1.75734400749207,0.647788822650909,9.08040809631348,0.907018005847931,-8.11742973327637,0.221037998795509,-1224.30004882812,-2.70000004768372,-866.100036621094,2.58164314331203,0.204679725043712,-0.0727655964829468,LD
11.9666666666667,1.83450448513031,0.898410737514496,8.9057502746582,1.2347639799118,-7.157057762146,0.335367977619171,-1233.90002441406,-2.70000004768372,-878.100036621094,2.58839962500356,0.214557403645785,-0.10259437558803,LD
12.0,2.42487168312073,1.02581524848938,8.77894401550293,1.21951997280121,-6.44821166992188,0.868907988071442,-1245.90002441406,-7.50000047683716,-856.500061035156,2.58918584984116,0.278586532598359,-0.118264072184866,LD
12.0333333333333,2.80648684501648,1.19688403606415,9.71144962310791,1.05183601379395,-5.57168197631836,0.807931959629059,-1236.30004882812,-9.30000019073486,-846.900024414062,2.58788066983645,0.289083837243823,-0.124364926737102,LD
12.0666666666667,4.02909088134766,1.28839993476868,8.71853160858154,1.03659200668335,-6.33388185501099,0.602137982845306,-1257.90002441406,-8.70000076293945,-851.700012207031,2.5956223530804,0.439025657866025,-0.148648737858271,LD
12.1,4.01353931427002,1.30096101760864,7.73518466949463,0.777444005012512,-5.65552377700806,0.297257989645004,-1262.70007324219,-6.30000019073486,-834.900024414062,2.60583270334316,0.482410778461075,-0.168406949751528,LD
12.1333333333333,3.77846908569336,1.28839993476868,8.69340991973877,0.617381989955902,-2.75154185295105,0.388722002506256,-1267.5,-7.50000047683716,-846.900024414062,2.59562759444429,0.411484248916533,-0.148383070078331,LD
12.1666666666667,3.79701161384583,0.930112302303314,8.41407680511475,0.266770005226135,-1.52439999580383,0.37347799539566,-1279.5,-11.1000003814697,-842.100036621094,2.57839430584279,0.424250922611995,-0.110713327103534,LD
12.2,2.93508744239807,0.887644171714783,9.18448543548584,0.0304879993200302,-0.899396002292633,0.0914639979600906,-1262.70007324219,-6.90000009536743,-844.500061035156,2.57321184819379,0.310486318199839,-0.0965092985336438,LD
12.2333333333333,3.6953272819519,0.66633129119873,9.41177940368652,-0.0152439996600151,-0.693601965904236,0.449698001146317,-1274.70007324219,-6.90000009536743,-830.100036621094,2.56172087611725,0.374246686692417,-0.0705069356698964,LD
12.2666666666667,3.50870656967163,0.817063271999359,9.75152492523193,-0.0381099991500378,-1.14329993724823,0.411587983369827,-1279.5,-12.3000001907349,-844.500061035156,2.56417614165419,0.346514547910636,-0.0832410500161624,LD
12.3,3.47939777374268,0.890634894371033,10.4675016403198,0.175305992364883,-1.05183601379395,0.78506600856781,-1274.70007324219,-11.7000007629395,-827.700012207031,2.55974954741284,0.321979791934912,-0.0847699445099929,LD
12.3333333333333,4.23365592956543,0.562254369258881,8.75980377197266,-0.274392008781433,-1.76068198680878,0.922261953353882,-1281.90002441406,1.5,-827.700012207031,2.54728712124887,0.451497119350722,-0.0631306142831327,LD
12.3666666666667,3.70429944992065,0.648985147476196,8.1425199508667,-0.37347799539566,-0.6250039935112,0.899396002292633,-1277.10009765625,-5.10000038146973,-832.500061035156,2.54939743824311,0.4271671688818,-0.0780875127593298,LD
12.4,3.6253445148468,0.281725347042084,6.91094398498535,-0.411587983369827,1.47866797447205,0.823175966739655,-1269.90002441406,-12.3000001907349,-834.900024414062,2.52767716951966,0.480049302309158,-0.0393796123550928,LD
12.4333333333333,3.2048499584198,0.232079476118088,7.37510299682617,-0.335367977619171,2.01220798492432,0.6250039935112,-1269.90002441406,-8.10000038146973,-844.500061035156,2.52012730725298,0.406622392988597,-0.0303941660117713,LD
12.4666666666667,2.41111421585083,0.421092659235001,9.20302772521973,-0.0609759986400604,1.29574000835419,0.503051996231079,-1269.90002441406,-8.10000038146973,-839.700012207031,2.52119783293611,0.254628713236053,-0.0452760371166539,LD
12.5,2.85374021530151,0.433653652667999,10.0135116577148,0.0762199983000755,0.0990860015153885,0.990859985351562,-1262.70007324219,-9.90000057220459,-842.100036621094,2.51382164264576,0.277098369557621,-0.042940269783663,LD
12.5333333333333,3.52366018295288,0.336754500865936,9.7838249206543,0.0304879993200302,-2.14940404891968,1.2423859834671,-1269.90002441406,-7.50000047683716,-839.700012207031,2.50332611025259,0.348733307750468,-0.0338010422533637,LD
12.5666666666667,4.18101930618286,0.168078169226646,9.51166915893555,-0.381099998950958,-2.74391984939575,1.03659200668335,-1274.70007324219,-6.90000009536743,-842.100036621094,2.49160050544704,0.418332115845999,-0.016388685171347,LD
12.6,4.09309244155884,0.297277063131332,9.02298641204834,-0.541162014007568,-2.64483404159546,0.762199997901917,-1265.10009765625,-6.90000009536743,-837.300048828125,2.49496813256365,0.430222002373308,-0.0313261117276007,LD
12.6333333333333,4.3281626701355,-0.149535745382309,9.05827713012695,-0.594515979290009,-0.823175966739655,0.83841997385025,-1281.90002441406,-8.70000076293945,-837.300048828125,2.47057055184453,0.446966754878407,0.0178475061886957,LD
12.6666666666667,4.02430582046509,0.0317015759646893,9.13842868804932,-0.525918006896973,-0.739333987236023,-0.0457319989800453,-1289.10009765625,-9.30000019073486,-837.300048828125,2.48082309516519,0.416360087817947,-0.0024241977746469,LD
12.7,3.76471185684204,0.16568560898304,9.06605339050293,0.0685980021953583,0.205793991684914,0.37347799539566,-1279.5,-1.5,-834.900024414062,2.48430399246567,0.393338390227061,-0.0180132249854831,LD
12.7333333333333,3.78624510765076,0.122021168470383,9.25087928771973,0.190549999475479,0.3125019967556,0.434453994035721,-1279.5,-4.5,-827.700012207031,2.47897835855393,0.387949984493661,-0.0132363498968601,LD
12.7666666666667,3.84665751457214,0.238659039139748,9.1868782043457,0.228659987449646,0.137196004390717,0.342989981174469,-1281.90002441406,-7.50000047683716,-834.900024414062,2.48088662464438,0.396141888932603,-0.0260452415504994,LD
12.8,4.11342906951904,0.159704178571701,9.19644832611084,0.289635986089706,-0.0914639979600906,0.617381989955902,-1281.90002441406,-2.10000014305115,-844.500061035156,2.47233673246771,0.42059991409514,-0.0174311244921232,LD
12.8333333333333,4.10625171661377,0.0945065915584564,9.05708122253418,-0.342989981174469,0.304879993200302,-0.175305992364883,-1265.10009765625,-1.5,-832.500061035156,2.47147474358916,0.425075560268065,-0.0100139731805133,LD
12.8666666666667,3.95013618469238,0.269164323806763,9.01700496673584,-0.282013982534409,0.792688012123108,-0.525918006896973,-1281.90002441406,-2.70000004768372,-839.700012207031,2.48340384335492,0.411434333770739,-0.0295722195062365,LD
12.9,3.66601824760437,0.361876487731934,9.33043193817139,0.167683988809586,1.27287399768829,-0.495429992675781,-1269.90002441406,-0.900000035762787,-846.900024414062,2.48955455171162,0.372193923489046,-0.0392835511235865,LD
12.9333333333333,3.57390427589417,0.378026366233826,9.01222038269043,0.259148001670837,1.17378795146942,-0.365855991840363,-1272.30004882812,-4.5,-844.500061035156,2.49213310954238,0.375139844272179,-0.0425639776125404,LD
12.9666666666667,3.31131958961487,0.459971934556961,8.91711521148682,0.282013982534409,2.13416004180908,-0.297257989645004,-1269.90002441406,-5.70000028610229,-846.900024414062,2.4960858607941,0.351544181491962,-0.0520844338421061,LD
13.0,2.97635936737061,0.588572680950165,9.36332988739014,0.327746003866196,2.46190595626831,-0.160062000155449,-1262.70007324219,-6.30000019073486,-846.900024414062,2.4990497480133,0.303296841199653,-0.0632605569939415,LD
13.0333333333333,2.99908876419067,0.545506417751312,9.02896785736084,0.282013982534409,1.60824191570282,-0.144817993044853,-1257.90002441406,-3.90000009536743,-842.100036621094,2.4980229750341,0.317220332557049,-0.060883244422502,LD
13.0666666666667,2.94525599479675,0.560459971427917,9.39024639129639,0.137196004390717,1.34909391403198,-0.259148001670837,-1269.90002441406,-3.90000009536743,-861.300048828125,2.49870727747406,0.301124265737601,-0.0599551793188464,LD
13.1,2.62584757804871,0.610703945159912,8.87703990936279,0.0381099991500378,1.18903195858002,-0.182927995920181,-1265.10009765625,-3.30000019073486,-849.300048828125,2.50189521464045,0.284959918710446,-0.0687557589200349,LD
13.1333333333333,2.4715268611908,0.629844546318054,10.0176982879639,0.236281991004944,1.2423859834671,0.0762199983000755,-1255.5,-2.10000014305115,-858.900024414062,2.49895473418599,0.239583761232585,-0.0631744732951796,LD
13.1666666666667,3.26107549667358,0.474327385425568,9.40639591217041,0.297257989645004,0.0762199983000755,-0.304879993200302,-1248.30004882812,-0.300000011920929,-856.500061035156,2.49691954888307,0.332400683841923,-0.0511842142249099,LD
13.2,3.08043622970581,1.04196500778198,8.82320690155029,1.21951997280121,-0.754577994346619,-0.3125019967556,-1255.5,-6.90000009536743,-856.500061035156,2.51902375445448,0.334978439269052,-0.119356316296859,LD
13.2333333333333,2.92970418930054,1.12630319595337,8.68862438201904,1.85214591026306,-0.274392008781433,0.175305992364883,-1243.5,-4.5,-851.700012207031,2.51808803091991,0.323314089322166,-0.131958134790815,LD
13.2666666666667,3.27722525596619,0.857138872146606,9.00265026092529,1.41006994247437,-0.3125019967556,0.167683988809586,-1253.10009765625,-5.10000038146973,-844.500061035156,2.50205803129118,0.348146504550219,-0.0974350330887231,LD
13.3,3.00746297836304,1.07785367965698,9.60677433013916,0.975615978240967,-0.129574000835419,-0.167683988809586,-1245.90002441406,-5.10000038146973,-856.500061035156,2.50623116991025,0.3020688803441,-0.11344072942444,LD
13.3333333333333,3.2245888710022,0.882260859012604,9.1982421875,0.92988395690918,-0.419209986925125,0.0381099991500378,-1255.5,-15.3000001907349,-839.700012207031,2.49914984494666,0.336206028503344,-0.0973830398928478,LD
13.3666666666667,2.8441698551178,0.74648243188858,9.48714542388916,0.365855991840363,0.274392008781433,-0.137196004390717,-1262.70007324219,-5.70000028610229,-844.500061035156,2.49359849034398,0.290301111349977,-0.0793665537614436,LD
13.4,2.71377468109131,0.922934591770172,9.46680927276611,0.304879993200302,0.487807989120483,-0.144817993044853,-1267.5,-5.10000038146973,-844.500061035156,2.49877976631885,0.277162193883483,-0.0976147214436242,LD
13.4333333333333,2.68984889984131,0.967197179794312,8.67367076873779,0.647870004177094,1.05183601379395,0.594515979290009,-1267.5,-9.30000019073486,-846.900024414062,2.4968113136044,0.29709473624039,-0.111687957907579,LD
13.4666666666667,2.55706119537354,0.879270195960999,8.68443775177002,0.396344006061554,1.56251001358032,1.09756803512573,-1248.30004882812,-6.30000019073486,-851.700012207031,2.48468679576206,0.282571746614522,-0.101047349174889,LD
13.5,2.66532516479492,0.890036761760712,8.80825328826904,0.182927995920181,1.2500079870224,1.12043392658234,-1255.5,-1.5,-849.300048828125,2.47592007539457,0.290390688459715,-0.100382456199627,LD
13.5333333333333,2.58816456794739,0.893625617027283,9.68273830413818,0.137196004390717,1.14329993724823,1.38720393180847,-1250.70007324219,-8.70000076293945,-854.100036621094,2.46275956114226,0.258551588587385,-0.0916301871649256,LD
13.5666666666667,2.56842589378357,0.723752975463867,9.83047962188721,-0.0990860015153885,0.381099998950958,1.47104597091675,-1245.90002441406,-1.5,-851.700012207031,2.44753992576768,0.254446869421837,-0.0727466358837087,LD
13.6,2.85194563865662,0.169872596859932,9.78442287445068,-0.975615978240967,0.0914639979600906,1.2347639799118,-1250.70007324219,-15.9000005722046,-854.100036621094,2.42510192838389,0.283344531283689,-0.0152573214994384,LD
13.6333333333333,2.50203204154968,0.410924226045609,9.54516506195068,-1.13567793369293,-0.205793991684914,0.586893975734711,-1255.5,-6.90000009536743,-849.300048828125,2.42993326468301,0.256684983734021,-0.0406328876653246,LD
13.6666666666667,2.00318074226379,0.504234552383423,9.21439266204834,0.327746003866196,1.21951997280121,1.50153398513794,-1265.10009765625,-5.10000038146973,-849.300048828125,2.42213383793001,0.212139324626248,-0.0545329449288757,LD
13.7,2.25141024589539,0.256603330373764,8.73886871337891,0.198172003030777,0.975615978240967,1.46342396736145,-1236.30004882812,1.5,-854.100036621094,2.40596025690047,0.250107203754873,-0.0292505266175774,LD
13.7333333333333,2.62644577026367,0.244640469551086,8.29325199127197,-0.167683988809586,0.129574000835419,1.05945801734924,-1243.5,3.30000019073486,-861.300048828125,2.39908623307566,0.305944714231256,-0.0286204949542961,LD
13.7666666666667,2.8962082862854,0.226696193218231,9.53978252410889,-0.693601965904236,-1.28049600124359,0.800309956073761,-1238.70007324219,-1.5,-856.500061035156,2.39339186452152,0.296998536840481,-0.0221809499171975,LD
13.8,3.03437924385071,0.0514402948319912,9.68333625793457,-0.396344006061554,-2.09605002403259,0.663114011287689,-1250.70007324219,-2.10000014305115,-846.900024414062,2.38422811382485,0.307288581390946,-0.0043298181757645,LD
13.8333333333333,3.38548922538757,-0.0245238617062569,8.82320690155029,-0.411587983369827,-1.82165801525116,-0.0304879993200302,-1253.10009765625,-4.5,-858.900024414062,2.38282614228085,0.36904695804704,0.0034164804618214,LD
13.8666666666667,3.20365381240845,0.0041870009154081,8.49961185455322,-0.137196004390717,-0.236281991004944,-0.190549999475479,-1255.5,-1.5,-854.100036621094,2.3857366504057,0.360930129659533,-0.0003479455807146,LD
13.9,2.35907578468323,0.413914948701859,9.45185565948486,0.236281991004944,1.07470202445984,-0.243903994560242,-1260.30004882812,-0.900000035762787,-849.300048828125,2.39967023666726,0.243447999579493,-0.0439146770780287,LD
13.9333333333333,3.48298645019531,0.111852735280991,9.09536170959473,-0.0609759986400604,-1.43293595314026,-0.556405961513519,-1262.70007324219,-0.900000035762787,-856.500061035156,2.39427610782451,0.367154000116956,-0.0128389012676066,LD
13.9666666666667,3.62355017662048,0.182433605194092,10.2521705627441,-0.396344006061554,-1.43293595314026,-0.663114011287689,-1253.10009765625,0.900000035762787,-856.500061035156,2.40145233531946,0.342339668969566,-0.0174987140410164,LD
14.0,3.07146406173706,0.596348524093628,8.76219654083252,0.67835795879364,0.396344006061554,0.0381099991500378,-1255.5,-0.900000035762787,-830.100036621094,2.41649411546759,0.335793642076345,-0.0687468094457464,LD
14.0333333333333,2.5857720375061,0.568235814571381,8.75142955780029,0.78506600856781,2.96495795249939,0.121951997280121,-1248.30004882812,3.30000019073486,-863.700012207031,2.4119924280508,0.282017582416941,-0.0660704545266457,LD
14.0666666666667,1.95951640605927,0.704014301300049,8.83397388458252,0.46494197845459,3.06404399871826,0.0228659994900227,-1257.90002441406,-6.30000019073486,-854.100036621094,2.41296990698912,0.21285681863663,-0.0801211812259852,LD
14.1,1.78904557228088,0.529954671859741,8.40809535980225,-0.0228659994900227,1.6615959405899,-0.259148001670837,-1236.30004882812,0.300000011920929,-858.900024414062,2.41045458918472,0.206377606205979,-0.063102493940937,LD
14.1333333333333,1.73102581501007,0.683079302310944,10.018895149231,-0.175305992364883,1.13567793369293,-0.579271972179413,-1233.90002441406,-0.300000011920929,-866.100036621094,2.41519739573732,0.168867140263595,-0.0678906454591803,LD
14.1666666666667,2.1652774810791,0.91276615858078,10.8975667953491,0.0457319989800453,-1.53964400291443,-0.640248000621796,-1245.90002441406,-14.1000003814697,-863.700012207031,2.42335958535999,0.197857627618215,-0.0838001741489681,LD
14.2,2.88903045654297,0.733921408653259,10.0942611694336,0.0838419944047928,-2.72105383872986,-0.46494197845459,-1253.10009765625,-2.10000014305115,-873.300048828125,2.42514707901923,0.282038436888672,-0.0731461733024093,LD
14.2333333333333,3.33823585510254,0.760239720344543,9.37589073181152,0.0304879993200302,-2.46190595626831,-0.87652999162674,-1245.90002441406,-10.5,-873.300048828125,2.43466979159693,0.344656946832272,-0.0815570663623066,LD
14.2666666666667,3.2628698348999,0.826035439968109,8.31837463378906,0.480185985565186,-1.265251994133,-1.00610399246216,-1238.70007324219,-2.70000004768372,-866.100036621094,2.44736008029338,0.373922750982282,-0.100427815941412,LD
14.3,2.59354782104492,0.886447906494141,9.61694240570068,0.754577994346619,0.518296003341675,-1.15092194080353,-1245.90002441406,-1.5,-854.100036621094,2.45106059189831,0.262192097693554,-0.0938061819118958,LD
14.3333333333333,2.77358889579773,1.02342259883881,9.54516506195068,0.990859985351562,-0.297257989645004,-0.937505960464478,-1238.70007324219,-6.90000009536743,-854.100036621094,2.45979125258798,0.28146688751022,-0.108921300818741,LD
14.3666666666667,2.71676540374756,0.96360832452774,9.46202373504639,1.13567793369293,-0.731711983680725,-0.533540010452271,-1248.30004882812,-7.50000047683716,-851.700012207031,2.46029853955047,0.279424613731386,-0.103809909586978,LD
14.4,2.75085949897766,0.906784772872925,9.13543796539307,0.708845973014832,-0.297257989645004,-0.434453994035721,-1243.5,-5.10000038146973,-856.500061035156,2.46116603704232,0.291516052657276,-0.10043100414108,LD
14.4333333333333,2.43025493621826,0.890036761760712,9.45664024353027,0.304879993200302,0.3125019967556,0.0685980021953583,-1243.5,-11.1000003814697,-870.900024414062,2.45827357614597,0.250189773311094,-0.0943636611413722,LD
14.4666666666667,2.07495808601379,0.869101762771606,9.57327842712402,0.403965979814529,0.724089980125427,0.655492007732391,-1245.90002441406,-2.70000004768372,-858.900024414062,2.45204170233731,0.211757810810093,-0.0909968155928593,LD
14.5,2.32438349723816,0.641209244728088,9.57268047332764,0.160062000155449,0.510673999786377,1.04421401023865,-1241.10009765625,-0.300000011920929,-851.700012207031,2.43917198418616,0.236720647297831,-0.0669114510237331,LD
14.5333333333333,2.38958120346069,0.664536833763123,9.48295879364014,0.0381099991500378,0.198172003030777,1.15092194080353,-1238.70007324219,-7.50000047683716,-849.300048828125,2.43193317786272,0.245985876783066,-0.069499277238329,LD
14.5666666666667,2.56902408599854,0.598142981529236,9.80296516418457,0.152439996600151,0.0228659994900227,1.47866797447205,-1253.10009765625,-8.10000038146973,-858.900024414062,2.41957526063136,0.255882775733992,-0.0606070363078742,LD
14.6,2.69044709205627,0.294884473085403,9.10433387756348,-0.167683988809586,-0.640248000621796,1.08994603157043,-1245.90002441406,-8.10000038146973,-858.900024414062,2.40507590468226,0.288107115263925,-0.0317750763625802,LD
14.6333333333333,2.35070180892944,0.46236452460289,9.99197864532471,0.289635986089706,0.335367977619171,1.08994603157043,-1233.90002441406,-14.1000003814697,-866.100036621094,2.40018355746128,0.230594307670139,-0.0462229724220937,LD
14.6666666666667,2.75684094429016,0.291893780231476,8.15149211883545,0.739333987236023,0.213415995240211,1.02897000312805,-1243.5,-3.90000009536743,-863.700012207031,2.3891690283541,0.324846437091948,-0.0365651506048875,LD
14.7,2.17484784126282,0.298473328351974,8.34947776794434,0.617381989955902,0.87652999162674,0.350611984729767,-1245.90002441406,-11.7000007629395,-856.500061035156,2.38528270079488,0.253560728042344,-0.0366343956379347,LD
14.7333333333333,1.62814521789551,0.736912131309509,9.98599720001221,0.952749967575073,0.830797970294952,0.419209986925125,-1226.70007324219,-8.70000076293945,-868.500061035156,2.38873918606433,0.160566817686783,-0.074874363311975,LD
14.7666666666667,2.11802434921265,0.521580696105957,8.81722545623779,0.945127964019775,-0.342989981174469,1.38720393180847,-1236.30004882812,-2.70000004768372,-861.300048828125,2.37525827130375,0.235478606873418,-0.0602948262567331,LD
14.8,2.99250936508179,0.0640012994408607,9.61813926696777,-0.579271972179413,-1.50153398513794,0.78506600856781,-1243.5,-1.5,-863.700012207031,2.35667263922694,0.303795075772874,-0.0056055918538338,LD
14.8333333333333,2.63781046867371,0.11484345048666,10.9884843826294,-0.693601965904236,-1.96647596359253,0.853663980960846,-1238.70007324219,-0.300000011920929,-863.700012207031,2.3531554592544,0.23955742830687,-0.0088557426462233,LD
14.8666666666667,3.18331694602966,-0.133385881781578,9.75690841674805,-0.358233988285065,-2.66770005226135,0.746955990791321,-1238.70007324219,-2.10000014305115,-844.500061035156,2.34233997266404,0.319325867500317,0.0145462253308821,LD
14.9,3.25928115844727,-0.2105463296175,8.4176664352417,-0.25152599811554,-0.724089980125427,0.0609759986400604,-1255.5,-8.70000076293945,-858.900024414062,2.33877427124242,0.370332657752811,0.025447284177639,LD
14.9333333333333,2.58098697662354,0.22968690097332,8.54207992553711,0.762199997901917,1.13567793369293,0.403965979814529,-1241.10009765625,-3.30000019073486,-851.700012207031,2.35164188940971,0.29201418877156,-0.0275549205829452,LD
14.9666666666667,2.32318735122681,0.307445496320724,9.66479396820068,1.40244793891907,0.411587983369827,1.45580196380615,-1238.70007324219,-3.90000009536743,-861.300048828125,2.34025613229738,0.235476014767218,-0.0335934462831075,LD
15.0,2.86331033706665,0.326586067676544,9.52004337310791,0.571649968624115,-0.556405961513519,0.967993974685669,-1233.90002441406,-5.70000028610229,-858.900024414062,2.33250487037802,0.292755155803891,-0.0347875828298185,LD
15.0333333333333,2.68506383895874,0.826035439968109,8.9954719543457,0.846041977405548,-0.518296003341675,0.861285984516144,-1245.90002441406,-5.70000028610229,-849.300048828125,2.34189332288402,0.289985386912063,-0.0921524154063953,LD
15.0666666666667,2.45118999481201,0.64838695526123,9.46441650390625,1.12043392658234,0.495429992675781,1.31098401546478,-1250.70007324219,-12.3000001907349,-856.500061035156,2.32495933007135,0.252463829540885,-0.0699290764948759,LD
15.1,2.49545240402222,0.453990519046783,9.92618274688721,0.152439996600151,0.937505960464478,0.365855991840363,-1243.5,-0.900000035762787,-858.900024414062,2.31603976142976,0.244511675982355,-0.0459897826618249,LD
15.1333333333333,2.27533578872681,0.629844546318054,10.0613632202148,0.190549999475479,0.335367977619171,-0.37347799539566,-1231.5,-11.1000003814697,-861.300048828125,2.32228273718838,0.221450232265527,-0.0629237251832677,LD
15.1666666666667,2.14015555381775,0.79373574256897,9.59959697723389,0.952749967575073,0.0152439996600151,-0.449698001146317,-1229.10009765625,-15.3000001907349,-854.100036621094,2.32855474683935,0.218560913537925,-0.0841865446719232,LD
15.2,2.18561434745789,0.931308627128601,8.98231315612793,1.10518991947174,-0.0457319989800453,-0.388722002506256,-1243.5,-2.10000014305115,-849.300048828125,2.33424473753865,0.237361919046296,-0.10528607520009,LD
15.2333333333333,2.27772831916809,1.17116391658783,8.87524509429932,1.09756803512573,-0.426831990480423,-0.320124000310898,-1238.70007324219,-8.70000076293945,-866.100036621094,2.34157748658336,0.249710080290556,-0.133052184898045,LD
15.2666666666667,2.39795517921448,1.05093717575073,7.76748466491699,1.09756803512573,-0.510673999786377,-0.205793991684914,-1224.30004882812,-6.30000019073486,-870.900024414062,2.34216290671927,0.2974494008097,-0.136524429922307,LD
15.3,2.67429733276367,1.24772620201111,9.52303409576416,0.952749967575073,-0.388722002506256,-0.670735955238342,-1233.90002441406,-6.90000009536743,-856.500061035156,2.34411263742171,0.272228342213736,-0.132315712885539,LD
15.3333333333333,2.95303177833557,1.44272089004517,9.73118782043457,1.14329993724823,-1.47866797447205,-0.846041977405548,-1245.90002441406,-9.30000019073486,-866.100036621094,2.35410113414103,0.29385210087645,-0.149653718725501,LD
15.3666666666667,3.24612188339233,1.29318511486053,10.0763168334961,0.92988395690918,-1.84452390670776,-0.769822001457214,-1243.5,-8.10000038146973,-854.100036621094,2.3529439413173,0.312146632132607,-0.129989133032181,LD
15.4,3.21023321151733,1.32608294487,9.57746505737305,0.236281991004944,-1.44055795669556,-0.914639949798584,-1243.5,-11.1000003814697,-863.700012207031,2.36233816645721,0.32274974282272,-0.138568641097928,LD
15.4333333333333,2.9021897315979,1.21482837200165,9.55772686004639,0.0304879993200302,-0.121951997280121,-0.571649968624115,-1243.5,-16.5,-849.300048828125,2.3625815631409,0.29291124328568,-0.126882787741697,LD
15.4666666666667,2.80768299102783,1.09101283550262,9.02358531951904,0.0609759986400604,0.868907988071442,0.0,-1238.70007324219,-1.5,-854.100036621094,2.35985195478687,0.298060704605765,-0.120417840434463,LD
15.5,2.36924433708191,1.11374223232269,8.63060474395752,0.0609759986400604,1.49391198158264,0.46494197845459,-1238.70007324219,-8.70000076293945,-844.500061035156,2.35700586545129,0.263469388513718,-0.128105008988964,LD
15.5333333333333,2.01275110244751,1.01684308052063,9.33880615234375,0.190549999475479,1.82927989959717,1.41769194602966,-1226.70007324219,-12.3000001907349,-856.500061035156,2.34086409827323,0.208541048795942,-0.108323806607362,LD
15.5666666666667,2.66412878036499,0.719565987586975,8.58574390411377,-0.426831990480423,0.914639949798584,1.32622802257538,-1231.5,-9.30000019073486,-858.900024414062,2.32529106636786,0.29797719656929,-0.0822786440437029,LD
15.6,2.16647386550903,0.904392182826996,9.52602481842041,-0.449698001146317,1.18903195858002,0.967993974685669,-1224.30004882812,-11.7000007629395,-861.300048828125,2.321291053133,0.221185352674689,-0.0933821490678938,LD
15.6333333333333,1.99660122394562,0.87986832857132,8.95300388336182,0.137196004390717,1.6615959405899,1.08994603157043,-1241.10009765625,-6.90000009536743,-858.900024414062,2.31283448536002,0.215724814526086,-0.0977034103651683,LD
15.6666666666667,1.84228038787842,0.654966533184052,9.46441650390625,-0.221037998795509,1.87501192092896,0.632625997066498,-1236.30004882812,-10.5,-861.300048828125,2.30206305845752,0.188836678881994,-0.0686898690768201,LD
15.7,1.47442245483398,0.748875021934509,9.35675048828125,-0.228659987449646,1.51677799224854,0.320124000310898,-1236.30004882812,-3.30000019073486,-866.100036621094,2.3009040700751,0.153376557655483,-0.0792970906313187,LD
15.7333333333333,1.49715185165405,0.507225215435028,9.91601371765137,-0.297257989645004,1.63110792636871,0.426831990480423,-1229.10009765625,-5.70000028610229,-866.100036621094,2.2932714493965,0.146899064206549,-0.0506537075066005,LD
15.7666666666667,1.85603761672974,0.364867210388184,9.60497951507568,-0.92988395690918,0.411587983369827,0.0685980021953583,-1233.90002441406,-9.30000019073486,-856.500061035156,2.29148928732965,0.189791352279235,-0.0363998153857559,LD
15.8,2.11024832725525,0.0376830063760281,9.45424747467041,-1.55488801002502,-0.213415995240211,-0.0152439996600151,-1224.30004882812,-8.70000076293945,-870.900024414062,2.28678788247837,0.219731237806302,-0.0015668397531792,LD
15.8333333333333,2.20834374427795,0.0041870009154081,10.0655498504639,-1.64635193347931,-0.632625997066498,-0.0609759986400604,-1212.30004882812,-6.30000019073486,-861.300048828125,2.28879148603116,0.21710115448056,0.0024010673641801,LD
15.8666666666667,2.46315264701843,0.0897214487195015,10.1953468322754,-1.03659200668335,-1.12043392658234,0.663114011287689,-1226.70007324219,-8.70000076293945,-866.100036621094,2.28806721608821,0.238828754591115,-0.0066386958818699,LD
15.9,2.77957034111023,-0.28710862994194,8.99487400054932,-0.640248000621796,-0.564027965068817,1.2423859834671,-1226.70007324219,-8.70000076293945,-866.100036621094,2.27032696193068,0.299977009450501,0.0333655703038434,LD
15.9333333333333,2.45238614082336,-0.318212062120438,8.73288726806641,-0.525918006896973,1.63872992992401,0.815553963184357,-1207.5,-7.50000047683716,-878.100036621094,2.26497078924609,0.270886689368888,0.0376779737931997,LD
15.9666666666667,2.02471399307251,-0.0795530155301094,9.69948673248291,-0.0685980021953583,2.62959003448486,1.02897000312805,-1209.90002441406,-12.3000001907349,-856.500061035156,2.26476107763294,0.201572917191236,0.0088465661949067,LD
16.0,2.30225229263306,-0.287706762552261,9.69769191741943,0.160062000155449,1.97409796714783,1.2347639799118,-1221.90002441406,-1.5,-878.100036621094,2.25130602770693,0.229349807297591,0.0297571694015404,LD
16.0333333333333,1.87757074832916,-0.0035888578277081,9.88550853729248,0.350611984729767,1.81403601169586,0.868907988071442,-1214.70007324219,-5.70000028610229,-885.300048828125,2.25109992194053,0.184894984402189,0.0002783061572627,LD
16.0666666666667,1.34342908859253,0.321800917387009,9.97403430938721,1.22714197635651,2.46190595626831,1.51677799224854,-1212.30004882812,1.5,-880.500061035156,2.24442368932341,0.130061880620749,-0.0337454279445741,LD
16.1,1.41101932525635,0.233873903751373,9.54636192321777,1.15092194080353,2.9268479347229,1.42531394958496,-1207.5,-4.5,-873.300048828125,2.23163697734952,0.14158143140405,-0.0261835485102651,LD
16.1333333333333,1.0916109085083,0.388792932033539,9.24190711975098,0.78506600856781,3.32319188117981,0.922261953353882,-1200.30004882812,-5.70000028610229,-887.700012207031,2.22591381455098,0.111985141937784,-0.0430646264073624,LD
16.1666666666667,0.291295617818832,0.818259596824646,9.63608360290527,1.2423859834671,4.09301376342773,1.04421401023865,-1202.70007324219,0.900000035762787,-887.700012207031,2.21795239070885,0.02349825667045,-0.0866494315046862,LD
16.2,0.494066089391708,0.699827253818512,9.25506591796875,1.18140995502472,3.88721990585327,1.17378795146942,-1193.10009765625,-8.70000076293945,-878.100036621094,2.20707844366338,0.0463879453228942,-0.0774933524660102,LD
16.2333333333333,0.64838695526123,0.770408153533936,9.60677433013916,0.632625997066498,3.10977602005005,0.472563982009888,-1183.5,-5.10000038146973,-885.300048828125,2.20204666910208,0.0617059226527548,-0.08102124553919,LD
16.2666666666667,0.333165645599365,1.18013608455658,9.92917346954346,1.02897000312805,2.69818782806396,0.449698001146317,-1166.70007324219,-6.90000009536743,-902.100036621094,2.19773687935584,0.0288537857034929,-0.119904459902855,LD
16.3,0.394176214933395,1.26746499538422,9.56669902801514,1.57775402069092,2.46190595626831,1.03659200668335,-1176.30004882812,-2.10000014305115,-887.700012207031,2.18821473698745,0.0367520127172631,-0.134288847193865,LD
16.3333333333333,0.582591235637665,1.04316139221191,9.46262168884277,1.2500079870224,2.15702605247498,0.990859985351562,-1169.10009765625,-5.70000028610229,-894.900024414062,2.17735765402274,0.05747604844137,-0.111963083594814,LD
16.3666666666667,0.397166937589645,1.23995041847229,9.18209266662598,0.952749967575073,1.6768399477005,0.442075997591019,-1169.10009765625,-9.30000019073486,-897.300048828125,2.17325713025905,0.0401255829748431,-0.135731339112543,LD
16.4,-0.335558205842972,1.34103655815125,10.3723974227905,1.02134799957275,2.24086785316467,1.01372599601746,-1171.5,-6.30000019073486,-890.100036621094,2.16438174269956,-0.0350995092775824,-0.130474972538063,LD
16.4333333333333,0.20755560696125,1.05691862106323,9.75930118560791,0.358233988285065,1.51677799224854,1.02897000312805,-1157.10009765625,-15.3000001907349,-892.500061035156,2.15528959343323,0.0184945231850304,-0.108553745252929,LD
16.4666666666667,-0.0598142966628075,1.30335354804993,9.72939395904541,0.0304879993200302,1.12805593013763,0.731711983680725,-1157.10009765625,-5.70000028610229,-890.100036621094,2.1490507843778,-0.0077263407461488,-0.133091146455682,LD
16.5,-0.315819501876831,1.23277270793915,9.53200626373291,0.541162014007568,1.47866797447205,1.49391198158264,-1161.90002441406,-9.30000019073486,-906.900024414062,2.13766418488107,-0.0348450990133136,-0.129687127157951,LD
16.5333333333333,-0.133385881781578,1.02581524848938,9.40220928192139,0.327746003866196,1.38720393180847,1.42531394958496,-1157.10009765625,-6.90000009536743,-894.900024414062,2.12734871313353,-0.0163868769673234,-0.109459222175645,LD
16.5666666666667,-0.214733332395554,1.04675018787384,9.3597412109375,-0.205793991684914,1.16616594791412,0.922261953353882,-1157.10009765625,-6.90000009536743,-892.500061035156,2.12005983534231,-0.0245732059722873,-0.111044618802859,LD
16.6,-0.580796837806702,0.992917358875275,9.34957313537598,-0.274392008781433,1.43293595314026,0.914639949798584,-1145.10009765625,-5.70000028610229,-880.500061035156,2.11287098172161,-0.0636903642804878,-0.105485024530708,LD
16.6333333333333,-0.733921408653259,0.854746282100677,9.55234336853027,-0.327746003866196,1.79117000102997,0.937505960464478,-1137.90002441406,-4.5,-887.700012207031,2.10606805368575,-0.0792375746010139,-0.0889349464841552,LD
16.6666666666667,-0.763230443000793,0.666929423809052,9.42613506317139,-0.503051996231079,1.79117000102997,0.594515979290009,-1147.5,-6.30000019073486,-897.300048828125,2.10231597098471,-0.0836018701972498,-0.0700185523982414,LD
16.7,-1.37094366550446,0.678294122219086,10.6511316299438,-0.518296003341675,2.0579400062561,0.762199997901917,-1142.70007324219,-7.50000047683716,-909.300048828125,2.09651319932208,-0.13086434860481,-0.0629528355594918,LD
16.7333333333333,-0.425279647111893,0.312828779220581,9.24968338012695,-1.07470202445984,0.0990860015153885,0.403965979814529,-1142.70007324219,-6.90000009536743,-887.700012207031,2.09574379829743,-0.0465513222616675,-0.032142649447044,LD
16.7666666666667,-0.451597929000854,0.260790348052979,9.24729061126709,-1.14329993724823,0.160062000155449,0.320124000310898,-1135.5,-3.30000019073486,-902.100036621094,2.09340182205833,-0.0490217278256037,-0.0262750244922647,LD
16.8,-0.496458679437637,0.236864611506462,8.73348522186279,-0.914639949798584,0.503051996231079,0.266770005226135,-1142.70007324219,-6.30000019073486,-906.900024414062,2.09102123817933,-0.0575804041095056,-0.0255506293833507,LD
16.8333333333333,-0.900205194950104,0.20097604393959,9.91661262512207,-0.480185985565186,1.20427596569061,0.685979962348938,-1140.30004882812,-7.50000047683716,-906.900024414062,2.08629138907608,-0.0923022347325903,-0.0195880767398486,LD
16.8666666666667,-0.277538329362869,-0.0376830063760281,9.25387001037598,-0.739333987236023,0.0533539988100529,0.533540010452271,-1135.5,-3.30000019073486,-914.100036621094,2.08389229534682,-0.0305886748490338,0.005128264635563,LD
16.9,-0.608311414718628,-0.0538328662514687,9.15039157867432,-1.00610399246216,0.0381099991500378,0.236281991004944,-1145.10009765625,-3.90000009536743,-911.700012207031,2.08198343310565,-0.066156694228716,0.0075921041797596,LD
16.9333333333333,-0.738706588745117,-0.0448607243597507,10.6463470458984,-0.693601965904236,0.0,0.716467976570129,-1137.90002441406,-2.10000014305115,-902.100036621094,2.07656333395024,-0.0692555772699399,0.0053561261528223,ST
16.9666666666667,-0.75545459985733,-0.28710862994194,10.7007780075073,-0.983237981796265,-0.670735955238342,0.632625997066498,-1135.5,-8.10000038146973,-902.100036621094,2.07321332601226,-0.069315556125656,0.0282724734957345,ST
17.0,-0.0807493031024933,-0.152526453137398,9.53619384765625,-0.846041977405548,-1.06708002090454,0.426831990480423,-1135.5,0.900000035762787,-909.300048828125,2.069575241787,-0.007130825901313,0.0175505553583646,ST
17.0333333333333,-0.996506214141846,0.116637878119946,9.26702880859375,0.746955990791321,1.32622802257538,1.41006994247437,-1133.10009765625,1.5,-906.900024414062,2.05841503186122,-0.108558614732703,-0.0138900632223219,ST
17.0666666666667,-1.36914920806885,0.07656230032444,9.29574012756348,1.02134799957275,2.61434602737427,1.44055795669556,-1133.10009765625,0.900000035762787,-916.500061035156,2.048972508797,-0.150568910692454,-0.0104200094329378,ST
17.1,-1.40144896507263,0.208153754472733,9.21798133850098,0.304879993200302,2.01982998847961,0.846041977405548,-1116.30004882812,-5.10000038146973,-897.300048828125,2.04093608140082,-0.154310188756201,-0.0232778435899858,ST
17.1333333333333,-1.36316788196564,0.354698777198792,9.1450080871582,0.342989981174469,1.59299790859222,0.46494197845459,-1111.5,-2.70000004768372,-906.900024414062,2.03528867801398,-0.150639528902423,-0.0393721599389204,ST
17.1666666666667,-1.42058956623077,0.407335370779037,9.33880615234375,0.83841997385025,1.86738991737366,0.297257989645004,-1121.10009765625,-5.70000028610229,-916.500061035156,2.03271661931999,-0.154023205305314,-0.0451083250140922,ST
17.2,-1.26567053794861,0.546104550361633,9.6701774597168,0.800309956073761,1.02134799957275,-0.411587983369827,-1121.10009765625,-2.70000004768372,-918.900024414062,2.03412254899794,-0.131942464175995,-0.0576244918031181,ST
17.2333333333333,-0.82962429523468,0.650779545307159,9.29574012756348,0.472563982009888,0.25152599811554,-1.38720393180847,-1121.10009765625,-2.10000014305115,-906.900024414062,2.04243668946043,-0.0897513283313073,-0.0703956308219043,ST
17.2666666666667,-1.55696618556976,0.999496877193451,9.56071758270264,1.12805593013763,0.403965979814529,-1.44817996025085,-1113.90002441406,-3.30000019073486,-904.500061035156,2.04972156869086,-0.161198615849925,-0.105571962280861,ST
17.3,-2.28610253334045,1.17654716968536,10.8712482452393,1.71494996547699,0.442075997591019,-1.08994603157043,-1123.5,0.900000035762787,-914.100036621094,2.05816345030646,-0.206699982742866,-0.110384533854689,ST
17.3333333333333,-1.09340536594391,1.02103006839752,9.48894023895264,1.6615959405899,-0.205793991684914,-0.807931959629059,-1116.30004882812,6.90000009536743,-899.700012207031,2.06546263488704,-0.114629301501281,-0.109922284292309,ST
17.3666666666667,-1.31950342655182,1.21961355209351,9.66957950592041,1.58537602424622,-0.533540010452271,-0.388722002506256,-1111.5,-2.70000004768372,-914.100036621094,2.06773123838551,-0.133574709387226,-0.127978766344591,ST
17.4,-1.48638522624969,1.19209897518158,9.46680927276611,1.40244793891907,-0.670735955238342,-0.0533539988100529,-1123.5,-3.30000019073486,-914.100036621094,2.07015340076504,-0.153226786159971,-0.12767867711766,ST
17.4333333333333,-0.954038023948669,0.806894838809967,9.28975868225098,0.884151995182037,-0.190549999475479,0.0076219998300075,-1113.90002441406,-7.50000047683716,-918.900024414062,2.07591799244735,-0.102048777607122,-0.0885038150146271,ST
17.4666666666667,-1.47382426261902,0.828428030014038,9.38725566864014,0.289635986089706,0.236281991004944,-0.442075997591019,-1111.5,-7.50000047683716,-897.300048828125,2.07908369729071,-0.155178185437627,-0.0884159676381613,ST
