seconds,sensor_accX_m_s_,sensor_accY_m_s_,sensor_accZ_m_s_,sensor_gyroX___s_,sensor_gyroY___s_,sensor_gyroZ___s_,sensor_magX__T_,sensor_magY__T_,sensor_magZ__T_,sensor_yaw___,sensor_pitch___,sensor_roll___,label1
0.0,-2.567229748,-1.68257618,8.624025345,-0.045731999,0.693601966,0.396344006,-722.7000122,173.7000122,-1000.500061,-1.86629751,-0.286837815,0.185992025,ST
0.033333333,-2.690447092,-1.79084003,9.248486519,0.060975999,1.257629991,-0.060975999,-715.5,171.3000031,-1010.100037,-1.864374591,-0.281566572,0.190306484,ST
0.066666667,-2.774187088,-1.811176896,8.813038826,0.571649969,0.167683989,-0.076219998,-703.5,176.7000122,-1014.900024,-1.861051151,-0.296177587,0.199695609,ST
0.1,-2.607903242,-1.916450024,8.946424484,0.754577994,1.592997909,0.182927996,-708.3000488,172.5,-1010.100037,-1.857707961,-0.28293825,0.208208203,ST
0.133333333,-2.950639248,-1.660444856,9.438695908,0.975615978,1.501533985,0.213415995,-698.7000122,175.5,-1014.900024,-1.865046511,-0.297639214,0.179700151,ST
0.166666667,-2.945854187,-1.681977987,9.306506157,0.83079797,0.335367978,0.739333987,-713.1000366,177.3000031,-1014.900024,-1.866663834,-0.301853897,0.177473665,ST
0.2,-2.904582262,-1.57191968,8.52413559,0.975615978,0.144817993,0.373477995,-708.3000488,177.9000092,-1014.900024,-1.865981057,-0.319801507,0.17992371,ST
0.233333333,-2.935685635,-1.562349439,8.976331711,0.80793196,0.983237982,0.564027965,-703.5,177.3000031,-1007.700012,-1.868579884,-0.314746066,0.172444145,ST
0.266666667,-3.088212252,-1.54619956,8.879432678,0.487807989,0.213415995,0.640248001,-698.7000122,173.1000061,-1005.300049,-1.86990291,-0.327817277,0.171426128,ST
0.3,-3.234757185,-1.489974141,8.813038826,0.358233988,-0.236281991,0.815553963,-713.1000366,180.3000031,-1010.100037,-1.87286993,-0.343418797,0.1673086,ST
0.333333333,-3.066080809,-1.531245947,8.766981125,0.251525998,-0.030487999,0.975615978,-698.7000122,174.9000092,-1019.700012,-1.873601583,-0.334180654,0.171022683,ST
0.366666667,-3.025407076,-1.551582813,9.081007004,0.121951997,-0.480185986,1.059458017,-705.9000244,179.1000061,-1024.5,-1.876651785,-0.32029329,0.16889086,ST
0.4,-2.92312479,-1.524068236,8.770570755,0.396344006,-0.647870004,0.91463995,-691.5,179.1000061,-1010.100037,-1.878207544,-0.317120098,0.170443082,ST
0.433333333,-3.012846231,-1.446309686,9.13364315,0.396344006,0.0,0.884151995,-705.9000244,181.5,-1014.900024,-1.883659071,-0.315552178,0.158459237,ST
0.466666667,-2.985331535,-1.410421133,9.060071945,0.434453994,-0.335367978,0.891773999,-698.7000122,174.9000092,-1007.700012,-1.886850044,-0.314623508,0.154094701,ST
0.5,-2.837590218,-1.453487396,8.934461594,0.350611985,-0.144817993,0.876529992,-693.9000244,173.7000122,-1012.500061,-1.887070945,-0.305956749,0.158946386,ST
0.533333333,-2.988322258,-1.370943666,9.293945313,0.503051996,0.236281991,0.632625997,-703.5,182.7000122,-1017.300049,-1.89131867,-0.308027344,0.148010387,ST
0.566666667,-2.95123744,-1.355391979,9.192260742,0.647870004,-0.236281991,0.762199998,-693.9000244,176.1000061,-998.1000366,-1.893367831,-0.30747119,0.145468081,ST
0.6,-2.979948282,-1.388289809,8.819020271,0.480185986,-0.190549999,0.373477995,-693.9000244,175.5,-998.1000366,-1.891538231,-0.319018762,0.153129026,ST
0.633333333,-3.176737309,-1.345223546,9.09536171,0.213415995,-0.175305992,0.571649969,-703.5,176.7000122,-1007.700012,-1.894456027,-0.329796533,0.147535055,ST
0.666666667,-2.940470934,-1.360177159,8.93386364,0.259148002,-0.42683199,0.815553963,-703.5,172.5,-1014.900024,-1.89554787,-0.317044357,0.149644181,ST
0.7,-2.932096958,-1.330269933,9.036744118,0.411587983,-0.038109999,0.586893976,-703.5,176.7000122,-1010.100037,-1.897751605,-0.311831061,0.145916539,ST
0.733333333,-3.101969481,-1.326681137,9.064258575,0.365855992,-0.099086002,0.464941978,-691.5,175.5,-1002.900024,-1.898957681,-0.323831321,0.144687118,ST
0.766666667,-3.08282876,-1.324288487,8.979322433,0.251525998,-0.289635986,0.40396598,-703.5,174.9000092,-1010.100037,-1.899511076,-0.326457272,0.145540982,ST
0.8,-3.026005268,-1.338045835,9.100745201,0.342989981,-0.083841994,0.53354001,-701.1000366,171.9000092,-1002.900024,-1.900559869,-0.319547163,0.145163767,ST
0.833333333,-3.049931049,-1.379317641,9.063660622,0.304879993,-0.259148002,0.556405962,-696.3000488,176.7000122,-1005.300049,-1.900373276,-0.320588555,0.149144009,ST
0.866666667,-2.984135389,-1.312325716,8.748438835,0.198172003,-0.457319975,0.365855992,-698.7000122,176.1000061,-1005.300049,-1.901380926,-0.323830725,0.148470052,ST
0.9,-3.109745264,-1.29198885,9.030762672,0.350611985,0.373477995,0.327746004,-698.7000122,177.9000092,-1019.700012,-1.903678661,-0.328400181,0.142455174,ST
0.933333333,-3.075651169,-1.341036558,9.068445206,0.373477995,0.121951997,0.464941978,-691.5,182.7000122,-1010.100037,-1.903501226,-0.324816299,0.145288717,ST
0.966666667,-3.138456106,-1.281222224,8.948817253,0.266770005,-0.342989981,0.442075998,-703.5,174.3000031,-1002.900024,-1.905352196,-0.331886101,0.142225287,ST
1.0,-3.154007912,-1.302157283,8.855506897,0.213415995,-0.282013983,0.388722003,-693.9000244,176.1000061,-1012.500061,-1.905327035,-0.337306232,0.14483847,ST
1.033333333,-3.086417675,-1.356588244,9.051697731,0.167683989,-0.289635986,0.442075998,-684.3000488,165.9000092,-1017.300049,-1.905372647,-0.327359462,0.147513748,ST
1.066666667,-2.990116596,-1.348812342,8.908740997,0.304879993,-0.457319975,0.205793992,-693.9000244,177.9000092,-1010.100037,-1.905216907,-0.321231438,0.149158273,ST
1.1,-3.067875385,-1.311727524,9.076221466,0.472563982,-0.205793992,0.129574001,-693.9000244,174.9000092,-1005.300049,-1.906895325,-0.322268462,0.143855507,ST
1.133333333,-3.106754541,-1.330269933,9.069044113,0.335367978,-0.289635986,0.449698001,-705.9000244,174.3000031,-1014.900024,-1.907479398,-0.325568084,0.144587225,ST
1.166666667,-2.947050333,-1.381112099,8.88122654,0.29725799,-0.464941978,0.411587983,-701.1000366,177.3000031,-1002.900024,-1.906055147,-0.318048078,0.151692399,ST
1.2,-3.072062254,-1.346419811,9.061865807,0.312501997,-0.228659987,0.274392009,-684.3000488,169.5,-1007.700012,-1.907730514,-0.322179452,0.147770739,ST
1.233333333,-3.217411041,-1.349410534,8.950611115,0.304879993,-0.61738199,0.42683199,-691.5,173.1000061,-1017.300049,-1.908428204,-0.337476816,0.148620007,ST
1.266666667,-3.020622015,-1.36735487,8.73827076,0.243903995,-0.884151995,0.388722003,-686.7000122,179.1000061,-1012.500061,-1.907836358,-0.329654775,0.153304758,ST
1.3,-2.946452379,-1.36256969,9.105530739,0.228659987,-0.571649969,0.259148002,-693.9000244,169.5,-1005.300049,-1.909771424,-0.313007937,0.149021996,ST
1.333333333,-2.98892045,-1.376925111,9.03973484,0.396344006,-0.891773999,0.114329994,-703.5,167.7000122,-1005.300049,-1.909707711,-0.314131809,0.150062601,ST
1.366666667,-3.038566351,-1.406234145,8.804664612,0.388722003,-1.028970003,0.29725799,-703.5,179.1000061,-1007.700012,-1.908567722,-0.324209254,0.15594239,ST
1.4,-2.950041056,-1.466646552,9.030164719,0.182927996,-0.792688012,0.556405962,-708.3000488,179.1000061,-1005.300049,-1.908841859,-0.313281692,0.159481801,ST
1.433333333,-2.770598173,-1.534834862,9.083398819,0.221037999,-1.028970003,0.548784018,-698.7000122,171.9000092,-1012.500061,-1.908593378,-0.294351081,0.165434298,ST
1.466666667,-2.740691185,-1.545601487,9.055884361,0.525918007,-0.564027965,0.198172003,-715.5,176.1000061,-1010.100037,-1.908298765,-0.289905766,0.167550216,ST
1.5,-2.743083715,-1.586275101,9.315478325,0.556405962,-0.472563982,0.228659987,-708.3000488,180.9000092,-1007.700012,-1.90861093,-0.283413472,0.167542353,ST
1.533333333,-2.736504078,-1.551582813,9.173120499,0.571649969,-0.83079797,0.327746004,-708.3000488,176.7000122,-1017.300049,-1.909558162,-0.284485802,0.16655633,ST
1.566666667,-2.859123468,-1.659846783,9.022388458,0.259148002,-1.707327962,0.335367978,-710.7000122,175.5,-1012.500061,-1.907430689,-0.296309433,0.178194893,ST
1.6,-2.936882019,-1.668220758,9.075025558,0.251525998,-2.25611186,0.320124,-708.3000488,168.3000031,-1017.300049,-1.908321037,-0.30310525,0.180527196,ST
1.633333333,-2.665923119,-1.872187495,9.228748322,0.312501997,-4.306429863,0.266770005,-717.9000244,164.1000061,-1010.100037,-1.906249995,-0.275152762,0.195563758,ST
1.666666667,-2.78435564,-2.011554718,9.250879288,0.282013983,-6.844555855,-0.320124,-751.5,166.5,-1019.700012,-1.904668224,-0.274407377,0.209934853,ST
1.7,-2.217315912,-1.6472857,8.150296211,0.754577994,-8.658592224,-1.318606019,-763.5,165.3000031,-1017.300049,-1.90786694,-0.250519657,0.200054305,ST
1.733333333,-1.737007141,-1.734016418,8.832777023,0.320124,-7.583889961,-0.678357959,-789.9000244,163.5,-1010.100037,-1.91078949,-0.192136045,0.194427755,ST
1.766666667,-0.987534046,-1.934992552,8.996668816,0.282013983,-7.759195805,-0.655492008,-792.3000488,162.9000092,-1010.100037,-1.910714505,-0.113307779,0.20783661,ST
1.8,-0.357091367,-1.963703394,9.281982422,0.663114011,-6.333881855,-1.23476398,-809.1000366,164.1000061,-1000.500061,-1.910845916,-0.043873161,0.207450462,ST
1.833333333,-0.081347443,-1.875178218,9.766478539,0.967993975,-5.564059734,-1.42531395,-828.3000488,163.5,-1000.500061,-1.910466719,-0.006320731,0.191487117,ST
1.866666667,0.232677609,-2.121015072,9.697093964,0.884151995,-6.036623955,-1.524399996,-840.3000488,157.5,-998.1000366,-1.909959198,0.027479406,0.210046504,ST
1.9,0.202770472,-1.726838708,8.8890028,0.868907988,-4.237832069,-2.843005896,-849.9000244,159.3000031,-998.1000366,-1.904823976,0.030061444,0.193789025,ST
1.933333333,1.227389336,-1.756147742,9.864573479,1.250007987,-1.814036012,-1.547266006,-854.7000122,161.1000061,-1002.900024,-1.900903675,0.109489008,0.177206775,ST
1.966666667,0.713584542,-1.558760524,9.355554581,1.295740008,-1.676839948,-2.530503988,-852.3000488,155.7000122,-1002.900024,-1.894668651,0.084212907,0.165101552,ST
2.0,0.489280939,-1.162191749,10.42024899,0.670735955,2.164648056,-1.272873998,-852.3000488,159.9000092,-1000.500061,-1.887762097,0.05008032,0.119007094,ST
2.033333333,0.087927014,-1.323690414,10.73427391,0.358233988,3.323191881,0.106707998,-835.500061,158.1000061,-995.7000122,-1.887189536,0.01197122,0.121445806,ST
2.066666667,-0.422288924,-0.756650865,9.715636253,1.55488801,6.387235641,-0.350611985,-825.9000244,160.5,-1007.700012,-1.885357763,-0.040978575,0.08441081,ST
2.1,-1.201669216,-0.533543527,10.12476635,2.050318003,7.804927826,0.396344006,-821.1000366,157.5,-1005.300049,-1.886890835,-0.116392232,0.055051171,ST
2.133333333,-2.033087969,-0.352306217,8.713149071,2.675322056,8.132674217,0.838419974,-782.7000122,161.7000122,-1000.500061,-1.889610726,-0.221950097,0.038909102,ST
2.166666667,-2.792729616,0.041271865,9.729991913,2.400929928,9.611341476,1.440557957,-746.7000122,161.7000122,-1000.500061,-1.900944171,-0.283048009,-0.000408835,ST
2.2,-3.197074175,0.459971935,9.065454483,2.103672028,7.218033791,1.836901903,-732.3000488,165.3000031,-1007.700012,-1.918160238,-0.339737756,-0.046195577,ST
2.233333333,-3.104362011,0.655564725,8.31418705,1.8292799,6.029001713,2.035073996,-729.9000244,169.5,-998.1000366,-1.93210817,-0.361206784,-0.075919099,ST
2.266666667,-3.354385853,0.541917503,9.294543266,0.678357959,4.077769756,1.326228023,-715.5,156.9000092,-995.7000122,-1.93069598,-0.354469626,-0.063547353,ST
2.3,-3.250906944,0.495262384,9.037342072,0.282013983,2.057940006,0.510674,-703.5,164.7000122,-990.9000244,-1.929663865,-0.34959607,-0.057227373,ST
2.333333333,-3.161185503,0.424083352,8.586342812,-0.449698001,1.432935953,-0.373477995,-698.7000122,159.3000031,-993.3000488,-1.926774528,-0.354066553,-0.0497679,ST
2.366666667,-3.367544889,-0.014355431,9.157568932,-0.952749968,1.105189919,-1.326228023,-701.1000366,165.9000092,-998.1000366,-1.909256876,-0.354372507,-0.005517536,ST
2.4,-3.475210667,0.116039738,8.585743904,-1.326228023,1.265251994,-2.080806017,-701.1000366,170.7000122,-986.1000366,-1.906867637,-0.381374085,-0.009044551,ST
2.433333333,-3.741384268,-0.138171032,8.753822327,-1.440557957,2.19513607,-1.478667974,-679.5,166.5,-981.3000488,-1.895938586,-0.402988173,0.014292711,ST
2.466666667,-4.43642664,-0.084936298,8.497219086,-1.028970003,2.736297846,-2.179892063,-693.9000244,157.5,-988.500061,-1.892290916,-0.471056043,0.013854663,ST
2.5,-5.084813595,-0.061608724,9.045118332,-0.907018006,4.047281742,-2.134160042,-677.1000366,162.9000092,-981.3000488,-1.890092431,-0.509449883,0.011191164,ST
2.533333333,-4.926305294,-0.485093951,9.148596764,-0.746955991,2.461905956,-2.774407864,-677.1000366,168.3000031,-966.9000244,-1.867436719,-0.499951201,0.047875798,ST
2.566666667,-5.261863708,-0.116637878,8.202334404,-0.922261953,1.120433927,-3.163130045,-672.3000488,170.7000122,-964.500061,-1.8735842,-0.558458419,0.024934288,ST
2.6,-5.306126118,0.037084863,7.861392975,-1.585376024,1.410069942,-0.846041977,-677.1000366,161.7000122,-978.9000244,-1.885568091,-0.589873464,0.00350586,ST
2.633333333,-4.175037861,-0.769810021,8.280093193,-1.486289978,0.693601966,-0.838419974,-665.1000366,165.9000092,-974.1000366,-1.84690998,-0.491605897,0.078659214,ST
2.666666667,-4.695422173,-0.857737005,8.698195457,-1.051836014,-0.975615978,-3.780511856,-667.5,165.3000031,-969.3000488,-1.831192679,-0.490864686,0.098541521,ST
2.7,-4.341919899,-0.852951884,9.24968338,-1.051836014,-1.021348,-3.147886038,-665.1000366,174.3000031,-957.3000488,-1.826840081,-0.446202391,0.096814897,ST
2.733333333,-3.436331272,-1.079049945,8.365029335,-1.440557957,-0.564027965,-1.775925994,-667.5,170.1000061,-969.3000488,-1.812360527,-0.395736854,0.126302997,ST
2.766666667,-4.460950375,-1.296773911,7.976834774,-1.219519973,1.760681987,-2.25611186,-674.7000122,173.1000061,-962.1000366,-1.795182855,-0.48438512,0.157320522,ST
2.8,-5.273826599,-1.554573536,8.567799568,-0.952749968,2.317087889,-1.173787951,-665.1000366,171.3000031,-959.7000122,-1.783307236,-0.535326281,0.177508925,ST
2.833333333,-5.325864792,-1.738801599,8.993079185,-0.579271972,1.356715918,-0.907018006,-660.3000488,170.1000061,-954.9000244,-1.775082789,-0.529887879,0.190392185,ST
2.866666667,-4.2264781,-2.497844934,9.18927002,-0.373477995,-0.083841994,-1.432935953,-667.5,174.9000092,-974.1000366,-1.743624652,-0.439935732,0.252587865,ST
2.9,-3.893312693,-2.399151564,8.915919304,-0.487807989,-0.541162014,-0.929883957,-665.1000366,170.7000122,-964.500061,-1.738541192,-0.405724461,0.262115652,ST
2.933333333,-2.478704453,-2.917143345,7.616154671,-0.266770005,0.365855992,0.564027965,-667.5,169.5,-957.3000488,-1.70896474,-0.314688577,0.349239044,ST
2.966666667,-3.877760887,-3.107352734,8.232839584,-0.602137983,2.164648056,-0.335367978,-662.7000122,169.5,-974.1000366,-1.703410661,-0.397407886,0.359985932,ST
3.0,-4.548877239,-3.750356436,8.26095295,-1.158543944,2.096050024,1.013725996,-665.1000366,171.9000092,-954.9000244,-1.681600633,-0.456871343,0.416402407,ST
3.033333333,-5.253489494,-3.543398857,8.418862343,-0.61738199,2.721053839,1.379581928,-655.5,170.7000122,-964.500061,-1.689319899,-0.515425818,0.402298783,ST
3.066666667,-4.734899998,-3.188700199,7.90505743,-0.015244,1.951231956,1.897877932,-655.5,171.3000031,-952.500061,-1.699665206,-0.512128358,0.385755424,ST
3.1,-4.383790016,-2.761028051,9.184485435,0.586893976,1.12805593,1.935987949,-645.9000244,175.5,-954.9000244,-1.738829272,-0.446253182,0.306330383,ST
3.133333333,-3.819741011,-2.98892045,7.549760818,0.83079797,0.952749968,2.423795938,-641.1000366,173.7000122,-952.500061,-1.718189157,-0.443458821,0.362602898,ST
3.166666667,-5.213414192,-1.76990509,8.191568375,0.754577994,3.117398024,1.676839948,-643.5,167.7000122,-952.500061,-1.777887361,-0.54318421,0.237865243,ST
3.2,-4.178627014,-2.368047953,6.890008926,1.219519973,3.231727839,3.292703867,-641.1000366,171.9000092,-950.1000366,-1.742934445,-0.530536793,0.312908049,ST
3.233333333,-5.326463223,-2.134174109,8.083902359,1.257629991,3.879597902,2.035073996,-638.7000122,174.9000092,-945.3000488,-1.767820136,-0.566923075,0.265480019,ST
3.266666667,-4.611083984,-1.678987265,7.626322746,2.827761889,2.728675842,2.385685921,-626.7000122,173.1000061,-954.9000244,-1.792066448,-0.543722722,0.219133154,ST
3.3,-5.492148876,-1.312923789,6.956402779,2.972579956,2.538125992,1.410069942,-643.5,168.9000092,-933.3000488,-1.806989683,-0.640198443,0.188627441,ST
3.333333333,-5.545383453,-2.05701375,7.779447556,1.913121939,2.248489857,0.708845973,-621.9000244,171.9000092,-935.7000122,-1.773464497,-0.614318527,0.241964141,ST
3.366666667,-5.401829243,-2.180829287,8.149100304,1.463423967,0.61738199,-0.160062,-607.5,168.9000092,-945.3000488,-1.763129054,-0.579363674,0.255939527,ST
3.4,-4.828808308,-1.844672918,7.653837681,1.699705958,-0.442075998,1.265251994,-619.5,162.9000092,-942.9000244,-1.773890579,-0.555879969,0.236838704,ST
3.433333333,-4.620654583,-2.225091934,8.158071518,1.265251994,-0.396344006,2.042695999,-617.1000366,164.7000122,-942.9000244,-1.766213281,-0.511550835,0.257114926,ST
3.466666667,-4.475903988,-2.005573273,7.842252731,1.349093914,-0.868907988,1.714949965,-614.7000122,164.7000122,-940.500061,-1.772723559,-0.505823082,0.248396074,ST
3.5,-4.945446014,-1.866804242,7.378691673,1.135677934,-0.099086002,2.446661949,-619.5,168.3000031,-954.9000244,-1.77823019,-0.562675738,0.244328794,ST
3.533333333,-5.12070179,-1.378719568,8.438002586,1.532021999,0.205793992,2.751541853,-624.3000488,161.7000122,-935.7000122,-1.820397529,-0.544742257,0.171049572,ST
3.566666667,-4.864098549,-0.839792728,7.620341301,2.591480017,0.922261953,2.439039946,-624.3000488,170.1000061,-930.9000244,-1.851263298,-0.563568601,0.115055394,ST
3.6,-6.342110157,-0.273949474,7.221380234,1.859767914,1.707327962,2.157026052,-629.1000366,160.5,-940.500061,-1.890557049,-0.69130715,0.05054013,ST
3.633333333,-6.453364372,-0.115441591,7.705875874,-0.076219998,1.120433927,3.315569878,-631.5,160.5,-945.3000488,-1.916986912,-0.697678064,0.018460975,ST
3.666666667,-5.771481514,0.442625791,8.827393532,0.625003994,0.068598002,2.408551931,-621.9000244,158.1000061,-935.7000122,-1.956242811,-0.602712301,-0.040433514,ST
3.7,-3.689944029,-0.513804793,7.637089252,0.564027965,-0.922261953,2.103672028,-614.7000122,169.5,-935.7000122,-1.915007089,-0.475849248,0.047045297,ST
3.733333333,-4.492651939,-0.857138872,7.719633102,-0.038109999,-0.541162014,-0.960371971,-633.9000244,155.1000061,-947.7000122,-1.888855666,-0.513892223,0.098241986,ST
3.766666667,-6.683051586,-0.089721449,9.44168663,0.625003994,0.350611985,0.365855992,-595.5,161.7000122,-945.3000488,-1.926181878,-0.596130507,0.027373762,ST
3.8,-5.355772018,-0.696238399,7.908646584,1.006103992,0.236281991,1.371959925,-590.7000122,163.5,-942.9000244,-1.900632561,-0.59450957,0.075491272,ST
3.833333333,-6.326558113,-0.168676317,7.177715778,1.036592007,1.310984015,1.455801964,-614.7000122,158.1000061,-945.3000488,-1.929431669,-0.702831244,0.030025718,ST
3.866666667,-6.837970257,-0.153722748,7.473796368,0.327746004,1.798792005,1.387203932,-605.1000366,162.3000031,-947.7000122,-1.93760827,-0.73576813,0.020406406,ST
3.9,-6.409699917,-0.233873904,8.457741737,0.0,-0.327746004,1.288118005,-593.1000366,164.1000061,-940.500061,-1.937046099,-0.665524347,0.024875547,ST
3.933333333,-4.521362782,-0.794932008,6.667499542,0.472563982,-2.317087889,0.838419974,-607.5,165.3000031,-945.3000488,-1.893162013,-0.602774812,0.101014431,ST
3.966666667,-5.672788143,-1.355391979,6.46951437,-0.93750596,-0.708845973,-0.777444005,-614.7000122,160.5,-950.1000366,-1.840577403,-0.68935332,0.188416677,ST
4.0,-5.685946941,-1.166976929,7.903263092,-0.632625997,-0.983237982,0.823175967,-602.7000122,166.5,-938.1000366,-1.865104566,-0.629259198,0.153198728,ST
4.033333333,-5.62433815,-0.932504892,7.576078892,0.327746004,-0.510674,1.42531395,-617.1000366,159.3000031,-957.3000488,-1.883038835,-0.633449873,0.126722258,ST
4.066666667,-5.776865005,-0.525767684,7.086797714,0.259148002,0.579271972,2.057940006,-595.5,161.1000061,-940.500061,-1.913197288,-0.673845681,0.082516855,ST
4.1,-6.435420036,-0.772202551,7.417571068,-0.503051996,0.785066009,1.288118005,-624.3000488,161.7000122,-954.9000244,-1.905643514,-0.706876063,0.099341724,ST
4.133333333,-6.553852558,-0.696836591,7.354765892,-1.105189919,0.007622,1.387203932,-609.9000244,159.9000092,-945.3000488,-1.912345165,-0.722068102,0.095327335,ST
4.166666667,-5.77088356,-0.883457184,7.723222256,-1.242385983,0.327746004,1.600619912,-614.7000122,161.7000122,-938.1000366,-1.907399682,-0.654218548,0.110832299,ST
4.2,-6.242818356,-1.038376212,7.201043129,-0.350611985,0.480185986,0.53354001,-624.3000488,161.1000061,-933.3000488,-1.892333035,-0.700144884,0.137181037,ST
4.233333333,-6.971954346,-0.947458446,7.073638916,-0.503051996,0.586893976,0.708845973,-619.5,156.9000092,-950.1000366,-1.896534395,-0.761509161,0.133873277,ST
4.266666667,-6.990497112,-0.853550017,7.377495289,-0.579271972,0.327746004,1.006103992,-631.5,162.3000031,-933.3000488,-1.91032442,-0.756881551,0.117825983,ST
4.3,-6.439607143,-0.506627083,6.979730129,0.015244,0.365855992,0.434453994,-621.9000244,152.7000122,-940.500061,-1.936135472,-0.747136222,0.080972835,ST
4.333333333,-6.677070141,-0.509617805,6.581367016,0.40396598,0.579271972,0.015244,-617.1000366,156.9000092,-950.1000366,-1.937844023,-0.783583121,0.077492598,ST
4.366666667,-6.716547489,-0.773997009,6.690228939,-0.449698001,-0.076219998,-0.701223969,-631.5,153.9000092,-930.9000244,-1.914409746,-0.783798504,0.110084646,ST
4.4,-6.542487621,-0.89422375,6.892401695,-0.114329994,-0.518296003,0.007622,-612.3000488,162.3000031,-921.3000488,-1.903772197,-0.759573979,0.125797078,ST
4.433333333,-6.362446785,-0.983347058,7.134649277,0.42683199,-1.105189919,0.388722003,-641.1000366,162.3000031,-930.9000244,-1.89858211,-0.728099785,0.133847399,ST
4.466666667,-6.373213291,-0.690855145,6.614264965,0.434453994,-1.242385983,0.53354001,-624.3000488,156.3000031,-938.1000366,-1.916783271,-0.756405543,0.107699734,ST
4.5,-6.836774349,-0.337950766,7.09277916,0.739333987,-0.106707998,1.371959925,-629.1000366,156.3000031,-926.1000366,-1.952859817,-0.764564266,0.056974693,ST
4.533333333,-6.338521004,-0.268566191,7.189080238,0.449698001,-0.365855992,2.446661949,-631.5,151.5,-928.500061,-1.969587497,-0.730430063,0.037454957,ST
4.566666667,-5.916830063,-0.797324598,7.760306835,1.006103992,0.099086002,0.190549999,-631.5,162.3000031,-926.1000366,-1.934254422,-0.662899466,0.090557065,ST
4.6,-6.442597866,-0.009570288,8.083304405,2.103672028,-0.945127964,-1.028970003,-624.3000488,158.7000122,-933.3000488,-1.975651289,-0.670030526,0.015412221,ST
4.633333333,-4.539307117,-0.179442897,6.381587505,2.446661949,-1.707327962,0.693601966,-631.5,158.1000061,-940.500061,-1.969582848,-0.624349891,0.02176961,ST
4.666666667,-5.834884644,0.361278355,6.849933147,1.989341974,-0.952749968,-0.823175967,-624.3000488,155.1000061,-921.3000488,-2.00215937,-0.687529868,-0.038613358,ST
4.7,-4.98193264,-0.123815596,6.595722675,0.167683989,-1.63872993,0.282013983,-629.1000366,153.3000031,-928.500061,-1.974049294,-0.652879807,0.007001252,ST
4.733333333,-5.428745747,-0.918747604,6.498225212,-1.097568035,-1.067080021,-0.442075998,-626.7000122,159.9000092,-940.500061,-1.905220582,-0.683740427,0.119456944,ST
4.766666667,-6.581965446,-1.763325453,8.368618011,-1.661595941,-1.295740008,-0.815553963,-621.9000244,153.3000031,-933.3000488,-1.858841785,-0.6588104,0.196226746,ST
4.8,-5.979037285,-2.04744339,8.155679703,-0.998481989,-1.562510014,-0.701223969,-643.5,164.1000061,-933.3000488,-1.834611526,-0.624060051,0.237930485,ST
4.833333333,-5.756527901,-1.759736657,8.233437538,-1.082324028,-1.623485923,-0.106707998,-645.9000244,152.1000061,-928.500061,-1.849091946,-0.601493836,0.216413414,ST
4.866666667,-5.301341057,-1.382906556,8.482265472,-0.541162014,-1.913121939,1.150921941,-629.1000366,162.3000031,-942.9000244,-1.877137025,-0.560324927,0.171835526,ST
4.9,-4.630822659,-1.355391979,7.768082619,-0.266770005,-1.394825935,0.342989981,-631.5,156.9000092,-938.1000366,-1.878350312,-0.534346397,0.172475964,ST
4.933333333,-4.389173031,-0.89183116,7.862589359,-0.083841994,-1.097568035,0.800309956,-645.9000244,161.1000061,-938.1000366,-1.905246009,-0.510127554,0.122804441,ST
4.966666667,-4.836584091,-1.027609587,8.253176689,0.602137983,-0.731711984,1.303362012,-641.1000366,152.7000122,-938.1000366,-1.907941743,-0.522777978,0.1216977,ST
5.0,-5.227769375,-0.86371845,8.25078392,0.510674,-0.83079797,0.998481989,-650.7000122,155.7000122,-938.1000366,-1.917733471,-0.554224034,0.105809553,ST
5.033333333,-5.598020077,-0.816465139,8.785524368,0.472563982,-0.899396002,1.006103992,-648.3000488,155.1000061,-933.3000488,-1.92568839,-0.562016157,0.093723739,ST
5.066666667,-4.551867962,-0.860727727,8.545070648,0.884151995,-1.699705958,0.800309956,-638.7000122,158.7000122,-930.9000244,-1.924841563,-0.500149909,0.097154593,ST
5.1,-4.75643301,-1.102975607,8.715540886,0.342989981,-1.592997909,-0.060975999,-645.9000244,160.5,-935.7000122,-1.913695849,-0.494684824,0.120175226,ST
5.133333333,-4.581775188,-0.765024841,7.983414173,0.213415995,-1.303362012,-0.076219998,-645.9000244,161.7000122,-938.1000366,-1.923628822,-0.513082226,0.099372528,ST
5.166666667,-4.88802433,-1.104770064,7.18010807,-0.076219998,1.051836014,1.166165948,-665.1000366,162.3000031,-942.9000244,-1.90375513,-0.579901273,0.141958912,ST
5.2,-5.545383453,-1.14843452,8.411086082,-0.967993975,0.106707998,0.411587983,-657.9000244,161.1000061,-935.7000122,-1.907928062,-0.579127487,0.137950213,ST
5.233333333,-5.301939487,-1.18611753,7.704679489,-1.173787951,-0.647870004,0.586893976,-645.9000244,156.3000031,-935.7000122,-1.903620946,-0.593044261,0.150935806,ST
5.266666667,-5.245713711,-1.498946309,8.616249084,-1.211897969,0.022865999,0.076219998,-657.9000244,160.5,-923.7000122,-1.895114228,-0.550971022,0.169710231,ST
5.3,-4.904772282,-1.323690414,7.958890438,-1.12805593,-1.257629991,-1.059458017,-665.1000366,155.7000122,-935.7000122,-1.895687085,-0.545117072,0.168049628,ST
5.333333333,-5.407212257,-1.32488668,7.442692757,-0.975615978,-0.609759986,-0.80793196,-679.5,155.1000061,-940.500061,-1.890909731,-0.605432276,0.176655092,ST
5.366666667,-5.635703087,-1.071274042,7.64606142,-1.356715918,-1.013725996,-1.379581928,-653.1000366,164.1000061,-933.3000488,-1.906268332,-0.624379917,0.149206086,ST
5.4,-5.124290943,-0.92712158,6.479682922,-0.381099999,-1.250007987,-0.998481989,-662.7000122,158.1000061,-938.1000366,-1.907848796,-0.655103287,0.144860651,ST
5.433333333,-4.832995415,-1.647883892,7.769279003,-0.411587983,-0.93750596,-0.998481989,-669.9000244,160.5,-942.9000244,-1.874946488,-0.563386015,0.200410412,ST
5.466666667,-5.559140682,-1.72025919,7.467814922,-0.221037999,-1.85214591,-1.181409955,-660.3000488,157.5,-933.3000488,-1.861788597,-0.611763898,0.222023093,ST
5.5,-5.787631512,-1.958918214,8.424843788,-0.243903995,-1.097568035,-1.23476398,-662.7000122,160.5,-930.9000244,-1.856376153,-0.591443258,0.228693038,ST
5.533333333,-6.01073885,-1.759736657,8.280691147,-0.068598002,-1.775925994,-1.349093914,-665.1000366,163.5,-930.9000244,-1.863004927,-0.610132365,0.213743176,ST
5.566666667,-4.904772282,-1.763325453,8.355459213,-0.045731999,-2.378063917,0.045731999,-660.3000488,160.5,-935.7000122,-1.866987288,-0.533855803,0.20863209,ST
5.6,-4.76361084,-1.937983274,8.10005188,-0.442075998,-1.227141976,0.876529992,-665.1000366,161.1000061,-942.9000244,-1.859328235,-0.521056492,0.229302576,ST
5.633333333,-4.529736519,-1.883552194,8.443984032,-0.61738199,-1.051836014,1.272873998,-662.7000122,162.9000092,-945.3000488,-1.866930976,-0.489097735,0.221172002,ST
5.666666667,-4.492651939,-1.721455455,8.239418983,-0.594515979,-1.12805593,1.989341974,-665.1000366,167.7000122,-938.1000366,-1.879035022,-0.48908587,0.20753337,ST
5.7,-4.343714237,-1.406234145,8.522938728,-0.182927996,-0.304879993,2.271355867,-669.9000244,171.9000092,-940.500061,-1.900805354,-0.4708128,0.170922589,ST
5.733333333,-4.780358791,-1.518684983,8.304616928,0.388722003,-0.152439997,2.332331896,-650.7000122,167.1000061,-940.500061,-1.902662254,-0.507651289,0.176698218,ST
5.766666667,-4.514783382,-1.57909739,8.254971504,0.182927996,0.442075998,3.079288006,-665.1000366,164.1000061,-933.3000488,-1.905380114,-0.496730853,0.184453563,ST
5.8,-3.995594978,-1.759138465,8.203531265,0.701223969,0.586893976,1.570132017,-667.5,167.7000122,-923.7000122,-1.898590197,-0.456249974,0.204014971,ST
5.833333333,-4.510596275,-1.447505951,8.67905426,1.371959925,0.419209987,1.211897969,-655.5,165.9000092,-933.3000488,-1.914979182,-0.47152816,0.169459797,ST
5.866666667,-3.988417387,-1.455880046,8.478676796,2.157026052,-0.160062,1.006103992,-655.5,166.5,-938.1000366,-1.916343842,-0.440810049,0.166175029,ST
5.9,-3.74198246,-1.129892111,8.771766663,3.010689974,-1.394825935,0.038109999,-660.3000488,161.7000122,-940.500061,-1.928580115,-0.405544476,0.130364802,ST
5.933333333,-4.117616177,-1.208846927,8.366226196,2.987823963,-2.134160042,-0.564027965,-665.1000366,161.7000122,-942.9000244,-1.922541149,-0.440615086,0.136792338,ST
5.966666667,-4.934679508,-1.098190546,7.988199234,2.035073996,-1.288118005,-1.753059983,-648.3000488,166.5,-940.500061,-1.917707737,-0.527569792,0.135010875,ST
6.0,-5.303733826,-1.214828372,9.295142174,0.358233988,-1.120433927,-0.099086002,-672.3000488,156.3000031,-933.3000488,-1.919701284,-0.515696532,0.130368016,ST
6.033333333,-4.772582531,-1.170565844,9.07681942,0.106707998,-1.493911982,0.099086002,-677.1000366,162.3000031,-940.500061,-1.921159874,-0.485688094,0.128317609,ST
6.066666667,-4.414295197,-1.311727524,8.383571625,-0.434453994,-0.457319975,-0.160062,-679.5,160.5,-938.1000366,-1.911138523,-0.480258303,0.150475291,ST
6.1,-4.648169041,-1.050937176,7.78064394,-0.060975999,0.236281991,-0.388722003,-672.3000488,159.3000031,-942.9000244,-1.916348406,-0.52384324,0.13805155,ST
6.133333333,-4.625439644,-1.125106931,7.799784184,-0.182927996,0.42683199,0.289635986,-669.9000244,165.3000031,-930.9000244,-1.914875826,-0.53010808,0.142340929,ST
6.166666667,-4.419080257,-1.448702335,8.222073555,-0.602137983,-0.609759986,-0.022865999,-681.9000244,165.3000031,-923.7000122,-1.902536297,-0.494212281,0.169252773,ST
6.2,-4.808471203,-1.114938498,8.347682953,0.190549999,-0.701223969,-0.182927996,-681.9000244,156.3000031,-926.1000366,-1.916676339,-0.513413638,0.139171851,ST
6.233333333,-4.378406525,-1.352401257,8.444582939,0.670735955,-0.510674,0.083841994,-669.9000244,159.9000092,-930.9000244,-1.909245875,-0.480607797,0.153883352,ST
6.266666667,-4.575793743,-0.910971761,8.690419197,0.929883957,-0.419209987,-0.350611985,-686.7000122,163.5,-942.9000244,-1.926414264,-0.481481997,0.11334505,ST
6.3,-4.799499035,-0.884653449,8.226858139,0.899396002,0.076219998,0.038109999,-667.5,157.5,-933.3000488,-1.92846258,-0.516830096,0.107131933,ST
6.333333333,-4.95202589,-0.857138872,8.242409706,0.365855992,0.632625997,-0.419209987,-696.3000488,162.9000092,-926.1000366,-1.928538552,-0.535055507,0.104221546,ST
6.366666667,-4.73729229,-0.841587186,8.437404633,-0.045731999,0.40396598,-0.007622,-672.3000488,162.9000092,-928.500061,-1.930468065,-0.514106708,0.100274201,ST
6.4,-4.621850967,-1.080844402,8.394338608,-0.571649969,1.105189919,-0.29725799,-665.1000366,162.9000092,-923.7000122,-1.918882508,-0.504216633,0.123626246,ST
6.433333333,-4.44061327,-1.145443797,8.356655121,-0.846041977,0.716467977,-0.274392009,-660.3000488,158.1000061,-923.7000122,-1.913575639,-0.489491706,0.135160673,ST
6.466666667,-4.348499298,-1.051535368,7.918814659,-1.227141976,1.013725996,0.602137983,-665.1000366,159.3000031,-923.7000122,-1.916391859,-0.498197247,0.134017924,ST
6.5,-5.295359612,-1.095797896,7.827897072,-0.701223969,3.193617821,0.61738199,-657.9000244,158.7000122,-928.500061,-1.915088738,-0.577322653,0.138997926,ST
6.533333333,-5.172740459,-1.314120054,8.585743904,-0.373477995,3.696669817,0.53354001,-643.5,161.7000122,-916.500061,-1.909724405,-0.550444667,0.149885675,ST
6.566666667,-5.494541168,-1.239352226,8.707765579,-0.342989981,2.248489857,0.472563982,-648.3000488,168.9000092,-916.500061,-1.913803912,-0.559981018,0.143452446,ST
6.6,-4.90656662,-1.162191749,8.015115738,0.327746004,0.327746004,0.160062,-648.3000488,161.1000061,-923.7000122,-1.913677289,-0.547919975,0.14333482,ST
6.633333333,-4.901781559,-1.170565844,7.159771442,0.541162014,1.051836014,-0.198172003,-645.9000244,155.7000122,-921.3000488,-1.904409252,-0.586847145,0.157990784,ST
6.666666667,-5.140440464,-1.162789941,7.552751064,0.457319975,0.823175967,-0.236281991,-626.7000122,161.1000061,-918.9000244,-1.905611355,-0.592392964,0.15332348,ST
6.7,-5.502317429,-1.239950418,7.550358772,0.335367978,-0.304879993,0.282013983,-633.9000244,159.3000031,-916.500061,-1.901970905,-0.616824919,0.160049744,ST
6.733333333,-5.437119484,-1.304549813,7.594621181,0.472563982,-1.42531395,-0.007622,-641.1000366,158.7000122,-926.1000366,-1.89744701,-0.612820484,0.16750519,ST
6.766666667,-5.142235279,-0.97437489,8.048611641,0.342989981,-3.079288006,0.388722003,-641.1000366,162.9000092,-918.9000244,-1.921016273,-0.569498517,0.127444393,ST
6.8,-4.157093525,-0.745884299,9.109119415,1.272873998,-3.292703867,1.013725996,-653.1000366,164.7000122,-933.3000488,-1.94259743,-0.446230233,0.086227248,ST
6.833333333,-3.753945351,-0.54610455,8.908740997,1.295740008,-3.963439941,0.647870004,-662.7000122,159.9000092,-926.1000366,-1.952574469,-0.402384863,0.063832601,ST
6.866666667,-3.153409719,-0.679490387,8.263943672,-0.152439997,-3.170752048,1.280496001,-662.7000122,159.9000092,-926.1000366,-1.950673557,-0.367000607,0.077798774,ST
6.9,-3.968678713,-0.957626879,8.384768486,-0.503051996,-2.06556201,0.289635986,-681.9000244,159.9000092,-914.1000366,-1.941030276,-0.422131462,0.106698345,ST
6.933333333,-3.87357378,-1.611995339,8.412880898,-1.051836014,-1.394825935,-0.663114011,-662.7000122,160.5,-928.500061,-1.9132935,-0.422328723,0.174383882,ST
6.966666667,-4.609888077,-1.870393038,8.712550163,-1.250007987,-0.503051996,-0.945127964,-672.3000488,155.1000061,-933.3000488,-1.899158594,-0.465381001,0.206150329,ST
7.0,-4.866491318,-2.045649052,9.127063751,-0.846041977,-0.754577994,-0.274392009,-669.9000244,158.7000122,-926.1000366,-1.893939716,-0.476042441,0.219203467,ST
7.033333333,-4.173243523,-1.729829431,7.883524418,0.015244,-0.518296003,0.060975999,-674.7000122,158.7000122,-923.7000122,-1.895595857,-0.47629298,0.216387769,ST
7.066666667,-4.643981934,-1.701716781,7.77286768,-0.182927996,-0.099086002,0.678357959,-674.7000122,165.3000031,-928.500061,-1.897689356,-0.518482335,0.215441438,ST
7.1,-4.785143852,-1.464852095,8.33272934,-0.091463998,-0.487807989,1.051836014,-681.9000244,155.7000122,-926.1000366,-1.917686366,-0.515008301,0.18016917,ST
7.133333333,-4.518970013,-1.614986062,8.735280037,0.083841994,-1.097568035,1.356715918,-674.7000122,165.3000031,-921.3000488,-1.920278059,-0.478369672,0.181059558,ST
7.166666667,-4.382593632,-1.04017067,9.430920601,0.884151995,-1.257629991,1.364337921,-679.5,156.9000092,-930.9000244,-1.950511263,-0.438470054,0.118515239,ST
7.2,-4.36584568,-1.247726202,9.480566025,1.219519973,0.228659987,0.213415995,-674.7000122,158.1000061,-930.9000244,-1.946322542,-0.430711351,0.126565874,ST
7.233333333,-4.351490021,-1.208248854,8.627614021,1.410069942,-0.091463998,0.190549999,-681.9000244,162.9000092,-930.9000244,-1.941956025,-0.456598734,0.134469034,ST
7.266666667,-4.432239532,-1.225594997,8.202932358,1.227141976,0.251525998,0.312501997,-672.3000488,158.7000122,-933.3000488,-1.937114919,-0.484304595,0.143572937,ST
7.3,-4.950829506,-0.899607003,7.637687683,1.295740008,0.731711984,-0.083841994,-693.9000244,161.7000122,-935.7000122,-1.946427686,-0.555284887,0.121177024,ST
7.333333333,-4.223487377,-0.954038024,8.095267296,1.303362012,0.792688012,0.167683989,-672.3000488,151.5,-933.3000488,-1.94755859,-0.494727166,0.116246109,ST
7.366666667,-4.027894974,-1.077255487,7.866178036,1.753059983,0.152439997,-0.663114011,-684.3000488,155.1000061,-928.500061,-1.937789969,-0.474681723,0.130208234,ST
7.4,-4.18879509,-1.300362825,7.323064327,1.295740008,0.625003994,-1.349093914,-674.7000122,159.9000092,-935.7000122,-1.916774666,-0.505853685,0.165682287,ST
7.433333333,-4.903575897,-1.546797752,9.17850399,0.586893976,0.274392009,-1.150921941,-681.9000244,162.3000031,-930.9000244,-1.913021348,-0.488727525,0.166803524,ST
7.466666667,-3.967482328,-1.878767014,9.457238197,0.602137983,-1.410069942,-0.769822001,-686.7000122,167.7000122,-926.1000366,-1.900810121,-0.404660781,0.190918783,ST
7.5,-4.624243259,-1.902692795,8.469106674,0.449698001,-1.12805593,-0.53354001,-684.3000488,161.7000122,-921.3000488,-1.889294267,-0.473469463,0.215335363,DLR
7.533333333,-4.51179266,-1.870393038,9.116894722,0.449698001,0.388722003,0.030487999,-669.9000244,161.7000122,-921.3000488,-1.893801938,-0.455667457,0.203893382,DLR
7.566666667,-3.251505136,-1.739399791,8.352468491,0.868907988,-0.785066009,0.312501997,-679.5,156.3000031,-923.7000122,-1.894093747,-0.38156716,0.203622197,DLR
7.6,-3.539810181,-1.317110777,7.788419724,0.312501997,0.0,0.983237982,-672.3000488,152.7000122,-916.500061,-1.907600001,-0.41404593,0.173467939,DLR
7.633333333,-4.071559429,-1.079049945,8.43441391,0.091463998,1.42531395,1.585376024,-693.9000244,150.9000092,-926.1000366,-1.926967272,-0.443550773,0.134061702,DLR
7.666666667,-4.52315712,-0.977365613,8.074930191,0.564027965,0.754577994,0.884151995,-669.9000244,155.1000061,-921.3000488,-1.933599064,-0.496567906,0.121756959,DLR
7.7,-4.442408085,-0.884055316,8.335122108,0.365855992,0.663114011,1.158543944,-679.5,156.9000092,-930.9000244,-1.94209327,-0.490322269,0.107583268,DLR
7.733333333,-5.535214901,-0.778782129,8.690419197,0.327746004,0.144817993,1.935987949,-693.9000244,151.5,-926.1000366,-1.953714157,-0.55064302,0.091189762,DLR
7.766666667,-5.173338413,-0.504832685,9.511071205,1.135677934,-0.434453994,1.631107926,-665.1000366,155.7000122,-930.9000244,-1.972628271,-0.507865126,0.057655835,DLR
7.8,-4.130177021,-0.335558206,8.664699554,1.387203932,-1.250007987,1.76830399,-667.5,160.5,-921.3000488,-1.983418262,-0.455657823,0.039240132,DLR
7.833333333,-3.790431976,-0.324193478,8.683241844,1.753059983,-0.80793196,-0.099086002,-667.5,149.1000061,-921.3000488,-1.983227962,-0.419130516,0.035321537,DLR
7.866666667,-3.802394867,-0.358287632,8.217288017,2.225623846,-0.579271972,-1.227141976,-672.3000488,156.3000031,-926.1000366,-1.976508987,-0.429655426,0.039681598,DLR
7.9,-4.706188679,-0.462962657,7.908048153,1.585376024,-0.083841994,-1.44817996,-681.9000244,155.1000061,-916.500061,-1.96494113,-0.517944999,0.05400807,DLR
7.933333333,-4.710375786,-0.618479848,8.192166328,1.074702024,-0.068598002,-1.333850026,-684.3000488,156.9000092,-918.9000244,-1.952822616,-0.519864433,0.070607357,DLR
7.966666667,-3.803591251,-1.208248854,9.342992783,0.990859985,-0.891773999,-1.8292799,-674.7000122,158.7000122,-926.1000366,-1.926831689,-0.408163081,0.118085259,DLR
8.0,-3.824526072,-1.186715603,8.674269676,1.76830399,-1.600619912,-2.843005896,-677.1000366,153.9000092,-916.500061,-1.914351605,-0.408406144,0.131467128,DLR
8.033333333,-4.021913528,-1.021030068,8.256765366,2.560992002,-0.40396598,-2.964957952,-684.3000488,151.5,-923.7000122,-1.909119813,-0.44125826,0.122920157,DLR
8.066666667,-4.680468559,-1.40264523,8.322561264,2.789651871,1.135677934,-3.064043999,-689.1000366,155.7000122,-921.3000488,-1.884614532,-0.494230857,0.156263004,DLR
8.1,-4.444800377,-1.40264523,9.448864937,2.271355867,0.442075998,-2.98020196,-662.7000122,153.9000092,-916.500061,-1.879777047,-0.44730717,0.148074612,DLR
8.133333333,-4.43642664,-1.184921265,9.394433975,3.391789913,-0.266770005,-3.018311977,-684.3000488,146.7000122,-911.7000122,-1.879061344,-0.438955671,0.126921357,DLR
8.166666667,-3.612783432,-1.015048623,8.157473564,4.146368027,1.242385983,-4.466491699,-684.3000488,148.5,-928.500061,-1.867706962,-0.420034324,0.121549759,DLR
8.2,-3.325076818,-1.08024621,9.069642067,4.336917877,0.899396002,-6.074733734,-696.3000488,147.3000031,-921.3000488,-1.852714869,-0.363624405,0.116571735,DLR
8.233333333,-3.709682703,-0.665733099,9.278991699,6.158576012,-0.144817993,-8.132674217,-698.7000122,148.5,-914.1000366,-1.844680483,-0.375090807,0.076514545,DLR
8.266666667,-4.360462189,-0.776389599,7.814737797,6.783579826,0.754577994,-8.841519356,-674.7000122,134.1000061,-909.3000488,-1.813678712,-0.480264453,0.090713798,DLR
8.3,-4.949633121,-0.157311603,8.148501396,6.32626009,1.303362012,-7.820171833,-669.9000244,138.3000031,-906.9000244,-1.819456508,-0.534021131,0.031577544,DLR
8.333333333,-4.30184412,-0.193200186,8.042032242,5.381131649,2.042695999,-4.451247692,-684.3000488,138.9000092,-902.1000366,-1.807702631,-0.500661006,0.020999683,DLR
8.366666667,-4.304236889,-0.346922934,9.162952423,4.687530041,1.463423967,-4.146368027,-662.7000122,133.5,-909.3000488,-1.788651875,-0.451822158,0.031276052,DLR
8.4,-5.43652153,0.49885124,8.729298592,5.266801834,1.432935953,-4.085391998,-662.7000122,136.5,-906.9000244,-1.809718516,-0.537543112,-0.042496808,DLR
8.433333333,-4.606897354,0.550889671,9.242505074,4.062525749,0.40396598,-1.227141976,-657.9000244,134.7000122,-899.7000122,-1.811707099,-0.477625662,-0.060903393,DLR
8.466666667,-3.802993059,0.75784713,8.814234734,3.414655924,-0.457319975,-0.396344006,-665.1000366,128.1000061,-902.1000366,-1.818008653,-0.419841188,-0.085322761,DLR
8.5,-3.952528715,0.672910869,7.862589359,3.567095995,1.463423967,-1.265251994,-660.3000488,125.1000061,-902.1000366,-1.813973339,-0.457561706,-0.089597148,DLR
8.533333333,-3.439321995,-0.011364716,9.177906036,3.185995817,1.417691946,-2.240867853,-667.5,121.5000076,-899.7000122,-1.777256185,-0.379742265,-0.01844682,DLR
8.566666667,-4.532727242,0.034692291,8.790906906,3.742401838,0.205793992,-4.83234787,-686.7000122,125.7000046,-904.500061,-1.759775837,-0.457004751,-0.009084583,DLR
8.6,-5.338426113,0.445018381,8.131155968,4.100636005,0.640248001,-4.702774048,-689.1000366,124.5000076,-899.7000122,-1.764115654,-0.556545791,-0.046784586,DLR
8.633333333,-5.00825119,0.179442897,8.824402809,2.964957952,-0.106707998,-2.545747995,-684.3000488,120.3000031,-885.3000488,-1.745671526,-0.524260522,-0.027555814,DLR
8.666666667,-4.936473846,0.512010396,8.206521988,2.804895878,-0.983237982,-2.36281991,-667.5,117.9000015,-897.3000488,-1.752610916,-0.536207113,-0.057176795,DLR
8.7,-5.126683235,0.280529052,7.232744694,1.577754021,0.129574001,-1.379581928,-689.1000366,110.7000046,-887.7000122,-1.740679776,-0.600388907,-0.043573626,DLR
8.733333333,-5.821725368,0.397166938,9.218579292,0.632625997,-0.243903995,0.175305992,-677.1000366,120.3000031,-906.9000244,-1.740528616,-0.570064386,-0.044176141,DLR
8.766666667,-4.814452648,0.50124383,8.436806679,0.541162014,-1.981719971,1.219519973,-677.1000366,116.7000046,-890.1000366,-1.749290649,-0.525484814,-0.058015373,DLR
8.8,-4.528540611,0.455784947,8.440993309,-0.350611985,-0.556405962,1.74543798,-691.5,113.7000046,-892.500061,-1.752131026,-0.496883532,-0.055506071,DLR
8.833333333,-4.825817585,0.441429526,9.118689537,-0.304879993,-0.42683199,1.905499935,-684.3000488,124.5000076,-892.500061,-1.754232274,-0.487412395,-0.050640178,DLR
8.866666667,-4.074550152,0.403746516,8.115603447,-0.80793196,-1.227141976,2.964957952,-684.3000488,111.9000015,-906.9000244,-1.761106944,-0.467442441,-0.050835864,DLR
8.9,-4.454968929,0.696836591,8.613258362,-1.112811923,-0.350611985,2.355197906,-681.9000244,114.3000031,-890.1000366,-1.778899158,-0.473849923,-0.075788684,DLR
8.933333333,-4.537512779,0.096301019,8.237027168,-1.455801964,-0.365855992,2.339953899,-686.7000122,116.7000046,-892.500061,-1.760911204,-0.497669791,-0.022989809,DLR
8.966666667,-4.509997845,0.270360619,8.503798485,-1.021348,0.160062,1.55488801,-679.5,117.3000031,-878.1000366,-1.768915828,-0.489315178,-0.030043143,DLR
9.0,-4.246815205,0.194994614,8.351870537,-0.693601966,-0.53354001,1.44817996,-693.9000244,118.5000076,-902.1000366,-1.770363565,-0.472665641,-0.024526556,DLR
9.033333333,-4.246815205,-0.369652361,8.15268898,-0.564027965,0.144817993,0.815553963,-701.1000366,119.1000061,-894.9000244,-1.747000669,-0.478769195,0.031402787,DLR
9.066666667,-4.076942444,0.39058736,10.29762936,1.006103992,-0.93750596,0.449698001,-681.9000244,122.1000061,-892.500061,-1.772241265,-0.392613815,-0.028400356,DLR
9.1,-3.493753195,0.269762486,8.759205818,2.355197906,-1.875011921,-0.007622,-689.1000366,122.7000046,-890.1000366,-1.771996928,-0.379422673,-0.033549228,DLR
9.133333333,-4.161280632,0.805698574,8.616249084,2.218001842,0.800309956,-0.91463995,-681.9000244,111.9000015,-904.500061,-1.788490734,-0.438001055,-0.085586788,DLR
9.166666667,-3.995594978,0.57660985,8.628810883,1.181409955,0.518296003,-0.038109999,-681.9000244,114.9000015,-892.500061,-1.781440017,-0.434493327,-0.071774686,DLR
9.2,-4.885033607,0.605918825,9.28018856,0.236281991,0.609759986,-0.960371971,-679.5,116.1000061,-887.7000122,-1.77667048,-0.4758453,-0.066069733,DLR
9.233333333,-4.275526047,0.72255671,8.620436668,0.716467977,0.160062,-0.42683199,-669.9000244,120.3000031,-892.500061,-1.781743073,-0.462696382,-0.080817678,DLR
9.266666667,-3.761122942,0.600535572,8.377590179,0.853663981,-0.007622,0.121951997,-689.1000366,123.9000015,-897.3000488,-1.778489486,-0.429398564,-0.074651421,DLR
9.3,-3.872975826,0.592161536,7.640678406,0.396344006,0.419209987,-0.449698001,-691.5,118.5000076,-892.500061,-1.778270837,-0.460796875,-0.077061713,DLR
9.333333333,-5.048326492,0.712388277,8.5055933,-0.182927996,0.693601966,0.381099999,-681.9000244,128.7000122,-899.7000122,-1.781817963,-0.520232874,-0.082258497,DLR
9.366666667,-5.062084198,0.592161536,8.752626419,0.449698001,0.381099999,1.257629991,-674.7000122,119.1000061,-890.1000366,-1.778827682,-0.523180636,-0.072026926,DLR
9.4,-4.593139648,0.544310093,8.865674973,0.632625997,0.236281991,0.464941978,-672.3000488,117.9000015,-885.3000488,-1.775451507,-0.485735489,-0.064450074,DLR
9.433333333,-4.426856041,0.436644375,8.40809536,0.434453994,0.205793992,0.160062,-672.3000488,112.5000076,-892.500061,-1.770801653,-0.484637883,-0.054752387,DLR
9.466666667,-4.497437,0.548497081,8.079715729,0.373477995,0.929883957,-0.121951997,-662.7000122,122.7000046,-890.1000366,-1.775407363,-0.503757664,-0.06559995,DLR
9.5,-4.341919899,0.269762486,7.96128273,0.632625997,0.365855992,0.022865999,-653.1000366,119.7000046,-892.500061,-1.762472557,-0.500404132,-0.040125807,DLR
9.533333333,-4.824023247,0.080749303,7.981021881,0.609759986,-0.053353999,-0.442075998,-672.3000488,111.9000015,-887.7000122,-1.748676622,-0.536359862,-0.015773715,DLR
9.566666667,-5.099168777,0.403148353,8.380580902,0.663114011,-0.91463995,0.251525998,-662.7000122,116.7000046,-902.1000366,-1.762131685,-0.542886831,-0.042625222,DLR
9.6,-4.742675781,0.40255022,8.637184143,1.074702024,-0.518296003,0.411587983,-662.7000122,116.7000046,-887.7000122,-1.764154656,-0.509242517,-0.047581502,DLR
9.633333333,-5.118907452,0.008374002,7.519853592,0.823175967,-0.251525998,-0.007622,-665.1000366,108.3000031,-902.1000366,-1.744742329,-0.579543819,-0.012055326,DLR
9.666666667,-5.078233719,0.323595345,8.847730637,-0.160062,-0.365855992,0.335367978,-667.5,113.1000061,-890.1000366,-1.75633691,-0.530734097,-0.032351222,DLR
9.7,-4.518372059,-0.126208171,8.341701508,-0.40396598,-0.93750596,0.190549999,-672.3000488,116.7000046,-897.3000488,-1.737451297,-0.500845033,0.007743471,DLR
9.733333333,-4.137953281,0.25181818,9.011023521,0.236281991,-1.402447939,0.80793196,-662.7000122,124.5000076,-887.7000122,-1.75249988,-0.441754946,-0.022214791,DLR
9.766666667,-3.878359079,-0.059814297,7.442692757,-0.076219998,-0.251525998,1.006103992,-655.5,114.9000015,-890.1000366,-1.744037272,-0.473539604,0.002251581,DLR
9.8,-5.08361721,0.309838057,8.778944016,-0.312501997,0.792688012,1.516777992,-667.5,119.1000061,-887.7000122,-1.762289517,-0.516035088,-0.028707975,DLR
9.833333333,-4.90237999,0.434251785,9.082800865,-0.007622,-0.365855992,2.240867853,-657.9000244,126.3000031,-894.9000244,-1.775510999,-0.497664969,-0.046139773,DLR
9.866666667,-4.370630741,0.520384371,8.55045414,-0.182927996,-0.746955991,1.631107926,-655.5,123.9000015,-899.7000122,-1.784848932,-0.475844042,-0.058764275,DLR
9.9,-4.134962559,1.339840293,9.183887482,0.449698001,-0.952749968,1.897877932,-674.7000122,115.5000076,-894.9000244,-1.820615519,-0.42720068,-0.132565119,DLR
9.933333333,-3.050529242,0.386400372,7.541386604,0.030487999,-0.083841994,2.49239397,-660.3000488,117.3000031,-899.7000122,-1.800034468,-0.391442174,-0.067017579,DLR
9.966666667,-4.335340023,0.57660985,9.271814346,0.548784018,1.402447939,0.274392009,-665.1000366,118.5000076,-887.7000122,-1.799143156,-0.429449869,-0.064102646,DLR
10.0,-5.112926006,0.651975811,9.520641327,1.676839948,-0.007622,0.205793992,-669.9000244,122.7000046,-902.1000366,-1.800457753,-0.479237943,-0.069971728,DLR
10.03333333,-3.808376312,0.793735743,8.692214012,2.035073996,-1.036592007,0.091463998,-667.5,116.1000061,-904.500061,-1.807057046,-0.423643378,-0.089726079,DLR
10.06666667,-3.901088476,0.517393649,7.668790817,1.34147191,-0.785066009,-0.693601966,-660.3000488,112.5000076,-902.1000366,-1.797153143,-0.459392349,-0.07332791,DLR
10.1,-4.493848324,0.538328648,8.454751015,0.29725799,-0.861285985,0.175305992,-681.9000244,118.5000076,-890.1000366,-1.793792894,-0.480786775,-0.066071986,DLR
10.13333333,-4.438220978,0.229088753,8.825001717,-0.175305992,-0.701223969,0.030487999,-669.9000244,116.1000061,-904.500061,-1.779195776,-0.467933032,-0.033736957,DLR
10.16666667,-4.248011589,0.235668331,9.368713379,-0.106707998,-0.564027965,0.015244,-662.7000122,120.3000031,-894.9000244,-1.776235523,-0.433326843,-0.026693289,DLR
10.2,-3.829311371,-0.10228245,7.871561527,-0.388722003,0.182927996,1.150921941,-686.7000122,123.3000031,-897.3000488,-1.76537845,-0.449574971,0.005623098,DLR
10.23333333,-5.269639492,0.748875022,8.712550163,-0.632625997,1.394825935,0.678357959,-684.3000488,120.9000015,-892.500061,-1.802402276,-0.527961593,-0.068237989,DLR
10.26666667,-4.302442551,0.477916241,7.787223339,-1.067080021,0.61738199,2.553369999,-665.1000366,122.7000046,-880.500061,-1.806316022,-0.509432907,-0.063229742,DLR
10.3,-4.992699146,0.584385693,8.718531609,-1.440557957,0.80793196,2.477149963,-669.9000244,122.7000046,-892.500061,-1.814451381,-0.518050903,-0.066163472,DLR
10.33333333,-4.670300484,0.674107134,9.101343155,-0.945127964,-0.556405962,1.974097967,-669.9000244,117.3000031,-894.9000244,-1.823011262,-0.479550717,-0.072771993,DLR
10.36666667,-3.959108353,0.548497081,7.562321663,-0.952749968,-1.463423967,1.844523907,-674.7000122,123.3000031,-897.3000488,-1.827667862,-0.478635414,-0.072394189,DLR
10.4,-5.358164787,0.372044921,8.263344765,-1.791170001,0.571649969,1.150921941,-674.7000122,122.1000061,-894.9000244,-1.820530452,-0.558325746,-0.048515762,DLR
10.43333333,-4.792321682,0.509019673,9.204223633,-1.097568035,-0.464941978,1.836901903,-677.1000366,121.5000076,-897.3000488,-1.828081964,-0.4945428,-0.053809419,DLR
10.46666667,-4.359864235,0.191405743,8.600697517,-1.120433927,-0.190549999,1.23476398,-684.3000488,116.7000046,-892.500061,-1.819593463,-0.473313253,-0.027125103,DLR
10.5,-3.417788982,0.556272984,8.214297295,-0.320124,-0.746955991,-0.312501997,-665.1000366,125.7000046,-897.3000488,-1.833141294,-0.406737077,-0.059902513,DLR
10.53333333,-3.657644272,0.175255895,8.167642593,0.160062,0.205793992,-1.158543944,-684.3000488,120.9000015,-894.9000244,-1.817806701,-0.418657993,-0.0282916,DLR
10.56666667,-4.415491581,-0.252416342,9.115698814,0.228659987,-0.42683199,-0.823175967,-667.5,122.1000061,-887.7000122,-1.796129483,-0.444979624,0.018394403,DLR
10.6,-4.710974216,-0.002392572,8.354263306,0.411587983,-0.769822001,-0.312501997,-665.1000366,126.3000031,-897.3000488,-1.801899143,-0.500109827,0.003292868,DLR
10.63333333,-4.648169041,-0.010766573,9.182092667,0.099086002,-0.564027965,1.356715918,-667.5,122.7000046,-897.3000488,-1.806173066,-0.473078642,0.000359413,DLR
10.66666667,-4.182813644,0.116039738,8.48705101,0.495429993,-0.564027965,0.091463998,-657.9000244,123.3000031,-904.500061,-1.811358042,-0.459781131,-0.011952543,DLR
10.7,-3.95851016,0.379222631,8.891395569,0.72408998,-1.242385983,0.175305992,-665.1000366,122.1000061,-892.500061,-1.821938616,-0.425126806,-0.037624052,DLR
10.73333333,-4.16307497,0.464757085,7.626322746,0.609759986,-0.838419974,-0.182927996,-667.5,116.1000061,-887.7000122,-1.829441219,-0.484532357,-0.057261382,DLR
10.76666667,-4.375415802,0.378624499,8.077920914,0.42683199,-0.884151995,0.556405962,-669.9000244,124.5000076,-890.1000366,-1.826476118,-0.492715528,-0.049614143,DLR
10.8,-4.807275295,0.687864423,8.445180893,0.746955991,-0.93750596,0.846041977,-667.5,126.3000031,-894.9000244,-1.840136184,-0.510010936,-0.076451219,DLR
10.83333333,-5.164964676,0.601133704,9.101343155,0.579271972,-0.625003994,0.891773999,-689.1000366,120.3000031,-897.3000488,-1.837796908,-0.513235778,-0.069545716,DLR
10.86666667,-4.469324112,0.719565988,9.329236031,0.922261953,-1.486289978,0.602137983,-674.7000122,119.1000061,-909.3000488,-1.841353946,-0.457103578,-0.077126552,DLR
10.9,-3.616970539,0.918149471,8.954798698,1.349093914,-1.486289978,-0.099086002,-677.1000366,121.5000076,-894.9000244,-1.848625019,-0.39515314,-0.098965835,DLR
10.93333333,-3.999782085,1.068881512,8.789710999,1.23476398,-0.205793992,-0.213415995,-679.5,120.3000031,-897.3000488,-1.854700906,-0.41883803,-0.11865332,DLR
10.96666667,-4.009950638,0.3576895,8.15268898,0.586893976,0.152439997,-0.823175967,-679.5,123.3000031,-882.9000244,-1.827503322,-0.449598714,-0.059426941,DLR
11.0,-4.494446278,-0.013757288,7.757914543,-0.647870004,0.792688012,-1.196653962,-681.9000244,117.9000015,-899.7000122,-1.802560428,-0.511126354,-0.009169728,DLR
11.03333333,-5.237339973,0.202172324,9.812535286,-0.838419974,-0.40396598,0.099086002,-677.1000366,122.7000046,-894.9000244,-1.807734126,-0.493347554,-0.017450774,DLR
11.06666667,-4.028492928,0.192003891,8.333926201,0.594515979,-1.295740008,0.891773999,-689.1000366,125.7000046,-909.3000488,-1.811797479,-0.455495807,-0.023594392,DLR
11.1,-5.137450218,0.421690792,8.196950912,0.990859985,0.365855992,-0.762199998,-684.3000488,120.3000031,-899.7000122,-1.820232036,-0.541270695,-0.046929825,DLR
11.13333333,-5.007054806,0.60711509,9.800572395,1.067080021,-1.013725996,0.160062,-679.5,124.5000076,-899.7000122,-1.825899196,-0.48417569,-0.060481405,DLR
11.16666667,-4.891613007,0.625059426,7.640079975,0.487807989,-0.121951997,-0.647870004,-693.9000244,120.3000031,-899.7000122,-1.832595908,-0.553792929,-0.078029193,DLR
11.2,-4.395154476,0.600535572,8.10782814,-0.419209987,-0.358233988,0.487807989,-684.3000488,117.9000015,-894.9000244,-1.832281305,-0.504790269,-0.074359077,DLR
11.23333333,-4.389173031,0.532347262,8.432620049,-0.266770005,0.327746004,-0.137196004,-689.1000366,113.7000046,-909.3000488,-1.82782316,-0.484747013,-0.06483862,DLR
11.26666667,-3.85503149,0.985739589,8.860890388,0.632625997,-0.221037999,-0.678357959,-679.5,119.7000046,-902.1000366,-1.84214714,-0.423414237,-0.102203431,DLR
11.3,-3.930995703,0.663938701,8.05878067,1.303362012,-0.586893976,-0.144817993,-672.3000488,127.5000076,-897.3000488,-1.834470344,-0.445860706,-0.08797164,DLR
11.33333333,-5.485569,0.437840641,8.533705711,0.586893976,1.272873998,-1.440557957,-677.1000366,119.1000061,-899.7000122,-1.817210648,-0.547420367,-0.058816288,DLR
11.36666667,-5.1021595,0.472532958,8.941638947,0.335367978,-0.213415995,-0.381099999,-681.9000244,117.9000015,-899.7000122,-1.813449029,-0.522593778,-0.053939219,DLR
11.4,-5.110533714,0.239257187,9.108521461,1.364337921,-0.266770005,-0.312501997,-681.9000244,120.3000031,-902.1000366,-1.800677694,-0.512864898,-0.032861022,DLR
11.43333333,-3.651064634,1.236959696,9.030164719,2.36281991,-1.760681987,0.304879993,-667.5,121.5000076,-899.7000122,-1.838299464,-0.400893542,-0.123064061,DLR
11.46666667,-2.854338169,1.158602953,7.668192863,2.126538038,-1.646351933,0.365855992,-681.9000244,121.5000076,-899.7000122,-1.846131372,-0.358332381,-0.14866016,DLR
11.5,-3.1276896,1.0730685,8.164651871,0.884151995,-0.815553963,-0.030487999,-672.3000488,120.3000031,-894.9000244,-1.840259673,-0.361010922,-0.13508579,DLR
11.53333333,-3.995594978,0.665134966,9.543969154,0.221037999,-0.137196004,0.038109999,-669.9000244,120.3000031,-894.9000244,-1.820018248,-0.390080147,-0.080365883,DLR
11.56666667,-5.156590462,0.104076877,8.311794281,-0.259148002,0.769822001,-0.586893976,-672.3000488,118.5000076,-894.9000244,-1.794026711,-0.528643832,-0.023956617,DLR
11.6,-4.516577721,0.28710863,9.553539276,-0.564027965,0.0,-0.259148002,-672.3000488,121.5000076,-902.1000366,-1.79606792,-0.45608195,-0.028023153,DLR
11.63333333,-3.889125586,0.447410941,8.406899452,-0.449698001,-1.509155989,0.365855992,-677.1000366,126.3000031,-887.7000122,-1.805944489,-0.43475494,-0.048274594,DLR
11.66666667,-3.532632351,0.543113828,7.741764545,-0.960371971,-0.967993975,1.326228023,-679.5,125.1000061,-890.1000366,-1.816774884,-0.427141019,-0.065377118,DLR
11.7,-4.36524725,0.707603157,8.711354256,-1.257629991,-0.358233988,1.85214591,-679.5,122.1000061,-894.9000244,-1.827583876,-0.456439778,-0.077809131,DLR
11.73333333,-4.98911047,0.139367312,8.506789207,-2.042695999,0.022865999,1.181409955,-681.9000244,119.7000046,-899.7000122,-1.808542365,-0.515525842,-0.027211752,DLR
11.76666667,-4.841369152,0.57421726,8.875245094,-2.23324585,-1.150921941,2.660078049,-674.7000122,123.9000015,-911.7000122,-1.830291778,-0.500214542,-0.056009546,DLR
11.8,-5.462839603,0.702817976,8.774159431,-3.368923903,-1.364337921,3.993927956,-681.9000244,124.5000076,-902.1000366,-1.85060701,-0.542034944,-0.073400198,DLR
11.83333333,-3.567324638,0.308641762,7.432524681,-4.382649899,-1.227141976,4.344540119,-686.7000122,131.1000061,-897.3000488,-1.850951121,-0.461010086,-0.043528603,DLR
11.86666667,-4.343116283,0.426475942,7.703483105,-6.006135941,-0.243903995,4.108257771,-696.3000488,129.9000092,-902.1000366,-1.868510934,-0.502841632,-0.047616181,DLR
11.9,-5.303135395,-0.143554315,8.210708618,-5.998513699,0.647870004,3.628072023,-693.9000244,128.1000061,-899.7000122,-1.853917372,-0.560121966,0.009252384,DLR
11.93333333,-4.359864235,-0.557469249,9.000855446,-6.257661819,-0.274392009,4.626554012,-672.3000488,132.3000031,-904.500061,-1.846777874,-0.47246128,0.056960007,DLR
11.96666667,-5.957503796,-0.495860517,9.789207458,-5.617413998,-0.312501997,4.138745785,-665.1000366,135.9000092,-906.9000244,-1.861568522,-0.531127111,0.056595273,DLR
12.0,-3.172550201,-0.739902854,10.26293755,-4.367405891,-2.896359921,5.30491209,-665.1000366,139.5,-916.500061,-1.871562283,-0.337116058,0.072623655,DLR
12.03333333,-2.879460335,-0.788950562,8.324954033,-3.376545906,-2.36281991,3.178373814,-672.3000488,138.9000092,-918.9000244,-1.874904976,-0.329736558,0.093466253,DLR
12.06666667,-3.505117893,-0.873288751,7.81832695,-4.329296112,-0.121951997,2.431417942,-677.1000366,146.1000061,-909.3000488,-1.877140221,-0.402307905,0.112581861,DLR
12.1,-3.046342134,-0.799717128,8.896778107,-4.878079891,0.472563982,3.475631952,-667.5,144.3000031,-914.1000366,-1.895048204,-0.341515484,0.098451036,DLR
12.13333333,-3.097782373,-1.132882833,7.86737442,-3.612828016,-0.129574001,3.925329924,-662.7000122,152.7000122,-921.3000488,-1.893052699,-0.366084469,0.136943726,DLR
12.16666667,-4.493848324,-1.216024637,7.793802738,-4.176856041,0.083841994,4.291185856,-653.1000366,150.3000031,-918.9000244,-1.898846548,-0.488015463,0.154119169,DLR
12.2,-4.796508312,-1.028805852,9.464416504,-4.710395813,0.198172003,5.678390026,-641.1000366,156.9000092,-909.3000488,-1.931774576,-0.472159037,0.119457952,DLR
12.23333333,-4.493848324,-1.760932922,8.449965477,-4.588443756,-1.478667974,6.62351799,-665.1000366,156.3000031,-921.3000488,-1.918611264,-0.478347914,0.191576598,DLR
12.26666667,-4.59134531,-2.126996517,9.42972374,-5.152472019,-0.731711984,5.358265877,-653.1000366,155.7000122,-914.1000366,-1.92326517,-0.450273028,0.220078903,DLR
12.3,-4.067372322,-1.673005939,9.346582413,-3.323191881,-2.027451992,3.544229984,-660.3000488,156.9000092,-914.1000366,-1.949609615,-0.410539627,0.186516057,DLR
12.33333333,-3.771291494,-1.159201026,8.150296211,-1.692083955,-0.121951997,3.147886038,-657.9000244,162.3000031,-928.500061,-1.973157687,-0.426792376,0.149848357,DLR
12.36666667,-4.52315712,-1.056320429,7.861392975,-1.181409955,0.007622,4.253076077,-665.1000366,161.1000061,-921.3000488,-1.989416808,-0.500595743,0.135657289,DLR
12.4,-4.361658573,-1.020431876,8.106631279,-1.173787951,0.518296003,3.986305952,-645.9000244,158.7000122,-914.1000366,-2.003163265,-0.493841121,0.126017575,DLR
12.43333333,-4.419080257,-1.017441154,8.211306572,-0.708845973,-0.198172003,3.62045002,-645.9000244,162.3000031,-916.500061,-2.013119493,-0.491554467,0.122114681,DLR
12.46666667,-4.463941097,-1.350008726,7.970254898,-1.227141976,0.464941978,3.68142581,-648.3000488,156.3000031,-923.7000122,-2.004821483,-0.503385294,0.157522847,DLR
12.5,-4.798303127,-1.608406425,8.832777023,-1.089946032,0.53354001,3.178373814,-650.7000122,164.1000061,-914.1000366,-2.003908433,-0.49485783,0.174813691,DLR
12.53333333,-4.438220978,-1.818952799,8.885414124,-0.564027965,-0.457319975,2.903981924,-655.5,164.7000122,-916.500061,-2.001091881,-0.463269931,0.195258524,DLR
12.56666667,-4.495642662,-1.549788475,9.439293861,-0.053353999,-0.457319975,2.218001842,-641.1000366,163.5,-904.500061,-2.017872457,-0.444111464,0.167784063,DLR
12.6,-3.287393808,-1.271651983,7.027581692,0.457319975,-2.149404049,2.660078049,-641.1000366,165.3000031,-918.9000244,-2.020942217,-0.43164874,0.174186451,DLR
12.63333333,-4.01952076,-1.586275101,7.65323925,0.221037999,1.562510014,1.653973937,-645.9000244,158.7000122,-914.1000366,-2.013368421,-0.470426152,0.197952813,DLR
12.66666667,-4.519568443,-1.355990171,8.977527618,0.571649969,0.472563982,0.716467977,-648.3000488,165.3000031,-930.9000244,-2.032458538,-0.464312702,0.157186593,DLR
12.7,-4.147523403,-1.279427767,8.385964394,1.432935953,-0.106707998,0.945127964,-648.3000488,158.7000122,-923.7000122,-2.036307587,-0.456507315,0.149704755,DLR
12.73333333,-4.509997845,-1.220809817,8.821412086,1.737815976,0.342989981,1.257629991,-648.3000488,168.3000031,-923.7000122,-2.043080716,-0.467469465,0.136176463,DLR
12.76666667,-4.901781559,-0.873886883,9.078016281,2.157026052,0.236281991,0.762199998,-650.7000122,162.9000092,-918.9000244,-2.059277179,-0.489368303,0.099107096,DLR
12.8,-4.639794827,-0.477916241,9.021790504,1.935987949,-1.12805593,0.335367978,-650.7000122,161.7000122,-918.9000244,-2.076596596,-0.475982159,0.059190442,DLR
12.83333333,-4.594336033,-0.697434723,7.88173008,1.707327962,-1.074702024,0.243903995,-660.3000488,159.9000092,-916.500061,-2.06566288,-0.514531772,0.079619577,DLR
12.86666667,-3.392666817,-1.277633429,8.262148857,1.76830399,-0.83079797,-1.74543798,-660.3000488,159.3000031,-911.7000122,-2.034366133,-0.410287913,0.138055525,DLR
12.9,-3.914845705,-0.989926636,6.928888321,1.867389917,-0.952749968,-1.95885396,-665.1000366,158.1000061,-923.7000122,-2.027455175,-0.491436334,0.139881339,DLR
12.93333333,-4.773180962,-1.83570075,7.533610821,0.800309956,-0.487807989,-1.730193973,-669.9000244,154.5,-918.9000244,-1.982337947,-0.540779119,0.222039559,DLR
12.96666667,-5.807370186,-1.667622566,9.110315323,0.922261953,-2.103672028,-2.278977871,-667.5,159.9000092,-921.3000488,-1.994722043,-0.553078769,0.188740939,DLR
13.0,-4.412500858,-1.993610501,9.069642067,1.204275966,-2.911603928,-0.114329994,-679.5,158.7000122,-921.3000488,-1.984406143,-0.461668227,0.209163749,DLR
13.03333333,-5.480185986,-1.294979572,9.005042076,1.379581928,-1.775925994,0.137196004,-691.5,161.7000122,-923.7000122,-2.010821244,-0.526256333,0.152144461,ST
13.06666667,-4.444202423,-0.727341831,8.416469574,1.326228023,-1.661595941,2.301843882,-689.1000366,152.1000061,-906.9000244,-2.041896112,-0.490949544,0.095554743,ST
13.1,-4.064381599,-0.355895072,7.571293831,1.897877932,-0.030487999,2.515259981,-686.7000122,150.9000092,-914.1000366,-2.065359692,-0.492212958,0.05225966,ST
13.13333333,-4.352088451,-0.651377678,7.591630459,0.243903995,0.327746004,1.417691946,-701.1000366,153.3000031,-914.1000366,-2.055407034,-0.515406972,0.07877096,ST
13.16666667,-4.122999668,-1.033591032,6.958795547,-0.632625997,0.106707998,0.083841994,-686.7000122,156.3000031,-918.9000244,-2.028187664,-0.527649707,0.135170501,ST
13.2,-3.859218359,-1.397860169,8.113809586,-0.609759986,-0.053353999,-0.29725799,-681.9000244,159.3000031,-916.500061,-2.013903098,-0.45416367,0.16567113,ST
13.23333333,-3.401041031,-1.826130509,9.584643364,-0.121951997,-2.187514067,1.082324028,-689.1000366,158.7000122,-921.3000488,-2.010171444,-0.352503608,0.184059384,ST
13.26666667,-3.697719812,-1.526460886,9.852610588,0.61738199,-2.820139885,0.739333987,-686.7000122,160.5,-923.7000122,-2.021145114,-0.350937929,0.158369636,ST
13.3,-3.368741274,-1.360775232,9.968650818,1.310984015,-2.027451992,1.410069942,-684.3000488,149.1000061,-916.500061,-2.030728561,-0.326200941,0.137576644,ST
13.33333333,-3.535623074,-1.1227144,9.273608208,1.280496001,-0.487807989,1.158543944,-689.1000366,159.3000031,-926.1000366,-2.037716935,-0.354180916,0.121574992,ST
13.36666667,-3.396255732,-1.006674647,8.543873787,0.304879993,1.410069942,1.34147191,-684.3000488,155.1000061,-914.1000366,-2.04156467,-0.373769556,0.117105957,ST
13.4,-3.564932108,-1.125705123,8.587538719,-0.594515979,2.126538038,1.204275966,-684.3000488,158.7000122,-918.9000244,-2.040026447,-0.390257245,0.127968806,ST
13.43333333,-4.292871952,-1.25191319,8.111416817,-1.089946032,2.057940006,0.198172003,-681.9000244,153.3000031,-918.9000244,-2.031506938,-0.470468306,0.150749167,ST
13.46666667,-4.26416111,-1.452291131,8.407497406,-1.410069942,1.478667974,1.242385983,-674.7000122,156.9000092,-926.1000366,-2.027107736,-0.467210606,0.168244762,ST
13.5,-4.349695683,-1.35778451,8.391945839,-0.472563982,1.303362012,1.798792005,-667.5,157.5,-928.500061,-2.033845904,-0.473983529,0.161536516,ST
13.53333333,-4.883239269,-1.027609587,8.695204735,0.449698001,0.777444005,1.943609953,-660.3000488,161.7000122,-918.9000244,-2.054728068,-0.503673637,0.124088853,ST
13.56666667,-4.419678211,-0.420494497,9.207813263,0.93750596,-1.326228023,2.637212038,-672.3000488,152.1000061,-918.9000244,-2.091031818,-0.455787328,0.056031323,ST
13.6,-4.219898701,-0.592759669,7.923001766,0.754577994,-1.326228023,2.36281991,-665.1000366,163.5,-914.1000366,-2.089936552,-0.48077789,0.068409817,ST
13.63333333,-3.954921246,-0.46595338,8.000760078,-0.083841994,-0.205793992,1.432935953,-677.1000366,156.3000031,-916.500061,-2.097116079,-0.462766435,0.059319941,ST
13.66666667,-4.798901081,-0.470140368,8.218484879,-1.42531395,0.853663981,1.364337921,-669.9000244,156.9000092,-914.1000366,-2.101669182,-0.515966864,0.05862116,ST
13.7,-4.389173031,-0.747080564,8.596510887,-1.082324028,0.602137983,0.129574001,-669.9000244,155.7000122,-916.500061,-2.091578818,-0.480579939,0.082603149,ST
13.73333333,-4.822826862,-1.342831016,8.534303665,-1.371959925,0.762199998,-0.579271972,-667.5,160.5,-904.500061,-2.062910295,-0.504527418,0.143507643,ST
13.76666667,-4.547082901,-1.59345293,8.158670425,-1.623485923,0.769822001,-0.022865999,-662.7000122,158.1000061,-911.7000122,-2.044224273,-0.502472959,0.185340103,ST
13.8,-5.27861166,-1.163986206,8.569594383,-1.158543944,0.716467977,0.754577994,-655.5,155.7000122,-916.500061,-2.06613968,-0.540081183,0.146517142,ST
13.83333333,-5.336631775,-1.046152115,8.37101078,-0.373477995,0.72408998,1.928365946,-660.3000488,160.5,-921.3000488,-2.079925979,-0.560585666,0.127816355,ST
13.86666667,-5.118309498,-1.277035236,8.234634399,0.137196004,0.685979962,0.945127964,-662.7000122,158.1000061,-923.7000122,-2.070874812,-0.553940468,0.147725473,ST
13.9,-4.822826862,-0.833213151,8.22027874,-0.121951997,-0.701223969,0.213415995,-667.5,167.1000061,-911.7000122,-2.090989845,-0.532660283,0.110245008,ST
13.93333333,-4.474707603,-0.877475739,7.460637093,-0.685979962,-1.371959925,1.143299937,-665.1000366,151.5,-909.3000488,-2.09163682,-0.53459152,0.115585846,ST
13.96666667,-4.209132195,-1.348812342,7.875748634,-0.868907988,-0.495429993,0.198172003,-667.5,163.5,-909.3000488,-2.070341951,-0.492090663,0.162392671,ST
14.0,-4.078138828,-1.373336315,8.232241631,-1.356715918,-1.051836014,0.480185986,-669.9000244,167.7000122,-916.500061,-2.071551136,-0.459423992,0.166320146,ST
14.03333333,-4.379004478,-1.594051003,8.762794495,-1.051836014,-0.480185986,0.792688012,-653.1000366,162.3000031,-909.3000488,-2.0692689,-0.456853728,0.17871946,ST
14.06666667,-4.417883873,-1.419991374,8.662904739,-0.434453994,-1.288118005,0.419209987,-669.9000244,165.9000092,-911.7000122,-2.076831841,-0.46278379,0.165744064,ST
14.1,-3.878957272,-1.475020528,9.020594597,0.106707998,-0.899396002,0.762199998,-660.3000488,162.9000092,-897.3000488,-2.080227361,-0.411915155,0.162060205,ST
14.13333333,-4.099073887,-1.371541858,8.356655121,0.632625997,-0.411587983,0.983237982,-657.9000244,164.1000061,-916.500061,-2.082399707,-0.443906762,0.160956161,ST
14.16666667,-4.521362782,-1.108957052,8.467909813,0.480185986,0.221037999,0.975615978,-669.9000244,170.1000061,-909.3000488,-2.095727477,-0.479764778,0.13445951,ST
14.2,-4.468726158,-1.128097653,8.147305489,0.335367978,-0.525918007,0.320124,-684.3000488,165.3000031,-914.1000366,-2.095347239,-0.493805109,0.13624691,ST
14.23333333,-3.757534027,-1.275838971,8.258560181,0.038109999,-0.609759986,-0.175305992,-677.1000366,158.7000122,-902.1000366,-2.088726666,-0.433608496,0.150545196,ST
14.26666667,-4.541101456,-1.655061603,7.900272369,-0.221037999,0.030487999,-1.089946032,-667.5,153.9000092,-911.7000122,-2.065605991,-0.498194752,0.197304712,ST
14.3,-4.729516506,-1.971479177,9.408788681,-0.213415995,-0.411587983,-1.646351933,-669.9000244,159.9000092,-911.7000122,-2.058629667,-0.464444608,0.206121302,ST
14.33333333,-4.603308201,-1.497151852,8.584547997,0.289635986,-2.301843882,-0.72408998,-662.7000122,162.9000092,-902.1000366,-2.069958155,-0.478355514,0.179288857,ST
14.36666667,-3.994996786,-1.600032449,8.518752098,0.61738199,-0.998481989,-0.045731999,-689.1000366,169.5,-916.500061,-2.067758972,-0.439866979,0.183470682,ST
14.4,-4.065577984,-1.551582813,8.187978745,0.594515979,-0.045731999,0.144817993,-674.7000122,157.5,-921.3000488,-2.066576548,-0.451030089,0.185574072,ST
14.43333333,-5.005858421,-1.509114742,7.312297821,0.929883957,1.04421401,0.060975999,-669.9000244,155.7000122,-914.1000366,-2.058554987,-0.568563955,0.199176403,ST
14.46666667,-2.165277481,-1.977460623,8.966761589,0.586893976,-2.843005896,1.585376024,-660.3000488,160.5,-914.1000366,-2.057327457,-0.281685907,0.213313859,ST
14.5,-4.321582794,-1.031796575,7.49532938,1.272873998,-0.701223969,0.030487999,-677.1000366,159.3000031,-914.1000366,-2.079168829,-0.469827664,0.152305879,ST
14.53333333,-3.671999693,-1.673604012,8.743654251,0.83079797,-0.144817993,-0.160062,-667.5,161.1000061,-911.7000122,-2.065939124,-0.406869296,0.180906367,ST
14.56666667,-4.472913265,-1.546797752,8.893787384,0.891773999,0.243903995,0.472563982,-677.1000366,164.7000122,-918.9000244,-2.069531661,-0.450388874,0.172357378,ST
14.6,-4.225281715,-1.414608121,8.165249825,1.158543944,-0.152439997,0.358233988,-677.1000366,159.3000031,-916.500061,-2.070263314,-0.467841224,0.16972326,ST
14.63333333,-3.727627039,-1.455880046,8.338112831,0.990859985,-0.152439997,0.160062,-674.7000122,159.9000092,-923.7000122,-2.069212994,-0.425342665,0.170770714,ST
14.66666667,-1.97925508,-1.475020528,8.602492332,1.295740008,-0.884151995,-0.266770005,-686.7000122,164.7000122,-909.3000488,-2.068781242,-0.262605285,0.168506779,ST
14.7,-7.095171928,-1.479805708,8.164052963,0.61738199,0.40396598,0.693601966,-672.3000488,161.7000122,-909.3000488,-2.066516058,-0.615179821,0.176513657,ST
14.73333333,-4.344910622,-1.678987265,9.3848629,-0.259148002,-1.158543944,-0.625003994,-667.5,156.9000092,-916.500061,-2.065375139,-0.457299577,0.177924105,ST
14.76666667,-2.682073116,-1.999591947,9.101343155,-1.006103992,-2.027451992,-0.434453994,-677.1000366,162.3000031,-918.9000244,-2.053699986,-0.308990174,0.211434941,ST
14.8,-2.932096958,-1.485188961,8.399123192,-1.653973937,-0.503051996,-0.91463995,-674.7000122,159.3000031,-911.7000122,-2.061363085,-0.325760229,0.185092908,ST
14.83333333,-3.401041031,-1.377523303,8.018704414,-1.410069942,0.579271972,0.701223969,-672.3000488,164.1000061,-918.9000244,-2.067686849,-0.385155563,0.174466224,ST
14.86666667,-4.395752907,-1.424776554,8.349477768,-0.160062,1.166165948,1.04421401,-689.1000366,157.5,-909.3000488,-2.071479195,-0.461648641,0.169898869,ST
14.9,-4.629626751,-1.510311007,8.373403549,0.198172003,0.602137983,0.975615978,-669.9000244,159.9000092,-918.9000244,-2.070318984,-0.491982613,0.175805037,ST
14.93333333,-5.096178055,-1.292586923,9.216785431,0.266770005,0.358233988,1.074702024,-691.5,163.5,-909.3000488,-2.086437277,-0.499932787,0.145584266,ST
14.96666667,-4.322779179,-1.162191749,8.900367737,1.204275966,-0.952749968,0.899396002,-691.5,160.5,-906.9000244,-2.094172129,-0.457970736,0.130576432,ST
15.0,-4.021913528,-1.172958374,8.306411743,1.265251994,-0.769822001,0.678357959,-684.3000488,162.9000092,-909.3000488,-2.092103434,-0.448329709,0.136051872,ST
15.03333333,-4.122999668,-0.866709173,7.833878517,1.097568035,0.304879993,0.42683199,-669.9000244,154.5,-909.3000488,-2.101747274,-0.47569908,0.113678955,ST
15.06666667,-3.509304762,-1.352999449,8.387160301,0.777444005,-0.152439997,-0.106707998,-684.3000488,160.5,-894.9000244,-2.085284682,-0.408500868,0.14994892,ST
15.1,-3.719851255,-1.345223546,7.845841408,0.464941978,-0.891773999,-0.434453994,-681.9000244,164.1000061,-902.1000366,-2.077994782,-0.430060406,0.165290657,ST
15.13333333,-5.055504322,-1.29198885,7.689725876,0.099086002,0.419209987,0.213415995,-677.1000366,156.3000031,-909.3000488,-2.077856557,-0.546420929,0.166110079,ST
15.16666667,-5.288780212,-1.834504485,9.604979515,-0.419209987,1.074702024,0.61738199,-677.1000366,159.9000092,-909.3000488,-2.069907749,-0.507641195,0.184552541,ST
15.2,-4.405323029,-1.863813519,8.877039909,-0.152439997,-1.006103992,0.144817993,-672.3000488,163.5,-916.500061,-2.062126123,-0.460056372,0.203282315,ST
15.23333333,-4.484876156,-1.65924859,8.011527061,-0.228659987,-0.266770005,-0.411587983,-677.1000366,158.7000122,-916.500061,-2.061045994,-0.492609589,0.204616542,ST
15.26666667,-4.405323029,-1.537825584,7.8482337,-1.036592007,0.922261953,1.112811923,-677.1000366,164.1000061,-911.7000122,-2.067895156,-0.502866416,0.196501637,ST
15.3,-3.935182571,-1.489974141,8.56241703,-0.762199998,0.213415995,1.463423967,-684.3000488,168.3000031,-902.1000366,-2.080839831,-0.439730715,0.176605728,ST
15.33333333,-3.733010292,-1.516292453,7.952311039,-0.312501997,-0.579271972,0.53354001,-693.9000244,163.5,-916.500061,-2.078439525,-0.432665903,0.186465628,ST
15.36666667,-4.312610626,-1.547395825,7.779447556,-0.007622,0.015244,0.190549999,-672.3000488,161.1000061,-902.1000366,-2.07532957,-0.48638804,0.194433885,ST
15.4,-4.429846764,-1.637117267,9.660009384,0.266770005,-0.708845973,-0.091463998,-672.3000488,165.3000031,-904.500061,-2.084810784,-0.436086238,0.172731766,ST
15.43333333,-4.10206461,-1.411617398,8.802869797,0.975615978,-1.653973937,0.480185986,-672.3000488,166.5,-906.9000244,-2.090898182,-0.429960385,0.159744744,ST
15.46666667,-3.695925474,-2.00976038,9.10313797,0.960371971,-0.312501997,0.083841994,-681.9000244,170.1000061,-902.1000366,-2.072498675,-0.38774756,0.204522286,ST
15.5,-3.928602934,-1.499544382,8.402113914,0.945127964,-1.623485923,-0.198172003,-677.1000366,169.5,-911.7000122,-2.081154434,-0.420336486,0.180963494,ST
15.53333333,-4.164869308,-1.565340161,8.782533646,1.059458017,-0.40396598,1.021348,-684.3000488,161.1000061,-899.7000122,-2.084810597,-0.433169677,0.175146362,ST
15.56666667,-4.105653286,-1.485188961,8.452358246,0.53354001,-0.388722003,1.882633924,-667.5,165.3000031,-892.500061,-2.089557606,-0.443513564,0.172176244,ST
15.6,-3.688747644,-1.372738123,8.333926201,0.213415995,-0.236281991,1.265251994,-684.3000488,166.5,-904.500061,-2.095493544,-0.418132068,0.163925341,ST
15.63333333,-3.687551498,-1.267464995,7.37091589,-0.632625997,-0.579271972,2.23324585,-686.7000122,159.9000092,-911.7000122,-2.099046294,-0.449732463,0.168369039,ST
15.66666667,-4.813256264,-1.483394623,7.544975281,-0.762199998,0.670735955,1.714949965,-701.1000366,167.1000061,-906.9000244,-2.093474067,-0.539795771,0.188892369,ST
15.7,-4.02430582,-2.024115801,9.397424698,-1.097568035,-1.760681987,0.0,-681.9000244,164.1000061,-906.9000244,-2.086013732,-0.422987663,0.209156746,ST
15.73333333,-4.904174328,-1.878168941,7.867972851,-1.753059983,-1.608241916,0.480185986,-698.7000122,164.1000061,-904.500061,-2.079697401,-0.518277818,0.230916507,ST
15.76666667,-3.945351124,-2.213727236,8.34828186,-1.791170001,-0.091463998,0.800309956,-696.3000488,160.5,-909.3000488,-2.071751839,-0.446772771,0.255700144,ST
15.8,-4.840172768,-2.157501698,8.555238724,-1.333850026,0.640248001,1.897877932,-701.1000366,166.5,-906.9000244,-2.080160934,-0.494678484,0.24914226,ST
15.83333333,-4.614673138,-1.608406425,9.136633873,-0.594515979,-0.510674,1.920743942,-710.7000122,167.7000122,-902.1000366,-2.112901041,-0.468308231,0.188559151,ST
15.86666667,-3.27602911,-1.26148355,8.698195457,0.678357959,-1.920743942,2.149404049,-693.9000244,170.7000122,-909.3000488,-2.133104035,-0.377154839,0.150358519,ST
15.9,-2.265765667,-1.165780663,8.524733543,1.028970003,-2.439039946,1.471045971,-693.9000244,165.3000031,-897.3000488,-2.140888836,-0.277088855,0.136393982,ST
15.93333333,-4.764208794,-1.19090271,8.18319416,0.701223969,0.312501997,0.419209987,-713.1000366,165.9000092,-911.7000122,-2.139164953,-0.478785874,0.141959647,ST
15.96666667,-4.184608459,-1.686165094,9.526622772,0.076219998,1.623485923,-0.213415995,-691.5,166.5,-904.500061,-2.126364235,-0.42467696,0.168919589,ST
16.0,-4.84316349,-1.473824263,8.446376801,-0.40396598,-0.221037999,0.160062,-691.5,167.7000122,-892.500061,-2.125642351,-0.495832815,0.172431858,DLL
16.03333333,-2.921330214,-1.534834862,8.598304749,0.556405962,-0.891773999,-0.655492008,-681.9000244,168.9000092,-899.7000122,-2.122792077,-0.354254785,0.17560834,DLL
16.06666667,-3.493753195,-1.552181005,8.357254028,0.594515979,-0.449698001,-0.358233988,-691.5,165.9000092,-906.9000244,-2.119658576,-0.382065604,0.181322161,DLL
16.1,-4.057801723,-1.428963542,8.281289101,0.556405962,0.419209987,-0.038109999,-689.1000366,167.1000061,-906.9000244,-2.122494507,-0.436732872,0.172352971,DLL
16.13333333,-4.101466179,-1.625752568,8.993079185,0.060975999,0.167683989,0.175305992,-698.7000122,164.7000122,-909.3000488,-2.120617134,-0.424952996,0.177445058,DLL
16.16666667,-4.367640018,-1.620369315,9.212597847,0.129574001,-0.160062,0.0,-686.7000122,171.3000031,-906.9000244,-2.12178851,-0.434617393,0.174462472,DLL
16.2,-4.257581711,-1.422982097,8.687428474,-0.777444005,-1.486289978,1.211897969,-681.9000244,167.1000061,-897.3000488,-2.130133405,-0.445982505,0.164543147,DLL
16.23333333,-3.755141497,-1.400850892,8.502004623,-0.571649969,-0.670735955,1.219519973,-686.7000122,165.9000092,-906.9000244,-2.133861552,-0.417390835,0.163519544,DLL
16.26666667,-3.438125849,-1.187313795,7.866178036,-1.059458017,-1.364337921,0.777444005,-686.7000122,171.3000031,-911.7000122,-2.140955551,-0.40814128,0.153444998,DLL
16.3,-4.304236889,-0.854148149,7.195660114,-2.423795938,-0.91463995,2.408551931,-677.1000366,168.9000092,-911.7000122,-2.160637364,-0.510847468,0.127014963,DLL
16.33333333,-4.03866148,-1.619771123,8.045620918,-5.167716026,-0.525918007,5.076251984,-681.9000244,172.5,-911.7000122,-2.147960642,-0.468123265,0.188926365,DLL
16.36666667,-5.115916729,-1.778279066,8.003750801,-6.128087997,-1.364337921,6.593029976,-669.9000244,180.9000092,-909.3000488,-2.155469893,-0.539723087,0.215678623,DLL
16.4,-5.195469856,-2.332159519,7.976236343,-8.094563484,-1.943609953,8.544261932,-684.3000488,171.3000031,-914.1000366,-2.151926654,-0.555415471,0.274232255,DLL
16.43333333,-5.374912739,-2.741887331,8.42005825,-8.993959427,-3.460387945,11.7150135,-679.5,179.7000122,-911.7000122,-2.169442993,-0.547636512,0.309229951,DLL
16.46666667,-4.680468559,-2.429656744,8.761598587,-8.506152153,-3.612828016,11.48635387,-679.5,179.7000122,-914.1000366,-2.218611552,-0.48892563,0.280168657,DLL
16.5,-3.561343193,-2.700615406,7.777653217,-8.247003555,-4.946677685,12.0427599,-693.9000244,179.1000061,-916.500061,-2.233379144,-0.423229746,0.326498231,DLL
16.53333333,-3.964491606,-2.686858177,7.839859962,-6.059489727,-2.400929928,8.750056267,-698.7000122,188.1000061,-911.7000122,-2.255851173,-0.442335264,0.331992051,DLL
16.56666667,-3.347208023,-2.931498766,7.817130566,-4.923811913,-1.669217944,6.684494019,-696.3000488,189.3000031,-902.1000366,-2.265926598,-0.393262179,0.356910055,DLL
16.6,-4.203150749,-2.726335764,8.365627289,-5.464973927,-2.812517881,6.303393841,-681.9000244,192.3000031,-909.3000488,-2.297483227,-0.434355334,0.327048749,DLL
16.63333333,-3.637307405,-2.843571663,7.918216705,-4.390272141,-2.103672028,5.74698782,-696.3000488,190.5,-909.3000488,-2.307708448,-0.413261255,0.34353348,DLL
16.66666667,-4.045240879,-2.999686956,8.459535599,-4.83234787,-2.317087889,4.817103863,-693.9000244,191.1000061,-902.1000366,-2.322908284,-0.420603826,0.344764856,DLL
16.7,-3.730617762,-3.387283564,8.527126312,-4.763750076,-2.675322056,4.672286034,-686.7000122,190.5,-904.500061,-2.326558859,-0.391993122,0.374957871,DLL
16.73333333,-3.19587779,-3.66661644,7.943936825,-4.268320084,-2.591480017,4.390272141,-693.9000244,190.5,-890.1000366,-2.322949825,-0.357849762,0.424208804,DLL
16.76666667,-3.183316946,-3.752748966,7.812345505,-4.176856041,-2.23324585,3.391789913,-696.3000488,200.1000061,-894.9000244,-2.327117251,-0.352379594,0.44680512,DLL
16.8,-3.295169592,-3.917238235,8.552248001,-4.451247692,-2.942091942,4.047281742,-693.9000244,200.1000061,-892.500061,-2.34464982,-0.338762694,0.436736641,DLL
16.83333333,-3.063090086,-3.675588608,7.886515141,-2.964957952,-2.858249903,4.047281742,-701.1000366,197.1000061,-890.1000366,-2.357092711,-0.337327237,0.437992583,DLL
16.86666667,-3.618764877,-3.855629683,7.771671772,-2.202757835,-1.211897969,3.51374197,-715.5,193.5000153,-894.9000244,-2.360934635,-0.386690861,0.458067213,DLL
16.9,-3.566128492,-3.98423028,8.815430641,-1.570132017,-0.929883957,2.202757835,-693.9000244,206.7000122,-887.7000122,-2.377505529,-0.35932354,0.43135025,DLL
16.93333333,-3.082230806,-4.194776535,8.843544006,-0.685979962,-1.364337921,0.647870004,-689.1000366,197.7000122,-885.3000488,-2.377356233,-0.314668457,0.441038713,DLL
16.96666667,-3.608596563,-4.091298103,8.681447029,0.61738199,0.007622,-1.074702024,-701.1000366,195.3000031,-885.3000488,-2.37490763,-0.350967819,0.44014123,DLL
17.0,-3.8927145,-3.627139091,8.626418114,1.440557957,0.640248001,-1.55488801,-698.7000122,200.1000061,-890.1000366,-2.382629756,-0.386477576,0.404561493,DLL
17.03333333,-4.092494011,-3.405826092,8.138931274,2.347575903,1.524399996,-1.12805593,-708.3000488,201.9000092,-882.9000244,-2.38052597,-0.42602015,0.395744547,DLL
17.06666667,-4.168458462,-2.874675035,8.059976578,2.317087889,1.547266006,-1.135677934,-713.1000366,196.5000153,-892.500061,-2.393847808,-0.449679395,0.350597058,DLL
17.1,-3.766506195,-3.214420319,7.656229973,1.295740008,1.067080021,-0.160062,-696.3000488,194.1000061,-892.500061,-2.375749605,-0.431771421,0.387227749,DLL
17.13333333,-4.279114723,-3.175540924,7.732792377,1.227141976,1.532021999,-1.006103992,-708.3000488,198.3000031,-897.3000488,-2.370840998,-0.466224063,0.388496125,DLL
17.16666667,-5.273826599,-2.662932396,8.21609211,0.945127964,1.783547997,-0.442075998,-715.5,195.3000031,-885.3000488,-2.396368696,-0.534011076,0.328735752,DLL
17.2,-4.051820278,-2.935087442,8.402712822,0.167683989,0.312501997,1.272873998,-698.7000122,200.1000061,-890.1000366,-2.39609677,-0.449724477,0.333736006,DLL
17.23333333,-3.183316946,-3.707888365,7.399626732,0.342989981,1.493911982,0.541162014,-701.1000366,192.3000031,-892.500061,-2.352343804,-0.38571252,0.440100376,DLL
17.26666667,-4.551270008,-3.311917543,8.385964394,0.381099999,1.143299937,-0.785066009,-701.1000366,189.3000031,-890.1000366,-2.369985145,-0.452159253,0.389761347,DLL
17.3,-4.041652203,-3.009257317,7.587443829,0.998481989,-0.396344006,0.769822001,-674.7000122,197.1000061,-887.7000122,-2.375900244,-0.458122317,0.378061743,DLL
17.33333333,-3.799404144,-3.26885128,6.986907959,1.089946032,0.060975999,1.928365946,-686.7000122,195.9000092,-887.7000122,-2.358554894,-0.459045397,0.422892315,DLL
17.36666667,-3.688747644,-3.122904539,7.631107807,0.625003994,-0.068598002,0.495429993,-703.5,194.1000061,-899.7000122,-2.371306763,-0.428608377,0.394111485,DLL
17.4,-4.432239532,-3.38668561,8.001358986,-0.746955991,-1.112811923,0.907018006,-698.7000122,201.3000031,-902.1000366,-2.372731832,-0.463919783,0.399597538,DLL
17.43333333,-4.710375786,-3.265262365,7.713651657,-1.227141976,-0.769822001,0.80793196,-693.9000244,195.3000031,-880.500061,-2.375425561,-0.501965764,0.40123128,DLL
17.46666667,-4.020118713,-3.926808596,7.995975018,-1.875011921,-0.625003994,0.579271972,-696.3000488,197.7000122,-875.7000122,-2.357349869,-0.436662845,0.449748788,DLL
17.5,-4.103858948,-3.794619083,7.235735416,-1.227141976,-1.318606019,1.501533985,-691.5,204.3000031,-887.7000122,-2.350958187,-0.458993324,0.476622921,DLL
17.53333333,-3.929799318,-3.733010292,7.639482021,-1.028970003,-0.853663981,1.989341974,-689.1000366,197.7000122,-899.7000122,-2.364144893,-0.438379088,0.458934443,DLL
17.56666667,-3.599624395,-3.660036802,7.755521774,-1.250007987,-1.42531395,1.867389917,-713.1000366,198.9000092,-892.500061,-2.375932938,-0.405013121,0.444851245,DLL
17.6,-3.916042089,-3.376517057,7.37091589,-1.211897969,-1.006103992,1.867389917,-684.3000488,194.1000061,-880.500061,-2.38709575,-0.442247697,0.432546798,DLL
17.63333333,-4.026698589,-3.580483913,8.548659325,-0.967993975,-0.510674,2.439039946,-681.9000244,201.3000031,-885.3000488,-2.40518501,-0.417136488,0.403602667,DLL
17.66666667,-3.649270296,-3.750356436,8.334524155,-0.594515979,-1.067080021,0.602137983,-681.9000244,200.7000122,-890.1000366,-2.401664918,-0.386388783,0.419279509,DLL
17.7,-4.313807011,-3.444705486,7.941544056,-0.213415995,-0.731711984,1.867389917,-677.1000366,205.5000153,-892.500061,-2.410067631,-0.448848349,0.410157027,DLL
17.73333333,-3.71386981,-3.753347158,8.22027874,0.289635986,-0.838419974,1.844523907,-691.5,201.9000092,-885.3000488,-2.408793077,-0.400448858,0.423502726,DLL
17.76666667,-3.862807274,-3.577493191,7.923001766,0.29725799,-1.669217944,0.198172003,-693.9000244,205.5000153,-894.9000244,-2.410529522,-0.412568097,0.423064321,DLL
17.8,-4.468128204,-3.415396452,7.984012604,0.602137983,-1.242385983,0.762199998,-686.7000122,203.7000122,-887.7000122,-2.419785985,-0.462826861,0.406027795,DLL
17.83333333,-3.769496918,-3.810768843,7.903263092,0.221037999,-1.387203932,0.304879993,-689.1000366,204.9000092,-885.3000488,-2.406901513,-0.415774714,0.43994336,DLL
17.86666667,-4.094288826,-3.580483913,7.586845398,0.853663981,-0.373477995,1.669217944,-686.7000122,200.7000122,-882.9000244,-2.410551799,-0.448544705,0.43838251,DLL
17.9,-3.699514389,-3.482388496,8.031864166,0.655492008,-0.800309956,0.685979962,-696.3000488,204.3000031,-890.1000366,-2.422681669,-0.407889713,0.412718543,DLL
17.93333333,-3.535623074,-3.608596563,7.96846056,0.205793992,-1.074702024,0.221037999,-686.7000122,205.5000153,-892.500061,-2.420197183,-0.387083865,0.42234653,DLL
17.96666667,-3.875966549,-3.402835369,7.866178036,0.548784018,-0.274392009,-0.381099999,-689.1000366,201.3000031,-882.9000244,-2.423855712,-0.417004721,0.410372281,DLL
18.0,-4.374219418,-3.246720076,7.871561527,0.320124,0.670735955,-0.030487999,-693.9000244,198.9000092,-878.1000366,-2.429597063,-0.464501096,0.39471003,DLL
18.03333333,-3.698916197,-3.425564766,7.817130566,0.213415995,0.274392009,-0.152439997,-696.3000488,203.1000061,-887.7000122,-2.422416468,-0.4191627,0.409708331,DLL
18.06666667,-3.987819195,-3.520071268,7.906253815,0.221037999,-0.236281991,-0.038109999,-686.7000122,206.7000122,-887.7000122,-2.419336682,-0.429331439,0.41697036,DLL
18.1,-4.195972919,-3.611587286,8.062369347,0.076219998,-0.739333987,-0.327746004,-686.7000122,203.7000122,-882.9000244,-2.417884458,-0.439600773,0.420246702,DLL
18.13333333,-2.895610094,-4.705590725,8.485256195,-1.303362012,-1.333850026,-0.137196004,-689.1000366,201.9000092,-878.1000366,-2.393501622,-0.318777696,0.491531676,DLL
18.16666667,-3.475808859,-4.35388279,8.686232567,-1.44817996,-1.859767914,0.060975999,-710.7000122,206.7000122,-868.500061,-2.402947477,-0.336315792,0.471698751,DLL
18.2,-3.26885128,-4.636804104,8.012125015,0.106707998,0.625003994,0.160062,-693.9000244,201.9000092,-868.500061,-2.388101834,-0.339854791,0.51510121,DLL
18.23333333,-4.324573517,-3.919032812,7.686735153,1.280496001,1.943609953,-0.038109999,-684.3000488,204.9000092,-880.500061,-2.398715076,-0.444774558,0.478605602,DLL
18.26666667,-4.18879509,-3.596633673,7.019805908,1.920743942,1.585376024,1.250007987,-689.1000366,206.7000122,-894.9000244,-2.400695688,-0.483274188,0.471386902,DLL
18.3,-4.603308201,-3.790431976,7.01801157,1.646351933,0.990859985,0.243903995,-686.7000122,203.7000122,-892.500061,-2.390326297,-0.51673537,0.488224082,DLL
18.33333333,-5.368931293,-3.646279573,8.066555977,0.160062,-0.548784018,-0.358233988,-689.1000366,198.9000092,-892.500061,-2.415555836,-0.538710901,0.437431432,DLL
18.36666667,-4.62484169,-3.184513092,7.339812279,1.303362012,-1.227141976,1.730193973,-689.1000366,205.5000153,-892.500061,-2.431343105,-0.526499093,0.411470434,DLL
18.4,-4.580578804,-3.166568995,8.030069351,1.516777992,0.137196004,1.943609953,-691.5,199.5000153,-894.9000244,-2.448898242,-0.496890969,0.379275971,DLL
18.43333333,-5.108738899,-3.031388521,7.801578999,0.129574001,-0.396344006,0.449698001,-681.9000244,196.5000153,-885.3000488,-2.453591777,-0.537420695,0.371789377,DLL
18.46666667,-4.211524487,-3.277225256,7.308110714,-0.221037999,-0.381099999,0.899396002,-684.3000488,204.3000031,-892.500061,-2.436258789,-0.494954109,0.411361519,DLL
18.5,-3.712673426,-3.756337881,7.531816483,0.121951997,0.175305992,1.432935953,-691.5,202.5000153,-887.7000122,-2.420596706,-0.432661659,0.451714469,DLL
18.53333333,-4.401135921,-3.261075497,7.673576355,0.175305992,-1.097568035,0.236281991,-689.1000366,197.1000061,-887.7000122,-2.439433228,-0.473831245,0.411470798,DLL
18.56666667,-4.494446278,-3.00507021,7.98042345,0.632625997,-0.716467977,1.120433927,-691.5,202.5000153,-894.9000244,-2.462128675,-0.48289376,0.366894789,DLL
18.6,-3.35139513,-3.444705486,7.339812279,1.463423967,-0.320124,1.067080021,-679.5,201.9000092,-890.1000366,-2.438498165,-0.408605838,0.42371365,DLL
18.63333333,-3.872975826,-3.841872215,8.572585106,-1.356715918,-2.278977871,-1.532021999,-696.3000488,198.9000092,-890.1000366,-2.438661002,-0.390058619,0.423972471,DLL
18.66666667,-3.103165627,-4.193580151,7.864982128,-0.213415995,-0.655492008,1.432935953,-679.5,198.9000092,-890.1000366,-2.422946917,-0.344482093,0.478483622,DLL
18.7,-2.928508043,-4.175037861,8.655727386,0.388722003,0.121951997,0.205793992,-679.5,197.1000061,-894.9000244,-2.430577607,-0.305891434,0.454624815,DLL
18.73333333,-4.453174591,-3.045743942,7.324858665,2.073184013,1.028970003,1.143299937,-691.5,203.1000061,-890.1000366,-2.449894442,-0.476647883,0.402887152,DLL
18.76666667,-4.087110996,-3.545791626,8.025882721,1.067080021,0.358233988,-0.274392009,-693.9000244,191.7000122,-885.3000488,-2.443844735,-0.444441647,0.412216492,DLL
18.8,-5.395249367,-2.833403349,7.336223602,0.929883957,0.342989981,0.007622,-677.1000366,196.5000153,-894.9000244,-2.459685093,-0.570063445,0.377185944,DLL
18.83333333,-3.791030169,-3.686355114,7.410393238,0.708845973,1.455801964,0.876529992,-691.5,207.3000031,-892.500061,-2.425962622,-0.460591446,0.444762712,DLL
18.86666667,-5.068663597,-2.904582262,7.578471661,0.449698001,-0.731711984,0.099086002,-677.1000366,207.9000092,-906.9000244,-2.45736635,-0.540122078,0.379972525,DLL
18.9,-3.884938717,-3.851442575,7.94991827,-0.015244,-0.373477995,1.158543944,-691.5,206.1000061,-885.3000488,-2.432280557,-0.435874746,0.439174325,DLL
18.93333333,-4.191785812,-3.436331272,8.307009697,-1.006103992,-2.339953899,0.259148002,-701.1000366,197.1000061,-894.9000244,-2.452207354,-0.433349505,0.400800646,DLL
18.96666667,-3.045743942,-3.418387175,8.088088989,0.541162014,-0.114329994,2.248489857,-677.1000366,197.7000122,-890.1000366,-2.457652805,-0.351686349,0.398128277,DLL
19.0,-3.784450531,-2.878862143,8.097061157,1.089946032,-0.038109999,0.304879993,-689.1000366,205.5000153,-890.1000366,-2.475006909,-0.403748737,0.350237704,DLL
19.03333333,-4.204347134,-2.865104914,7.529423714,1.493911982,1.326228023,0.960371971,-691.5,193.5000153,-904.500061,-2.47079907,-0.47030719,0.35884463,DLL
19.06666667,-4.165467739,-2.844768047,7.749540329,0.61738199,0.388722003,-0.846041977,-691.5,194.7000122,-887.7000122,-2.47087921,-0.468014404,0.353025756,DLL
19.1,-4.381397247,-2.990116596,7.871561527,0.609759986,0.312501997,-0.381099999,-693.9000244,197.1000061,-892.500061,-2.465885594,-0.477636361,0.360486301,DLL
19.13333333,-4.649365425,-3.158792973,8.110818863,0.907018006,-0.106707998,-1.371959925,-684.3000488,199.5000153,-892.500061,-2.458510929,-0.48716386,0.368819467,DLL
19.16666667,-4.835387707,-3.305936098,7.842850685,0.609759986,-0.327746004,-1.410069942,-679.5,204.9000092,-897.3000488,-2.443430695,-0.510217347,0.393530882,DLL
19.2,-4.85751915,-3.315506458,8.222073555,0.93750596,0.106707998,-0.228659987,-696.3000488,203.1000061,-897.3000488,-2.446382499,-0.503071784,0.384243044,DLL
19.23333333,-3.990809917,-3.315506458,8.440395355,0.060975999,-1.310984015,0.320124,-686.7000122,197.1000061,-890.1000366,-2.451909021,-0.4298109,0.375577607,DLL
19.26666667,-4.557251453,-2.612688541,7.463029861,0.152439997,-0.823175967,1.676839948,-684.3000488,203.7000122,-902.1000366,-2.470067846,-0.503854648,0.343441893,DLL
19.3,-3.667812586,-3.844264984,7.422356129,-0.571649969,1.196653962,-0.129574001,-689.1000366,198.3000031,-894.9000244,-2.418435609,-0.43180401,0.456130956,DLL
19.33333333,-5.268443108,-3.624148369,7.576078892,-1.844523907,0.076219998,-0.525918007,-698.7000122,193.5000153,-894.9000244,-2.421574679,-0.534050943,0.45153347,DLL
19.36666667,-4.186402798,-3.994996786,7.677165031,-1.028970003,0.304879993,2.36281991,-689.1000366,198.9000092,-892.500061,-2.415733005,-0.46928598,0.474372719,DLL
19.4,-4.431043148,-3.412405729,8.182596207,-0.091463998,-0.861285985,1.34147191,-703.5,201.9000092,-892.500061,-2.448006014,-0.46456713,0.410081038,DLL
19.43333333,-3.15819478,-3.792226553,7.839859962,0.556405962,-1.42531395,1.150921941,-693.9000244,197.7000122,-892.500061,-2.438346833,-0.370374396,0.441120547,DLL
19.46666667,-3.911854982,-3.331656456,7.41996336,0.91463995,-1.493911982,-0.144817993,-710.7000122,195.3000031,-890.1000366,-2.445076272,-0.430602515,0.424477949,DLL
19.5,-3.752150774,-3.868788719,6.984515667,0.548784018,0.625003994,0.411587983,-696.3000488,201.9000092,-892.500061,-2.417726431,-0.438815074,0.488571661,DLL
19.53333333,-4.111036777,-4.08770895,7.806962013,-0.518296003,0.091463998,-0.167683989,-681.9000244,198.9000092,-899.7000122,-2.419583251,-0.43696874,0.484447034,DLL
19.56666667,-5.312107563,-3.637905598,7.97563839,0.083841994,-0.739333987,1.859767914,-701.1000366,197.7000122,-897.3000488,-2.444841829,-0.523364266,0.438449701,DLL
19.6,-4.520764351,-3.931593657,8.388357162,-0.411587983,-0.678357959,-0.030487999,-693.9000244,204.3000031,-890.1000366,-2.445778039,-0.464717705,0.43876952,DLL
19.63333333,-4.620654583,-3.302347422,7.424748898,0.167683989,-0.853663981,0.442075998,-715.5,198.9000092,-894.9000244,-2.45500819,-0.505669452,0.421917884,DLL
19.66666667,-3.989015579,-3.378909588,7.748343945,0.693601966,-0.518296003,1.516777992,-701.1000366,205.5000153,-890.1000366,-2.462465126,-0.454152467,0.411274639,DLL
19.7,-3.804189205,-3.450088739,7.77286768,0.29725799,-1.577754021,0.396344006,-703.5,197.1000061,-911.7000122,-2.462493665,-0.425599306,0.415408283,DLL
19.73333333,-3.189298391,-3.69472909,7.751334667,-0.152439997,-1.74543798,0.609759986,-710.7000122,195.9000092,-899.7000122,-2.45639988,-0.367912704,0.438552384,DLL
19.76666667,-3.815553904,-3.602615118,7.854813576,-0.144817993,-0.663114011,1.105189919,-691.5,198.9000092,-892.500061,-2.462017258,-0.40594572,0.431256979,DLL
19.8,-4.192384243,-3.589456081,7.967862606,-0.015244,0.320124,1.493911982,-705.9000244,197.7000122,-892.500061,-2.467895148,-0.441678315,0.423846517,DLL
19.83333333,-5.780453682,-2.476311922,7.604789734,1.04421401,1.196653962,2.164648056,-708.3000488,201.3000031,-894.9000244,-2.513134522,-0.591651,0.336635883,DLL
19.86666667,-3.91125679,-3.857424021,7.917618275,0.160062,0.663114011,0.678357959,-689.1000366,197.7000122,-899.7000122,-2.466199331,-0.454928817,0.431446628,DLL
19.9,-4.791125298,-2.819047928,7.198650837,-0.358233988,-1.783547997,-0.29725799,-691.5,197.7000122,-892.500061,-2.489091966,-0.532337341,0.385891839,DLL
19.93333333,-3.890919924,-3.919032812,7.567704678,-0.518296003,-0.625003994,1.173787951,-710.7000122,200.7000122,-899.7000122,-2.457341487,-0.449564744,0.460012065,DLL
19.96666667,-4.87606144,-3.632522345,8.056985855,-0.434453994,-0.792688012,0.266770005,-703.5,203.1000061,-885.3000488,-2.472264159,-0.492994901,0.430891332,DLL
20.0,-4.824023247,-4.011146545,8.427236557,-0.838419974,-0.457319975,0.998481989,-686.7000122,201.3000031,-887.7000122,-2.470308963,-0.479748749,0.442400967,DLL
20.03333333,-4.642187595,-4.167262077,8.664699554,-0.861285985,-1.181409955,1.349093914,-708.3000488,205.5000153,-894.9000244,-2.472626273,-0.455169417,0.447124879,DLL
20.06666667,-3.523660183,-3.612185478,7.064666748,1.036592007,-0.259148002,1.440557957,-691.5,198.9000092,-902.1000366,-2.466637404,-0.424424498,0.466236698,DLL
20.1,-3.645681381,-3.44530344,7.650846958,0.792688012,0.411587983,1.471045971,-691.5,200.1000061,-899.7000122,-2.483605086,-0.413954383,0.428901998,DLL
20.13333333,-3.774880409,-3.457864523,7.863187313,1.600619912,1.112811923,0.952749968,-696.3000488,196.5000153,-880.500061,-2.488693527,-0.415992745,0.414754016,DLL
20.16666667,-4.386780739,-3.614578009,8.045620918,0.777444005,0.998481989,-1.478667974,-701.1000366,204.9000092,-899.7000122,-2.481732233,-0.452778376,0.420793418,DLL
20.2,-4.406519413,-2.502032042,7.1310606,2.118916035,1.059458017,0.838419974,-689.1000366,204.9000092,-897.3000488,-2.518179973,-0.530118191,0.333295441,DLL
20.23333333,-4.392163754,-2.640801191,7.542582989,0.91463995,-0.129574001,-0.663114011,-696.3000488,199.5000153,-897.3000488,-2.514983762,-0.507621085,0.3352848,DLL
20.26666667,-3.511099339,-3.557156324,7.37091589,0.0,-1.181409955,-1.150921941,-696.3000488,201.9000092,-897.3000488,-2.471920771,-0.424313339,0.428020012,DLL
20.3,-5.089598656,-2.69224143,8.253774643,-0.129574001,-1.631107926,-1.478667974,-701.1000366,197.7000122,-902.1000366,-2.509962516,-0.50651191,0.340146935,DLL
20.33333333,-5.071055889,-2.44760108,9.006836891,0.182927996,-0.815553963,1.432935953,-681.9000244,195.9000092,-892.500061,-2.54252151,-0.499185537,0.278892601,DLL
20.36666667,-4.104456902,-2.78435564,8.34469223,0.922261953,-0.320124,0.457319975,-689.1000366,197.7000122,-892.500061,-2.52753477,-0.449028039,0.311975794,DLL
20.4,-4.660131931,-2.761028051,7.738175392,0.495429993,0.655492008,-1.181409955,-698.7000122,198.3000031,-897.3000488,-2.512438426,-0.504354376,0.337396471,DLL
20.43333333,-3.490762472,-3.242532969,7.321867943,-0.91463995,-0.442075998,-1.592997909,-693.9000244,194.1000061,-894.9000244,-2.480787482,-0.428754071,0.403712062,DLL
20.46666667,-4.454370499,-2.506817102,6.365437508,0.198172003,-0.350611985,1.242385983,-696.3000488,202.5000153,-875.7000122,-2.49425321,-0.547347041,0.380314393,DLL
20.5,-3.655849934,-3.725832462,7.260857582,0.198172003,1.265251994,0.693601966,-698.7000122,198.9000092,-887.7000122,-2.458003233,-0.449042138,0.456064623,DLL
20.53333333,-5.16556263,-2.944657803,7.512077808,-0.632625997,-0.358233988,-0.045731999,-705.9000244,197.1000061,-894.9000244,-2.489379727,-0.544950434,0.392266757,DLL
20.56666667,-4.808471203,-3.819142818,8.568398476,-0.907018006,-0.342989981,0.983237982,-701.1000366,200.1000061,-892.500061,-2.481398035,-0.486529127,0.415161353,DLL
20.6,-3.377713442,-4.771984577,8.942237854,-1.432935953,-1.577754021,-1.966475964,-696.3000488,198.9000092,-890.1000366,-2.454476536,-0.35203643,0.478775059,DLL
20.63333333,-3.280215979,-4.724731445,8.76099968,0.464941978,-1.303362012,1.013725996,-693.9000244,198.9000092,-897.3000488,-2.45364244,-0.324193052,0.490070192,DLL
20.66666667,-3.893312693,-3.308926821,8.194559097,2.682943821,-0.243903995,1.135677934,-710.7000122,205.5000153,-894.9000244,-2.487059617,-0.401302234,0.396587555,DLL
20.7,-2.630034685,-3.044547796,6.731501102,3.368923903,0.327746004,0.564027965,-710.7000122,193.5000153,-892.500061,-2.478182481,-0.35337869,0.414844302,DLL
20.73333333,-3.310123205,-2.929106236,6.41328907,0.93750596,-0.541162014,0.0,-715.5,191.1000061,-892.500061,-2.474318537,-0.420971452,0.424223862,DLL
20.76666667,-4.228870869,-3.497940063,7.588639736,-0.929883957,0.40396598,-0.388722003,-698.7000122,201.3000031,-902.1000366,-2.470778902,-0.459764293,0.432130372,DLL
20.8,-3.573306084,-4.265357494,7.620939732,-1.897877932,0.060975999,-0.571649969,-698.7000122,198.3000031,-887.7000122,-2.443917824,-0.402704382,0.497943993,DLL
20.83333333,-5.716452599,-3.609792948,8.725709915,-1.196653962,0.228659987,0.114329994,-693.9000244,193.5000153,-897.3000488,-2.481098578,-0.51654958,0.417007505,DLL
20.86666667,-4.58715868,-3.794619083,8.449367523,0.640248001,-0.327746004,-0.312501997,-696.3000488,203.7000122,-897.3000488,-2.478460397,-0.469994815,0.420413248,DLL
20.9,-4.013539314,-4.123597622,7.867972851,1.23476398,-0.022865999,0.068598002,-698.7000122,195.9000092,-873.3000488,-2.455626568,-0.432680376,0.47004373,DLL
20.93333333,-4.361060619,-3.372928143,7.930179596,1.44817996,-0.190549999,-0.655492008,-713.1000366,194.7000122,-894.9000244,-2.477156792,-0.460808901,0.414394595,DLL
20.96666667,-3.705495596,-3.683962584,7.450469017,1.585376024,0.495429993,0.358233988,-710.7000122,197.1000061,-892.500061,-2.461328567,-0.428655049,0.448076093,DLL
21.0,-3.494351149,-3.828114986,7.984012604,1.798792005,1.04421401,-0.670735955,-713.1000366,195.3000031,-902.1000366,-2.458504068,-0.387420444,0.445442588,DLL
21.03333333,-3.055314302,-4.178028584,8.403310776,5.403997898,2.583858013,-3.833865881,-710.7000122,201.3000031,-897.3000488,-2.441551354,-0.330304574,0.453135518,DLL
21.06666667,-3.207840681,-4.219300747,8.015713692,7.202789783,2.400929928,-7.583889961,-715.5,194.1000061,-899.7000122,-2.409744649,-0.336941894,0.472976714,DLL
21.1,-4.591943741,-3.661233187,8.704176903,9.420791626,2.675322056,-10.04579544,-708.3000488,191.7000122,-904.500061,-2.404483233,-0.427003913,0.406797698,DLL
21.13333333,-3.549380302,-3.487173557,8.461928368,10.12963772,1.798792005,-11.3339138,-705.9000244,188.7000122,-906.9000244,-2.378805662,-0.376929363,0.386134397,DLL
21.16666667,-5.010643482,-2.449395418,6.995282173,9.756159782,2.804895878,-7.865903854,-701.1000366,179.7000122,-894.9000244,-2.371035714,-0.555251572,0.339391839,DLL
21.2,-4.377808571,-2.456573248,8.460134506,6.951263905,3.27745986,-6.181441784,-720.3000488,176.7000122,-909.3000488,-2.373575881,-0.479831747,0.287870841,DLL
21.23333333,-4.000380039,-2.230475187,7.178313732,6.943641663,2.705809832,-4.72563982,-713.1000366,174.9000092,-914.1000366,-2.351836999,-0.489203183,0.292921363,DLL
21.26666667,-3.246720076,-2.482293367,7.628117085,4.580821991,2.637212038,-4.001549721,-717.9000244,182.1000061,-897.3000488,-2.330067631,-0.404058832,0.307682777,DLL
21.3,-4.020717144,-2.656951189,7.774662495,3.490875959,2.59910202,-3.147886038,-701.1000366,172.5,-902.1000366,-2.311362218,-0.44870947,0.323102976,DLL
21.33333333,-4.272535324,-2.786149979,9.281384468,3.330813885,1.844523907,-3.521363974,-710.7000122,177.9000092,-899.7000122,-2.31112792,-0.422249847,0.294980855,DLL
21.36666667,-4.748657227,-2.600725651,8.680251122,3.727157831,0.868907988,-3.300325871,-708.3000488,177.9000092,-916.500061,-2.302024465,-0.472389133,0.288796072,DLL
21.4,-3.737197399,-2.634819746,8.571389198,3.391789913,0.541162014,-3.086910009,-708.3000488,176.1000061,-916.500061,-2.2894713,-0.408164013,0.293850707,DLL
21.43333333,-3.274234533,-3.127091408,7.779447556,3.323191881,0.922261953,-4.138745785,-703.5,162.9000092,-909.3000488,-2.251198283,-0.379098659,0.362422739,DLL
21.46666667,-4.437622547,-2.342926025,7.500712872,3.91770792,2.25611186,-5.670767784,-715.5,171.3000031,-906.9000244,-2.254904567,-0.48733319,0.314313104,DLL
21.5,-5.528635502,-1.697529793,8.745448112,3.971061945,1.676839948,-3.567095995,-715.5,174.3000031,-899.7000122,-2.291617537,-0.543315083,0.214941342,DLL
21.53333333,-4.084718227,-1.708894491,8.506789207,4.344540119,0.274392009,-3.147886038,-705.9000244,170.1000061,-911.7000122,-2.288288756,-0.457881479,0.197362091,DLL
21.56666667,-3.953126907,-1.403243423,6.885821819,3.468009949,0.358233988,-2.309465885,-708.3000488,161.7000122,-902.1000366,-2.27992614,-0.501282354,0.197159415,DLL
21.6,-4.604504585,-1.448702335,9.054688454,2.507637978,1.150921941,-1.501533985,-689.1000366,159.9000092,-902.1000366,-2.289406168,-0.472330177,0.162225502,DLL
21.63333333,-4.987316132,-1.202865481,7.684342861,3.254593849,0.701223969,-1.196653962,-710.7000122,170.7000122,-904.500061,-2.287555636,-0.551123977,0.153268003,DLL
21.66666667,-5.145823956,-1.158602953,7.976236343,2.164648056,0.975615978,-0.434453994,-705.9000244,167.7000122,-904.500061,-2.288936483,-0.566024227,0.143561567,DLL
21.7,-4.980736732,-1.172958374,8.349477768,1.410069942,0.190549999,0.731711984,-684.3000488,159.9000092,-899.7000122,-2.291617583,-0.540518181,0.137819581,DLL
21.73333333,-4.844359875,-0.809287429,7.531816483,2.06556201,-0.213415995,1.562510014,-686.7000122,165.3000031,-906.9000244,-2.307765673,-0.563867168,0.108246784,DLL
21.76666667,-6.026888371,-0.688462555,7.995377064,1.8292799,1.143299937,1.798792005,-691.5,164.1000061,-897.3000488,-2.321118737,-0.630749092,0.086094425,DLL
21.8,-5.727219105,-0.857737005,8.136538506,1.760681987,1.067080021,1.791170001,-691.5,158.1000061,-904.500061,-2.315312799,-0.616094883,0.097468064,DLL
21.83333333,-3.83589077,-1.112545967,8.720326424,0.907018006,-0.396344006,0.708845973,-669.9000244,164.7000122,-890.1000366,-2.304163283,-0.447716412,0.120548566,DLL
21.86666667,-3.932790041,-0.977963746,8.281289101,0.754577994,-1.509155989,-0.060975999,-693.9000244,163.5,-904.500061,-2.305183527,-0.439893312,0.116972333,DLL
21.9,-3.253897667,-1.28720367,8.353066444,-0.129574001,-1.783547997,-0.396344006,-691.5,169.5,-906.9000244,-2.293352138,-0.379607055,0.146138332,DLL
21.93333333,-3.066679001,-1.624556303,9.307703018,-0.510674,-1.135677934,0.754577994,-693.9000244,167.7000122,-899.7000122,-2.288273942,-0.325729039,0.167802192,DLL
21.96666667,-3.043949604,-1.488777876,9.302319527,0.121951997,-0.579271972,0.701223969,-686.7000122,162.3000031,-906.9000244,-2.29261087,-0.314075079,0.15966905,DLL
22.0,-4.47410965,-1.234567046,8.012722969,0.708845973,1.806414008,1.966475964,-684.3000488,165.3000031,-902.1000366,-2.29849301,-0.470849103,0.152396505,DLL
22.03333333,-4.818639755,-1.147836328,8.759205818,1.105189919,2.317087889,1.036592007,-691.5,161.7000122,-899.7000122,-2.307875943,-0.497018848,0.132744182,ST
22.06666667,-4.911352158,-1.113742232,7.824906349,1.539644003,0.625003994,0.472563982,-684.3000488,162.3000031,-899.7000122,-2.304703413,-0.545059228,0.137133935,ST
22.1,-5.036962032,-1.120321751,8.944629669,1.8292799,-0.289635986,-0.625003994,-686.7000122,167.7000122,-904.500061,-2.307502436,-0.514967269,0.124517403,ST
22.13333333,-3.636111021,-0.853550017,8.815430641,2.36281991,-2.637212038,-1.333850026,-684.3000488,161.7000122,-904.500061,-2.314217861,-0.408009199,0.098730009,ST
22.16666667,-3.259879112,-0.921140194,7.730399609,2.858249903,-2.141782045,-1.95885396,-684.3000488,164.1000061,-902.1000366,-2.302167067,-0.395089765,0.112179156,ST
22.2,-4.953820229,-1.134677172,8.850123405,1.692083955,-0.167683989,-1.692083955,-693.9000244,164.7000122,-897.3000488,-2.292184477,-0.485054762,0.123256301,ST
22.23333333,-5.200254917,-1.097592354,8.607875824,0.990859985,0.541162014,-1.669217944,-696.3000488,150.3000031,-897.3000488,-2.286075446,-0.529939433,0.126126454,ST
22.26666667,-4.672094822,-0.887046039,8.287869453,-0.160062,0.655492008,-0.350611985,-684.3000488,165.9000092,-902.1000366,-2.292923905,-0.515593088,0.111077162,ST
22.3,-3.642092466,-0.791343153,7.542582989,-0.72408998,0.274392009,0.495429993,-703.5,159.3000031,-902.1000366,-2.296805708,-0.461847284,0.10650632,ST
22.33333333,-3.506314039,-0.926523447,7.917618275,-0.091463998,0.259148002,-0.868907988,-684.3000488,165.9000092,-906.9000244,-2.291302508,-0.424169093,0.11523501,ST
22.36666667,-5.01961565,-0.906784773,7.808158398,0.213415995,1.257629991,-0.990859985,-713.1000366,157.5,-887.7000122,-2.288111174,-0.545646458,0.116286821,ST
22.4,-5.534018993,-1.457076311,7.861991405,-0.586893976,1.55488801,-0.754577994,-686.7000122,162.9000092,-902.1000366,-2.257351866,-0.59549927,0.171070849,ST
22.43333333,-6.016720295,-1.409224868,8.967957497,-0.625003994,0.625003994,-0.91463995,-698.7000122,156.9000092,-892.500061,-2.262008934,-0.588024224,0.160716721,ST
22.46666667,-4.252198219,-1.046152115,8.093472481,0.335367978,-0.884151995,0.929883957,-689.1000366,158.7000122,-899.7000122,-2.278295048,-0.498533433,0.132733962,ST
22.5,-4.026100159,-1.213632107,8.801075935,0.609759986,-0.251525998,-0.243903995,-696.3000488,159.9000092,-894.9000244,-2.275845091,-0.437328042,0.135635752,ST
22.53333333,-3.858022213,-1.111349583,9.179101944,0.495429993,-1.432935953,-0.182927996,-698.7000122,155.7000122,-897.3000488,-2.280612695,-0.401754449,0.122818326,ST
22.56666667,-3.328067541,-1.497151852,8.32196331,0.442075998,-1.989341974,-0.053353999,-698.7000122,156.9000092,-894.9000244,-2.264224201,-0.377724576,0.166224082,ST
22.6,-4.834191322,-1.170565844,7.013226509,0.022865999,0.373477995,-0.342989981,-705.9000244,160.5,-899.7000122,-2.263533504,-0.552887542,0.166179837,ST
22.63333333,-4.355079174,-1.635921001,10.29942417,-0.731711984,0.503051996,-0.731711984,-698.7000122,152.1000061,-899.7000122,-2.26526926,-0.427868469,0.160879315,ST
22.66666667,-4.603308201,-1.69453907,7.486955643,-1.051836014,-1.913121939,-0.731711984,-713.1000366,163.5,-906.9000244,-2.242739101,-0.514764403,0.211266374,ST
22.7,-5.117113113,-1.634724736,8.376394272,-1.265251994,0.007622,-0.647870004,-708.3000488,156.9000092,-892.500061,-2.249172294,-0.534851907,0.198814791,ST
22.73333333,-4.277320385,-1.558760524,8.8890028,-0.503051996,-0.823175967,-0.259148002,-717.9000244,166.5,-890.1000366,-2.258866036,-0.460013104,0.179305864,ST
22.76666667,-5.306724548,-1.276437044,8.341103554,-0.274392009,-0.80793196,-0.838419974,-717.9000244,158.1000061,-897.3000488,-2.267947743,-0.541938286,0.158075073,ST
22.8,-4.78215313,-1.246529937,8.34469223,-0.518296003,0.243903995,0.72408998,-725.1000366,161.1000061,-885.3000488,-2.273789477,-0.521433111,0.150404392,ST
22.83333333,-3.878957272,-1.310531259,7.76150322,0.053353999,-0.114329994,0.495429993,-715.5,154.5,-892.500061,-2.268510305,-0.470640099,0.163553022,ST
22.86666667,-4.164869308,-0.919943869,6.823016644,0.510674,-0.320124,-0.236281991,-710.7000122,154.5,-887.7000122,-2.279040342,-0.528776046,0.139664685,ST
22.9,-5.152403355,-1.195089698,8.061771393,0.541162014,1.524399996,-0.007622,-715.5,163.5,-875.7000122,-2.275158093,-0.558813391,0.145075926,ST
22.93333333,-5.363547802,-1.439131975,9.723412514,0.754577994,0.015244,-1.303362012,-696.3000488,161.1000061,-878.1000366,-2.270611,-0.509198556,0.146652456,ST
22.96666667,-4.494446278,-1.210043192,8.630604744,0.838419974,-1.981719971,-0.335367978,-701.1000366,158.7000122,-878.1000366,-2.272926614,-0.479997895,0.139641266,ST
23.0,-4.824621201,-1.025217056,8.021097183,0.815553963,-0.670735955,0.038109999,-727.5,157.5,-892.500061,-2.277658245,-0.525340304,0.128500118,ST
23.03333333,-4.248609543,-1.540816307,9.193457603,0.945127964,-0.716467977,-1.211897969,-713.1000366,164.7000122,-885.3000488,-2.260490951,-0.4461588,0.158337716,ST
23.06666667,-4.258778095,-1.032992959,6.934869766,0.335367978,-0.693601966,-0.72408998,-715.5,163.5,-887.7000122,-2.262742021,-0.524605636,0.150147139,ST
23.1,-3.388479948,-1.465450287,8.093472481,-0.167683989,0.823175967,-0.647870004,-698.7000122,163.5,-890.1000366,-2.249957919,-0.415735405,0.175128487,ST
23.13333333,-3.726430655,-1.552181005,7.260857582,-0.060975999,-0.236281991,-0.541162014,-717.9000244,150.3000031,-885.3000488,-2.236515585,-0.455872307,0.20456728,ST
23.16666667,-4.926903725,-2.024713993,8.445778847,-0.175305992,1.379581928,-1.310984015,-713.1000366,166.5,-887.7000122,-2.221545719,-0.505378804,0.230385893,ST
23.2,-5.056700706,-2.38180542,9.507482529,-0.586893976,0.274392009,-1.143299937,-720.3000488,161.7000122,-887.7000122,-2.212984416,-0.481491049,0.24455314,ST
23.23333333,-4.910753727,-1.909870505,8.554042816,0.045731999,-0.861285985,1.189031959,-696.3000488,162.3000031,-890.1000366,-2.225564114,-0.504051042,0.223675668,ST
23.26666667,-5.254685879,-1.771699429,8.060574532,0.495429993,0.792688012,1.615863919,-696.3000488,158.1000061,-885.3000488,-2.231655514,-0.555837015,0.21604025,ST
23.3,-4.144532681,-1.728035092,8.695204735,0.762199998,0.693601966,0.556405962,-710.7000122,165.9000092,-897.3000488,-2.240514968,-0.457152434,0.197819632,ST
23.33333333,-3.417788982,-1.2895962,7.722623825,1.189031959,-1.227141976,1.189031959,-710.7000122,158.1000061,-873.3000488,-2.254344054,-0.419407175,0.169351575,ST
23.36666667,-2.893217564,-1.787251234,7.882328033,1.120433927,-1.158543944,-0.068598002,-703.5,163.5,-880.500061,-2.237968698,-0.357507479,0.210836568,ST
23.4,-4.039259434,-1.798615932,8.372207642,0.060975999,-1.12805593,-0.556405962,-703.5,160.5,-892.500061,-2.236985928,-0.422240929,0.211594531,ST
23.43333333,-4.481287003,-2.309430122,8.620436668,-0.030487999,-0.838419974,-1.227141976,-710.7000122,161.1000061,-885.3000488,-2.217038281,-0.456137012,0.253362091,ST
23.46666667,-4.713964939,-2.762224197,8.894984245,-0.259148002,-1.04421401,-0.312501997,-710.7000122,164.1000061,-894.9000244,-2.200184184,-0.464589744,0.291789157,ST
23.5,-3.80777812,-2.319000244,9.27659893,0.274392009,-1.676839948,0.762199998,-710.7000122,159.9000092,-897.3000488,-2.219365313,-0.391307713,0.251495672,ST
23.53333333,-4.469922543,-1.378719568,7.435515404,1.051836014,-1.349093914,2.820139885,-698.7000122,158.7000122,-880.500061,-2.250549698,-0.507365995,0.192776029,ST
23.56666667,-4.376612186,-1.464254022,8.022891998,1.158543944,1.120433927,2.606724024,-701.1000366,161.1000061,-882.9000244,-2.260575035,-0.497584077,0.179374373,ST
23.6,-4.40352869,-1.771101356,8.716737747,1.158543944,-0.289635986,1.310984015,-710.7000122,170.7000122,-887.7000122,-2.255422194,-0.467297693,0.193719365,ST
23.63333333,-4.395154476,-1.430159807,8.602492332,0.495429993,-2.995445967,0.53354001,-696.3000488,168.9000092,-887.7000122,-2.268322927,-0.462917008,0.168810558,ST
23.66666667,-4.626636028,-1.60960269,8.784327507,0.304879993,-1.501533985,1.074702024,-715.5,160.5,-887.7000122,-2.266865404,-0.473162629,0.177343656,ST
23.7,-3.970473051,-1.506722093,8.73827076,0.746955991,-0.975615978,1.089946032,-722.7000122,155.7000122,-885.3000488,-2.271807816,-0.430428572,0.170214524,ST
23.73333333,-4.244422436,-1.415804386,8.960181236,1.04421401,-0.785066009,1.105189919,-701.1000366,155.1000061,-885.3000488,-2.278931468,-0.435425912,0.157010824,ST
23.76666667,-2.841777325,-1.527058959,9.183887482,1.798792005,-1.760681987,0.259148002,-717.9000244,155.1000061,-882.9000244,-2.277217458,-0.32029807,0.160679519,ST
23.8,-3.600222588,-1.493563056,7.979825497,1.577754021,-0.342989981,-0.746955991,-725.1000366,156.9000092,-887.7000122,-2.268355853,-0.397158593,0.178145979,ST
23.83333333,-3.656447887,-1.731025815,10.17620659,0.769822001,0.304879993,-0.693601966,-717.9000244,160.5,-899.7000122,-2.26916025,-0.350814913,0.169504928,ST
23.86666667,-3.040360689,-1.595247269,7.908048153,1.150921941,-1.63872993,0.259148002,-720.3000488,158.1000061,-906.9000244,-2.261538644,-0.356627523,0.192379301,ST
23.9,-3.615176201,-1.54141438,7.320073605,0.40396598,0.983237982,0.152439997,-720.3000488,155.7000122,-897.3000488,-2.256678797,-0.432666123,0.203891877,ST
23.93333333,-4.413696766,-1.740596056,9.033155441,-0.160062,1.097568035,-0.114329994,-715.5,158.1000061,-892.500061,-2.260603322,-0.446057175,0.193386418,ST
23.96666667,-3.831105709,-1.983442068,9.404004097,0.167683989,-0.022865999,-0.053353999,-732.3000488,156.9000092,-887.7000122,-2.255685177,-0.392726988,0.204849376,ST
24.0,-4.726525784,-1.342831016,8.304616928,0.152439997,-0.442075998,1.23476398,-710.7000122,155.7000122,-894.9000244,-2.27365729,-0.487572155,0.168777874,ST
24.03333333,-3.606802225,-1.405635953,9.359143257,0.350611985,-0.40396598,1.547266006,-722.7000122,156.3000031,-897.3000488,-2.284009657,-0.388800294,0.151494533,ST
24.06666667,-4.360462189,-1.0120579,8.107230186,0.61738199,-0.129574001,1.471045971,-713.1000366,157.5,-894.9000244,-2.296259893,-0.469873699,0.128150358,ST
24.1,-3.121708155,-0.965402782,8.679652214,0.510674,0.030487999,1.105189919,-734.7000122,157.5,-882.9000244,-2.304345942,-0.369064414,0.112858713,ST
24.13333333,-3.12529707,-1.130490184,7.253081799,0.205793992,-1.135677934,1.318606019,-710.7000122,153.3000031,-897.3000488,-2.295307661,-0.394496496,0.144982953,ST
24.16666667,-3.701906919,-0.921140194,7.341606617,-0.083841994,0.365855992,1.265251994,-720.3000488,154.5,-890.1000366,-2.304934812,-0.451473309,0.128113629,ST
24.2,-5.089598656,-0.690257013,8.508584023,0.53354001,0.945127964,1.905499935,-722.7000122,150.9000092,-894.9000244,-2.32759331,-0.524854447,0.087034625,ST
24.23333333,-4.507007122,-1.286605477,9.132447243,0.983237982,0.160062,0.701223969,-717.9000244,151.5,-892.500061,-2.308448925,-0.469185172,0.127814082,ST
24.26666667,-4.775573254,-1.086227655,9.198242188,0.564027965,-1.905499935,-0.076219998,-705.9000244,153.3000031,-904.500061,-2.312305523,-0.472021105,0.118727845,ST
24.3,-3.999782085,-1.5109092,8.281888008,0.076219998,-1.280496001,0.396344006,-708.3000488,163.5,-875.7000122,-2.291688404,-0.447747984,0.167656983,ST
24.33333333,-4.212122917,-1.476216912,8.373403549,0.022865999,-0.038109999,-0.038109999,-722.7000122,158.1000061,-897.3000488,-2.289073525,-0.457970356,0.173409859,ST
24.36666667,-3.631924152,-1.285409212,8.601295471,0.190549999,-1.089946032,-0.464941978,-717.9000244,161.1000061,-894.9000244,-2.296770932,-0.406578566,0.153221153,ST
24.4,-3.615774155,-1.543208838,8.534303665,0.304879993,-0.846041977,0.800309956,-713.1000366,157.5,-899.7000122,-2.290709865,-0.396086299,0.173329008,ST
24.43333333,-3.827516794,-1.408626676,8.225662231,0.594515979,-0.259148002,1.166165948,-715.5,161.1000061,-887.7000122,-2.294490366,-0.423092165,0.168806376,ST
24.46666667,-4.184010029,-1.132882833,8.578566551,0.53354001,-0.350611985,0.967993975,-710.7000122,161.1000061,-904.500061,-2.309712356,-0.44526051,0.136639085,ST
24.5,-4.258778095,-1.652669072,8.796888351,0.282013983,0.846041977,1.181409955,-722.7000122,151.5,-894.9000244,-2.295155297,-0.445854753,0.174754031,ST
24.53333333,-3.113932371,-1.536629319,8.871656418,0.602137983,-1.242385983,-0.320124,-725.1000366,158.7000122,-902.1000366,-2.295718344,-0.353943668,0.171443383,ST
24.56666667,-3.755141497,-1.338644028,8.137735367,0.701223969,-1.280496001,0.388722003,-722.7000122,149.1000061,-894.9000244,-2.299374297,-0.410807388,0.163481414,ST
24.6,-3.151017189,-2.059406281,9.773655891,-0.266770005,-0.815553963,-0.464941978,-717.9000244,157.5,-890.1000366,-2.285912479,-0.325638173,0.199644636,ST
24.63333333,-3.84546113,-1.476216912,6.854718685,0.068598002,-0.083841994,0.335367978,-717.9000244,154.5,-897.3000488,-2.282806652,-0.471849488,0.209725847,ST
24.66666667,-4.014137268,-1.977460623,8.555836678,-0.655492008,1.913121939,0.29725799,-715.5,155.1000061,-906.9000244,-2.276626974,-0.440144756,0.224701549,ST
24.7,-4.157691956,-1.975068092,9.135437965,-0.373477995,-0.160062,-0.381099999,-720.3000488,152.1000061,-897.3000488,-2.279916309,-0.422575208,0.216012427,ST
24.73333333,-4.494446278,-1.439131975,8.163455009,0.388722003,-1.074702024,0.076219998,-720.3000488,154.5,-902.1000366,-2.295476149,-0.482899247,0.180989076,ST
24.76666667,-4.56084013,-1.385897279,9.356152534,0.365855992,-0.754577994,0.91463995,-732.3000488,149.1000061,-892.500061,-2.310503552,-0.454482861,0.151784601,ST
