seconds,sensor_accX_m_s_,sensor_accY_m_s_,sensor_accZ_m_s_,sensor_gyroX____s_,sensor_gyroY____s_,sensor_gyroZ____s_,sensor_magX___T_,sensor_magY___T_,sensor_magZ___T_,sensor_yaw____,sensor_pitch____,sensor_roll____,label3
0.0,1.793232679,-1.045553923,9.48236084,-1.493911982,0.853663981,1.410069942,-1320.300049,20.10000038,-885.3000488,1.80979252,0.18345312,0.105612483,ST
0.0333333333333333,1.672407746,-0.96958977,9.654625893,-1.227141976,1.623485923,0.945127964,-1315.5,18.90000153,-882.9000244,1.808985123,0.170866517,0.10310293,ST
0.0666666666666667,1.68496871,-1.193893313,9.650438309,-0.853663981,1.699705958,0.396344006,-1325.100098,24.90000153,-882.9000244,1.805945113,0.169021182,0.120296471,ST
0.1,1.429561734,-1.126901388,9.534399033,-0.640248001,1.669217944,-0.045731999,-1320.300049,23.10000038,-873.3000488,1.806938766,0.149785479,0.119019814,ST
0.133333333333333,1.385299087,-1.282418489,9.603185654,-1.12805593,1.836901903,-0.030487999,-1315.5,24.90000153,-892.500061,1.806097617,0.141054788,0.131507891,ST
0.166666666666667,1.204061747,-1.625154495,9.518249512,-0.929883957,1.951231956,0.091463998,-1310.700073,29.10000038,-887.7000122,1.802584613,0.120914203,0.170218706,ST
0.2,0.784165442,-1.402047157,9.724010468,-0.609759986,2.218001842,-0.487807989,-1298.700073,25.50000191,-902.1000366,1.806786264,0.085018456,0.149370717,ST
0.233333333333333,0.64958328,-1.360177159,9.853807449,0.015244,2.004585981,0.419209987,-1301.100098,23.10000038,-911.7000122,1.807231459,0.066352515,0.139618342,ST
0.266666666666667,0.684275568,-1.444515228,9.554736137,0.205793992,1.798792005,0.861285985,-1293.900024,27.90000153,-894.9000244,1.805292038,0.067165468,0.147713108,ST
0.3,0.608311415,-1.288998127,9.660009384,0.274392009,1.737815976,0.998481989,-1289.100098,27.30000114,-897.3000488,1.804331505,0.060719209,0.135370078,ST
0.333333333333333,0.723752975,-1.359578967,9.7150383,0.464941978,1.539644003,1.059458017,-1289.100098,25.50000191,-904.500061,1.801926684,0.069154185,0.137862471,ST
0.366666666666667,0.604124427,-1.334456921,9.560717583,0.609759986,1.417691946,0.701223969,-1291.5,26.70000076,-902.1000366,1.800695345,0.061749288,0.137711419,ST
0.4,0.641209245,-1.425972819,9.473388672,0.609759986,1.791170001,0.282013983,-1284.300049,22.5,-894.9000244,1.800018013,0.063281441,0.14619747,ST
0.433333333333333,0.422288924,-1.253707647,9.689916611,0.571649969,1.737815976,0.053353999,-1286.700073,26.10000038,-899.7000122,1.801178841,0.044830939,0.131389502,ST
0.466666666666667,0.345726639,-1.274044514,9.594213486,0.701223969,1.653973937,0.228659987,-1286.700073,26.10000038,-897.3000488,1.801109078,0.03521776,0.130917118,ST
0.5,0.092114016,-1.116732955,9.685131073,0.769822001,1.814036012,0.312501997,-1291.5,26.10000038,-906.9000244,1.80119919,0.012076757,0.116975236,ST
0.533333333333333,0.18602246,-1.199276686,9.495519638,0.952749968,2.103672028,0.602137983,-1269.900024,26.70000076,-887.7000122,1.800295725,0.014939792,0.122567846,ST
0.566666666666667,0.029907148,-1.021030068,9.661205292,0.365855992,2.103672028,0.495429993,-1255.5,27.90000153,-902.1000366,1.799783726,0.00195028,0.107661579,ST
0.6,0.035290435,-1.215426564,9.533801079,0.266770005,2.286599874,0.541162014,-1267.5,25.50000191,-911.7000122,1.799079496,-8.14777e-06,0.123203313,ST
0.633333333333333,-0.175854027,-1.288399935,9.680345535,0.106707998,2.461905956,0.29725799,-1265.100098,29.70000076,-897.3000488,1.799182708,-0.01783455,0.130332273,ST
0.666666666666667,-0.275743902,-1.291390657,9.661205292,0.373477995,2.57623601,0.152439997,-1269.900024,23.70000076,-894.9000244,1.799666793,-0.0297641,0.131853027,ST
0.7,-0.561656237,-1.172958374,9.741954803,0.602137983,2.324709892,0.342989981,-1253.100098,27.90000153,-918.9000244,1.799175894,-0.054929555,0.121410296,ST
0.733333333333333,-0.519786239,-1.55576992,9.99018383,0.838419974,2.012207985,1.089946032,-1250.700073,21.90000153,-916.500061,1.798735933,-0.055081961,0.147320121,ST
0.766666666666667,-1.00966537,-0.815867007,9.371704102,0.868907988,1.882633924,2.881115913,-1245.900024,24.90000153,-909.3000488,1.788491022,-0.100850489,0.096093882,ST
0.8,-0.717173398,-1.096396089,9.035547256,0.213415995,2.957335949,3.361301899,-1255.5,20.70000076,-911.7000122,1.783373582,-0.087719885,0.115111055,ST
0.833333333333333,-0.879868329,-0.832615018,9.561315536,-0.40396598,3.155508041,2.87349391,-1245.900024,18.90000153,-906.9000244,1.775438228,-0.095460551,0.092781539,ST
0.866666666666667,-0.919943869,-1.312923789,9.308300972,-0.609759986,2.500015974,2.317087889,-1238.700073,33.90000153,-914.1000366,1.774423674,-0.100992967,0.131156831,ST
0.9,-1.187313795,-1.504329562,9.432116508,-0.792688012,2.583858013,0.93750596,-1236.300049,26.70000076,-911.7000122,1.775447319,-0.123493135,0.154373382,ST
0.933333333333333,-1.591658473,-1.217220902,9.756908417,-0.053353999,2.073184013,0.282013983,-1229.100098,23.70000076,-914.1000366,1.772055946,-0.15643885,0.129957336,ST
0.966666666666667,-1.531245947,-1.305746078,9.429125786,0.861285985,1.592997909,0.769822001,-1214.700073,24.90000153,-921.3000488,1.771868332,-0.161222484,0.134739858,ST
1.0,-1.536629319,-1.339840293,9.355554581,0.868907988,1.791170001,0.373477995,-1207.5,23.10000038,-923.7000122,1.772676763,-0.163732677,0.139495102,ST
1.03333333333333,-1.388289809,-1.315316439,9.529015541,1.067080021,2.942091942,0.282013983,-1217.100098,26.70000076,-911.7000122,1.772825883,-0.151559395,0.136175003,ST
1.06666666666667,-1.171762109,-1.96729219,9.488342285,2.294221878,6.798823833,0.693601966,-1205.100098,27.90000153,-914.1000366,1.781897765,-0.136212322,0.187632516,ST
1.1,-1.959516406,-1.653865337,10.03444672,3.727157831,10.24396801,-0.861285985,-1197.900024,22.5,-914.1000366,1.785379143,-0.193298571,0.163714197,ST
1.13333333333333,-2.612688541,-1.013254166,9.601988792,5.053385735,11.1890955,-0.381099999,-1178.700073,23.10000038,-921.3000488,1.780233957,-0.265405157,0.110630089,ST
1.16666666666667,-3.107352734,-0.829624295,8.920105934,6.303393841,12.06562614,-0.739333987,-1166.700073,23.70000076,-923.7000122,1.78221477,-0.336684359,0.088424302,ST
1.2,-4.032680035,-0.150133893,8.495424271,6.341504097,10.94519138,-1.135677934,-1135.5,18.90000153,-926.1000366,1.767317253,-0.436874842,0.024428284,ST
1.23333333333333,-4.706188679,0.234472051,8.32196331,5.625035763,9.077801704,-0.419209987,-1123.5,14.70000076,-921.3000488,1.751549102,-0.51152471,-0.024952162,ST
1.26666666666667,-4.910155773,0.54131937,8.217885971,4.093013763,6.067111969,0.030487999,-1118.700073,15.30000019,-916.500061,1.736162811,-0.541265991,-0.064067326,ST
1.3,-4.8808465,0.656760991,8.037246704,2.759163857,3.932951927,0.266770005,-1101.900024,13.50000095,-918.9000244,1.728745935,-0.54933748,-0.082873929,ST
1.33333333333333,-4.425659657,0.068188302,8.164052963,1.364337921,1.8292799,-0.076219998,-1109.100098,11.70000076,-914.1000366,1.760905664,-0.508419374,-0.022497059,ST
1.36666666666667,-4.962792397,0.179442897,8.155080795,0.792688012,0.876529992,-1.028970003,-1087.5,17.10000038,-918.9000244,1.763888877,-0.5401299,-0.022393913,ST
1.4,-5.431138039,0.279332757,8.079116821,1.067080021,1.570132017,-1.105189919,-1080.300049,11.10000038,-921.3000488,1.761905665,-0.585256399,-0.03304325,ST
1.43333333333333,-5.497531891,0.373241216,8.161062241,1.036592007,1.562510014,-0.739333987,-1068.300049,12.90000057,-923.7000122,1.758445918,-0.593453093,-0.044422822,ST
1.46666666666667,-5.557346344,0.53892684,7.892496586,0.663114011,1.051836014,0.099086002,-1087.5,19.5,-916.500061,1.747389738,-0.610529354,-0.065010294,ST
1.5,-5.283396721,0.484495819,7.864982128,0.030487999,0.243903995,0.434453994,-1089.900024,9.900000572,-918.9000244,1.747882326,-0.594503045,-0.062623288,ST
1.53333333333333,-5.057897091,0.32000649,8.137137413,-0.236281991,-0.548784018,0.434453994,-1092.300049,9.900000572,-918.9000244,1.757334855,-0.561470794,-0.043181432,ST
1.56666666666667,-4.971764565,0.238060907,8.196950912,-0.236281991,-0.967993975,0.160062,-1073.100098,9.900000572,-926.1000366,1.762878656,-0.546989971,-0.031644589,ST
1.6,-5.209227085,0.25899592,8.455946922,-0.053353999,-1.211897969,0.144817993,-1087.5,9.900000572,-930.9000244,1.76302185,-0.549234609,-0.030843576,ST
1.63333333333333,-5.018419743,0.164489314,8.440993309,0.457319975,-0.922261953,0.518296003,-1094.700073,11.10000038,-926.1000366,1.766747402,-0.537611851,-0.022811867,ST
1.66666666666667,-5.14702034,-0.037084863,8.373403549,0.594515979,-0.998481989,0.579271972,-1106.700073,19.5,-930.9000244,1.77686015,-0.547051607,-0.002421925,ST
1.7,-5.741574287,0.279332757,7.397832394,0.121951997,-0.815553963,0.609759986,-1097.100098,22.5,-914.1000366,1.75999481,-0.635765935,-0.030946025,ST
1.73333333333333,-6.434822083,0.897214472,7.233941078,-1.143299937,-2.103672028,0.594515979,-1087.5,15.30000019,-921.3000488,1.713128556,-0.702920954,-0.102463612,ST
1.76666666666667,-6.65314436,1.238155961,7.13823843,-2.606724024,-3.780511856,2.538125992,-1097.100098,21.30000114,-928.500061,1.670421797,-0.729306805,-0.156090707,ST
1.8,-5.47360611,0.96719718,8.135342598,-4.83234787,-6.737847805,3.178373814,-1116.300049,14.70000076,-930.9000244,1.681241573,-0.60729793,-0.121278995,ST
1.83333333333333,-4.524353504,1.134079099,8.771766663,-5.830830097,-10.6936655,2.995445967,-1125.900024,15.90000057,-930.9000244,1.671325515,-0.484527893,-0.120682623,ST
1.86666666666667,-2.821440458,0.440233231,8.595912933,-5.53357172,-13.92539406,3.803377867,-1133.100098,21.30000114,-930.9000244,1.685510934,-0.324318214,-0.056045259,ST
1.9,-1.960114479,0.272155046,8.996069908,-5.716499805,-14.44368935,2.080806017,-1166.700073,22.5,-926.1000366,1.685998891,-0.213209197,-0.027216662,ST
1.93333333333333,-0.794333875,-0.403746516,9.031360626,-4.420759678,-10.87659359,1.013725996,-1178.700073,23.10000038,-914.1000366,1.69172556,-0.093005927,0.038891125,ST
1.96666666666667,-0.837998331,-0.497654945,9.80236721,-3.056421995,-5.480217934,-0.586893976,-1200.300049,29.70000076,-918.9000244,1.69307228,-0.079084275,0.052637272,ST
2.0,-1.101181269,-0.410924226,9.948911667,-2.370441914,-2.76678586,-1.082324028,-1200.300049,25.50000191,-926.1000366,1.6943709,-0.100840761,0.046768717,ST
2.03333333333333,-1.302157283,-0.663340569,9.697093964,-2.19513607,-2.728675842,-0.960371971,-1224.300049,23.70000076,-916.500061,1.697919982,-0.122784476,0.067131605,ST
2.06666666666667,-1.088620186,-0.988132179,9.675560951,-2.157026052,-2.454283953,-0.91463995,-1209.900024,28.50000191,-923.7000122,1.702776563,-0.109707079,0.099208313,ST
2.1,-1.061105609,-0.963010192,9.645055771,-1.85214591,-2.606724024,-0.464941978,-1214.700073,29.10000038,-918.9000244,1.703084753,-0.10549255,0.102064627,ST
2.13333333333333,-0.408531636,-1.988825321,9.221570015,-0.777444005,-1.524399996,0.945127964,-1214.700073,27.30000114,-916.500061,1.707391947,-0.054071708,0.191163597,ST
2.16666666666667,-2.493658066,-2.302252293,9.423144341,-2.218001842,0.304879993,-1.753059983,-1221.900024,36.30000305,-918.9000244,1.716793968,-0.216016012,0.234321794,ST
2.2,-3.308328867,-1.393673182,9.673168182,-0.975615978,2.454283953,-0.259148002,-1224.300049,27.30000114,-911.7000122,1.698928812,-0.31027897,0.161558422,ST
2.23333333333333,-2.098883629,-2.366253614,9.901659012,-0.739333987,0.053353999,1.181409955,-1209.900024,29.10000038,-902.1000366,1.711879885,-0.221858595,0.223231773,ST
2.26666666666667,-1.886542916,-2.676091671,9.503893852,-0.548784018,-1.966475964,0.800309956,-1207.5,27.30000114,-914.1000366,1.717341719,-0.192719267,0.26520166,ST
2.3,-2.396758795,-2.696428537,9.269421577,0.411587983,-1.8292799,0.952749968,-1238.700073,27.30000114,-918.9000244,1.717056002,-0.232166151,0.278809583,ST
2.33333333333333,-2.502630234,-2.65455842,8.8363657,0.29725799,-1.242385983,1.349093914,-1212.300049,30.30000114,-902.1000366,1.715821175,-0.2571529,0.288191629,ST
2.36666666666667,-2.573210955,-2.862712145,8.853114128,-0.236281991,-1.089946032,1.76830399,-1219.5,36.30000305,-921.3000488,1.716167438,-0.266557888,0.307352555,ST
2.4,-2.688054562,-2.887236118,8.503798485,-0.015244,-0.929883957,2.271355867,-1231.5,30.90000153,-909.3000488,1.714705289,-0.285991701,0.322524899,ST
2.43333333333333,-2.354290724,-3.623550177,8.560622215,0.015244,0.121951997,1.928365946,-1209.900024,37.5,-923.7000122,1.727623871,-0.25575054,0.386728636,ST
2.46666666666667,-2.534929991,-3.331656456,9.207813263,0.304879993,0.945127964,1.059458017,-1214.700073,32.70000076,-916.500061,1.718204875,-0.255602082,0.354465242,ST
2.5,-2.187408924,-4.236048698,9.433312416,1.562510014,1.501533985,0.167683989,-1212.300049,27.30000114,-935.7000122,1.733043134,-0.218150782,0.409354332,ST
2.53333333333333,-2.731120825,-4.033277988,9.298132896,1.646351933,1.028970003,-0.998481989,-1221.900024,29.70000076,-916.500061,1.73645342,-0.254897696,0.407457277,ST
2.56666666666667,-2.545098305,-4.280909061,9.206018448,3.033555984,1.501533985,-1.173787951,-1219.5,26.10000038,-921.3000488,1.747265795,-0.248495819,0.426829541,ST
2.6,-2.650969744,-4.294068336,8.773561478,3.68142581,1.821658015,-1.631107926,-1200.300049,23.70000076,-911.7000122,1.759623739,-0.263448248,0.445648893,ST
2.63333333333333,-3.034379244,-3.560147047,8.39732933,4.695151806,2.393307924,-1.250007987,-1205.100098,24.90000153,-918.9000244,1.75586637,-0.313984702,0.402710317,ST
2.66666666666667,-2.5791924,-3.634316683,7.759110451,4.557955742,2.347575903,-0.243903995,-1202.700073,27.90000153,-926.1000366,1.768369076,-0.299655003,0.425137316,ST
2.7,-2.093500376,-3.559548855,7.94274044,3.490875959,2.461905956,-0.525918007,-1197.900024,20.10000038,-921.3000488,1.771848296,-0.251712,0.417801512,ST
2.73333333333333,-2.853740215,-2.159296036,8.95240593,3.490875959,2.827761889,-0.891773999,-1200.300049,23.70000076,-918.9000244,1.737874867,-0.294898909,0.269421567,ST
2.76666666666667,-2.42846036,-1.629341483,9.849619865,3.346057892,3.262215853,0.0,-1183.5,21.90000153,-930.9000244,1.717451026,-0.254659465,0.180486279,ST
2.8,-1.625752568,-0.946860313,10.52372742,4.093013763,1.135677934,0.259148002,-1188.300049,29.10000038,-923.7000122,1.702508042,-0.174998073,0.101986957,ST
2.83333333333333,-1.83330822,-0.135180309,10.78033066,4.146368027,-1.059458017,-1.455801964,-1183.5,20.10000038,-930.9000244,1.694072023,-0.168094598,0.022905322,ST
2.86666666666667,-1.535433054,1.309334993,10.31318092,4.077769756,-0.61738199,-2.690565825,-1185.900024,16.5,-935.7000122,1.681927425,-0.150110478,-0.104874942,ST
2.9,-0.877475739,2.27114892,9.939341545,4.436003685,0.571649969,-1.699705958,-1185.900024,18.30000114,-935.7000122,1.674132348,-0.099418131,-0.208014115,ST
2.93333333333333,-1.865607977,3.039762497,9.757506371,4.420759678,1.356715918,-2.888737917,-1197.900024,17.10000038,-918.9000244,1.670427159,-0.167037194,-0.288509943,ST
2.96666666666667,-1.229781985,2.430853128,9.469799995,3.841487885,1.349093914,-2.286599874,-1185.900024,10.5,-926.1000366,1.679686323,-0.136258826,-0.263712898,ST
3.0,-1.643098712,2.588164568,9.585241318,2.942091942,1.12805593,-4.115880013,-1173.900024,13.50000095,-914.1000366,1.689677312,-0.162816094,-0.267210447,ST
3.03333333333333,-2.59594059,2.706596851,9.663000107,3.391789913,0.800309956,-3.00306797,-1181.100098,12.90000057,-923.7000122,1.695545118,-0.237063182,-0.275870793,ST
3.06666666666667,-2.324383497,2.201764345,8.857899666,3.521363974,2.225623846,-1.318606019,-1176.300049,3.300000191,-914.1000366,1.704121601,-0.250381568,-0.254805853,ST
3.1,-2.54868722,2.234662056,8.694007874,2.096050024,2.827761889,-1.806414008,-1171.5,9.900000572,-923.7000122,1.707686763,-0.275794086,-0.254774235,ST
3.13333333333333,-2.685063839,1.664033771,8.993678093,1.219519973,4.016793728,-1.753059983,-1159.5,17.70000076,-921.3000488,1.725859031,-0.289696468,-0.198805493,ST
3.16666666666667,-3.09239912,0.995309889,9.526024818,1.471045971,5.030519962,-1.608241916,-1161.900024,12.30000019,-916.500061,1.751813598,-0.316281636,-0.121828898,ST
3.2,-3.313113928,1.213033915,10.03444672,1.806414008,4.93905592,-2.614346027,-1149.900024,7.500000477,-914.1000366,1.757364035,-0.323930795,-0.122200917,ST
3.23333333333333,-3.706093788,1.229781985,9.036744118,2.096050024,4.230209827,-2.728675842,-1149.900024,3.900000095,-926.1000366,1.760037379,-0.382864656,-0.135060929,ST
3.26666666666667,-4.439417362,1.211239576,7.860795021,1.943609953,4.481735706,-2.355197906,-1125.900024,12.90000057,-921.3000488,1.75896574,-0.493255346,-0.151257096,ST
3.3,-5.150609016,1.297372103,7.451664925,1.23476398,4.268320084,-1.646351933,-1118.700073,7.500000477,-918.9000244,1.753281657,-0.582900004,-0.168919836,ST
3.33333333333333,-5.051317215,1.177145362,7.056890965,0.876529992,3.940573931,-1.196653962,-1123.5,4.5,-926.1000366,1.756716603,-0.6144895,-0.166730346,ST
3.36666666666667,-5.253489494,1.052133441,7.020403862,0.861285985,2.881115913,-0.72408998,-1106.700073,7.500000477,-918.9000244,1.766182131,-0.636681707,-0.153366395,ST
3.4,-5.152403355,1.125705123,7.698698044,0.708845973,1.951231956,-0.503051996,-1116.300049,1.5,-921.3000488,1.770871286,-0.598134568,-0.147584206,ST
3.43333333333333,-5.187694073,1.244735479,7.466020584,0.952749968,1.844523907,-0.365855992,-1106.700073,-1.5,-923.7000122,1.763594659,-0.602928713,-0.162912844,ST
3.46666666666667,-5.378501415,1.761530995,8.475686073,0.40396598,2.423795938,1.04421401,-1097.100098,8.100000381,-921.3000488,1.740870153,-0.567510651,-0.19961489,ST
3.5,-4.606298923,1.202267408,8.913526535,-0.701223969,1.600619912,0.846041977,-1099.5,12.30000019,-914.1000366,1.764730363,-0.494424419,-0.146643117,ST
3.53333333333333,-4.416089535,1.110153317,8.770570755,0.259148002,-0.365855992,-0.457319975,-1089.900024,6.900000095,-914.1000366,1.773881341,-0.468765373,-0.129795169,ST
3.56666666666667,-4.709179401,1.332662582,8.510976791,0.975615978,-0.114329994,-0.160062,-1087.5,3.900000095,-916.500061,1.765546467,-0.500111397,-0.156855425,ST
3.6,-4.236048698,1.133480906,7.20582819,1.074702024,0.304879993,0.320124,-1089.900024,5.100000381,-921.3000488,1.765473378,-0.521228512,-0.157988034,ST
3.63333333333333,-5.261265755,1.065292597,6.957599163,0.640248001,1.806414008,0.099086002,-1085.100098,3.300000191,-909.3000488,1.767477917,-0.622756395,-0.154531476,ST
3.66666666666667,-5.214610577,2.088117123,7.458244801,0.487807989,1.63872993,0.525918007,-1087.5,12.30000019,-918.9000244,1.709323061,-0.600598274,-0.253876666,ST
3.7,-5.767892838,1.166378736,6.824213028,0.396344006,0.53354001,1.455801964,-1087.5,-0.300000012,-911.7000122,1.745810385,-0.677345229,-0.188785125,ST
3.73333333333333,-7.238128185,1.494161129,9.124073029,-0.625003994,1.676839948,-0.503051996,-1094.700073,6.300000191,-921.3000488,1.759166267,-0.669304696,-0.166500545,ST
3.76666666666667,-5.826510906,1.391280532,7.010235786,0.739333987,-0.342989981,-1.067080021,-1089.900024,2.100000143,-918.9000244,1.747721433,-0.680845562,-0.189714879,ST
3.8,-6.573591232,1.543208838,5.048924923,0.571649969,0.693601966,-0.342989981,-1094.700073,13.50000095,-918.9000244,1.692099661,-0.852001599,-0.271834499,ST
3.83333333333333,-6.706977367,0.96719718,7.025787354,-1.692083955,2.614346027,0.464941978,-1077.900024,3.900000095,-906.9000244,1.768603073,-0.780688283,-0.160943849,ST
3.86666666666667,-5.598020077,0.970786035,6.064571381,-0.93750596,-0.72408998,-1.600619912,-1061.100098,3.300000191,-926.1000366,1.773945511,-0.744971079,-0.155393915,ST
3.9,-7.022198677,1.030600309,6.678266048,-0.114329994,-0.701223969,-1.455801964,-1077.900024,6.900000095,-909.3000488,1.779172582,-0.791910097,-0.151328944,ST
3.93333333333333,-6.267342091,1.0730685,6.184200287,0.586893976,-2.157026052,0.487807989,-1080.300049,8.700000763,-926.1000366,1.767155972,-0.782682938,-0.169421638,ST
3.96666666666667,-6.92828989,2.215521574,5.778060913,0.42683199,-4.695151806,0.251525998,-1092.300049,4.5,-911.7000122,1.658399857,-0.825099392,-0.323151121,ST
4.0,-5.498130322,1.731623888,8.138333321,-0.922261953,-1.943609953,1.775925994,-1092.300049,6.900000095,-916.500061,1.719938468,-0.618756786,-0.22545853,ST
4.03333333333333,-4.449585438,0.857138872,8.365029335,-1.074702024,-2.751541853,-1.402447939,-1099.5,7.500000477,-923.7000122,1.777416742,-0.510320661,-0.122636558,ST
4.06666666666667,-5.589047909,0.933103025,8.692811966,-0.312501997,-0.312501997,-1.493911982,-1092.300049,6.300000191,-918.9000244,1.7872662,-0.556801543,-0.108500772,ST
4.1,-6.660920143,0.696238399,8.258560181,0.365855992,0.42683199,-1.036592007,-1094.700073,8.100000381,-930.9000244,1.801772453,-0.658724192,-0.087868158,ST
4.13333333333333,-7.261455536,1.031796575,8.583950043,0.045731999,0.72408998,-0.678357959,-1094.700073,3.900000095,-916.500061,1.787561659,-0.691693817,-0.112450837,ST
4.16666666666667,-7.973844051,0.632237136,9.936948776,-0.236281991,0.350611985,-0.213415995,-1075.5,3.300000191,-916.500061,1.814018094,-0.678457027,-0.070591733,ST
4.2,-8.247793198,-0.126806304,10.19355297,-0.198172003,-0.800309956,-1.333850026,-1087.5,-2.100000143,-904.500061,1.858862653,-0.679096421,-0.002572819,ST
4.23333333333333,-8.624623299,-0.528758407,10.36103249,-0.198172003,-1.402447939,-1.928365946,-1077.900024,8.100000381,-911.7000122,1.890425007,-0.688722683,0.042478667,ST
4.26666666666667,-6.357661724,-2.199371815,10.45254803,-0.350611985,-1.539644003,-2.118916035,-1089.900024,14.70000076,-909.3000488,1.973769696,-0.566224296,0.17890981,ST
4.3,-4.972362518,-1.854243159,7.904459476,0.625003994,-1.966475964,-0.762199998,-1099.5,11.10000038,-916.500061,1.996731966,-0.550098591,0.219518014,ST
4.33333333333333,-3.666018248,-1.890729904,7.041338921,0.266770005,0.678357959,1.349093914,-1094.700073,2.700000048,-914.1000366,2.011486097,-0.482444261,0.253713797,ST
4.36666666666667,-4.443603992,-1.461263299,8.655727386,-0.777444005,-2.096050024,-1.028970003,-1099.5,7.500000477,-911.7000122,1.980807795,-0.468537016,0.18606137,ST
4.4,-4.559643745,-1.027609587,7.147808552,1.112811923,-1.737815976,-0.091463998,-1089.900024,8.700000763,-921.3000488,1.964268214,-0.541752506,0.150206479,ST
4.43333333333333,-4.802489758,-1.304549813,7.638285637,-0.137196004,-1.028970003,0.541162014,-1099.5,6.900000095,-918.9000244,1.97037148,-0.550911385,0.16490382,ST
4.46666666666667,-5.301939487,-0.549693406,10.26413345,-2.111294031,-3.940573931,1.303362012,-1101.900024,11.70000076,-918.9000244,1.920699653,-0.486489429,0.076759918,ST
4.5,-4.417883873,-1.347616076,8.378787041,-2.393307924,-5.503083706,3.650938034,-1111.5,8.100000381,-918.9000244,1.940359189,-0.474027969,0.145781703,ST
4.53333333333333,-4.277320385,-0.940280735,9.566100121,-3.910085917,-1.318606019,3.201239824,-1111.5,14.10000038,-933.3000488,1.914147803,-0.428628327,0.110593856,ST
4.56666666666667,-4.52315712,-0.267968059,8.955396652,-2.736297846,-0.754577994,3.452765942,-1130.700073,12.90000057,-933.3000488,1.87438915,-0.46082843,0.044364329,ST
4.6,-3.974061966,-0.800913453,7.489946365,-1.798792005,0.213415995,2.942091942,-1123.5,17.10000038,-930.9000244,1.889363753,-0.481840395,0.095720955,ST
4.63333333333333,-4.737890244,-0.242247909,7.989993572,-2.17227006,0.213415995,1.585376024,-1118.700073,13.50000095,-916.500061,1.859591164,-0.524929459,0.045626477,ST
4.66666666666667,-4.373023033,-0.914560616,7.183098793,-0.891773999,0.419209987,2.423795938,-1128.300049,14.10000038,-914.1000366,1.886225004,-0.540745574,0.109410242,ST
4.7,-5.527439117,-0.526963949,9.07263279,-1.623485923,-0.495429993,2.210379839,-1113.900024,12.90000057,-933.3000488,1.858847991,-0.544967092,0.068764991,ST
4.73333333333333,-4.445996761,-0.994113624,8.610866547,-0.274392009,-1.737815976,2.355197906,-1113.900024,15.90000057,-928.500061,1.871178999,-0.485352074,0.104881923,ST
4.76666666666667,-4.776171684,-0.116039738,8.007938385,0.251525998,-0.594515979,1.166165948,-1118.700073,15.30000019,-928.500061,1.832968615,-0.52734418,0.030758273,ST
4.8,-4.580578804,0.814072609,7.984012604,0.373477995,-0.61738199,2.06556201,-1111.5,11.70000076,-916.500061,1.775203313,-0.520074523,-0.077237646,ST
4.83333333333333,-3.217411041,0.690257013,6.917523384,0.129574001,-0.335367978,1.8292799,-1121.100098,12.90000057,-926.1000366,1.761781965,-0.446355008,-0.097650233,ST
4.86666666666667,-2.914152622,0.515599251,7.290764809,-0.556405962,0.457319975,0.739333987,-1121.100098,14.10000038,-933.3000488,1.768723501,-0.391919247,-0.075014551,ST
4.9,-2.882451057,-0.433653653,9.324450493,-0.655492008,-0.282013983,-0.472563982,-1130.700073,12.30000019,-921.3000488,1.804898306,-0.314982499,0.027747233,ST
4.93333333333333,-3.234757185,-0.137572885,9.120484352,-0.045731999,-1.532021999,-1.471045971,-1125.900024,18.90000153,-926.1000366,1.805022764,-0.333414857,0.018402453,ST
4.96666666666667,-3.202457428,0.028710863,8.988892555,1.150921941,-0.266770005,0.175305992,-1116.300049,17.10000038,-926.1000366,1.798970221,-0.340472714,-0.001567491,ST
5.0,-2.967985392,-0.07058087,10.49621296,0.640248001,-0.91463995,0.853663981,-1118.700073,15.90000057,-923.7000122,1.799218342,-0.287371856,0.003806239,ST
5.03333333333333,-1.784260511,0.036486723,8.551052094,1.310984015,-1.196653962,0.663114011,-1116.300049,18.90000153,-926.1000366,1.796360125,-0.220494907,-0.004731094,ST
5.06666666666667,-1.652669072,-0.733323276,8.869862556,1.051836014,0.990859985,-1.471045971,-1125.900024,11.10000038,-916.500061,1.814630802,-0.192060596,0.064959568,ST
5.1,-3.283206701,-0.278136492,8.991883278,1.455801964,-0.251525998,-0.556405962,-1133.100098,14.70000076,-923.7000122,1.80930005,-0.321230733,0.035359518,ST
5.13333333333333,-1.699922323,-0.93190676,8.224466324,1.387203932,1.150921941,-0.099086002,-1121.100098,9.300000191,-923.7000122,1.827401107,-0.225571461,0.097403437,ST
5.16666666666667,-6.343306065,-0.427074075,8.083902359,1.791170001,0.099086002,-1.501533985,-1123.5,12.90000057,-928.500061,1.817915321,-0.588281572,0.060178562,ST
5.2,-8.771168709,-0.295482635,10.49980164,0.525918007,0.175305992,-1.44817996,-1113.900024,11.70000076,-928.500061,1.80661719,-0.677832806,0.034723642,ST
5.23333333333333,-5.816940308,0.6447981,8.786720276,2.202757835,-1.067080021,-0.647870004,-1123.5,10.5,-933.3000488,1.756043215,-0.599298775,-0.057618041,ST
5.26666666666667,-4.669702053,-0.551487803,7.983414173,2.141782045,0.891773999,-1.059458017,-1109.100098,12.90000057,-923.7000122,1.816552873,-0.54280561,0.045063871,ST
5.3,-4.917931557,0.110058308,7.57787323,2.637212038,1.753059983,-0.663114011,-1121.100098,6.900000095,-923.7000122,1.793664805,-0.572747578,-0.007589649,ST
5.33333333333333,-5.623740196,0.418101937,7.460039139,2.164648056,1.623485923,-1.272873998,-1116.300049,5.100000381,-928.500061,1.776093316,-0.63296705,-0.047690616,ST
5.36666666666667,-3.25030899,0.151928321,6.398933411,2.949713945,2.454283953,0.274392009,-1109.100098,6.900000095,-923.7000122,1.7872538,-0.506203084,-0.032657637,ST
5.4,-5.178721905,-0.238659039,8.638978958,0.701223969,0.891773999,-0.708845973,-1094.700073,7.500000477,-918.9000244,1.813917216,-0.535250431,0.016230357,ST
5.43333333333333,-5.240330696,0.192602038,9.031360626,1.935987949,-2.164648056,-0.632625997,-1109.100098,11.70000076,-928.500061,1.800804363,-0.524175978,-0.017305587,ST
5.46666666666667,-4.806078911,0.280529052,8.304616928,0.449698001,-1.524399996,-0.045731999,-1113.900024,8.100000381,-914.1000366,1.794562423,-0.522198294,-0.031204954,ST
5.5,-5.068065166,0.443223953,9.196448326,-0.114329994,-0.91463995,0.769822001,-1113.900024,3.300000191,-921.3000488,1.786085713,-0.505710634,-0.045186654,ST
5.53333333333333,-4.667907715,-0.078954875,8.010929108,0.350611985,-0.289635986,1.577754021,-1113.900024,6.900000095,-930.9000244,1.804029011,-0.522855364,-0.003117659,ST
5.56666666666667,-5.720639229,0.416905642,8.984705925,-0.205793992,-0.129574001,0.731711984,-1116.300049,2.100000143,-930.9000244,1.783263415,-0.559445097,-0.039751413,ST
5.6,-5.867782593,0.303258479,7.644267082,0.655492008,-0.503051996,2.080806017,-1116.300049,6.900000095,-914.1000366,1.778561087,-0.634299871,-0.042703319,ST
5.63333333333333,-5.753537178,0.129797027,8.205325127,-0.076219998,-0.40396598,2.660078049,-1113.900024,6.300000191,-926.1000366,1.784640804,-0.615429887,-0.023691624,ST
5.66666666666667,-6.890008926,1.276437044,8.304018974,0.038109999,-0.731711984,2.187514067,-1116.300049,6.900000095,-923.7000122,1.718269549,-0.671805738,-0.12767281,ST
5.7,-6.162068844,0.671714544,7.073638916,-0.053353999,-0.365855992,2.660078049,-1118.700073,6.900000095,-921.3000488,1.728436322,-0.705912098,-0.103849794,ST
5.73333333333333,-5.709872723,0.477318078,6.471907139,-1.272873998,0.72408998,1.760681987,-1121.100098,3.900000095,-921.3000488,1.738803981,-0.719254211,-0.080208886,ST
5.76666666666667,-5.892306328,0.277538329,7.93137598,-2.073184013,0.221037999,2.202757835,-1123.5,8.100000381,-928.500061,1.755332167,-0.655086298,-0.043241654,ST
5.8,-4.565625191,-0.660947978,5.88393259,-1.349093914,-1.074702024,1.371959925,-1116.300049,11.10000038,-926.1000366,1.826491198,-0.656138132,0.080744001,ST
5.83333333333333,-6.02210331,0.257799625,7.299138546,-2.660078049,2.019829988,1.059458017,-1128.300049,8.700000763,-918.9000244,1.761118856,-0.687782853,-0.013992192,ST
5.86666666666667,-4.987914085,-0.430064797,7.79918623,-1.55488801,0.754577994,1.417691946,-1116.300049,15.30000019,-914.1000366,1.790417948,-0.593657099,0.042803344,ST
5.9,-5.565122128,0.321202785,8.11859417,-0.91463995,0.015244,-0.396344006,-1113.900024,11.10000038,-930.9000244,1.753974659,-0.599481164,-0.021250927,ST
5.93333333333333,-4.788134575,-0.078356728,7.375102997,0.449698001,0.038109999,-0.342989981,-1125.900024,15.90000057,-930.9000244,1.769478816,-0.580395486,0.004338537,ST
5.96666666666667,-5.270237923,0.497056812,7.082012653,0.754577994,-0.434453994,-1.493911982,-1121.100098,12.30000019,-933.3000488,1.738980978,-0.628453718,-0.056672394,ST
6.0,-6.013131142,0.731528878,8.915919304,1.219519973,-1.112811923,-0.045731999,-1123.5,10.5,-928.500061,1.728048634,-0.596774218,-0.079091777,ST
6.03333333333333,-4.953820229,0.711192012,7.944534779,1.897877932,-2.545747995,0.579271972,-1111.5,6.900000095,-923.7000122,1.723561665,-0.55888433,-0.09069606,ST
6.06666666666667,-4.745666504,0.875681281,9.09895134,0.678357959,-2.76678586,0.670735955,-1125.900024,11.10000038,-926.1000366,1.720637167,-0.487301413,-0.096515602,ST
6.1,-4.267750263,0.297875196,8.588734627,0.213415995,-2.035073996,-0.312501997,-1125.900024,9.900000572,-923.7000122,1.744457694,-0.463572813,-0.047014355,ST
6.13333333333333,-5.173338413,0.419896364,8.451760292,-0.350611985,-0.060975999,-0.815553963,-1137.900024,15.30000019,-935.7000122,1.745409475,-0.535227105,-0.048041365,ST
6.16666666666667,-4.683459282,0.454588652,9.289758682,-0.754577994,-0.990859985,-0.342989981,-1128.300049,11.70000076,-928.500061,1.745664972,-0.478967602,-0.047423399,ST
6.2,-3.490762472,-0.079553016,8.768177986,-0.769822001,-2.408551931,-0.72408998,-1130.700073,8.100000381,-930.9000244,1.766482583,-0.395793385,-0.000432824,ST
6.23333333333333,-3.329263687,0.044860724,8.856104851,-0.625003994,-1.753059983,-1.455801964,-1130.700073,19.5,-930.9000244,1.768309252,-0.36443888,-0.002482826,ST
6.26666666666667,-2.989518642,-0.038879294,10.26473141,0.40396598,-1.653973937,-0.731711984,-1142.700073,16.5,-928.500061,1.771770172,-0.297426875,0.002302293,ST
6.3,-2.139557362,-0.50363636,9.230542183,1.791170001,-2.149404049,-1.699705958,-1142.700073,12.30000019,-918.9000244,1.787106929,-0.238562998,0.042226814,ST
6.33333333333333,-3.285001278,0.017944289,10.04461479,1.227141976,-1.935987949,-1.592997909,-1140.300049,11.70000076,-928.500061,1.781733536,-0.297730161,0.006171907,ST
6.36666666666667,-3.110343456,0.039477438,9.329236031,1.34147191,-0.464941978,-0.259148002,-1159.5,11.10000038,-930.9000244,1.780198143,-0.316305585,-0.00387853,ST
6.4,-3.282010555,-0.28950119,10.27310562,0.0,0.541162014,-1.493911982,-1152.300049,5.100000381,-930.9000244,1.792229895,-0.311095687,0.023507606,ST
6.43333333333333,-4.470520496,-0.761435986,9.932762146,0.411587983,1.23476398,-2.06556201,-1145.100098,15.30000019,-935.7000122,1.812763098,-0.403657172,0.067212264,ST
6.46666666666667,-3.589456081,-1.048544645,9.661803246,0.342989981,0.945127964,-2.751541853,-1147.5,15.90000057,-918.9000244,1.833185086,-0.362716368,0.10288689,ST
6.5,-4.636804104,-1.226791263,8.394936562,-0.868907988,2.461905956,-3.864353895,-1137.900024,4.5,-926.1000366,1.856751533,-0.4767396,0.140592103,ST
6.53333333333333,-5.097972393,-1.25430584,9.435107231,-1.74543798,3.353679895,-2.660078049,-1135.5,14.10000038,-923.7000122,1.86039039,-0.493062285,0.138569749,ST
6.56666666666667,-5.134459496,-0.990524769,8.539687157,-1.120433927,3.536607981,1.631107926,-1135.5,5.700000286,-916.500061,1.847582828,-0.535641868,0.120307455,ST
6.6,-4.425659657,-1.636519194,8.258560181,-0.609759986,4.146368027,1.432935953,-1130.700073,6.300000191,-918.9000244,1.876103202,-0.499610086,0.182825037,ST
6.63333333333333,-5.142833233,-1.349410534,7.43910408,0.693601966,3.246971846,0.556405962,-1125.900024,7.500000477,-914.1000366,1.875141402,-0.582180651,0.179178635,ST
6.66666666666667,-6.055001259,-1.50133884,6.373213291,0.983237982,3.361301899,0.091463998,-1123.5,18.90000153,-918.9000244,1.90220971,-0.719748213,0.219383804,ST
6.7,-6.70279026,-0.844577849,6.189583302,0.53354001,2.858249903,0.40396598,-1116.300049,3.900000095,-923.7000122,1.855404533,-0.808091148,0.150157135,ST
6.73333333333333,-7.059881687,-0.57421726,7.664604187,-0.053353999,1.615863919,0.861285985,-1097.100098,13.50000095,-921.3000488,1.809895705,-0.75793623,0.087346202,ST
6.76666666666667,-5.357566357,-0.957028747,5.829501629,1.928365946,0.899396002,0.952749968,-1109.100098,5.100000381,-921.3000488,1.851881639,-0.741928167,0.146392749,ST
6.8,-5.362351894,-1.531844139,6.634003639,1.173787951,2.591480017,0.121951997,-1097.100098,3.300000191,-916.500061,1.89613587,-0.686100146,0.210373753,ST
6.83333333333333,-5.638095856,-1.080844402,6.952814102,0.701223969,1.028970003,-0.716467977,-1097.100098,4.5,-916.500061,1.870416549,-0.679028569,0.165451796,ST
6.86666666666667,-6.531721115,-1.345821738,6.95401001,0.868907988,1.692083955,1.410069942,-1094.700073,1.5,-928.500061,1.881313105,-0.73432645,0.183139623,ST
6.9,-6.767389774,-0.777585864,8.93386364,-0.541162014,-0.472563982,2.408551931,-1099.5,6.300000191,-921.3000488,1.822928324,-0.662230539,0.100786606,ST
6.93333333333333,-5.72602272,-0.911569893,8.874647141,-1.196653962,-0.838419974,3.673803806,-1099.5,2.700000048,-916.500061,1.813935843,-0.588397453,0.100049691,ST
6.96666666666667,-4.414295197,-0.950449169,7.879935741,-1.089946032,-0.472563982,2.789651871,-1101.900024,5.100000381,-921.3000488,1.814734907,-0.52006068,0.116122304,ST
7.0,-4.284498215,-1.697529793,8.923096657,-1.371959925,0.564027965,1.44817996,-1089.900024,-2.700000048,-918.9000244,1.838130072,-0.458029175,0.174910633,ST
7.03333333333333,-5.114720345,-1.994806767,8.551052094,-0.464941978,-0.091463998,-0.487807989,-1089.900024,-0.900000036,-906.9000244,1.860091747,-0.51559469,0.22076126,ST
7.06666666666667,-5.182310581,-1.361971498,7.736381054,0.464941978,-0.365855992,1.257629991,-1099.5,5.700000286,-909.3000488,1.837025028,-0.57173374,0.180482824,ST
7.1,-5.103953838,-1.62156558,8.040237427,0.327746004,-0.731711984,3.125020027,-1092.300049,3.300000191,-904.500061,1.837385116,-0.559510783,0.192035409,ST
7.13333333333333,-5.520261288,-1.232772708,8.854310036,0.015244,-2.042695999,3.765267849,-1087.5,3.900000095,-906.9000244,1.804939348,-0.552586772,0.145599394,ST
7.16666666666667,-4.053016663,-1.321895957,8.004349709,0.038109999,-2.583858013,3.27745986,-1087.5,0.300000012,-904.500061,1.802927926,-0.474365503,0.157988728,ST
7.2,-3.445901632,-1.041965008,8.067153931,-0.670735955,-0.571649969,1.791170001,-1094.700073,1.5,-906.9000244,1.788071501,-0.415135841,0.133947154,ST
7.23333333333333,-5.651254654,-0.197387174,9.430920601,0.586893976,-1.516777992,1.966475964,-1089.900024,1.5,-897.3000488,1.74338471,-0.51310735,0.042676138,ST
7.26666666666667,-5.571702003,-0.10826388,8.27291584,1.63872993,-1.600619912,1.63872993,-1101.900024,5.700000286,-892.500061,1.727962407,-0.574452127,0.015511541,ST
7.3,-6.115413666,0.489879102,7.30691433,1.272873998,-0.91463995,2.301843882,-1106.700073,4.5,-878.1000366,1.685267602,-0.670067152,-0.053270226,ST
7.33333333333333,-6.398933411,1.082040668,8.83995533,-0.167683989,-0.800309956,4.161612034,-1099.5,5.100000381,-890.1000366,1.641687296,-0.631011238,-0.112424899,ST
7.36666666666667,-5.058495045,0.459971935,7.594621181,-0.586893976,-2.477149963,3.963439941,-1104.300049,3.300000191,-870.9000244,1.656340417,-0.591272947,-0.072932419,ST
7.4,-5.282798767,1.062900066,5.974252224,-0.449698001,-0.449698001,1.501533985,-1092.300049,-2.700000048,-894.9000244,1.604257466,-0.690502646,-0.154510355,ST
7.43333333333333,-6.216499805,0.39297992,7.38287878,-0.464941978,1.082324028,1.181409955,-1089.900024,8.100000381,-892.500061,1.653105986,-0.699298923,-0.073410024,ST
7.46666666666667,-5.62433815,0.148937598,6.839765072,-0.907018006,-0.419209987,0.274392009,-1097.100098,3.900000095,-875.7000122,1.67837049,-0.689844669,-0.031145895,ST
7.5,-5.949728012,0.975571215,6.456355095,-1.23476398,-0.518296003,0.099086002,-1106.700073,6.300000191,-878.1000366,1.616197669,-0.728944861,-0.123483189,ST
7.53333333333333,-5.599814415,0.384605944,6.510786057,-1.547266006,-0.525918007,1.913121939,-1094.700073,17.10000038,-882.9000244,1.64465786,-0.712593917,-0.071941053,ST
7.56666666666667,-5.531626225,-0.089123301,7.628117085,-1.74543798,-0.518296003,0.29725799,-1111.5,12.90000057,-878.1000366,1.685432872,-0.644070779,-0.002235488,ST
7.6,-5.086607933,-0.233873904,8.086295128,-1.577754021,-1.684461951,-1.989341974,-1099.5,17.10000038,-880.500061,1.704568588,-0.572701694,0.028044898,ST
7.63333333333333,-5.481980324,-0.160900459,8.02468586,-0.990859985,-1.783547997,-1.387203932,-1111.5,15.30000019,-899.7000122,1.703864676,-0.591886614,0.024209389,ST
7.66666666666667,-5.21042347,-0.110656448,8.780738831,-0.579271972,-1.04421401,-0.358233988,-1101.900024,13.50000095,-904.500061,1.699186476,-0.543439761,0.015608754,ST
7.7,-4.722937107,-0.068786442,8.727503777,-0.060975999,-0.594515979,0.236281991,-1092.300049,9.900000572,-890.1000366,1.695242135,-0.502609056,0.008944679,ST
7.73333333333333,-4.905370712,0.030505292,8.232839584,0.838419974,-0.419209987,0.480185986,-1106.700073,16.5,-914.1000366,1.689496264,-0.529759638,-0.002677168,ST
7.76666666666667,-4.033277988,-0.438438803,8.189175606,1.310984015,0.221037999,-0.754577994,-1118.700073,17.70000076,-897.3000488,1.714670067,-0.469666915,0.043042316,ST
7.8,-4.301246166,-0.479710668,8.103640556,0.815553963,-0.144817993,-2.774407864,-1099.5,16.5,-902.1000366,1.728039699,-0.483691073,0.057118735,ST
7.83333333333333,-5.1583848,0.294884473,8.753224373,0.53354001,-0.693601966,-1.615863919,-1106.700073,15.90000057,-909.3000488,1.697361619,-0.521802676,-0.014427086,ST
7.86666666666667,-4.001576424,-0.446812809,8.183792114,0.884151995,-0.411587983,0.327746004,-1116.300049,14.10000038,-899.7000122,1.723644051,-0.466627246,0.040319207,ST
7.9,-4.508203506,-0.354100645,9.432116508,-0.243903995,-0.320124,-1.417691946,-1111.5,11.70000076,-928.500061,1.725879173,-0.449305225,0.039374555,ST
7.93333333333333,-4.703197956,0.385802209,9.024183273,0.198172003,-1.410069942,-1.524399996,-1109.100098,21.30000114,-911.7000122,1.699850194,-0.472796106,-0.027027054,ST
7.96666666666667,-4.960997581,0.314025074,8.580361366,0.640248001,0.967993975,-0.93750596,-1121.100098,17.10000038,-909.3000488,1.698699669,-0.515001062,-0.034826319,ST
8.0,-5.221189976,0.320604622,8.994276047,0.083841994,0.53354001,-1.387203932,-1104.300049,8.700000763,-914.1000366,1.701698551,-0.524339321,-0.034488928,ST
8.03333333333333,-4.953221798,0.564646959,7.341606617,0.29725799,-0.61738199,0.053353999,-1104.300049,13.50000095,-921.3000488,1.683747508,-0.579196343,-0.069384957,ST
8.06666666666667,-6.055001259,-0.235668331,8.187978745,-0.564027965,0.137196004,0.655492008,-1116.300049,18.30000114,-921.3000488,1.72582415,-0.625549878,0.008349319,ST
8.1,-4.907165051,-0.555674791,7.841654301,-0.967993975,-0.685979962,-1.333850026,-1111.5,17.70000076,-916.500061,1.756789888,-0.57074451,0.061123556,ST
8.13333333333333,-5.639890194,-0.641209245,8.353664398,-1.021348,-1.364337921,-2.073184013,-1121.100098,17.70000076,-916.500061,1.768409954,-0.586643396,0.07734312,ST
8.16666666666667,-5.244517803,-1.324288487,7.132854939,0.038109999,-0.876529992,-1.714949965,-1104.300049,17.70000076,-930.9000244,1.820007371,-0.616934297,0.163009338,ST
8.2,-5.467624664,-1.265072346,8.214297295,-0.434453994,0.487807989,-2.149404049,-1118.700073,15.90000057,-921.3000488,1.82048854,-0.589152561,0.157494995,ST
8.23333333333333,-5.246910095,-1.078451753,8.363235474,-0.243903995,-0.922261953,-0.975615978,-1101.900024,18.30000114,-921.3000488,1.80961176,-0.56173231,0.135111565,ST
8.26666666666667,-4.361658573,-2.193390369,8.288467407,-0.091463998,-0.457319975,-0.647870004,-1118.700073,15.90000057,-928.500061,1.860833209,-0.488825494,0.23526605,ST
8.3,-4.746264458,-1.817756534,9.18269062,0.640248001,0.663114011,-1.265251994,-1101.900024,17.10000038,-918.9000244,1.849417014,-0.47335327,0.202571408,ST
8.33333333333333,-4.61706543,-2.195184708,9.24968338,1.913121939,2.012207985,-0.785066009,-1113.900024,15.90000057,-930.9000244,1.864535073,-0.458521737,0.225757116,ST
8.36666666666667,-5.126085281,-0.916355014,9.394433975,3.056421995,3.445143938,-1.097568035,-1101.900024,17.10000038,-926.1000366,1.82223911,-0.495267085,0.11882974,ST
8.4,-4.446594715,-1.87338376,9.842442513,4.016793728,3.498497963,1.509155989,-1099.5,15.90000057,-921.3000488,1.846672072,-0.438709009,0.168379815,ST
8.43333333333333,-5.455662251,-0.872690618,10.16185093,5.449729919,1.8292799,-1.631107926,-1097.100098,17.70000076,-918.9000244,1.824036962,-0.48306455,0.09636175,ST
8.46666666666667,-5.39883852,0.192003891,8.310598373,4.801859856,0.983237982,0.61738199,-1087.5,12.90000057,-911.7000122,1.775790598,-0.562210383,-0.009665786,ST
8.5,-4.146925449,-0.68726629,8.461928368,3.445143938,2.19513607,0.846041977,-1101.900024,16.5,-918.9000244,1.812526452,-0.478357264,0.059240445,ST
8.53333333333333,-4.8808465,-0.246434897,8.395534515,2.713431835,1.920743942,-1.814036012,-1085.100098,6.900000095,-914.1000366,1.806888308,-0.519309067,0.033158807,ST
8.56666666666667,-4.706188679,-0.471934795,6.912738323,2.964957952,1.562510014,-2.736297846,-1070.700073,17.70000076,-911.7000122,1.829573573,-0.583040933,0.059081168,ST
8.6,-5.986214638,0.57421726,5.844454765,2.987823963,2.271355867,-1.547266006,-1065.900024,8.100000381,-902.1000366,1.760119336,-0.755970551,-0.063872297,ST
8.63333333333333,-5.80856657,0.432457358,6.773969173,2.042695999,1.547266006,0.876529992,-1073.100098,5.700000286,-918.9000244,1.758975988,-0.719586237,-0.067822882,ST
8.66666666666667,-7.028180122,1.172360182,6.616059303,0.853663981,-0.175305992,0.693601966,-1058.700073,7.500000477,-914.1000366,1.698044809,-0.792094178,-0.156947672,ST
8.7,-6.487458706,0.498253107,7.358952999,-0.861285985,0.358233988,0.960371971,-1070.700073,9.900000572,-916.500061,1.746672931,-0.733909714,-0.081885077,ST
8.73333333333333,-6.682453156,0.895420015,7.355364323,-0.060975999,-1.288118005,-0.190549999,-1061.100098,6.300000191,-933.3000488,1.726470714,-0.732165375,-0.112732817,ST
8.76666666666667,-6.925299168,1.340438366,8.117398262,0.243903995,-1.562510014,3.170752048,-1065.900024,9.300000191,-923.7000122,1.692306711,-0.70352317,-0.157471122,ST
8.8,-4.35388279,0.029907148,6.147713661,1.143299937,-0.457319975,2.111294031,-1070.700073,8.100000381,-916.500061,1.764483189,-0.633976922,-0.037853748,ST
8.83333333333333,-5.598020077,0.740500987,7.076629639,0.365855992,1.105189919,-0.548784018,-1068.300049,3.900000095,-921.3000488,1.733999555,-0.661809104,-0.090638171,ST
8.86666666666667,-5.42455864,0.808091164,7.096368313,0.228659987,-0.304879993,0.891773999,-1075.5,2.100000143,-916.500061,1.720479346,-0.651191867,-0.110627422,ST
8.9,-5.236143589,0.42827037,7.866776466,-0.731711984,-0.777444005,-0.251525998,-1065.900024,6.300000191,-923.7000122,1.74737734,-0.59865387,-0.064024949,ST
8.93333333333333,-5.056700706,0.025720147,8.093472481,-0.030487999,-1.669217944,0.243903995,-1070.700073,3.900000095,-916.500061,1.77374078,-0.564356611,-0.01534517,ST
8.96666666666667,-5.855819702,-0.011962859,8.676661491,0.083841994,-1.143299937,-0.548784018,-1075.5,7.500000477,-930.9000244,1.78251854,-0.586505963,-0.00146335,ST
9.0,-5.819333076,0.043664437,8.976331711,0.060975999,-0.015244,-0.342989981,-1085.100098,6.900000095,-914.1000366,1.781886153,-0.577436459,-0.003956206,ST
9.03333333333333,-4.810863972,-0.135180309,8.452358246,1.326228023,0.381099999,-0.160062,-1070.700073,12.90000057,-918.9000244,1.791972828,-0.527419794,0.01114168,ST
9.06666666666667,-5.484971046,0.150133893,7.829093456,1.608241916,1.532021999,-0.647870004,-1077.900024,7.500000477,-916.500061,1.781221554,-0.599212922,-0.015632907,ST
9.1,-5.799594402,0.32479164,8.820216179,0.746955991,1.143299937,-0.815553963,-1061.100098,1.5,-923.7000122,1.77391537,-0.58622047,-0.03339368,ST
9.13333333333333,-4.948436737,0.353502482,7.934964657,0.769822001,-0.388722003,0.602137983,-1061.100098,3.900000095,-914.1000366,1.768033731,-0.562444387,-0.043910078,ST
9.16666666666667,-5.09079504,0.250621915,7.500114918,-1.051836014,0.40396598,0.815553963,-1070.700073,5.100000381,-923.7000122,1.770043715,-0.58981393,-0.03485961,ST
9.2,-5.908456326,0.499449372,6.871466637,-3.506119967,0.221037999,2.553369999,-1073.100098,7.500000477,-921.3000488,1.744218837,-0.68497955,-0.062246835,ST
9.23333333333333,-5.242125034,-0.418700069,7.315886497,-2.797273874,0.396344006,3.612828016,-1053.900024,12.90000057,-923.7000122,1.792785544,-0.635030547,0.034084414,ST
9.26666666666667,-5.757724285,-1.07546103,8.098855972,-2.408551931,-0.907018006,1.211897969,-1061.100098,10.5,-914.1000366,1.834299818,-0.617444893,0.114532047,ST
9.3,-5.766696453,-0.812278152,7.34519577,0.091463998,-0.472563982,-0.29725799,-1077.900024,10.5,-923.7000122,1.8328399,-0.654770829,0.110977845,ST
9.33333333333333,-6.137545109,-0.870298028,7.876945019,0.388722003,-0.396344006,-0.068598002,-1063.5,12.90000057,-926.1000366,1.832666669,-0.657610344,0.109695503,ST
9.36666666666667,-6.242219925,-1.060507536,8.115005493,-0.320124,-1.63872993,0.038109999,-1070.700073,11.70000076,-918.9000244,1.841875712,-0.650464295,0.126308141,ST
9.4,-6.214107513,-1.274044514,7.743558884,-0.320124,-1.059458017,0.510674,-1065.900024,6.900000095,-918.9000244,1.857939992,-0.664562623,0.155277196,ST
9.43333333333333,-5.700900555,-1.460665107,8.451162338,-0.274392009,-0.602137983,1.089946032,-1065.900024,10.5,-914.1000366,1.86251748,-0.601776549,0.16728873,ST
9.46666666666667,-5.51188755,-0.999496877,9.095960617,-0.022865999,-1.387203932,0.853663981,-1077.900024,9.900000572,-921.3000488,1.833770247,-0.551088077,0.118501647,ST
9.5,-4.442408085,-1.018637538,8.439797401,0.678357959,-2.271355867,1.806414008,-1080.300049,5.100000381,-916.500061,1.829711914,-0.491837497,0.117226809,ST
9.53333333333333,-5.000475407,-0.303856641,9.541576385,0.449698001,-1.783547997,2.477149963,-1082.700073,11.70000076,-921.3000488,1.789884568,-0.481949572,0.043450295,ST
9.56666666666667,-4.838378429,-0.157311603,9.427929878,1.112811923,-1.623485923,3.300325871,-1073.100098,5.100000381,-916.500061,1.772552568,-0.473550407,0.018105907,ST
9.6,-3.643887043,-0.556272984,8.93805027,1.349093914,-0.205793992,2.57623601,-1087.5,13.50000095,-921.3000488,1.782182302,-0.401910614,0.050954915,ST
9.63333333333333,-4.474707603,-0.711790144,8.811244011,0.777444005,0.144817993,0.449698001,-1070.700073,7.500000477,-918.9000244,1.791207199,-0.455406362,0.073060423,ST
9.66666666666667,-4.899987221,0.057421725,7.841056347,1.417691946,0.388722003,0.289635986,-1070.700073,17.10000038,-911.7000122,1.760894425,-0.538461175,0.007449682,ST
9.7,-4.564428806,-0.084936298,6.890008926,1.310984015,0.685979962,1.493911982,-1082.700073,8.700000763,-911.7000122,1.759956272,-0.5766324,0.008143377,ST
9.73333333333333,-5.041747093,0.092114016,6.451570034,1.006103992,-0.076219998,1.112811923,-1070.700073,8.100000381,-923.7000122,1.747581688,-0.645678737,-0.012110929,ST
9.76666666666667,-6.320576668,0.152526453,7.393645287,0.61738199,-2.461905956,0.282013983,-1087.5,5.700000286,-923.7000122,1.743150569,-0.69134819,-0.019997259,ST
9.8,-6.293660164,0.336754501,7.50310564,0.396344006,-4.718018055,0.068598002,-1089.900024,10.5,-916.500061,1.730966125,-0.689683416,-0.040240946,ST
9.83333333333333,-6.190779686,0.931308627,7.806962013,0.42683199,-4.146368027,1.493911982,-1097.100098,6.300000191,-918.9000244,1.688827804,-0.665892264,-0.104968082,ST
9.86666666666667,-5.860604763,0.820652127,8.350075722,0.160062,-2.690565825,2.705809832,-1101.900024,11.70000076,-933.3000488,1.686369141,-0.61689936,-0.102030953,ST
9.9,-4.864098549,1.354195714,8.38955307,-0.007622,-1.935987949,2.606724024,-1109.100098,3.900000095,-916.500061,1.655110245,-0.536338079,-0.151019841,ST
9.93333333333333,-4.326966286,1.568330884,8.429629326,-0.327746004,0.007622,3.879597902,-1111.5,5.700000286,-928.500061,1.63248845,-0.4795244,-0.180394141,ST
9.96666666666667,-3.035575628,1.414608121,7.711259365,-0.967993975,-0.61738199,2.461905956,-1099.5,9.300000191,-926.1000366,1.626313646,-0.390095576,-0.181394337,ST
10.0,-3.860414743,1.091012836,8.58095932,-0.891773999,-0.243903995,0.350611985,-1111.5,12.30000019,-935.7000122,1.642367166,-0.41346442,-0.136617128,ST
10.0333333333333,-4.972960472,1.527058959,10.03025913,-0.93750596,-0.93750596,-0.068598002,-1118.700073,4.5,-930.9000244,1.637540598,-0.446870197,-0.146976229,ST
10.0666666666667,-3.796413422,0.829624295,8.971546173,-0.731711984,-1.44817996,-0.40396598,-1113.900024,4.5,-928.500061,1.656806252,-0.4066154,-0.101712801,ST
10.1,-4.60570097,0.689658821,10.02906322,-1.166165948,-0.853663981,-0.457319975,-1104.300049,12.90000057,-930.9000244,1.668247455,-0.423875025,-0.073434845,ST
10.1333333333333,-3.948341846,0.732127011,9.219177246,-0.579271972,-1.204275966,0.198172003,-1109.100098,10.5,-926.1000366,1.665908296,-0.405914546,-0.077345451,ST
10.1666666666667,-3.088810205,-0.044860724,7.567704678,-0.632625997,2.637212038,-1.364337921,-1121.100098,6.300000191,-918.9000244,1.69629607,-0.39451581,-0.005376928,ST
10.2,-3.253299713,-0.662742436,7.674174309,0.815553963,6.333881855,-2.36281991,-1106.700073,10.5,-923.7000122,1.732375386,-0.407872268,0.070254739,ST
10.2333333333333,-4.740880966,-0.285314202,7.543779373,2.370441914,7.347607613,-3.643316031,-1089.900024,13.50000095,-923.7000122,1.731857863,-0.545304797,0.043319543,ST
10.2666666666667,-6.366035461,0.160900459,8.108426094,1.471045971,7.157057762,-2.850627899,-1080.300049,3.900000095,-918.9000244,1.711998236,-0.651233338,-0.005482988,ST
10.3,-5.855221748,-1.127499461,7.878140926,1.532021999,5.716499805,-2.050318003,-1065.900024,5.100000381,-923.7000122,1.790154285,-0.646385975,0.113240136,ST
10.3333333333333,-5.986214638,-0.968991637,8.239418983,0.518296003,4.542711735,-2.660078049,-1058.700073,11.10000038,-921.3000488,1.800071874,-0.635205664,0.118855591,ST
10.3666666666667,-5.903072834,-1.602424979,7.190276623,0.342989981,1.966475964,-1.714949965,-1051.5,10.5,-911.7000122,1.854513674,-0.670593746,0.201393158,ST
10.4,-6.397737026,-1.431356072,6.864886761,0.068598002,1.55488801,-1.592997909,-1056.300049,6.900000095,-911.7000122,1.862077922,-0.730447591,0.207158303,ST
10.4333333333333,-6.504206657,-1.50851655,6.759613514,0.251525998,1.661595941,-0.518296003,-1051.5,11.70000076,-914.1000366,1.871099267,-0.751371971,0.217777984,ST
10.4666666666667,-7.056890965,-1.361971498,7.713053703,-0.083841994,1.63872993,-0.182927996,-1046.700073,11.10000038,-916.500061,1.848942992,-0.739267646,0.184038517,ST
10.5,-6.5263381,-1.43554318,7.580863953,0.625003994,1.318606019,-0.42683199,-1037.100098,6.300000191,-909.3000488,1.852658878,-0.711276274,0.18647333,ST
10.5333333333333,-6.883429527,-1.133480906,8.455348969,0.541162014,-0.030487999,0.983237982,-1041.900024,5.100000381,-911.7000122,1.823037324,-0.685718323,0.141836769,ST
10.5666666666667,-6.522748947,-1.282418489,8.718531609,0.708845973,-0.434453994,0.685979962,-1034.700073,11.10000038,-909.3000488,1.823712188,-0.644844541,0.143504527,ST
10.6,-5.578879356,-1.007870913,8.202932358,0.487807989,-0.815553963,0.72408998,-1034.700073,3.900000095,-918.9000244,1.811793345,-0.602458842,0.124643603,ST
10.6333333333333,-5.729611397,-1.024618864,7.866178036,0.266770005,-0.175305992,1.074702024,-1046.700073,11.10000038,-911.7000122,1.811399852,-0.621600568,0.127180718,ST
10.6666666666667,-5.526242733,-0.64001298,7.181304455,-0.182927996,-1.486289978,2.012207985,-1044.300049,6.900000095,-914.1000366,1.787930268,-0.645741244,0.094778035,ST
10.7,-4.85751915,-0.385802209,6.102254391,-0.579271972,-2.06556201,2.507637978,-1044.300049,10.5,-918.9000244,1.76565903,-0.663613747,0.067563019,ST
10.7333333333333,-4.994493961,-0.200377896,7.397233963,-1.387203932,-1.722571969,1.310984015,-1044.300049,14.10000038,-914.1000366,1.742113472,-0.605526468,0.035394422,ST
10.7666666666667,-5.821725368,0.084936298,6.71415472,-0.198172003,-3.666181803,3.589962006,-1053.900024,9.300000191,-918.9000244,1.710197534,-0.687307373,-0.005983788,ST
10.8,-7.287175655,1.011459708,8.756215096,-0.480185986,-2.301843882,2.568614006,-1051.5,11.70000076,-916.500061,1.645709172,-0.687063074,-0.098812105,ST
10.8333333333333,-6.471907139,0.927719772,7.091583252,0.876529992,-2.431417942,2.080806017,-1065.900024,8.100000381,-921.3000488,1.625315873,-0.722575278,-0.127370145,ST
10.8666666666667,-7.029974461,1.388888001,8.061172485,0.266770005,0.282013983,2.096050024,-1065.900024,8.700000763,-918.9000244,1.597341789,-0.712490397,-0.164924642,ST
10.9,-5.660226822,1.455281854,8.042032242,-0.015244,-1.646351933,1.577754021,-1039.5,12.90000057,-933.3000488,1.586909111,-0.623257764,-0.177966766,ST
10.9333333333333,-6.363643169,1.668220758,7.65323925,-0.022865999,-0.213415995,2.774407864,-1070.700073,8.700000763,-923.7000122,1.562764077,-0.669332438,-0.209831116,ST
10.9666666666667,-4.910753727,1.595247269,7.714250088,0.464941978,0.716467977,0.564027965,-1061.100098,12.30000019,-923.7000122,1.564112123,-0.580754802,-0.206451675,ST
11.0,-4.975353241,1.606013894,7.410991192,0.327746004,-0.602137983,0.182927996,-1077.900024,16.5,-916.500061,1.561100841,-0.57981022,-0.212510128,ST
11.0333333333333,-4.578186512,1.106564522,7.916422367,0.259148002,-1.013725996,-0.464941978,-1070.700073,11.10000038,-923.7000122,1.594002581,-0.531062229,-0.153152621,ST
11.0666666666667,-4.338929176,0.39537251,7.697501659,0.480185986,-1.242385983,-0.91463995,-1058.700073,14.70000076,-928.500061,1.638060704,-0.514950034,-0.070388438,ST
11.1,-5.742172718,0.107665733,8.186782837,0.167683989,-0.777444005,-0.777444005,-1063.5,14.10000038,-916.500061,1.664655141,-0.593337526,-0.023555423,ST
11.1333333333333,-3.807179928,-0.408531636,8.528920174,0.152439997,-0.068598002,-2.111294031,-1065.900024,12.30000019,-918.9000244,1.69981394,-0.450519071,0.037303552,ST
11.1666666666667,-4.829406261,-0.196190894,8.585743904,0.518296003,-0.746955991,-2.76678586,-1061.100098,8.700000763,-918.9000244,1.70156723,-0.50003829,0.026833998,ST
11.2,-4.408911705,-0.165087461,8.076725006,1.592997909,1.394825935,-2.355197906,-1063.5,17.70000076,-914.1000366,1.705510044,-0.501545051,0.021327361,ST
11.2333333333333,-4.715759277,-0.306847334,7.751933098,2.126538038,1.76830399,-3.140264034,-1061.100098,11.70000076,-918.9000244,1.72133138,-0.539501999,0.035418209,ST
11.2666666666667,-5.267845154,-0.430064797,8.05519104,2.248489857,0.967993975,-2.25611186,-1070.700073,8.700000763,-918.9000244,1.7354662,-0.571855474,0.048513049,ST
11.3,-5.246910095,-0.202172324,6.296650887,3.315569878,1.714949965,-2.46952796,-1056.300049,8.700000763,-911.7000122,1.736005754,-0.671864202,0.033543838,ST
11.3333333333333,-6.827802181,-0.82364285,7.158575058,2.286599874,2.157026052,-2.027451992,-1058.700073,12.90000057,-926.1000366,1.784241066,-0.744017601,0.096525328,ST
11.3666666666667,-8.740064621,-1.204659939,7.834476471,1.082324028,1.394825935,-1.577754021,-1056.300049,4.5,-911.7000122,1.82040545,-0.817711582,0.141256089,ST
11.4,-7.838065624,-0.052038439,9.140820503,-0.190549999,-1.150921941,-0.411587983,-1053.900024,11.70000076,-914.1000366,1.743680977,-0.729907285,0.031236468,ST
11.4333333333333,-5.487363815,-0.868503571,8.510976791,0.038109999,-1.371959925,1.684461951,-1049.100098,6.300000191,-918.9000244,1.775345153,-0.599051217,0.08755945,ST
11.4666666666667,-3.775478363,-0.964206457,9.053491592,-0.038109999,-0.594515979,-1.996963978,-1049.100098,10.5,-916.500061,1.787385678,-0.433659379,0.103943483,ST
11.5,-4.430445194,-1.001291275,8.765187263,1.349093914,-2.500015974,-2.301843882,-1051.5,5.700000286,-916.500061,1.796474887,-0.455808439,0.111415533,ST
11.5333333333333,-4.867687702,-0.715977132,7.20582819,2.141782045,1.478667974,-0.960371971,-1061.100098,14.10000038,-909.3000488,1.795443511,-0.56938559,0.099168889,ST
11.5666666666667,-6.826007366,-0.782370985,7.896683693,0.983237982,1.074702024,0.754577994,-1049.100098,6.900000095,-909.3000488,1.794109976,-0.688242632,0.096514854,ST
11.6,-7.764493942,-0.225499898,8.876441956,0.663114011,2.027451992,0.320124,-1044.300049,-2.100000143,-914.1000366,1.757495565,-0.715474219,0.038811188,ST
11.6333333333333,-6.05978632,-0.123815596,8.309402466,0.769822001,-0.251525998,1.85214591,-1039.5,6.300000191,-909.3000488,1.741151869,-0.646965498,0.016315145,ST
11.6666666666667,-5.495139599,-0.017944289,8.112612724,0.312501997,-0.373477995,1.028970003,-1053.900024,5.100000381,-918.9000244,1.731852122,-0.604046474,0.00314286,ST
11.7,-3.216214657,-0.009570288,6.550263882,0.586893976,-0.609759986,-0.541162014,-1046.700073,11.70000076,-911.7000122,1.732806634,-0.481901711,0.001219095,ST
11.7333333333333,-4.262366772,0.166283742,6.644770145,-0.602137983,-0.708845973,0.0,-1051.5,10.5,-918.9000244,1.721803148,-0.554339119,-0.019542275,ST
11.7666666666667,-5.18470335,-0.123815596,7.515666485,-0.556405962,-1.135677934,1.684461951,-1051.5,0.900000036,-914.1000366,1.73292417,-0.592310901,0.008207114,ST
11.8,-6.378596783,0.562852561,8.54686451,-0.205793992,-1.12805593,2.263733864,-1049.100098,5.100000381,-918.9000244,1.693667303,-0.628996839,-0.052352305,ST
11.8333333333333,-5.846847534,0.559861839,8.035452843,0.838419974,-0.083841994,3.612828016,-1051.5,3.300000191,-911.7000122,1.677176423,-0.627665549,-0.070910555,ST
11.8666666666667,-7.054498196,0.803305984,8.511574745,-0.350611985,-0.030487999,2.446661949,-1053.900024,9.300000191,-923.7000122,1.659426607,-0.677734999,-0.091755421,ST
11.9,-6.492243767,0.868503571,8.465517044,-0.350611985,-0.876529992,1.74543798,-1056.300049,9.900000572,-921.3000488,1.649552798,-0.654851447,-0.10173892,ST
11.9333333333333,-5.683554649,0.83082056,7.595817566,-0.266770005,-0.625003994,1.173787951,-1063.5,8.700000763,-926.1000366,1.643072085,-0.641380247,-0.108387147,ST
11.9666666666667,-6.119002819,0.53892684,7.364336491,-0.449698001,0.228659987,2.073184013,-1058.700073,4.5,-906.9000244,1.654902661,-0.682488262,-0.08174152,ST
12.0,-4.42924881,0.315819502,7.882328033,-0.266770005,0.42683199,0.564027965,-1051.5,8.100000381,-914.1000366,1.673029071,-0.546634879,-0.04806386,ST
12.0333333333333,-4.009352207,0.202172324,6.588544846,-0.434453994,-0.685979962,-1.166165948,-1073.100098,2.700000048,-923.7000122,1.682903272,-0.545611571,-0.032569663,ST
12.0666666666667,-4.42207098,0.315221339,7.669389248,-1.074702024,-0.40396598,-0.434453994,-1051.5,8.700000763,-921.3000488,1.679817787,-0.525707975,-0.037795169,ST
12.1,-4.224683762,-0.254808903,7.384075165,-0.884151995,-0.899396002,0.419209987,-1053.900024,12.30000019,-906.9000244,1.707241265,-0.519632999,0.020829149,ST
12.1333333333333,-5.069261551,-0.552684128,7.656229973,-1.036592007,1.364337921,-0.160062,-1056.300049,8.700000763,-909.3000488,1.729567209,-0.575607542,0.065406994,ST
12.1666666666667,-5.861801147,-0.270958751,7.404411793,-1.006103992,0.983237982,-0.647870004,-1044.300049,6.900000095,-914.1000366,1.717336555,-0.65392501,0.044197145,ST
12.2,-5.002867699,-0.749473155,8.095267296,-0.868907988,0.29725799,-0.236281991,-1061.100098,15.90000057,-921.3000488,1.74049704,-0.570374814,0.085649373,ST
12.2333333333333,-5.888119221,-1.061105609,8.190371513,-0.282013983,-0.586893976,-0.106707998,-1058.700073,9.900000572,-916.500061,1.759494925,-0.608724169,0.120281571,ST
12.2666666666667,-6.636396408,-1.274044514,8.472695351,0.228659987,0.015244,-0.152439997,-1065.900024,11.70000076,-909.3000488,1.774352646,-0.651116788,0.144336079,ST
12.3,-6.398335457,-0.803305984,8.428432465,0.129574001,-0.739333987,0.312501997,-1053.900024,9.300000191,-926.1000366,1.748878925,-0.646948632,0.103180886,ST
12.3333333333333,-5.391062737,-1.112545967,7.458244801,1.379581928,0.221037999,1.432935953,-1065.900024,11.10000038,-916.500061,1.768099013,-0.626033819,0.136766999,ST
12.3666666666667,-5.861801147,-1.017441154,7.730399609,0.167683989,-0.891773999,0.785066009,-1049.100098,12.30000019,-921.3000488,1.762915371,-0.640393104,0.130656685,ST
12.4,-6.087301254,-1.015646815,8.110220909,0.853663981,-1.227141976,1.471045971,-1053.900024,11.10000038,-921.3000488,1.756259493,-0.638699199,0.122722865,ST
12.4333333333333,-5.788827896,-0.514402926,8.064163208,0.960371971,-2.378063917,1.63872993,-1051.5,9.300000191,-918.9000244,1.723387507,-0.621606562,0.070847081,ST
12.4666666666667,-6.370820999,-0.184228033,8.811841965,0.541162014,-1.707327962,1.913121939,-1058.700073,5.100000381,-921.3000488,1.694219127,-0.622875744,0.02645648,ST
12.5,-5.108738899,0.073571585,8.395534515,0.731711984,-1.661595941,2.210379839,-1053.900024,5.100000381,-918.9000244,1.673365389,-0.559712854,-0.0050168,ST
12.5333333333333,-4.946044445,-0.056823581,7.537199497,0.045731999,-0.510674,2.919225931,-1063.5,5.100000381,-923.7000122,1.671683151,-0.575786443,0.00229121,ST
12.5666666666667,-5.044737816,0.126208171,7.787821293,-0.396344006,-1.493911982,1.486289978,-1073.100098,12.90000057,-935.7000122,1.659880583,-0.57287004,-0.013252114,ST
12.6,-5.205638409,0.119030453,7.847635746,-0.609759986,-0.899396002,2.17227006,-1063.5,18.90000153,-914.1000366,1.653500775,-0.581769802,-0.015897557,ST
12.6333333333333,-3.949537992,-0.554478526,7.85600996,-0.663114011,-2.019829988,2.500015974,-1073.100098,7.500000477,-911.7000122,1.683001085,-0.48455433,0.053764306,ST
12.6666666666667,-5.587851524,0.582591236,8.81782341,-0.731711984,-0.221037999,-0.358233988,-1077.900024,8.700000763,-923.7000122,1.634583696,-0.550691091,-0.043653567,ST
12.7,-5.532224178,1.755549669,8.078518867,0.464941978,-2.477149963,2.59910202,-1068.300049,15.30000019,-930.9000244,1.554260106,-0.579720244,-0.185554791,ST
12.7333333333333,-4.408911705,0.916953146,7.619743347,-1.097568035,-0.739333987,3.262215853,-1082.700073,12.90000057,-918.9000244,1.574486572,-0.530226021,-0.132314157,ST
12.7666666666667,-4.193580151,0.425279647,7.997769833,-1.928365946,0.647870004,0.548784018,-1068.300049,6.300000191,-921.3000488,1.60429159,-0.491426029,-0.063814684,ST
12.8,-5.359361172,0.598142982,8.092276573,-0.922261953,1.890255928,-0.647870004,-1068.300049,17.10000038,-916.500061,1.60105675,-0.569935988,-0.070176239,ST
12.8333333333333,-5.192479134,0.90140146,8.217288017,0.320124,1.623485923,0.80793196,-1068.300049,10.5,-921.3000488,1.582113142,-0.564882286,-0.102731956,ST
12.8666666666667,-5.668002605,0.570030272,9.070240021,0.472563982,-0.823175967,1.394825935,-1070.700073,17.10000038,-918.9000244,1.596787722,-0.557472626,-0.070959059,ST
12.9,-4.716955662,1.122116208,8.115603447,0.579271972,-1.974097967,0.907018006,-1077.900024,9.300000191,-921.3000488,1.567853227,-0.526748527,-0.125620672,ST
12.9333333333333,-4.53512001,0.678294122,8.948817253,0.952749968,0.129574001,1.684461951,-1070.700073,9.900000572,-914.1000366,1.58381749,-0.479098471,-0.087515478,ST
12.9666666666667,-4.244422436,-0.308641762,8.402712822,0.579271972,-0.251525998,-2.812517881,-1068.300049,9.300000191,-916.500061,1.637763687,-0.469746411,0.015778456,ST
13.0,-4.929894447,-0.552684128,9.027173996,-0.114329994,-2.271355867,-4.100636005,-1075.5,20.70000076,-914.1000366,1.665434139,-0.490634596,0.05661681,NLL
13.0333333333333,-4.430445194,-0.773398876,8.65632534,0.289635986,-0.792688012,-2.25611186,-1073.100098,15.90000057,-926.1000366,1.682817584,-0.474012202,0.083782449,NLL
13.0666666666667,-4.362256527,-1.1227144,7.455254078,1.105189919,1.036592007,-1.760681987,-1070.700073,12.90000057,-914.1000366,1.712499424,-0.515638176,0.135758835,NLL
13.1,-4.795312405,-0.837998331,6.650153637,0.678357959,1.63872993,-2.141782045,-1077.900024,15.90000057,-926.1000366,1.714408277,-0.604046752,0.128506889,NLL
13.1333333333333,-4.721142292,-0.866709173,6.736884117,-0.373477995,2.76678586,-1.661595941,-1068.300049,11.70000076,-918.9000244,1.718980446,-0.61034194,0.130556938,NLL
13.1666666666667,-5.969466686,-1.064694524,7.568901062,-0.449698001,2.057940006,-0.099086002,-1082.700073,8.700000763,-916.500061,1.723982463,-0.655231958,0.138847415,NLL
13.2,-6.733295441,-0.906784773,8.680849075,-0.015244,-0.93750596,0.129574001,-1058.700073,20.10000038,-914.1000366,1.705688913,-0.655493646,0.109677276,NLL
13.2333333333333,-5.091990948,-1.399654508,7.537199497,0.960371971,-0.266770005,0.289635986,-1061.100098,14.10000038,-928.500061,1.740429369,-0.600199763,0.167626232,NLL
13.2666666666667,-6.669294357,-1.055124164,8.666493416,-0.221037999,-1.097568035,0.754577994,-1070.700073,12.30000019,-921.3000488,1.716660355,-0.640555228,0.130210375,NLL
13.3,-6.093880653,-1.013254166,7.619145393,0.525918007,0.213415995,-0.038109999,-1051.5,16.5,-921.3000488,1.718078522,-0.664632761,0.131129519,NLL
13.3333333333333,-5.712265491,-1.050339103,7.789017677,0.625003994,0.975615978,0.0,-1070.700073,15.30000019,-928.500061,1.720207666,-0.636709423,0.132753043,NLL
13.3666666666667,-5.72542429,-1.279427767,9.300524712,0.457319975,-0.091463998,-1.181409955,-1073.100098,7.500000477,-916.500061,1.725061208,-0.565236924,0.136343327,NLL
13.4,-4.719347954,-0.678892255,9.140820503,1.074702024,-1.85214591,-1.074702024,-1065.900024,4.5,-923.7000122,1.702324585,-0.490985195,0.085307367,NLL
13.4333333333333,-4.303638458,-0.581993103,7.673576355,1.463423967,-1.219519973,1.577754021,-1068.300049,7.500000477,-926.1000366,1.695052693,-0.504959605,0.074013935,NLL
13.4666666666667,-5.626730919,-0.481505096,8.375796318,0.945127964,-0.182927996,0.785066009,-1058.700073,8.100000381,-918.9000244,1.686696886,-0.574266884,0.058634187,NLL
13.5,-4.81265831,-0.674705267,8.060574532,1.097568035,0.121951997,1.608241916,-1065.900024,9.900000572,-926.1000366,1.694057027,-0.544205276,0.075947702,NLL
13.5333333333333,-5.618356705,-0.153124601,8.421853065,0.899396002,-0.525918007,1.356715918,-1068.300049,6.900000095,-921.3000488,1.665826833,-0.579808516,0.026171212,NLL
13.5666666666667,-4.47829628,-0.035888579,7.890702248,0.884151995,-2.454283953,0.967993975,-1075.5,8.100000381,-930.9000244,1.654376278,-0.524054345,0.006145556,NLL
13.6,-4.562634468,0.086730734,7.360747337,0.548784018,-2.263733864,0.472563982,-1061.100098,12.90000057,-921.3000488,1.645988988,-0.546120548,-0.00971369,NLL
13.6333333333333,-5.248704433,0.528160214,6.912140369,0.152439997,-0.838419974,1.592997909,-1087.5,15.90000057,-923.7000122,1.612130227,-0.628619373,-0.065442389,NLL
13.6666666666667,-6.178218842,0.818857729,7.292559147,-1.067080021,0.769822001,1.440557957,-1068.300049,7.500000477,-926.1000366,1.583990284,-0.688796311,-0.103875558,NLL
13.7,-7.488749981,1.973273635,7.415178299,-4.451247692,-2.942091942,1.8292799,-1087.5,17.70000076,-923.7000122,1.493999267,-0.754495741,-0.225328388,NLL
13.7333333333333,-7.452861309,1.099386811,7.108929157,-7.599133968,-2.385685921,8.62810421,-1092.300049,12.90000057,-930.9000244,1.507814623,-0.78804784,-0.169076233,NLL
13.7666666666667,-9.153980255,1.606611967,6.81524086,-12.70587349,-5.282045841,10.32018757,-1087.5,18.90000153,-926.1000366,1.432118908,-0.886767448,-0.216883383,NLL
13.8,-5.540598392,-0.989926636,6.546674728,-16.64644814,-4.893323898,18.15560341,-1097.100098,20.70000076,-930.9000244,1.595589947,-0.733709119,0.084027175,NLL
13.8333333333333,-3.348404408,-1.843476653,5.571103573,-20.95287704,-5.754610062,16.91321754,-1109.100098,29.10000038,-921.3000488,1.657701682,-0.558956749,0.291433379,NLL
13.8666666666667,-2.743083715,-4.572205067,8.354263306,-20.02299309,0.350611985,18.32328796,-1109.100098,33.30000305,-926.1000366,1.68556981,-0.349724177,0.479501661,NLL
13.9,-1.500740767,-5.611777306,9.206018448,-16.53211784,-0.678357959,12.15709019,-1089.900024,42.30000305,-911.7000122,1.670889644,-0.189179618,0.553513104,NLL
13.9333333333333,-3.794020891,-3.792226553,9.887901306,-10.58695793,-0.015244,6.714982033,-1092.300049,48.30000305,-911.7000122,1.617071915,-0.318205687,0.418001795,NLL
13.9666666666667,-4.789928913,-3.326871157,8.388357162,-4.108257771,0.190549999,6.478699684,-1080.300049,48.90000153,-909.3000488,1.588150139,-0.461563881,0.38746462,NLL
14.0,-4.936473846,-2.72513938,7.430730343,-3.62045002,-1.021348,4.02441597,-1101.900024,50.70000076,-909.3000488,1.560683809,-0.543317287,0.359316327,NLL
14.0333333333333,-6.297249317,-1.862617254,6.328352451,-3.864353895,-0.060975999,4.878079891,-1082.700073,50.70000076,-897.3000488,1.512558057,-0.722668094,0.302484824,NLL
14.0666666666667,-6.517365932,-2.468536139,6.972552776,-5.487839699,1.493911982,6.692115784,-1061.100098,50.10000229,-909.3000488,1.513485344,-0.727569515,0.334379045,NLL
14.1,-5.785238743,-3.867592335,6.09746933,-7.964989662,0.045731999,11.63879395,-1080.300049,47.10000229,-892.500061,1.606063883,-0.69419426,0.52678686,NLL
14.1333333333333,-6.275715828,-3.416592598,7.850626469,-11.65403748,-0.243903995,11.19671822,-1068.300049,54.30000305,-885.3000488,1.512026306,-0.650847111,0.435354876,NLL
14.1666666666667,-4.334742069,-4.354480743,7.977432728,-7.629621983,1.55488801,8.025965691,-1058.700073,59.10000229,-885.3000488,1.520480559,-0.487272334,0.495392223,NLL
14.2,-6.374409676,-2.604912758,7.985806942,-4.550333977,1.417691946,4.291185856,-1065.900024,58.50000381,-873.3000488,1.432212425,-0.625872009,0.353747273,NLL
14.2333333333333,-5.644077301,-3.355581999,6.815839291,-2.530503988,2.957335949,4.61893177,-1041.900024,56.10000229,-870.9000244,1.472220854,-0.64313047,0.436804096,NLL
14.2666666666667,-6.861896038,-2.591155291,7.880533695,-2.210379839,3.018311977,1.509155989,-1037.100098,55.50000381,-868.500061,1.408070651,-0.689059044,0.33978441,NLL
14.3,-7.378093719,-2.276532173,7.466618538,-0.685979962,2.240867853,0.160062,-1013.100037,59.70000076,-875.7000122,1.385321544,-0.749020372,0.305378759,NLL
14.3333333333333,-5.721237659,-2.880058289,6.881036758,-0.586893976,1.623485923,1.478667974,-1034.700073,58.50000381,-856.500061,1.431743274,-0.675518137,0.380098012,NLL
14.3666666666667,-4.732507229,-3.481192112,7.396038055,-1.12805593,1.257629991,-0.785066009,-1041.900024,63.30000305,-868.500061,1.463019254,-0.553114908,0.432803921,NLL
14.4,-4.335340023,-3.292178869,7.716044426,1.714949965,-0.312501997,-2.103672028,-1027.5,57.30000305,-854.1000366,1.456237418,-0.49077516,0.408028271,NLL
14.4333333333333,-2.41948843,-4.65534687,8.489442825,6.654006004,-0.106707998,-6.013757706,-1044.300049,61.50000381,-858.9000244,1.499981828,-0.291647725,0.477499365,NLL
14.4666666666667,-4.056605816,-2.533135414,7.908646584,12.83544731,-5.221069813,-16.31107903,-1044.300049,56.10000229,-866.1000366,1.489166245,-0.407091239,0.335261543,NLL
14.5,-3.617568731,-3.710879087,7.532414436,20.76994896,-2.400929928,-17.12663269,-1053.900024,53.70000076,-880.500061,1.569771997,-0.395431608,0.412512705,NLL
14.5333333333333,-4.766601563,-3.15580225,8.478078842,23.25472069,-2.827761889,-23.58246803,-1063.5,47.10000229,-894.9000244,1.611017991,-0.452147614,0.348253471,NLL
14.5666666666667,-6.515571594,-3.250906944,7.561723232,21.65410233,-2.332331896,-20.91476822,-1085.100098,41.70000076,-918.9000244,1.695686465,-0.618446747,0.380053409,NLL
14.6,-5.052513599,-3.7324121,7.363140106,18.59767914,1.036592007,-20.30500793,-1099.5,35.10000229,-906.9000244,1.79020735,-0.553355516,0.442838289,NLL
14.6333333333333,-7.174725056,-0.769810021,9.529613495,15.62509918,1.288118005,-18.77298546,-1104.300049,29.10000038,-914.1000366,1.682964776,-0.627353153,0.149905634,NLL
14.6666666666667,-5.164964676,-1.649080157,7.841654301,12.96502209,1.676839948,-8.04883194,-1101.900024,26.70000076,-918.9000244,1.735904878,-0.584173318,0.185862228,NLL
14.7,-5.044737816,-1.098190546,7.963077545,8.589993477,1.570132017,-7.484803677,-1106.700073,26.70000076,-926.1000366,1.73738699,-0.56585561,0.141660802,NLL
14.7333333333333,-4.429846764,-0.534739792,7.479179859,7.94212389,3.307947874,-4.657042027,-1104.300049,23.10000038,-918.9000244,1.723610443,-0.543904253,0.077558009,NLL
14.7666666666667,-3.497341871,-1.174154639,7.425346851,7.522913933,4.61893177,-3.879597902,-1097.100098,15.90000057,-921.3000488,1.769900031,-0.461062384,0.135988338,NLL
14.8,-5.309715271,-0.03229972,7.469609261,7.446693897,2.461905956,-5.510705948,-1087.5,14.70000076,-933.3000488,1.734403757,-0.595033704,0.02253238,NLL
14.8333333333333,-5.680563927,-0.454588652,7.136443615,6.51680994,3.567095995,-4.199721813,-1085.100098,6.900000095,-916.500061,1.768384209,-0.661638314,0.050698499,NLL
14.8666666666667,-5.401230812,-0.683079302,7.865580082,5.221069813,4.405515671,-2.911603928,-1065.900024,15.30000019,-923.7000122,1.796376472,-0.618344769,0.075710715,NLL
14.9,-5.002867699,-0.942673326,7.77286768,3.51374197,2.25611186,-2.736297846,-1063.5,14.70000076,-926.1000366,1.825733764,-0.581456179,0.10976521,NLL
14.9333333333333,-5.378501415,-0.855942607,7.562919617,2.500015974,1.463423967,-2.179892063,-1061.100098,9.900000572,-918.9000244,1.834489294,-0.610888159,0.110858951,NLL
14.9666666666667,-6.458149433,-0.848166704,8.89318943,2.705809832,0.42683199,-0.396344006,-1058.700073,5.700000286,-916.500061,1.829710826,-0.62344502,0.094946295,NLL
15.0,-5.153599739,-1.454085588,8.103640556,2.827761889,-0.853663981,-0.564027965,-1063.5,10.5,-916.500061,1.871426613,-0.569015496,0.160489594,NLL
15.0333333333333,-5.182310581,-0.359483927,8.204727173,2.355197906,0.228659987,-1.333850026,-1058.700073,6.900000095,-911.7000122,1.824045472,-0.564574782,0.061084314,NLL
15.0666666666667,-5.180516243,-0.940280735,6.455757141,2.49239397,-0.342989981,0.93750596,-1063.5,5.700000286,-906.9000244,1.861569962,-0.651986954,0.123853497,NLL
15.1,-6.860699654,-0.343334079,7.717838764,0.922261953,0.708845973,-0.61738199,-1051.5,0.300000012,-914.1000366,1.823211393,-0.714104039,0.058847584,NLL
15.1333333333333,-7.264446259,-0.214733332,8.63419342,0.785066009,-1.615863919,0.952749968,-1056.300049,4.5,-909.3000488,1.802584298,-0.699527158,0.028122804,NLL
15.1666666666667,-6.690228939,-0.24822934,9.530212402,0.945127964,-5.975647926,2.804895878,-1065.900024,5.100000381,-926.1000366,1.794845906,-0.621298303,0.022012105,NLL
15.2,-6.239827633,0.203368604,6.983319283,-0.312501997,-13.42234135,2.042695999,-1089.900024,-0.300000012,-916.500061,1.765252306,-0.688620933,-0.01962832,NLL
15.2333333333333,-3.322684288,0.812278152,6.398335457,-1.798792005,-11.9284296,2.987823963,-1104.300049,5.100000381,-916.500061,1.709841808,-0.502158338,-0.106642359,NLL
15.2666666666667,-2.262774944,-0.120824881,9.014014244,-1.951231956,-6.570163727,4.801859856,-1121.100098,5.700000286,-916.500061,1.736631118,-0.288740715,-0.009141121,NLL
15.3,-2.372833252,-0.340941489,9.017603874,-0.853663981,-3.62045002,3.963439941,-1116.300049,5.100000381,-916.500061,1.737283674,-0.258582893,0.028038582,NLL
15.3333333333333,-3.7324121,0.081945591,9.608569145,0.373477995,-0.29725799,2.98020196,-1135.5,9.300000191,-921.3000488,1.72139836,-0.34884458,-0.003324572,NLL
15.3666666666667,-3.767104387,0.50124383,9.49432373,0.518296003,-0.076219998,2.446661949,-1113.900024,8.700000763,-918.9000244,1.700866539,-0.372306731,-0.046496663,NLL
15.4,-2.347711086,0.678892255,8.352468491,0.0,-2.057940006,2.972579956,-1128.300049,6.900000095,-930.9000244,1.684887251,-0.28879105,-0.076056468,NLL
15.4333333333333,-3.190494537,0.586778283,8.76099968,-1.379581928,-1.714949965,1.653973937,-1135.5,6.300000191,-921.3000488,1.682991436,-0.335233318,-0.067305178,NLL
15.4666666666667,-3.782058001,0.427672237,8.944629669,-1.737815976,0.365855992,1.486289978,-1123.5,5.700000286,-935.7000122,1.68438371,-0.387034795,-0.050202349,NLL
15.5,-4.135560513,0.36486721,9.7084589,-1.600619912,1.387203932,1.257629991,-1133.100098,5.100000381,-930.9000244,1.684596589,-0.401198648,-0.03865963,NLL
15.5333333333333,-3.780263662,0.792539418,9.337011337,-1.051836014,0.579271972,0.442075998,-1135.5,6.300000191,-930.9000244,1.668955875,-0.387864163,-0.074287012,ST
15.5666666666667,-4.213319302,1.537825584,8.912928581,-0.42683199,2.286599874,-0.167683989,-1128.300049,8.100000381,-923.7000122,1.638040522,-0.429722305,-0.15055183,ST
15.6,-2.902787924,1.528255343,8.890796661,-0.861285985,2.553369999,1.23476398,-1125.900024,6.300000191,-935.7000122,1.627978237,-0.338402469,-0.166171413,ST
15.6333333333333,-3.438125849,0.748875022,9.722215652,-1.524399996,3.750023842,0.464941978,-1113.900024,12.30000019,-940.500061,1.649451097,-0.344262612,-0.092106216,ST
15.6666666666667,-3.630727768,-0.374437511,10.2312355,-1.699705958,4.878079891,0.083841994,-1109.100098,10.5,-921.3000488,1.683197676,-0.348736495,0.01293046,ST
15.7,-4.329359055,-0.623264968,8.666493416,-0.907018006,3.711913824,0.015244,-1094.700073,8.100000381,-926.1000366,1.701155166,-0.444565894,0.060712541,ST
15.7333333333333,-4.182813644,-1.055124164,8.213101387,-0.007622,4.519845963,0.015244,-1097.100098,12.90000057,-926.1000366,1.725643294,-0.469500493,0.114440345,ST
15.7666666666667,-5.162571907,-0.744089842,8.406301498,-0.045731999,2.218001842,0.251525998,-1073.100098,9.900000572,-921.3000488,1.71559907,-0.536090479,0.093773101,ST
15.8,-4.293470383,-1.309933066,6.402522564,0.678357959,2.583858013,-0.739333987,-1097.100098,13.50000095,-923.7000122,1.763810087,-0.576019846,0.179482391,ST
15.8333333333333,-5.059691429,-1.427767277,6.922308445,0.274392009,2.858249903,-2.439039946,-1085.100098,13.50000095,-926.1000366,1.782165376,-0.615995809,0.201230948,ST
15.8666666666667,-5.925204277,-1.275838971,7.699894428,0.29725799,2.454283953,-1.753059983,-1082.700073,9.900000572,-923.7000122,1.770121371,-0.646454481,0.172818016,ST
15.9,-5.046532154,-1.17654717,7.797989845,0.182927996,1.318606019,-0.838419974,-1075.5,12.30000019,-923.7000122,1.761782622,-0.583919537,0.154163116,ST
15.9333333333333,-5.803781033,-1.441524506,7.592228889,0.099086002,0.952749968,1.135677934,-1063.5,12.30000019,-926.1000366,1.775132855,-0.63572088,0.180631141,ST
15.9666666666667,-5.487961769,-0.730332553,8.6114645,-0.320124,0.282013983,-0.396344006,-1087.5,17.10000038,-921.3000488,1.730045166,-0.578172431,0.100841119,ST
16.0,-4.65056181,-1.165780663,7.577275276,0.289635986,-0.510674,3.185995817,-1058.700073,9.300000191,-911.7000122,1.744659201,-0.551881107,0.139178472,ST
16.0333333333333,-5.384482861,-1.031796575,7.81114912,0.121951997,1.760681987,2.560992002,-1080.300049,15.30000019,-930.9000244,1.735335829,-0.593981521,0.130396128,ST
16.0666666666667,-5.958102226,-0.379820794,8.448769569,0.365855992,0.640248001,1.684461951,-1065.900024,13.50000095,-923.7000122,1.690964111,-0.611795865,0.057213447,ST
16.1,-5.519663334,-0.370848656,8.392543793,0.53354001,0.93750596,1.592997909,-1073.100098,13.50000095,-930.9000244,1.681231134,-0.588205037,0.044181638,ST
16.1333333333333,-5.756527901,0.072973445,8.798085213,-0.388722003,0.0,2.179892063,-1063.5,17.70000076,-918.9000244,1.652557414,-0.581299408,0.000746697,ST
16.1666666666667,-5.590244293,-0.336754501,9.647447586,-0.213415995,0.472563982,1.577754021,-1063.5,18.30000114,-916.500061,1.663253274,-0.537011461,0.027159859,ST
16.2,-4.759423733,0.643003702,9.283777237,0.060975999,-1.486289978,1.318606019,-1063.5,12.30000019,-921.3000488,1.621678599,-0.483109926,-0.052532689,ST
16.2333333333333,-5.150011063,-0.354698777,7.985208511,0.556405962,2.385685921,0.967993975,-1065.900024,11.70000076,-918.9000244,1.657553453,-0.558018411,0.022259537,ST
16.2666666666667,-4.962792397,0.315819502,8.05100441,0.42683199,-0.762199998,0.083841994,-1063.5,15.30000019,-926.1000366,1.631284952,-0.552253783,-0.028254799,ST
16.3,-4.707983494,0.322997212,7.134649277,1.501533985,-3.391789913,0.190549999,-1068.300049,3.900000095,-916.500061,1.62465412,-0.571926319,-0.043907371,ST
16.3333333333333,-4.724731445,0.386998504,7.23932457,4.207344055,-2.393307924,-1.272873998,-1070.700073,11.10000038,-916.500061,1.626438531,-0.573259069,-0.056610792,ST
16.3666666666667,-6.006551743,0.924130917,8.416469574,6.707359791,-2.050318003,-4.954299927,-1073.100098,3.900000095,-918.9000244,1.619569647,-0.607392887,-0.104953857,ST
16.4,-3.966884136,0.840390861,7.294353485,7.332363605,-3.262215853,-6.85217762,-1070.700073,2.700000048,-921.3000488,1.637338258,-0.511826852,-0.117430484,ST
16.4333333333333,-6.147115231,1.232174516,7.857205868,6.646383762,0.777444005,-6.73022604,-1075.5,2.700000048,-923.7000122,1.64086252,-0.632410421,-0.151002148,ST
16.4666666666667,-5.935970783,0.171667039,9.547557831,4.504601955,0.396344006,-4.870458126,-1063.5,0.900000036,-916.500061,1.719349826,-0.570710617,-0.041262268,ST
16.5,-4.236646652,0.212938905,8.110220909,3.948195934,-0.998481989,-4.413137913,-1075.5,0.900000036,-928.500061,1.738912581,-0.496025992,-0.030864994,ST
16.5333333333333,-6.372016907,0.578404248,7.790214062,3.734779835,0.609759986,-1.974097967,-1068.300049,0.900000036,-892.500061,1.727296699,-0.646959198,-0.068047916,ST
16.5666666666667,-3.99140811,0.125610024,8.969752312,3.765267849,1.478667974,-1.349093914,-1070.700073,-3.900000095,-911.7000122,1.755719521,-0.467075451,-0.02818826,ST
16.6,-5.242722988,1.376925111,8.190371513,4.298808098,-0.93750596,-2.278977871,-1068.300049,2.100000143,-911.7000122,1.710365342,-0.543312552,-0.141446874,ST
16.6333333333333,-5.862997532,0.718369722,8.306411743,3.361301899,-1.417691946,-0.861285985,-1065.900024,5.100000381,-914.1000366,1.737990721,-0.59714382,-0.101718802,ST
16.6666666666667,-4.210328579,0.705210567,8.400918007,1.532021999,0.960371971,-3.041177988,-1065.900024,0.300000012,-911.7000122,1.753935527,-0.488876244,-0.086641105,ST
16.7,-4.434631824,1.314120054,8.507986069,0.823175967,-2.370441914,-1.493911982,-1058.700073,-6.900000095,-914.1000366,1.733334159,-0.475076783,-0.14126691,ST
16.7333333333333,-4.21511364,0.715379,8.345889091,0.144817993,0.365855992,1.737815976,-1073.100098,-1.5,-904.500061,1.749792622,-0.468148168,-0.096920865,ST
16.7666666666667,-3.848451853,0.223705471,8.470302582,-0.060975999,0.373477995,0.411587983,-1070.700073,2.100000143,-902.1000366,1.774321797,-0.434003025,-0.038254949,ST
16.8,-6.092684269,0.378624499,8.671278954,-0.518296003,1.775925994,-0.503051996,-1073.100098,-3.300000191,-904.500061,1.77305644,-0.586354517,-0.041719886,ST
16.8333333333333,-4.886229992,0.644199967,8.47508812,-0.243903995,-1.897877932,0.40396598,-1061.100098,-0.300000012,-911.7000122,1.75763089,-0.532125129,-0.069148702,ST
16.8666666666667,-5.830099583,-0.094506592,7.354167938,0.289635986,1.623485923,0.868907988,-1058.700073,-3.300000191,-906.9000244,1.792684434,-0.649529161,-0.003749158,ST
16.9,-7.218987465,-0.07058087,9.766478539,-0.487807989,-0.320124,-1.882633924,-1065.900024,-0.900000036,-909.3000488,1.802512996,-0.638522641,0.007831333,ST
16.9333333333333,-5.151805401,0.400755793,9.347180367,-0.259148002,-3.750023842,0.990859985,-1080.300049,0.900000036,-911.7000122,1.776804109,-0.52213693,-0.035001761,ST
16.9666666666667,-4.750451565,0.667527556,8.248990059,-0.693601966,-4.253076077,1.844523907,-1073.100098,2.700000048,-914.1000366,1.754524996,-0.515307152,-0.071798996,ST
17.0,-4.855126381,0.349913627,8.890198708,-2.850627899,-9.504633904,2.652456045,-1075.5,2.700000048,-904.500061,1.760695961,-0.48892916,-0.043130587,ST
17.0333333333333,-3.201859236,0.474925518,7.492937088,-2.393307924,-13.01075363,3.391789913,-1092.300049,3.900000095,-921.3000488,1.74633746,-0.402009433,-0.057800901,ST
17.0666666666667,-4.385584354,0.278734624,7.409196854,-1.455801964,-15.66320992,2.431417942,-1130.700073,-0.300000012,-914.1000366,1.748510071,-0.488985232,-0.040446876,ST
17.1,-3.841872215,0.796726465,7.652641296,-1.913121939,-10.08390617,4.009171963,-1145.100098,-0.300000012,-930.9000244,1.716813944,-0.454030877,-0.090663233,ST
17.1333333333333,-1.860224605,0.523973227,10.89397812,-0.434453994,-3.285081863,4.436003685,-1161.900024,2.700000048,-923.7000122,1.718503271,-0.221744874,-0.057660136,ST
17.1666666666667,-1.767512441,1.16039741,9.883116722,0.929883957,-6.204308033,2.416173935,-1159.5,3.300000191,-923.7000122,1.704910156,-0.176185168,-0.106819695,ST
17.2,0.062805012,1.288998127,8.820216179,-0.746955991,-6.547297955,3.10977602,-1183.5,1.5,-928.500061,1.696518155,-0.020377874,-0.136731831,ST
17.2333333333333,-0.927719772,1.018039346,8.287869453,-1.737815976,-6.478699684,1.935987949,-1185.900024,4.5,-928.500061,1.694543968,-0.083132031,-0.122849655,ST
17.2666666666667,-2.467937946,1.138266087,8.515163422,-2.286599874,-3.666181803,2.103672028,-1195.5,-1.5,-916.500061,1.689187944,-0.234378887,-0.128087201,ST
17.3,-1.792036295,0.32479164,9.567894936,-4.275941849,1.859767914,6.082355976,-1185.900024,-0.300000012,-916.500061,1.689012965,-0.195023267,-0.044244318,ST
17.3333333333333,-2.288495064,0.040075578,11.44367123,-4.786615849,0.61738199,4.778994083,-1181.100098,9.300000191,-918.9000244,1.683415917,-0.197656778,-0.006363563,ST
17.3666666666667,-1.583284497,0.096301019,11.76547241,-3.094532013,-2.591480017,2.042695999,-1202.700073,8.100000381,-928.500061,1.678001402,-0.143003321,-0.003982829,ST
17.4,0.105273165,0.006579573,9.924985886,-1.059458017,-1.692083955,0.762199998,-1209.900024,18.90000153,-930.9000244,1.676386836,-0.01806685,5.91936e-05,ST
17.4333333333333,-1.070675969,-0.092114016,9.000855446,-0.083841994,-0.114329994,-0.076219998,-1197.900024,11.10000038,-935.7000122,1.677027783,-0.097979362,0.008286638,ST
17.4666666666667,-0.807493031,-0.182433605,9.264038086,0.228659987,1.974097967,-1.303362012,-1197.900024,13.50000095,-926.1000366,1.680973144,-0.091881362,0.017249913,ST
17.5,-2.116229773,0.158507884,9.329833984,0.434453994,2.675322056,-0.701223969,-1190.700073,11.70000076,-933.3000488,1.678711874,-0.200243909,-0.01040723,ST
17.5333333333333,-2.741887331,-0.376231939,9.812535286,-0.068598002,3.574717999,0.129574001,-1185.900024,8.700000763,-921.3000488,1.68736846,-0.262777115,0.028403924,ST
17.5666666666667,-1.745979309,-0.695042133,9.375890732,-1.455801964,3.163130045,0.556405962,-1183.5,4.5,-930.9000244,1.694577957,-0.204062266,0.066835152,ST
17.6,-1.031796575,-1.457674384,8.184988022,-1.806414008,5.838451862,-0.060975999,-1178.700073,11.10000038,-916.500061,1.711273402,-0.148006645,0.157079652,ST
17.6333333333333,-1.193893313,-1.25669837,8.542079926,-2.667700052,9.779026031,-1.280496001,-1169.100098,11.70000076,-938.1000366,1.715995235,-0.152738907,0.152582185,ST
17.6666666666667,-1.623360038,-1.36735487,10.35863972,-2.118916035,9.763781548,0.975615978,-1154.700073,12.30000019,-926.1000366,1.714012076,-0.167526346,0.138580407,ST
17.7,-2.72992444,-1.553975463,9.776646614,-0.091463998,10.3125658,2.736297846,-1128.300049,12.90000057,-930.9000244,1.714432068,-0.263369983,0.153454443,ST
17.7333333333333,-4.597326756,-1.684370637,9.126465797,1.318606019,10.60220146,2.629590034,-1121.100098,16.5,-930.9000244,1.720628894,-0.435255327,0.17384349,ST
17.7666666666667,-4.546484947,-0.602928102,8.284878731,1.387203932,5.647902012,1.410069942,-1106.700073,13.50000095,-926.1000366,1.681736713,-0.498478101,0.087409814,ST
17.8,-4.890417099,-0.747080564,7.271026134,1.135677934,3.483253956,2.096050024,-1089.900024,8.700000763,-921.3000488,1.684052267,-0.578601732,0.096308627,ST
17.8333333333333,-7.491740704,-0.645994425,8.421255112,-0.282013983,2.225623846,1.798792005,-1092.300049,16.5,-926.1000366,1.670431373,-0.700893093,0.07914686,ST
17.8666666666667,-5.489158154,-0.488682806,8.997266769,-0.53354001,-0.091463998,0.289635986,-1085.100098,11.10000038,-921.3000488,1.656775707,-0.572839257,0.058359408,ST
17.9,-4.747460842,-0.25899592,7.794999123,0.312501997,-0.754577994,1.028970003,-1094.700073,8.100000381,-930.9000244,1.643624858,-0.551072497,0.036850682,ST
17.9333333333333,-3.893910646,-0.848764896,7.948123932,0.846041977,2.012207985,0.541162014,-1097.100098,16.5,-916.500061,1.670636388,-0.476066438,0.091495322,ST
17.9666666666667,-3.796413422,-0.202770472,9.033753395,0.457319975,0.160062,1.272873998,-1087.5,7.500000477,-918.9000244,1.642414155,-0.410529774,0.031404273,ST
18.0,-4.606897354,0.083141871,7.819522858,1.288118005,1.55488801,2.012207985,-1092.300049,17.70000076,-921.3000488,1.623435073,-0.50995883,-0.005042573,ST
18.0333333333333,-4.973558903,0.165685609,8.525331497,0.846041977,2.957335949,1.478667974,-1075.5,13.50000095,-921.3000488,1.614486371,-0.528484087,-0.01892276,ST
18.0666666666667,-4.86469698,0.539524972,7.981619835,1.410069942,2.004585981,1.440557957,-1068.300049,15.30000019,-921.3000488,1.591659095,-0.545521718,-0.060898186,ST
18.1,-4.644580364,0.940280735,7.499516487,1.364337921,0.358233988,1.509155989,-1077.900024,12.90000057,-928.500061,1.562047278,-0.550338979,-0.115058691,ST
18.1333333333333,-6.477888584,0.673509002,7.083209038,1.021348,0.419209987,0.754577994,-1063.5,6.300000191,-921.3000488,1.570123869,-0.707078681,-0.101476494,ST
18.1666666666667,-6.684845924,0.436644375,8.177810669,-0.228659987,0.304879993,-0.419209987,-1073.100098,9.300000191,-921.3000488,1.596513936,-0.689163982,-0.061005536,ST
18.2,-5.529233456,0.314623207,7.452263355,0.289635986,-0.129574001,-0.274392009,-1058.700073,10.5,-928.500061,1.606765898,-0.648076485,-0.045978516,ST
18.2333333333333,-5.100365162,0.365465343,7.750736713,0.007622,0.518296003,-1.288118005,-1070.700073,9.300000191,-921.3000488,1.609386741,-0.594938022,-0.045715442,ST
18.2666666666667,-5.219395638,-0.124413736,8.792103767,-0.045731999,0.114329994,1.097568035,-1092.300049,15.30000019,-928.500061,1.632773896,-0.547903712,0.001540127,ST
18.3,-4.36524725,-0.053234726,7.385869503,0.251525998,-0.29725799,1.501533985,-1058.700073,8.700000763,-918.9000244,1.631619986,-0.536222963,0.004470078,ST
18.3333333333333,-5.912045002,-0.383409649,7.75432539,-0.388722003,1.516777992,1.928365946,-1070.700073,14.70000076,-914.1000366,1.64619844,-0.629896645,0.038333286,ST
18.3666666666667,-5.030382156,-0.824241042,9.414172173,-0.945127964,-0.114329994,1.135677934,-1063.5,14.70000076,-906.9000244,1.664813014,-0.515889554,0.078928644,ST
18.4,-4.634411812,-0.643601835,9.342394829,-0.800309956,-3.597584009,0.282013983,-1075.5,18.90000153,-904.500061,1.659213702,-0.465187731,0.071369852,ST
18.4333333333333,-5.234947205,-0.477916241,8.443984032,-0.304879993,-1.021348,0.556405962,-1070.700073,12.90000057,-918.9000244,1.651833869,-0.535924214,0.059387734,ST
18.4666666666667,-3.246720076,-0.858335137,8.589333534,0.373477995,0.525918007,0.160062,-1073.100098,13.50000095,-918.9000244,1.666420051,-0.396133875,0.091319971,ST
18.5,-3.244925737,-0.797324598,7.006048679,0.884151995,0.647870004,-0.335367978,-1073.100098,19.5,-911.7000122,1.674819767,-0.425496371,0.108075243,DLR
18.5333333333333,-5.507102489,-0.288903058,6.395344734,1.021348,1.143299937,-0.335367978,-1065.900024,7.500000477,-914.1000366,1.65154027,-0.653707065,0.058718364,DLR
18.5666666666667,-6.271529198,-0.686069965,6.168050289,0.442075998,1.897877932,0.777444005,-1065.900024,8.100000381,-918.9000244,1.676558029,-0.765721152,0.097536407,DLR
18.6,-6.196163177,-0.712388277,7.953506947,-0.175305992,-0.449698001,-0.022865999,-1056.300049,11.70000076,-923.7000122,1.671991435,-0.680572783,0.090995351,DLR
18.6333333333333,-6.493440151,-0.855942607,8.287270546,0.548784018,-2.690565825,0.266770005,-1073.100098,9.300000191,-911.7000122,1.677134502,-0.661312294,0.099537271,DLR
18.6666666666667,-5.051317215,-1.041366935,8.307607651,0.449698001,-0.990859985,0.564027965,-1075.5,14.10000038,-918.9000244,1.68787704,-0.561404958,0.119404276,DLR
18.7,-5.581870079,-1.245931864,8.226858139,0.106707998,0.282013983,-0.053353999,-1073.100098,11.10000038,-916.500061,1.70208766,-0.586366657,0.144949969,DLR
18.7333333333333,-4.610486031,-0.903195858,8.989490509,0.327746004,-0.701223969,0.655492008,-1070.700073,11.70000076,-904.500061,1.681025786,-0.490217784,0.106086558,DLR
18.7666666666667,-6.102254391,-0.465355217,8.039041519,1.44817996,0.556405962,1.310984015,-1063.5,6.300000191,-904.500061,1.657627291,-0.622756232,0.063217611,DLR
18.8,-6.268538475,-0.778183997,8.414076805,1.074702024,0.289635986,1.539644003,-1080.300049,11.10000038,-914.1000366,1.668203472,-0.635937212,0.083568556,DLR
18.8333333333333,-6.110628605,-0.394774348,8.365627289,-0.091463998,-0.983237982,-0.350611985,-1077.900024,6.900000095,-918.9000244,1.651631869,-0.63012587,0.054889048,DLR
18.8666666666667,-4.997484684,-0.189013183,8.039639473,0.083841994,-2.035073996,0.342989981,-1082.700073,15.30000019,-921.3000488,1.636363576,-0.568164127,0.029034239,DLR
18.9,-4.879052162,-1.151425242,8.060574532,0.274392009,-1.051836014,0.83079797,-1080.300049,8.700000763,-926.1000366,1.682024981,-0.544728381,0.118213152,DLR
18.9333333333333,-3.7324121,-0.290697485,7.996573448,0.213415995,-2.743919849,0.251525998,-1075.5,5.700000286,-926.1000366,1.649258333,-0.454707926,0.051381393,DLR
18.9666666666667,-4.352686405,-0.768015563,7.541386604,0.487807989,-0.907018006,1.42531395,-1073.100098,12.90000057,-926.1000366,1.6642643,-0.506799684,0.089223476,DLR
19.0,-4.47829628,-0.340343356,8.284279823,2.157026052,-1.364337921,0.373477995,-1080.300049,3.900000095,-921.3000488,1.645109573,-0.495439068,0.046165285,DLR
19.0333333333333,-2.656352997,-1.599434257,9.69649601,6.92077589,0.663114011,-2.225623846,-1087.5,11.70000076,-918.9000244,1.691158266,-0.309362787,0.134119101,DLR
19.0666666666667,-5.030980587,-0.343932211,8.229848862,13.28514576,-0.365855992,-9.001582146,-1089.900024,10.5,-916.500061,1.688704955,-0.49816477,0.049340462,DLR
19.1,-5.347398281,0.525767684,9.008032799,18.6510334,1.318606019,-12.53818989,-1077.900024,3.900000095,-909.3000488,1.684989788,-0.529958786,-0.052220633,DLR
19.1333333333333,-6.181209564,1.962507129,7.988199234,18.32328796,-1.943609953,-13.59764767,-1068.300049,-2.700000048,-902.1000366,1.647076005,-0.625189183,-0.217723147,DLR
19.1666666666667,-6.369624615,2.572613001,7.418169022,12.44672585,3.948195934,-9.992442131,-1070.700073,-6.300000191,-894.9000244,1.619691683,-0.682005501,-0.322209935,DLR
19.2,-5.568711281,3.129483938,9.453051567,5.914671898,3.269837856,-5.686011791,-1046.700073,-11.10000038,-887.7000122,1.63454251,-0.551450243,-0.324492014,DLR
19.2333333333333,-4.517773628,2.502032042,8.271121025,3.163130045,3.163130045,0.495429993,-1039.5,-12.30000019,-892.500061,1.644982606,-0.499795092,-0.305257981,DLR
19.2666666666667,-4.85751915,2.124603748,7.964273453,1.532021999,5.594547749,-0.487807989,-1029.900024,-16.5,-882.9000244,1.660723825,-0.534179427,-0.272334477,DLR
19.3,-5.34261322,1.991816044,8.355459213,1.211897969,7.050349712,-2.782029867,-1032.300049,-13.50000095,-885.3000488,1.679386927,-0.56248233,-0.242675277,DLR
19.3333333333333,-4.724731445,2.097687483,7.463627815,0.891773999,5.358265877,-3.38416791,-1015.500061,-16.5,-880.500061,1.671109448,-0.558842169,-0.267353409,DLR
19.3666666666667,-6.723126888,0.819455862,6.817633629,-1.783547997,6.600651741,-3.650938034,-993.9000244,-11.10000038,-861.3000488,1.744415745,-0.741610621,-0.14942103,DLR
19.4,-7.354765892,0.805100441,7.207024574,-2.019829988,3.925329924,-2.850627899,-1003.500061,-10.5,-866.1000366,1.770122448,-0.788142565,-0.113217332,DLR
19.4333333333333,-6.977935791,-0.226696193,5.904269218,-1.783547997,3.559473991,-1.844523907,-996.3000488,-6.900000095,-861.3000488,1.866228917,-0.861596826,0.018103326,DLR
19.4666666666667,-7.721427441,0.550889671,7.073040485,-1.166165948,1.265251994,-0.83079797,-981.9000244,-7.500000477,-866.1000366,1.807207421,-0.835640185,-0.059348985,DLR
19.5,-5.847445488,0.446812809,7.108331203,-1.737815976,-1.814036012,2.698187828,-969.9000244,-7.500000477,-870.9000244,1.796618387,-0.707778837,-0.063434175,DLR
19.5333333333333,-5.188890457,-0.047851436,5.787033081,-1.181409955,-1.12805593,1.272873998,-986.7000122,-12.90000057,-875.7000122,1.830165609,-0.724883657,-0.006362135,DLR
19.5666666666667,-7.26265192,0.29189378,8.235232353,-1.661595941,-1.196653962,0.167683989,-996.3000488,-8.700000763,-873.3000488,1.812860326,-0.721175367,-0.028042149,DLR
19.6,-5.272630215,-0.063403152,5.896493435,0.434453994,0.861285985,-1.570132017,-984.3000488,-4.5,-875.7000122,1.83760329,-0.729152842,0.004217346,DLR
19.6333333333333,-9.41118145,0.648985147,7.702885151,0.068598002,0.708845973,0.564027965,-969.9000244,-4.5,-866.1000366,1.785872604,-0.856714814,-0.067163499,DLR
19.6666666666667,-8.13414669,1.241744757,7.308110714,-0.190549999,-0.632625997,2.454283953,-998.7000122,-3.900000095,-873.3000488,1.715509599,-0.834918203,-0.155314115,DLR
19.7,-6.708771706,0.806296706,6.712958336,-0.060975999,-1.189031959,3.079288006,-996.3000488,-13.50000095,-878.1000366,1.729088602,-0.788789158,-0.129821225,DLR
19.7333333333333,-6.860699654,1.418795109,8.076126099,-0.068598002,-0.251525998,0.243903995,-998.7000122,3.300000191,-866.1000366,1.703359772,-0.712788673,-0.166862285,DLR
19.7666666666667,-3.810768843,1.166976929,6.762006283,0.72408998,-0.152439997,0.602137983,-986.7000122,-15.30000019,-870.9000244,1.700326976,-0.543297644,-0.172186145,DLR
19.8,-6.212312698,0.756650865,5.571103573,-0.823175967,3.879597902,-0.167683989,-996.3000488,-6.900000095,-863.7000122,1.716773208,-0.790721737,-0.143101458,DLR
19.8333333333333,-6.933673382,2.080341339,7.657426357,-1.585376024,1.463423967,-0.251525998,-984.3000488,-6.300000191,-875.7000122,1.647022068,-0.735515274,-0.240116306,DLR
19.8666666666667,-6.626227856,0.758445263,6.063973427,-2.096050024,1.699705958,3.40703392,-991.500061,-10.5,-868.500061,1.699168883,-0.809668495,-0.151985643,DLR
19.9,-8.967359543,1.594051003,6.617853642,-1.577754021,1.684461951,0.083841994,-981.9000244,-6.300000191,-866.1000366,1.644851033,-0.905243393,-0.219068055,DLR
19.9333333333333,-8.407497406,1.629939556,6.117208004,-1.707327962,-0.53354001,1.737815976,-981.9000244,-11.10000038,-863.7000122,1.61320887,-0.920096784,-0.25233295,DLR
19.9666666666667,-7.102349758,1.309334993,5.532224178,-1.432935953,-1.34147191,0.960371971,-974.7000122,-6.300000191,-875.7000122,1.623090382,-0.898552218,-0.235430046,DLR
20.0,-8.174819946,1.57909739,5.769088745,-2.035073996,-2.500015974,0.884151995,-977.1000366,-8.100000381,-878.1000366,1.601159091,-0.92730822,-0.258027724,DLR
20.0333333333333,-8.317177773,2.164679527,6.526936054,-2.721053839,-4.443625927,1.570132017,-981.9000244,-3.300000191,-875.7000122,1.558924516,-0.883081112,-0.304923449,DLR
20.0666666666667,-7.925992489,1.996003151,5.761911392,-4.458869934,-8.391821861,5.518327713,-986.7000122,-9.300000191,-882.9000244,1.530986333,-0.895109581,-0.325670189,DLR
20.1,-6.415083408,0.993515491,6.500617981,-6.280528069,-7.827793598,8.963471413,-1013.100037,-2.700000048,-885.3000488,1.615460188,-0.783554339,-0.183516505,DLR
20.1333333333333,-5.964083672,1.312923789,5.602207184,-5.686011791,-7.675354004,7.827793598,-1032.300049,-0.900000036,-904.500061,1.569636332,-0.786698253,-0.221041917,DLR
20.1666666666667,-4.599719524,0.542515695,7.901468754,-8.04883194,-4.801859856,6.128087997,-1056.300049,1.5,-899.7000122,1.631593735,-0.571604432,-0.090159283,DLR
20.2,-5.002269745,0.358287632,9.479968071,-6.082355976,-5.228692055,3.841487885,-1044.300049,8.700000763,-911.7000122,1.64188642,-0.495072312,-0.04238487,DLR
20.2333333333333,-3.606802225,-0.028710863,8.417067528,-4.062525749,-3.185995817,3.147886038,-1058.700073,6.300000191,-906.9000244,1.648990141,-0.415297391,-0.000291247,DLR
20.2666666666667,-4.891613007,-0.333165646,8.289065361,-4.748506069,-0.083841994,1.189031959,-1046.700073,2.100000143,-916.500061,1.658485416,-0.508983327,0.037323266,DLR
20.3,-3.473416328,-1.074264765,8.028274536,-3.422277927,-1.349093914,2.042695999,-1053.900024,5.700000286,-911.7000122,1.687209535,-0.422280598,0.119960737,DLR
20.3333333333333,-5.439512253,-0.829624295,8.345291138,-2.240867853,-0.876529992,1.288118005,-1061.100098,10.5,-906.9000244,1.675378231,-0.543393469,0.105655137,DLR
20.3666666666667,-5.987411022,-0.610105813,8.767580032,-1.615863919,-0.823175967,2.385685921,-1049.100098,7.500000477,-918.9000244,1.653280474,-0.58621583,0.077029983,DLR
20.4,-6.218294144,-0.354100645,8.853712082,-1.509155989,-1.112811923,2.782029867,-1075.5,11.10000038,-926.1000366,1.629003572,-0.605464665,0.046945732,DLR
20.4333333333333,-5.922811508,-0.711790144,8.229848862,-1.387203932,-0.190549999,2.583858013,-1068.300049,6.300000191,-921.3000488,1.639985391,-0.618944357,0.078101239,DLR
20.4666666666667,-5.457456589,-0.377428204,9.355554581,-1.34147191,0.114329994,1.524399996,-1061.100098,9.900000572,-921.3000488,1.617474061,-0.542404615,0.046458107,DLR
20.5,-5.23375082,-0.299669623,8.20592308,0.213415995,-1.402447939,2.004585981,-1075.5,12.30000019,-918.9000244,1.608248457,-0.560829081,0.036300604,DLR
20.5333333333333,-5.257676601,0.160302311,7.99896574,0.091463998,-1.23476398,1.592997909,-1068.300049,14.70000076,-918.9000244,1.580238462,-0.575657806,-0.010119671,ST
20.5666666666667,-4.963988304,0.394176215,7.899674416,0.015244,-0.464941978,0.564027965,-1080.300049,8.100000381,-911.7000122,1.561765096,-0.562913708,-0.042428633,ST
20.6,-5.031578541,0.046057008,8.640174866,0.205793992,-0.777444005,1.051836014,-1058.700073,9.300000191,-909.3000488,1.575333395,-0.532184089,-0.012648049,ST
20.6333333333333,-4.993297577,0.368456066,8.524733543,0.487807989,-0.251525998,1.303362012,-1065.900024,9.300000191,-914.1000366,1.559830655,-0.529595925,-0.03917427,ST
20.6666666666667,-5.130870342,0.382811487,8.116202354,0.213415995,0.853663981,1.135677934,-1075.5,3.900000095,-918.9000244,1.553586174,-0.558380599,-0.047036161,ST
20.7,-5.356968403,0.279930919,7.387663841,0.625003994,0.632625997,0.571649969,-1056.300049,0.300000012,-914.1000366,1.55655504,-0.616378905,-0.041030547,ST
20.7333333333333,-5.514279842,0.797324598,8.20173645,0.655492008,-0.457319975,1.067080021,-1073.100098,13.50000095,-909.3000488,1.528859046,-0.594475632,-0.087732132,ST
20.7666666666667,-6.07174921,0.794333875,7.918216705,0.442075998,-3.559473991,0.541162014,-1068.300049,3.900000095,-914.1000366,1.52299157,-0.635183373,-0.098259778,ST
20.8,-4.920323849,0.731528878,8.205325127,0.922261953,-5.190581799,0.190549999,-1092.300049,5.100000381,-926.1000366,1.528613851,-0.548213611,-0.091625598,ST
20.8333333333333,-4.495642662,0.730332553,8.155679703,1.272873998,-7.553401947,-0.922261953,-1070.700073,8.700000763,-921.3000488,1.534404126,-0.499019568,-0.090252033,ST
20.8666666666667,-3.802394867,0.748875022,8.942835808,2.751541853,-9.588476181,-2.111294031,-1109.100098,2.100000143,-911.7000122,1.544822116,-0.407500265,-0.086835999,ST
20.9,-4.270740986,1.076657295,7.693912983,3.658559799,-11.43299961,-2.012207985,-1109.100098,3.300000191,-933.3000488,1.536556289,-0.469693748,-0.132176677,ST
20.9333333333333,-4.789330959,0.797324598,8.93386364,1.051836014,-8.757678032,-2.027451992,-1121.100098,8.100000381,-914.1000366,1.559735906,-0.474499933,-0.097219265,ST
20.9666666666667,-3.350796938,0.203966752,8.137735367,0.647870004,-5.846074104,-1.135677934,-1128.300049,7.500000477,-935.7000122,1.588138208,-0.399531664,-0.039242739,ST
21.0,-2.59833312,-0.419896364,8.955396652,-0.53354001,-2.858249903,-1.120433927,-1149.900024,5.100000381,-928.500061,1.615123118,-0.299137841,0.033186935,ST
21.0333333333333,-3.290982723,0.010766573,9.840049744,-0.983237982,-3.086910009,-1.333850026,-1130.700073,2.100000143,-914.1000366,1.609576005,-0.31369636,0.007817877,ST
21.0666666666667,-2.302850485,-0.766221166,9.284375191,-0.632625997,-2.393307924,0.167683989,-1159.5,9.300000191,-923.7000122,1.625529636,-0.253533763,0.06829143,ST
21.1,-1.664033771,-1.285409212,9.128857613,-0.731711984,-1.943609953,-0.899396002,-1157.100098,9.300000191,-926.1000366,1.639651435,-0.190978465,0.126829281,ST
21.1333333333333,-2.142548084,-0.848166704,9.159363747,-0.396344006,-2.042695999,-0.655492008,-1152.300049,9.300000191,-933.3000488,1.634789145,-0.219458099,0.098885516,ST
21.1666666666667,-2.46614337,-0.706406832,8.766981125,0.076219998,-0.373477995,0.861285985,-1173.900024,8.100000381,-921.3000488,1.629223478,-0.262097208,0.083746483,ST
21.2,-3.106156349,-0.669322014,9.194653511,0.121951997,-0.251525998,1.623485923,-1176.300049,11.10000038,-928.500061,1.622938322,-0.312131269,0.074059616,ST
21.2333333333333,-2.54150939,-0.973178625,8.661708832,0.739333987,-0.243903995,2.278977871,-1164.300049,8.100000381,-921.3000488,1.626772793,-0.289441872,0.102313738,ST
21.2666666666667,-3.328067541,-1.020431876,9.296338081,0.289635986,0.129574001,1.844523907,-1166.700073,4.5,-923.7000122,1.624306497,-0.331764403,0.106643581,ST
21.3,-3.70669198,-0.260192186,9.640270233,0.121951997,1.143299937,1.996963978,-1173.900024,8.700000763,-935.7000122,1.598284493,-0.36180692,0.042029366,ST
21.3333333333333,-2.383001566,-0.849961162,9.869359016,0.068598002,1.951231956,2.865871906,-1171.5,10.5,-933.3000488,1.602773815,-0.263020857,0.076556192,ST
21.3666666666667,-2.644390106,-0.970187902,10.80605125,-0.815553963,2.149404049,2.111294031,-1157.100098,14.10000038,-923.7000122,1.60073336,-0.247131018,0.087386816,ST
21.4,-2.356683254,-0.370848656,10.44118404,-0.358233988,3.475631952,2.721053839,-1159.5,12.90000057,-921.3000488,1.585038566,-0.2320597,0.045531614,ST
21.4333333333333,-2.768803835,-0.656760991,9.762291908,-0.571649969,5.663146019,1.920743942,-1140.300049,5.100000381,-930.9000244,1.585492496,-0.275002841,0.062976149,ST
21.4666666666667,-3.19587779,-0.43305552,9.584643364,-0.213415995,6.196685791,1.333850026,-1149.900024,6.300000191,-921.3000488,1.578964533,-0.320885429,0.048624744,ST
21.5,-3.625344515,-0.386400372,8.753224373,0.335367978,5.327777863,1.105189919,-1123.5,8.100000381,-918.9000244,1.575818459,-0.385387632,0.04409191,ST
21.5333333333333,-3.853236914,-0.214733332,8.273513794,0.792688012,2.660078049,0.594515979,-1130.700073,14.70000076,-933.3000488,1.568798469,-0.431731685,0.027343926,ST
21.5666666666667,-2.908171177,0.126208171,6.854718685,0.952749968,2.782029867,1.196653962,-1109.100098,7.500000477,-914.1000366,1.550832404,-0.410676403,-0.012490609,ST
21.6,-3.31371212,0.28710863,7.012628078,0.266770005,1.562510014,1.082324028,-1116.300049,11.70000076,-921.3000488,1.538968853,-0.437131822,-0.036227004,ST
21.6333333333333,-5.102757454,0.957626879,8.297439575,-0.762199998,0.40396598,1.631107926,-1106.700073,7.500000477,-928.500061,1.503596823,-0.531359364,-0.102078297,ST
21.6666666666667,-5.487363815,1.164584398,8.904554367,-0.701223969,2.713431835,4.192100048,-1109.100098,15.90000057,-918.9000244,1.479566259,-0.548820042,-0.128260797,ST
21.7,-4.743273735,0.809287429,9.451256752,-1.089946032,3.010689974,3.887219906,-1113.900024,9.900000572,-921.3000488,1.486170787,-0.484465836,-0.095412581,ST
21.7333333333333,-4.310218334,0.898410738,9.465612411,-1.295740008,1.920743942,1.760681987,-1099.5,11.10000038,-914.1000366,1.481191101,-0.439227303,-0.09429394,ST
21.7666666666667,-4.349097729,0.876877606,8.973938942,-0.510674,1.867389917,0.213415995,-1109.100098,6.900000095,-923.7000122,1.479000187,-0.449927545,-0.09632589,ST
21.8,-4.974156857,0.893027484,8.765785217,-0.213415995,1.135677934,-0.030487999,-1101.900024,10.5,-923.7000122,1.476827543,-0.502580209,-0.100234815,ST
21.8333333333333,-4.320386887,-0.25421077,7.543779373,0.365855992,1.166165948,-0.998481989,-1111.5,8.100000381,-916.500061,1.546462455,-0.521670221,0.032227844,ST
21.8666666666667,-5.08301878,-0.416905642,8.160464287,-0.289635986,0.121951997,-1.684461951,-1094.700073,12.30000019,-928.500061,1.558027643,-0.549541984,0.048996804,ST
21.9,-4.866491318,-0.655564725,9.01341629,-0.876529992,-0.861285985,-1.600619912,-1077.900024,5.100000381,-923.7000122,1.571061602,-0.503161585,0.070687806,ST
21.9333333333333,-3.572707891,-1.238754034,8.223269463,-1.059458017,-0.746955991,-2.759163857,-1089.900024,9.300000191,-923.7000122,1.605309448,-0.424144712,0.137386898,ST
21.9666666666667,-3.929799318,-1.669417024,8.233437538,-0.640248001,0.243903995,-2.141782045,-1082.700073,10.5,-930.9000244,1.630939459,-0.434783107,0.189594095,ST
22.0,-4.121204853,-1.885944843,8.731093407,-0.251525998,1.478667974,-1.753059983,-1089.900024,17.10000038,-926.1000366,1.643856354,-0.434301602,0.210307625,ST
22.0333333333333,-5.456260204,-1.233968973,8.071939468,0.91463995,1.364337921,1.272873998,-1085.100098,10.5,-938.1000366,1.61902728,-0.563654417,0.160766683,ST
22.0666666666667,-6.718341827,-0.943271458,8.302224159,0.564027965,1.890255928,0.632625997,-1075.5,12.90000057,-914.1000366,1.596971906,-0.657054619,0.122168116,ST
22.1,-5.286387444,-1.061703801,7.781839848,-0.076219998,-0.129574001,1.097568035,-1085.100098,12.30000019,-926.1000366,1.600626334,-0.605470351,0.131986927,ST
22.1333333333333,-5.078233719,-1.345821738,7.58505106,-0.442075998,0.61738199,0.823175967,-1080.300049,8.700000763,-911.7000122,1.61828313,-0.588494751,0.166866506,ST
22.1666666666667,-5.711069107,-1.276437044,8.469704628,-0.823175967,1.493911982,0.609759986,-1075.5,12.30000019,-918.9000244,1.60898485,-0.590411686,0.153484018,ST
22.2,-5.724826336,-1.449300408,8.960181236,0.038109999,0.312501997,0.144817993,-1075.5,13.50000095,-928.500061,1.611903205,-0.567832876,0.15907925,ST
22.2333333333333,-5.268443108,-0.880466461,7.712455273,1.135677934,1.913121939,0.442075998,-1087.5,12.90000057,-918.9000244,1.591656679,-0.594079099,0.120069287,ST
22.2666666666667,-5.314500332,-0.502440095,9.045118332,0.586893976,0.891773999,0.518296003,-1073.100098,9.900000572,-914.1000366,1.562053097,-0.543354807,0.065333584,ST
22.3,-4.423267365,-0.306847334,8.414675713,0.472563982,-1.42531395,2.59910202,-1080.300049,15.90000057,-918.9000244,1.544383469,-0.493906056,0.039369695,ST
22.3333333333333,-4.575793743,-0.265575469,7.718436718,-0.015244,-0.40396598,3.826243877,-1075.5,8.100000381,-916.500061,1.533233266,-0.526241666,0.032377926,ST
22.3666666666667,-3.894508839,0.384007782,8.110220909,-0.640248001,0.091463998,2.774407864,-1092.300049,11.10000038,-921.3000488,1.49405335,-0.460733154,-0.035659913,ST
22.4,-3.769496918,0.200377896,7.483366489,-0.152439997,0.327746004,2.522881985,-1087.5,12.30000019,-928.500061,1.491151539,-0.465665309,-0.030119925,ST
22.4333333333333,-5.81993103,1.024020791,7.792606831,-0.221037999,-0.205793992,2.46952796,-1077.900024,11.70000076,-921.3000488,1.445146018,-0.602239439,-0.110398592,ST
22.4666666666667,-6.06038475,1.287801862,7.692118645,-0.060975999,-0.045731999,2.271355867,-1068.300049,9.300000191,-911.7000122,1.41175235,-0.650909744,-0.15918805,ST
22.5,-6.623237133,0.773997009,8.529519081,-0.93750596,0.198172003,1.859767914,-1063.5,12.30000019,-930.9000244,1.440577042,-0.657102377,-0.103553028,ST
22.5333333333333,-5.179918289,0.906186581,8.58095932,-0.769822001,-0.609759986,0.647870004,-1065.900024,13.50000095,-921.3000488,1.437976343,-0.563117781,-0.104489676,ST
22.5666666666667,-5.30911684,0.541917503,8.759803772,-0.472563982,-0.762199998,-1.570132017,-1080.300049,6.900000095,-923.7000122,1.459679337,-0.547050639,-0.0682723,ST
22.6,-5.048326492,0.461766362,8.884217262,0.327746004,-0.106707998,-0.762199998,-1070.700073,15.90000057,-918.9000244,1.468346563,-0.522302047,-0.055010005,ST
22.6333333333333,-5.087205887,0.150133893,8.513368607,0.983237982,0.487807989,-0.868907988,-1075.5,8.700000763,-935.7000122,1.486756417,-0.536622028,-0.024666646,ST
22.6666666666667,-4.758227348,0.186620608,6.750641346,0.678357959,-1.036592007,-0.068598002,-1073.100098,3.300000191,-921.3000488,1.486056707,-0.596754541,-0.027916349,ST
22.7,-4.301246166,-0.141759887,8.805262566,-0.625003994,0.975615978,-2.218001842,-1056.300049,7.500000477,-921.3000488,1.510149481,-0.481205492,0.01131117,ST
22.7333333333333,-4.657141209,-0.919345737,7.002460003,0.274392009,-2.736297846,0.495429993,-1085.100098,14.70000076,-923.7000122,1.556730802,-0.561375249,0.106793135,ST
22.7666666666667,-4.965184689,-0.728538156,8.225064278,-0.800309956,0.091463998,-3.041177988,-1080.300049,11.10000038,-918.9000244,1.556187179,-0.544247274,0.095114513,ST
22.8,-5.737985611,-1.171163917,7.951712608,-0.167683989,-0.29725799,-1.303362012,-1077.900024,18.90000153,-921.3000488,1.58110226,-0.604146674,0.13681824,ST
22.8333333333333,-4.268348217,-1.245931864,8.214297295,0.495429993,-1.371959925,-2.721053839,-1080.300049,14.70000076,-906.9000244,1.593869102,-0.493792736,0.149659174,ST
22.8666666666667,-5.451475143,-1.2895962,7.409795284,0.876529992,-1.821658015,0.121951997,-1070.700073,15.30000019,-916.500061,1.602810645,-0.600713114,0.16618208,ST
22.9,-4.795910358,-0.970187902,8.381178856,0.411587983,-1.859767914,-0.838419974,-1085.100098,8.700000763,-930.9000244,1.582320688,-0.531133542,0.124952509,ST
22.9333333333333,-5.298948765,-1.528255343,7.75492382,0.853663981,-2.19513607,1.105189919,-1085.100098,11.70000076,-918.9000244,1.608228834,-0.576023198,0.177517706,ST
22.9666666666667,-5.720041275,-1.007870913,8.210708618,0.602137983,-0.091463998,0.282013983,-1070.700073,7.500000477,-909.3000488,1.582650633,-0.599847703,0.131032925,ST
23.0,-5.788827896,-1.182528615,8.991285324,0.213415995,-1.318606019,1.04421401,-1087.5,9.900000572,-911.7000122,1.579719162,-0.572879803,0.12941955,ST
23.0333333333333,-5.100365162,-1.140658617,8.843544006,0.099086002,-0.823175967,-0.419209987,-1087.5,5.700000286,-914.1000366,1.580030926,-0.52909524,0.128606351,ST
23.0666666666667,-4.855126381,-0.709995687,7.825504303,0.960371971,0.091463998,0.137196004,-1082.700073,6.900000095,-923.7000122,1.564590636,-0.548753876,0.096804138,ST
23.1,-4.71157217,-0.586778283,8.860890388,0.922261953,-0.716467977,-0.495429993,-1082.700073,15.90000057,-916.500061,1.553377957,-0.49695213,0.070118534,ST
23.1333333333333,-4.892211437,0.035290435,9.389648438,1.067080021,-2.248489857,1.379581928,-1087.5,15.30000019,-923.7000122,1.521655429,-0.480283058,0.006712393,ST
23.1666666666667,-4.920922279,-0.283519775,8.705970764,1.059458017,-0.922261953,2.98020196,-1099.5,7.500000477,-923.7000122,1.52458582,-0.507314854,0.024201514,ST
23.2,-3.801198483,0.203966752,7.942142487,0.518296003,1.34147191,1.539644003,-1089.900024,12.90000057,-930.9000244,1.502483404,-0.460493902,-0.01775258,ST
23.2333333333333,-4.462744713,0.489280939,7.367925167,0.586893976,1.067080021,1.013725996,-1089.900024,9.300000191,-914.1000366,1.475237779,-0.544577355,-0.06798268,ST
23.2666666666667,-5.588449955,0.797324598,8.061771393,0.373477995,1.158543944,0.983237982,-1070.700073,6.300000191,-926.1000366,1.459742523,-0.593417314,-0.093753098,ST
23.3,-6.523347378,0.783567309,8.129959106,0.0,0.365855992,1.562510014,-1077.900024,15.30000019,-921.3000488,1.454716908,-0.657953067,-0.097309791,ST
23.3333333333333,-5.324668884,0.57900238,8.253774643,-0.655492008,1.051836014,1.310984015,-1080.300049,14.70000076,-916.500061,1.46386825,-0.590476942,-0.075744181,ST
23.3666666666667,-4.482483387,0.113049023,8.256765366,-0.701223969,0.030487999,-0.236281991,-1085.100098,13.50000095,-930.9000244,1.491442385,-0.513100934,-0.022453992,ST
23.4,-5.907259941,0.061608724,8.658718109,-0.480185986,0.434453994,-0.53354001,-1075.5,12.90000057,-935.7000122,1.499047369,-0.583991458,-0.008859632,ST
23.4333333333333,-6.51437521,-0.056823581,9.176709175,-0.106707998,-0.045731999,0.525918007,-1089.900024,11.70000076,-921.3000488,1.504614241,-0.611662298,0.003230115,ST
23.4666666666667,-3.875966549,-0.444420218,7.979227066,0.983237982,-1.211897969,0.221037999,-1070.700073,8.100000381,-909.3000488,1.526718148,-0.482266971,0.044153754,ST
23.5,-4.409510136,-0.578404248,7.372112274,0.114329994,0.076219998,0.198172003,-1094.700073,8.100000381,-926.1000366,1.539389892,-0.526673945,0.070889104,ST
23.5333333333333,-4.844958305,-0.550291538,8.5055933,-1.006103992,-0.663114011,-0.746955991,-1082.700073,2.100000143,-909.3000488,1.538102142,-0.517865956,0.0678264,ST
23.5666666666667,-4.258179665,-0.851755619,7.371513844,-1.04421401,-0.525918007,-0.579271972,-1075.5,12.30000019,-928.500061,1.557571467,-0.519607302,0.107365286,ST
23.6,-5.538804054,-1.136471629,7.26982975,-0.42683199,0.205793992,-0.266770005,-1089.900024,8.700000763,-918.9000244,1.578272691,-0.620121535,0.145498078,ST
23.6333333333333,-4.748058796,-1.531245947,8.69340992,0.243903995,0.40396598,-1.112811923,-1070.700073,14.10000038,-918.9000244,1.593821455,-0.519366063,0.169479306,ST
23.6666666666667,-4.825219154,-0.951047301,9.12168026,0.396344006,-3.62045002,0.609759986,-1087.5,12.30000019,-926.1000366,1.565990354,-0.486649149,0.115528977,ST
23.7,-4.704992771,-1.034189224,8.303421021,0.83079797,-2.881115913,2.850627899,-1085.100098,14.70000076,-914.1000366,1.561656492,-0.504047391,0.118709048,ST
23.7333333333333,-4.956212521,-0.794333875,8.698793411,0.358233988,-1.608241916,2.919225931,-1089.900024,13.50000095,-926.1000366,1.542689535,-0.512199847,0.092711948,ST
23.7666666666667,-4.745068073,-0.734519541,8.628810883,0.42683199,-0.289635986,2.667700052,-1089.900024,7.500000477,-921.3000488,1.53322663,-0.50324478,0.083685846,ST
23.8,-4.839574814,-0.438438803,8.859095573,0.365855992,-2.027451992,1.592997909,-1089.900024,12.30000019,-918.9000244,1.515273065,-0.497340222,0.053295452,ST
23.8333333333333,-5.156590462,-0.622068703,8.009732246,1.12805593,0.221037999,1.257629991,-1106.700073,10.5,-926.1000366,1.522413487,-0.556274749,0.06977589,ST
23.8666666666667,-5.373716354,0.327782363,9.830479622,0.42683199,-1.943609953,-1.028970003,-1106.700073,18.30000114,-923.7000122,1.482804232,-0.509040367,-0.01293295,ST
23.9,-4.576391697,-0.083141871,8.266335487,1.272873998,-0.419209987,1.493911982,-1097.100098,4.5,-926.1000366,1.488724985,-0.505727317,0.002501602,ST
23.9333333333333,-4.456165314,-0.029907148,8.994874001,1.524399996,0.40396598,0.586893976,-1106.700073,9.300000191,-914.1000366,1.488299565,-0.469746911,0.000614778,ST
23.9666666666667,-4.573999405,-0.378624499,8.755018234,1.653973937,0.670735955,0.815553963,-1097.100098,18.30000114,-935.7000122,1.502601855,-0.479814126,0.031701195,ST
24.0,-3.519473314,0.47073853,8.124575615,2.644834042,-1.478667974,2.118916035,-1094.700073,10.5,-916.500061,1.466300977,-0.41897296,-0.047549218,ST
24.0333333333333,-4.061988831,0.503038228,7.845242977,2.484771967,1.63872993,1.753059983,-1101.900024,10.5,-926.1000366,1.456809483,-0.469400017,-0.066169043,ST
24.0666666666667,-3.951930523,0.765622973,7.647856236,1.63872993,-1.204275966,1.318606019,-1101.900024,11.10000038,-928.500061,1.442431362,-0.472004161,-0.096130696,ST
24.1,-4.860509872,1.102377534,7.662809372,0.693601966,-0.609759986,0.83079797,-1101.900024,2.700000048,-923.7000122,1.42299734,-0.541785646,-0.134652527,ST
24.1333333333333,-5.35397768,1.275838971,8.649147034,-0.015244,0.106707998,1.410069942,-1101.900024,3.300000191,-935.7000122,1.414709589,-0.547803189,-0.145242372,ST
24.1666666666667,-5.624936581,1.099386811,8.704176903,0.190549999,0.411587983,1.8292799,-1099.5,8.700000763,-930.9000244,1.418525658,-0.565865213,-0.131547547,ST
24.2,-4.882042885,0.759641588,8.722719193,-0.053353999,0.457319975,0.967993975,-1101.900024,12.90000057,-911.7000122,1.43484736,-0.52005374,-0.095884529,ST
24.2333333333333,-4.788732529,0.50124383,9.000855446,-0.777444005,-0.449698001,0.0,-1092.300049,7.500000477,-923.7000122,1.450653189,-0.493368712,-0.061583317,ST
24.2666666666667,-3.898097754,0.471336663,8.660511971,-0.411587983,-0.40396598,0.114329994,-1099.5,6.900000095,-923.7000122,1.452910685,-0.43444896,-0.055123861,ST
24.3,-3.551773071,-0.137572885,7.688529968,0.365855992,0.411587983,0.198172003,-1097.100098,9.900000572,-918.9000244,1.477767234,-0.433760616,0.004186392,ST
24.3333333333333,-4.976549625,-0.211144462,7.650846958,0.564027965,1.875011921,-1.303362012,-1097.100098,5.100000381,-918.9000244,1.489883396,-0.550154455,0.022678378,ST
24.3666666666667,-5.856417656,-0.080749303,9.782628059,-0.221037999,0.952749968,-1.63872993,-1080.300049,11.70000076,-921.3000488,1.487766043,-0.542881416,0.012843987,ST
24.4,-4.554858685,-0.925327182,8.735280037,-0.350611985,-2.179892063,-1.34147191,-1106.700073,10.5,-914.1000366,1.527258832,-0.488525111,0.08871466,ST
