seconds,sensor_accX_m_s_,sensor_accY_m_s_,sensor_accZ_m_s_,sensor_gyroX____s_,sensor_gyroY____s_,sensor_gyroZ____s_,sensor_magX___T_,sensor_magY___T_,sensor_magZ___T_,sensor_yaw____,sensor_pitch____,sensor_roll____,label4
0.0,-1.997199416,-0.393578082,9.415966988,0.137196004,-1.105189919,0.762199998,-1183.5,13.50000095,-911.7000122,1.330526177,-0.210063633,0.040328696,ST
0.0333333333333333,-1.998395681,-0.379820794,9.401013374,0.137196004,-0.693601966,0.663114011,-1193.100098,11.10000038,-918.9000244,1.328962211,-0.208516075,0.039974494,ST
0.0666666666666667,-2.068378448,-0.32479164,9.451855659,-0.015244,-0.655492008,0.518296003,-1178.700073,10.5,-923.7000122,1.32676321,-0.213058257,0.035343074,ST
0.1,-2.05462122,-0.340941489,9.426135063,0.007622,-0.685979962,0.663114011,-1181.100098,11.10000038,-926.1000366,1.325310565,-0.21326937,0.035772599,ST
0.133333333333333,-2.068976641,-0.338548928,9.399816513,-0.129574001,-0.716467977,0.640248001,-1188.300049,16.5,-926.1000366,1.323782956,-0.214897161,0.03593354,ST
0.166666666666667,-2.07794857,-0.347521067,9.314282417,-0.472563982,-0.922261953,1.028970003,-1195.5,19.5,-926.1000366,1.321161916,-0.217350008,0.037429987,ST
0.2,-2.014545441,-0.378624499,9.423144341,-0.762199998,-0.990859985,1.410069942,-1183.5,8.700000763,-923.7000122,1.318125487,-0.210538399,0.040236017,ST
0.233333333333333,-1.84048593,-0.519786239,9.513463974,-0.685979962,-0.663114011,1.356715918,-1193.100098,18.30000114,-935.7000122,1.317096752,-0.193965617,0.052266758,ST
0.266666666666667,-1.731623888,-0.628648281,9.637877464,-0.594515979,-0.762199998,0.868907988,-1185.900024,9.300000191,-918.9000244,1.31679896,-0.179753801,0.063139209,ST
0.3,-1.787251234,-0.602329969,9.515856743,-0.137196004,-1.006103992,0.663114011,-1190.700073,16.5,-914.1000366,1.314904211,-0.183005667,0.063206824,ST
0.333333333333333,-1.804597378,-0.60711509,9.470995903,0.274392009,-0.80793196,0.243903995,-1205.100098,8.700000763,-923.7000122,1.314387142,-0.185816254,0.063392603,ST
0.366666666666667,-1.782466054,-0.57900238,9.603783607,0.503051996,-0.663114011,0.190549999,-1190.700073,9.900000572,-918.9000244,1.313471791,-0.182810673,0.060095168,ST
0.4,-1.781269789,-0.583189368,9.550548553,0.754577994,-0.739333987,0.42683199,-1195.5,11.10000038,-928.500061,1.312590848,-0.182812193,0.059621606,ST
0.433333333333333,-1.909870505,-0.499449372,9.428527832,0.876529992,-0.579271972,0.564027965,-1188.300049,11.70000076,-918.9000244,1.310357162,-0.195443568,0.052892631,ST
0.466666666666667,-1.869794965,-0.446812809,9.489538193,0.967993975,-0.625003994,0.72408998,-1207.5,6.900000095,-930.9000244,1.307880188,-0.193737976,0.046671307,ST
0.5,-1.892524362,-0.406737208,9.40699482,0.510674,-0.967993975,0.975615978,-1190.700073,9.900000572,-921.3000488,1.305079404,-0.196134613,0.042916029,ST
0.533333333333333,-1.668818831,-0.516795516,9.438695908,0.167683989,-0.754577994,0.983237982,-1185.900024,9.300000191,-904.500061,1.304506341,-0.178069967,0.051834334,ST
0.566666666666667,-1.586873293,-0.471934795,9.619933128,-0.007622,-0.647870004,0.800309956,-1195.5,8.100000381,-918.9000244,1.302197889,-0.165422789,0.049397037,ST
0.6,-1.580293775,-0.429466665,9.594213486,0.007622,-0.876529992,0.594515979,-1205.100098,18.90000153,-918.9000244,1.300070186,-0.16233129,0.045459207,ST
0.633333333333333,-1.460067034,-0.509019673,9.627709389,0.121951997,-0.72408998,0.495429993,-1195.5,8.100000381,-914.1000366,1.299783758,-0.151750166,0.051054334,ST
0.666666666666667,-1.434944987,-0.491673529,9.583446503,0.236281991,-0.701223969,0.251525998,-1190.700073,9.300000191,-909.3000488,1.299124321,-0.147992557,0.050819319,ST
0.7,-1.492366672,-0.428868502,9.537389755,0.282013983,-0.602137983,0.015244,-1197.900024,18.90000153,-921.3000488,1.298356851,-0.15280102,0.04572098,ST
0.733333333333333,-1.507918477,-0.403746516,9.570287704,0.556405962,-0.434453994,0.175305992,-1200.300049,8.100000381,-916.500061,1.297550483,-0.154873766,0.042062346,ST
0.766666666666667,-1.492366672,-0.455784947,9.58045578,0.373477995,-0.236281991,0.022865999,-1207.5,15.30000019,-923.7000122,1.298198951,-0.154135137,0.045907305,ST
0.8,-1.457076311,-0.462364525,9.499706268,-0.038109999,-0.419209987,0.091463998,-1202.700073,15.30000019,-921.3000488,1.298262312,-0.151801764,0.048176721,ST
0.833333333333333,-1.490572333,-0.451597929,9.548155785,-0.205793992,-0.53354001,0.121951997,-1209.900024,10.5,-918.9000244,1.29772896,-0.153460761,0.047675113,ST
0.866666666666667,-1.431954265,-0.499449372,9.515856743,0.152439997,-0.289635986,0.457319975,-1207.5,16.5,-926.1000366,1.297236266,-0.149654002,0.051166472,ST
0.9,-1.424776554,-0.469542235,9.533801079,-0.114329994,0.045731999,0.350611985,-1202.700073,9.900000572,-911.7000122,1.296185395,-0.148557133,0.049691131,ST
0.933333333333333,-1.43793571,-0.476121813,9.662401199,0.091463998,-0.083841994,0.251525998,-1219.5,12.30000019,-921.3000488,1.295554324,-0.147659066,0.049147119,ST
0.966666666666667,-1.41221559,-0.542515695,9.586437225,0.411587983,-0.160062,0.259148002,-1205.100098,20.70000076,-916.500061,1.295845177,-0.146093234,0.054637873,ST
1.0,-1.518684983,-0.500047505,9.533801079,0.282013983,-0.144817993,0.114329994,-1207.5,11.70000076,-916.500061,1.295303613,-0.155596568,0.052340491,ST
1.03333333333333,-1.536629319,-0.479710668,9.558922768,0.243903995,-0.114329994,0.038109999,-1200.300049,10.5,-914.1000366,1.294962535,-0.158311734,0.050235986,ST
1.06666666666667,-1.567134619,-0.478514373,9.523034096,0.213415995,-0.106707998,0.121951997,-1200.300049,18.30000114,-921.3000488,1.294695902,-0.161834433,0.049885712,ST
1.1,-1.54141438,-0.469542235,9.500305176,0.137196004,-0.228659987,0.282013983,-1202.700073,12.30000019,-918.9000244,1.293914267,-0.160540973,0.04919958,ST
1.13333333333333,-1.54141438,-0.487486511,9.558324814,-0.038109999,-0.182927996,0.42683199,-1190.700073,10.5,-904.500061,1.293071826,-0.159605343,0.050597394,ST
1.16666666666667,-1.454085588,-0.628050148,9.57626915,0.144817993,-0.099086002,0.381099999,-1202.700073,8.100000381,-918.9000244,1.294046072,-0.151814082,0.062697227,ST
1.2,-1.522273898,-0.535337985,9.568492889,0.129574001,-0.221037999,0.342989981,-1197.900024,9.900000572,-916.500061,1.292409204,-0.15609768,0.05700451,ST
1.23333333333333,-1.472627997,-0.574815392,9.565502167,0.243903995,-0.076219998,0.42683199,-1200.300049,10.5,-926.1000366,1.291819905,-0.153139268,0.058979936,ST
1.26666666666667,-1.482198238,-0.544908226,9.599596977,0.221037999,-0.106707998,0.419209987,-1197.900024,11.10000038,-926.1000366,1.290592498,-0.152873266,0.056762323,ST
1.3,-1.496553659,-0.519786239,9.537987709,0.243903995,-0.160062,0.40396598,-1202.700073,11.70000076,-916.500061,1.289390499,-0.154706216,0.054480922,ST
1.33333333333333,-1.440926433,-0.537132382,9.605578423,0.304879993,0.030487999,0.312501997,-1197.900024,11.70000076,-916.500061,1.288883075,-0.149952809,0.055092022,ST
1.36666666666667,-1.459468842,-0.53414166,9.573876381,0.282013983,-0.015244,0.160062,-1214.700073,12.90000057,-918.9000244,1.288627252,-0.150817483,0.055177449,ST
1.4,-1.507320285,-0.540123105,9.530810356,0.327746004,0.099086002,0.099086002,-1193.100098,6.300000191,-923.7000122,1.288631533,-0.155585159,0.055844558,ST
1.43333333333333,-1.525264621,-0.514402926,9.542175293,0.373477995,0.236281991,0.045731999,-1197.900024,11.70000076,-916.500061,1.288361063,-0.158067397,0.053729219,ST
1.46666666666667,-1.609004617,-0.525169551,9.504491806,0.350611985,0.175305992,0.076219998,-1209.900024,12.90000057,-916.500061,1.288447617,-0.165807503,0.054398017,ST
1.5,-1.633528471,-0.512608528,9.524230957,0.236281991,0.175305992,0.121951997,-1197.900024,15.90000057,-923.7000122,1.28811244,-0.169285928,0.053493106,ST
1.53333333333333,-1.638313651,-0.54131937,9.561315536,0.243903995,0.182927996,0.106707998,-1193.100098,11.70000076,-923.7000122,1.28834169,-0.169678027,0.055635222,ST
1.56666666666667,-1.738203526,-0.497056812,9.417162895,0.464941978,0.274392009,0.243903995,-1200.300049,13.50000095,-916.500061,1.2874654,-0.180291214,0.052568793,ST
1.6,-1.745979309,-0.53414166,9.549352646,0.304879993,0.434453994,0.121951997,-1205.100098,7.500000477,-921.3000488,1.2877623,-0.18112291,0.054760181,ST
1.63333333333333,-1.750166297,-0.525767684,9.567296982,0.236281991,0.198172003,0.251525998,-1193.100098,12.30000019,-928.500061,1.287236855,-0.181050061,0.054472745,ST
1.66666666666667,-1.780073524,-0.519786239,9.509277344,0.342989981,0.045731999,0.327746004,-1190.700073,12.90000057,-923.7000122,1.286523609,-0.184206864,0.0540045,ST
1.7,-1.851850629,-0.479112506,9.449462891,0.312501997,-0.083841994,0.373477995,-1193.100098,14.70000076,-921.3000488,1.285114161,-0.191663816,0.050661923,ST
1.73333333333333,-1.778877139,-0.50363636,9.46800518,0.29725799,-0.251525998,0.388722003,-1202.700073,9.300000191,-921.3000488,1.284609786,-0.186389384,0.052123312,ST
1.76666666666667,-1.778279066,-0.448607236,9.540978432,0.160062,-0.548784018,0.419209987,-1195.5,8.100000381,-916.500061,1.282849762,-0.183802524,0.047680487,ST
1.8,-1.655061603,-0.54610455,9.433911324,0.091463998,-0.350611985,0.442075998,-1183.5,18.30000114,-921.3000488,1.283248155,-0.175030962,0.055539565,ST
1.83333333333333,-1.671211481,-0.50602895,9.5499506,0.015244,-0.266770005,0.373477995,-1193.100098,9.300000191,-918.9000244,1.281931447,-0.17301339,0.053283039,ST
1.86666666666667,-1.640107989,-0.495860517,9.497314453,0.068598002,-0.434453994,0.381099999,-1188.300049,12.90000057,-921.3000488,1.2807681,-0.170551014,0.052150072,ST
1.9,-1.587471485,-0.584385693,9.465612411,-0.022865999,-0.434453994,0.42683199,-1188.300049,11.10000038,-921.3000488,1.280996538,-0.166230597,0.059669936,ST
1.93333333333333,-1.607210159,-0.545506418,9.508678436,-0.137196004,-0.602137983,0.442075998,-1202.700073,18.30000114,-935.7000122,1.279562078,-0.166181588,0.057862653,ST
1.96666666666667,-1.735212803,-0.409727931,9.459630966,-0.076219998,-0.472563982,0.525918007,-1195.5,11.70000076,-918.9000244,1.276289096,-0.177595924,0.046201603,ST
2.0,-1.841682196,-0.32239905,9.143811226,-0.274392009,-0.076219998,0.983237982,-1197.900024,7.500000477,-923.7000122,1.272345811,-0.194345391,0.037578293,ST
2.03333333333333,-3.066080809,0.704014301,8.147903442,-1.410069942,0.495429993,0.777444005,-1195.5,10.5,-916.500061,1.243366091,-0.331880704,-0.062701724,ST
2.06666666666667,-3.124100685,0.151330173,8.895582199,-3.27745986,1.181409955,0.907018006,-1195.5,13.50000095,-923.7000122,1.252144351,-0.338169605,-0.022124845,ST
2.1,-2.902787924,-0.777585864,9.826292992,-4.153989792,-1.013725996,-0.251525998,-1188.300049,15.30000019,-916.500061,1.27673027,-0.295628005,0.064680188,ST
2.13333333333333,-3.038566351,-2.298065186,10.16663647,-1.943609953,-3.940573931,-0.792688012,-1193.100098,21.30000114,-923.7000122,1.312640626,-0.281082383,0.193164586,ST
2.16666666666667,-2.375823975,-2.266363621,9.799376488,0.640248001,-4.756127834,0.381099999,-1205.100098,18.90000153,-923.7000122,1.316642115,-0.235521997,0.219086048,ST
2.2,-1.101181269,-2.125800133,9.574474335,1.402447939,-5.670767784,1.608241916,-1212.300049,20.70000076,-930.9000244,1.310348903,-0.129531148,0.21601713,ST
2.23333333333333,-0.081945591,-1.909272313,9.068445206,0.746955991,-5.586925983,1.798792005,-1217.100098,14.70000076,-921.3000488,1.303116656,-0.026111108,0.207950517,ST
2.26666666666667,-0.047851436,-1.83330822,9.447070122,0.838419974,-4.253076077,1.288118005,-1248.300049,18.90000153,-914.1000366,1.2976319,-0.002825025,0.193159795,ST
2.3,-0.293090045,-1.838691473,9.053491592,0.80793196,-3.528985977,1.242385983,-1238.700073,9.300000191,-916.500061,1.293321328,-0.021409395,0.197746584,ST
2.33333333333333,-0.809287429,-2.100080013,8.953601837,0.846041977,-2.804895878,0.823175967,-1257.900024,20.10000038,-904.500061,1.291351034,-0.070823921,0.222492996,ST
2.36666666666667,-1.099984884,-2.161688805,9.201831818,0.746955991,-2.614346027,0.762199998,-1250.700073,20.10000038,-911.7000122,1.288841005,-0.103947248,0.227930583,ST
2.4,-0.986935914,-2.2520082,8.932068825,1.295740008,-2.416173935,1.966475964,-1255.5,15.90000057,-911.7000122,1.284831283,-0.103547213,0.240973335,ST
2.43333333333333,-0.450401664,-2.573809147,8.636586189,1.516777992,-1.821658015,2.06556201,-1260.300049,12.30000019,-906.9000244,1.282291866,-0.058434294,0.278029378,ST
2.46666666666667,-0.248827472,-2.284906149,9.785618782,1.356715918,-2.164648056,0.777444005,-1253.100098,14.70000076,-904.500061,1.277648546,-0.028894927,0.237212989,ST
2.5,-0.294884473,-2.063593149,9.518249512,1.608241916,-4.207344055,0.091463998,-1257.900024,19.5,-914.1000366,1.274799672,-0.024302325,0.215997949,ST
2.53333333333333,0.294884473,-1.898505807,9.186878204,2.560992002,-2.858249903,0.038109999,-1272.300049,11.70000076,-911.7000122,1.273344945,0.024075707,0.202690441,ST
2.56666666666667,0.560459971,-1.847663641,9.240711212,3.00306797,-3.307947874,0.251525998,-1269.900024,14.70000076,-897.3000488,1.271335954,0.056736077,0.194298183,ST
2.6,0.928916037,-2.03787303,8.902759552,3.147886038,-3.673803806,0.190549999,-1274.700073,14.10000038,-902.1000366,1.267081025,0.097318516,0.214542769,ST
2.63333333333333,0.996506214,-2.089313507,9.02358532,2.911603928,-2.903981924,-0.068598002,-1274.700073,11.70000076,-899.7000122,1.264233772,0.109662331,0.221208967,ST
2.66666666666667,0.782969177,-1.260287285,9.291552544,3.018311977,-2.675322056,-0.876529992,-1267.5,14.70000076,-897.3000488,1.271782501,0.092536818,0.147928161,ST
2.7,1.498348117,-0.614890993,10.03085804,3.216483831,-3.071666002,-0.320124,-1274.700073,11.70000076,-892.500061,1.279450951,0.141179666,0.074326499,ST
2.73333333333333,1.277633429,0.296080768,10.08588696,3.391789913,-2.713431835,-1.661595941,-1289.100098,8.100000381,-899.7000122,1.293984876,0.13293929,-0.013490162,ST
2.76666666666667,1.344625354,1.628145218,9.485949516,4.527467728,-2.408551931,-1.394825935,-1286.700073,3.900000095,-904.500061,1.314126873,0.141028857,-0.144895897,ST
2.8,0.286510497,3.195279837,10.31617165,5.907049656,-4.077769756,-1.013725996,-1291.5,4.5,-904.500061,1.330446514,0.052670144,-0.281264005,ST
2.83333333333333,-0.233275756,3.346609831,9.317871094,6.097599983,-6.707359791,0.556405962,-1308.300049,5.100000381,-890.1000366,1.335150654,0.001000381,-0.340511633,ST
2.86666666666667,0.627451956,3.783852339,9.063062668,5.251557827,-5.975647926,0.838419974,-1308.300049,2.100000143,-885.3000488,1.33984385,0.061765865,-0.393967992,ST
2.9,2.363861084,3.15580225,10.14809322,3.201239824,-6.768335819,-0.068598002,-1313.100098,-2.700000048,-863.7000122,1.335388486,0.201885489,-0.322664076,ST
2.93333333333333,2.796318293,3.107950926,10.03683949,1.722571969,-6.859799862,-1.379581928,-1320.300049,-4.5,-868.500061,1.339116297,0.25769974,-0.308217936,ST
2.96666666666667,2.463152647,3.320291519,9.718029022,0.91463995,-5.777475834,-1.227141976,-1334.700073,-1.5,-851.7000122,1.349987969,0.247006325,-0.327351732,ST
3.0,2.020526886,2.947648525,9.294543266,2.08842802,-4.588443756,-0.899396002,-1344.300049,-2.100000143,-849.3000488,1.351137109,0.218622749,-0.314784915,ST
3.03333333333333,1.705903769,3.337039709,7.662211418,2.591480017,-5.663146019,-1.196653962,-1334.700073,1.5,-849.3000488,1.374154469,0.211770274,-0.395968361,ST
3.06666666666667,2.813664436,3.576296806,8.275307655,0.670735955,-2.850627899,0.853663981,-1358.700073,-6.300000191,-846.9000244,1.377118731,0.28834097,-0.40653535,ST
3.1,4.125990391,3.3442173,9.399218559,-0.099086002,-4.260697842,-0.137196004,-1361.100098,-2.700000048,-844.500061,1.364379808,0.376828426,-0.355999477,ST
3.13333333333333,4.953221798,3.164176226,10.10682201,-1.387203932,-2.294221878,-0.083841994,-1356.300049,-2.700000048,-842.1000366,1.350444708,0.428337939,-0.312781252,ST
3.16666666666667,5.310313225,3.093595505,10.03025913,-1.684461951,-0.228659987,-0.510674,-1358.700073,0.900000036,-844.500061,1.347763604,0.46039159,-0.299974935,ST
3.2,5.350389004,2.741289139,9.72700119,-2.461905956,1.951231956,-1.272873998,-1358.700073,-5.700000286,-842.1000366,1.341253877,0.478480298,-0.276898375,ST
3.23333333333333,4.133167744,2.543303967,10.49920368,-1.928365946,4.916189671,-1.486289978,-1349.100098,-0.900000036,-854.1000366,1.328939322,0.376952459,-0.241294028,ST
3.26666666666667,3.551174879,1.932001829,9.582848549,-2.530503988,9.26072979,-2.050318003,-1341.900024,-0.900000036,-844.500061,1.317540711,0.339966181,-0.202852976,ST
3.3,1.07546103,2.915348768,10.4352026,-3.10977602,13.14032745,-2.080806017,-1325.100098,-5.700000286,-868.500061,1.329094051,0.129549232,-0.254184419,ST
3.33333333333333,0.535936117,3.064884663,9.116296768,-2.408551931,16.35681152,0.274392009,-1315.5,6.900000095,-875.7000122,1.323264354,0.048921169,-0.306379345,ST
3.36666666666667,-1.173556566,1.896113276,10.1451025,-4.115880013,18.05651665,-0.884151995,-1279.5,4.5,-882.9000244,1.317345286,-0.105200999,-0.204027403,ST
3.4,-2.691643476,2.774187088,8.23882103,-2.248489857,15.35832977,-1.8292799,-1257.900024,2.700000048,-897.3000488,1.292598667,-0.287031076,-0.30008507,ST
3.43333333333333,-3.229972124,-0.033496007,7.448674202,-2.903981924,14.13881016,0.40396598,-1226.700073,-0.900000036,-909.3000488,1.370659838,-0.41093735,-0.046105886,ST
3.46666666666667,-3.738991737,1.908076048,7.41996336,-3.368923903,11.5473299,-3.574717999,-1202.700073,-0.900000036,-914.1000366,1.304836066,-0.463425339,-0.203934476,ST
3.5,-3.764113665,2.466741562,6.391157627,-1.166165948,10.02293015,-0.228659987,-1190.700073,1.5,-928.500061,1.23719546,-0.508861016,-0.335262593,ST
3.53333333333333,-3.767702579,1.19808042,9.292151451,-4.222588062,9.695183754,1.082324028,-1178.700073,7.500000477,-923.7000122,1.302862136,-0.421940499,-0.164163151,ST
3.56666666666667,-3.88314414,0.804502308,10.32992935,-2.896359921,8.155539513,-0.304879993,-1154.700073,6.900000095,-923.7000122,1.327342853,-0.382868984,-0.091056048,ST
3.6,-2.941068888,0.180639178,8.468507767,-2.118916035,5.205825806,-0.083841994,-1149.900024,8.100000381,-923.7000122,1.346846003,-0.350017572,-0.029840837,ST
3.63333333333333,-3.37711525,-1.126303196,8.744850159,-2.149404049,5.830830097,-0.990859985,-1133.100098,6.900000095,-930.9000244,1.39340648,-0.371307904,0.099724594,ST
3.66666666666667,-5.308518887,-1.006076455,8.24659729,-1.63872993,4.062525749,-1.676839948,-1137.900024,6.900000095,-923.7000122,1.405299642,-0.533796773,0.120384487,ST
3.7,-5.863595486,-1.052133441,8.753822327,-1.653973937,5.243936062,-1.478667974,-1130.700073,13.50000095,-926.1000366,1.409308604,-0.583158685,0.123963615,ST
3.73333333333333,-4.242628098,-0.68008858,8.325551987,-1.135677934,4.496979713,-0.602137983,-1113.900024,10.5,-918.9000244,1.393606532,-0.498976773,0.091902121,ST
3.76666666666667,-4.243226051,-0.906784773,8.0103302,-0.525918007,3.536607981,-1.135677934,-1109.100098,9.900000572,-930.9000244,1.40484506,-0.492175238,0.110416192,ST
3.8,-4.894005775,0.586180091,8.677858353,-0.457319975,2.339953899,-1.257629991,-1089.900024,4.5,-923.7000122,1.3366464,-0.513558928,-0.0357064,ST
3.83333333333333,-4.33952713,-0.451597929,10.47886658,-0.335367978,-0.739333987,0.434453994,-1101.900024,9.300000191,-928.500061,1.364051502,-0.415891594,0.028022078,ST
3.86666666666667,-2.876469612,-2.776579618,8.516359329,1.272873998,-2.461905956,-0.060975999,-1106.700073,8.700000763,-928.500061,1.448063645,-0.331319775,0.256200196,ST
3.9,-6.483870029,-2.535527945,8.85849762,-0.266770005,3.117398024,-0.182927996,-1101.900024,14.10000038,-926.1000366,1.458411675,-0.566292086,0.275159677,ST
3.93333333333333,-8.217288017,-2.66412878,13.0191803,-1.333850026,1.524399996,-0.480185986,-1101.900024,6.900000095,-928.500061,1.428472277,-0.558467032,0.219045158,ST
3.96666666666667,-5.602207184,-3.356778383,9.337610245,2.698187828,-0.182927996,1.8292799,-1104.300049,5.700000286,-916.500061,1.47881852,-0.523094432,0.317638519,ST
4.0,-6.711762428,-2.164081335,8.629408836,1.23476398,2.080806017,2.324709892,-1104.300049,12.90000057,-918.9000244,1.443453398,-0.628218736,0.255976658,ST
4.03333333333333,-6.06038475,-2.476311922,11.13861847,-0.480185986,0.083841994,4.588443756,-1099.5,4.5,-916.500061,1.41519234,-0.514831515,0.221677101,ST
4.06666666666667,-5.51128912,-2.938676357,10.765975,-2.728675842,-1.562510014,2.850627899,-1082.700073,8.700000763,-921.3000488,1.42354721,-0.468951564,0.25914347,ST
4.1,-3.674392223,-2.074359894,11.29114532,-1.242385983,-0.518296003,2.164648056,-1099.5,4.5,-916.500061,1.393157822,-0.341975289,0.196882173,ST
4.13333333333333,-2.272943258,-1.740596056,9.165345192,0.030487999,0.228659987,1.821658015,-1099.5,12.90000057,-928.500061,1.386928861,-0.260535832,0.188715792,ST
4.16666666666667,-1.937983274,-1.253109574,7.573088169,1.318606019,1.067080021,1.242385983,-1099.5,9.900000572,-914.1000366,1.379824153,-0.251743271,0.166732884,ST
4.2,-2.045649052,-1.087423921,6.79669857,3.208861828,0.434453994,1.257629991,-1101.900024,8.100000381,-909.3000488,1.375978469,-0.283562771,0.154862931,ST
4.23333333333333,-2.214923382,-0.24822934,6.330147266,2.995445967,-0.983237982,0.632625997,-1106.700073,2.700000048,-926.1000366,1.346613525,-0.325882103,0.055518366,ST
4.26666666666667,-1.348812342,-0.239257187,6.499421597,2.332331896,-1.913121939,0.762199998,-1109.100098,5.700000286,-916.500061,1.341051327,-0.224871187,0.036629275,ST
4.3,-1.611995339,0.300267786,6.906158924,1.440557957,-0.137196004,0.205793992,-1092.300049,11.10000038,-918.9000244,1.326087894,-0.228250421,-0.031277644,ST
4.33333333333333,-3.493753195,1.167575121,8.593520164,0.373477995,0.929883957,1.775925994,-1104.300049,3.300000191,-923.7000122,1.298381431,-0.352873342,-0.114560434,ST
4.36666666666667,-2.920134068,0.854148149,8.986499786,0.144817993,0.693601966,2.027451992,-1109.100098,5.700000286,-918.9000244,1.298512217,-0.319872785,-0.099102855,ST
4.4,-4.346107006,1.009067178,9.040930748,-0.304879993,0.251525998,0.640248001,-1099.5,5.100000381,-918.9000244,1.293188512,-0.423356317,-0.108919292,ST
4.43333333333333,-5.056700706,1.283614874,9.603783607,-0.503051996,-1.013725996,1.021348,-1099.5,8.100000381,-914.1000366,1.282681501,-0.467807546,-0.127838728,ST
4.46666666666667,-2.935087442,0.376231939,7.396038055,0.594515979,0.137196004,1.509155989,-1094.700073,9.300000191,-916.500061,1.30558142,-0.394673509,-0.066768753,ST
4.5,-3.270047665,0.459971935,6.555646896,0.29725799,0.701223969,0.259148002,-1106.700073,3.900000095,-923.7000122,1.30389934,-0.449123261,-0.070008451,ST
4.53333333333333,-4.249805927,-0.794932008,8.786122322,0.640248001,0.472563982,-0.251525998,-1101.900024,-2.100000143,-923.7000122,1.36117187,-0.45047435,0.058933492,ST
4.56666666666667,-2.679082394,0.133385882,7.584453106,4.649419785,-1.730193973,-3.231727839,-1106.700073,5.700000286,-923.7000122,1.345992811,-0.358226864,-0.008349758,ST
4.6,-5.063280106,0.876279473,8.390749931,2.652456045,-0.868907988,-2.126538038,-1106.700073,5.100000381,-923.7000122,1.320877287,-0.502647287,-0.08545852,ST
4.63333333333333,-5.280405998,0.130395174,10.30062008,3.00306797,0.457319975,-1.295740008,-1097.100098,2.100000143,-916.500061,1.354786241,-0.47916757,-0.027405942,ST
4.66666666666667,-5.690732002,0.555674791,8.890198708,3.673803806,1.120433927,-3.38416791,-1094.700073,5.100000381,-921.3000488,1.350809348,-0.552228912,-0.057509237,ST
4.7,-6.192574024,0.907981038,7.260259151,3.963439941,2.957335949,-2.530503988,-1094.700073,5.700000286,-914.1000366,1.328384903,-0.676377051,-0.113051763,ST
4.73333333333333,-8.007340431,0.21892032,9.335217476,0.221037999,1.8292799,-1.158543944,-1094.700073,1.5,-914.1000366,1.379285952,-0.706777566,-0.036956952,ST
4.76666666666667,-5.934176445,-0.306249201,8.025882721,0.701223969,0.274392009,-1.265251994,-1087.5,7.500000477,-923.7000122,1.420917146,-0.651107232,0.024061232,ST
4.8,-6.028683186,0.732725143,7.154387951,0.42683199,1.844523907,-1.577754021,-1097.100098,2.100000143,-916.500061,1.362726487,-0.691589777,-0.074819295,ST
4.83333333333333,-5.129673958,0.418700069,7.901468754,2.675322056,2.652456045,-0.388722003,-1063.5,4.5,-914.1000366,1.376383086,-0.597427207,-0.05985224,ST
4.86666666666667,-6.354072571,1.169967651,8.278897285,2.324709892,-0.61738199,0.243903995,-1070.700073,2.100000143,-918.9000244,1.340178059,-0.638584863,-0.127077777,ST
4.9,-4.91434288,1.801606655,7.318279266,1.257629991,-1.592997909,0.304879993,-1077.900024,-0.900000036,-906.9000244,1.287683459,-0.588296052,-0.220915723,ST
4.93333333333333,-5.504709721,1.825532317,7.86019659,-0.144817993,0.213415995,1.158543944,-1085.100098,3.300000191,-911.7000122,1.281495912,-0.596500566,-0.227635437,ST
4.96666666666667,-5.730209827,1.860822797,8.542079926,-0.876529992,-0.106707998,0.746955991,-1082.700073,-1.5,-909.3000488,1.285189316,-0.583111573,-0.216551328,ST
5.0,-5.428745747,1.509114742,8.532509804,-0.381099999,0.632625997,-0.167683989,-1082.700073,-3.900000095,-911.7000122,1.303157001,-0.565376818,-0.182744338,ST
5.03333333333333,-6.339119434,1.141256809,8.062369347,-0.457319975,0.396344006,-1.600619912,-1075.5,-2.100000143,-918.9000244,1.325443348,-0.642984983,-0.147542101,ST
5.06666666666667,-6.553852558,0.978561878,7.564713955,-0.945127964,0.80793196,-0.769822001,-1075.5,-2.700000048,-928.500061,1.336123934,-0.69914961,-0.130086011,ST
5.1,-5.859408379,-0.388194799,6.330147266,-1.265251994,1.12805593,-1.089946032,-1073.100098,2.100000143,-911.7000122,1.439227009,-0.740053426,0.026552707,ST
5.13333333333333,-6.957599163,0.035290435,6.893597603,-1.181409955,0.213415995,-1.760681987,-1075.5,3.900000095,-914.1000366,1.42585429,-0.780248362,0.005572698,ST
5.16666666666667,-5.935970783,-1.248922467,6.121395111,-0.967993975,-0.144817993,0.61738199,-1068.300049,2.700000048,-909.3000488,1.532994379,-0.765521179,0.162733376,ST
5.2,-6.944439888,-0.36486721,6.872662544,-1.943609953,-0.495429993,0.068598002,-1080.300049,5.700000286,-921.3000488,1.469354782,-0.785118941,0.076845662,ST
5.23333333333333,-5.924007893,-0.116637878,8.805262566,-1.082324028,-2.461905956,5.419241905,-1082.700073,3.300000191,-914.1000366,1.420970556,-0.627914654,0.019667023,ST
5.26666666666667,-4.085316658,-1.257296562,7.414580345,-1.417691946,-3.224105835,2.881115913,-1089.900024,12.90000057,-914.1000366,1.478720873,-0.519095904,0.140671638,ST
5.3,-5.832491875,-0.503038228,8.432021141,-1.836901903,-1.585376024,1.478667974,-1085.100098,-0.300000012,-930.9000244,1.440266096,-0.585379344,0.077832169,ST
5.33333333333333,-6.793707848,-0.035290435,6.754828453,0.663114011,-1.135677934,2.408551931,-1085.100098,5.100000381,-923.7000122,1.39984046,-0.74562864,0.018002187,ST
5.36666666666667,-5.960494518,-0.721958578,5.937167168,0.228659987,-0.708845973,3.094532013,-1097.100098,2.100000143,-916.500061,1.448027497,-0.775849162,0.094926613,ST
5.4,-6.448579311,-0.543113828,6.654938698,-1.265251994,-0.373477995,1.371959925,-1097.100098,-0.300000012,-916.500061,1.436053402,-0.769229684,0.083998535,ST
5.43333333333333,-6.573591232,-0.119628593,6.59691906,-0.586893976,-2.454283953,2.042695999,-1094.700073,8.100000381,-918.9000244,1.393384189,-0.777547297,0.029454697,ST
5.46666666666667,-5.123094559,-0.457579374,6.629218578,-1.547266006,-2.004585981,3.125020027,-1094.700073,9.300000191,-923.7000122,1.405829748,-0.678545806,0.05985149,ST
5.5,-5.709872723,-0.377428204,6.584956169,-1.714949965,-2.06556201,2.759163857,-1101.900024,8.100000381,-928.500061,1.39627725,-0.703826739,0.056820045,ST
5.53333333333333,-5.093187332,0.476121813,6.817035675,-1.532021999,-0.891773999,2.271355867,-1109.100098,8.700000763,-926.1000366,1.323414027,-0.651036362,-0.048554133,ST
5.56666666666667,-5.173338413,0.196190894,7.003057957,-1.34147191,-1.303362012,1.928365946,-1113.900024,3.900000095,-926.1000366,1.327883076,-0.636775362,-0.031732357,ST
5.6,-5.959298611,0.201574177,8.245400429,-0.91463995,-1.105189919,1.55488801,-1097.100098,5.700000286,-930.9000244,1.327090059,-0.62631947,-0.026174419,ST
5.63333333333333,-5.657236099,-0.281725347,8.370412827,-1.692083955,-2.263733864,0.739333987,-1094.700073,5.700000286,-928.500061,1.35194376,-0.597554597,0.023390962,ST
5.66666666666667,-5.218797207,-0.546702683,8.1221838,-1.189031959,-2.606724024,0.746955991,-1109.100098,11.70000076,-926.1000366,1.368640902,-0.572107418,0.059339325,ST
5.7,-4.87606144,-1.47083354,7.52164793,-1.516777992,-1.204275966,1.067080021,-1121.100098,14.70000076,-923.7000122,1.42327534,-0.566867803,0.168695672,ST
5.73333333333333,-6.513776779,-0.21772404,10.16543961,-2.393307924,-2.118916035,1.067080021,-1106.700073,9.900000572,-933.3000488,1.355699152,-0.567271256,0.053346983,ST
5.76666666666667,-2.755046606,-1.086825728,8.59950161,-0.663114011,-3.62045002,3.589962006,-1121.100098,11.70000076,-921.3000488,1.372849181,-0.349706801,0.112193721,ST
5.8,-1.885944843,-1.564143896,9.086988449,-1.42531395,-2.614346027,1.859767914,-1118.700073,10.5,-923.7000122,1.380774637,-0.228471075,0.160168742,ST
5.83333333333333,-2.899199009,-1.662837505,8.01391983,-0.998481989,-1.653973937,-0.175305992,-1125.900024,14.10000038,-926.1000366,1.389863947,-0.316812818,0.197219253,ST
5.86666666666667,-3.219205379,-1.535433054,9.27659893,-0.632625997,-0.015244,1.051836014,-1125.900024,14.10000038,-921.3000488,1.37846374,-0.327806148,0.170377637,ST
5.9,-3.093595505,-1.717268467,9.08878231,-0.266770005,-0.785066009,1.653973937,-1121.100098,14.70000076,-923.7000122,1.378245252,-0.322922693,0.183524981,ST
5.93333333333333,-4.147523403,-0.743491709,9.818516731,-1.097568035,-0.670735955,1.478667974,-1133.100098,6.900000095,-928.500061,1.342800577,-0.385547647,0.094894451,ST
5.96666666666667,-4.181617737,-0.467149675,10.0984478,-0.167683989,-0.434453994,2.797273874,-1133.100098,18.30000114,-930.9000244,1.321399752,-0.390594903,0.054665394,ST
6.0,-3.633120298,-0.401952088,11.1619463,-0.495429993,-0.365855992,2.393307924,-1140.300049,7.500000477,-938.1000366,1.309619331,-0.32685792,0.038495716,ST
6.03333333333333,-3.9537251,-0.709995687,11.53279495,0.312501997,2.027451992,1.791170001,-1125.900024,13.50000095,-933.3000488,1.31169732,-0.332082259,0.055611956,ST
6.06666666666667,-4.033876419,-1.425972819,10.1642437,2.149404049,4.146368027,0.457319975,-1113.900024,17.70000076,-923.7000122,1.335925883,-0.373072784,0.121091806,ST
6.1,-4.83897686,-1.011459708,9.780834198,2.347575903,4.718018055,-0.655492008,-1111.5,20.10000038,-926.1000366,1.333863104,-0.446732343,0.104215003,ST
6.13333333333333,-5.806771755,-0.47313109,8.124575615,2.118916035,3.879597902,-0.411587983,-1125.900024,9.900000572,-921.3000488,1.318762722,-0.589965116,0.065779376,ST
6.16666666666667,-6.006551743,-0.419298232,7.560527325,1.028970003,3.437521935,0.91463995,-1104.300049,5.700000286,-928.500061,1.312580981,-0.661147804,0.055037393,ST
6.2,-4.949633121,-0.082543731,6.021505356,1.783547997,2.522881985,1.371959925,-1094.700073,6.900000095,-923.7000122,1.288869491,-0.687220576,0.016603478,ST
6.23333333333333,-5.434727192,-0.726145566,7.007245064,1.211897969,3.041177988,0.868907988,-1097.100098,11.10000038,-928.500061,1.332043622,-0.667507112,0.084725849,ST
6.26666666666667,-5.869576931,-0.286510497,6.35646534,1.051836014,1.600619912,-1.783547997,-1099.5,14.10000038,-921.3000488,1.316891369,-0.734230308,0.052918326,ST
6.3,-6.527534008,0.029309006,6.540095329,0.701223969,1.539644003,-0.068598002,-1099.5,7.500000477,-930.9000244,1.285171217,-0.77833535,0.004625469,ST
6.33333333333333,-6.558637619,0.074169725,6.321175098,0.144817993,1.04421401,1.265251994,-1094.700073,8.700000763,-921.3000488,1.272695676,-0.800114282,-0.01039024,ST
6.36666666666667,-6.249397755,-0.266173631,6.351081848,-0.358233988,0.80793196,0.838419974,-1085.100098,11.10000038,-923.7000122,1.301181783,-0.782086443,0.032624171,ST
6.4,-6.599311352,-0.477318078,6.17283535,-0.030487999,1.059458017,-0.518296003,-1087.5,16.5,-911.7000122,1.32791399,-0.811694497,0.068782104,ST
6.43333333333333,-6.997076511,-0.500047505,6.632209301,0.190549999,-0.29725799,-0.060975999,-1080.300049,8.100000381,-928.500061,1.332077855,-0.810470951,0.073951894,ST
6.46666666666667,-6.495234489,-0.7554546,7.640678406,-0.289635986,-1.814036012,0.190549999,-1077.900024,9.300000191,-928.500061,1.344935751,-0.721444501,0.093848351,ST
6.5,-5.832491875,-1.22140789,7.518657207,0.198172003,-1.692083955,-0.769822001,-1089.900024,5.700000286,-916.500061,1.381086222,-0.664869025,0.148376808,ST
6.53333333333333,-6.138741493,-0.818259597,8.007938385,-0.083841994,-1.814036012,-0.388722003,-1097.100098,3.900000095,-921.3000488,1.358628504,-0.651728054,0.111423429,ST
6.56666666666667,-5.41738081,-1.129892111,8.196352959,-0.053353999,-0.868907988,1.067080021,-1101.900024,8.100000381,-923.7000122,1.367800384,-0.593217562,0.130969038,ST
6.6,-5.250498772,-1.293783188,9.039136887,0.007622,-0.083841994,1.539644003,-1099.5,8.100000381,-911.7000122,1.368949369,-0.536383716,0.138648887,ST
6.63333333333333,-4.400537968,-1.421187758,9.299926758,-0.350611985,-0.80793196,1.356715918,-1094.700073,1.5,-926.1000366,1.370349448,-0.456585367,0.148532557,ST
6.66666666666667,-4.063783169,-1.504329562,9.360339165,-0.358233988,-0.967993975,0.800309956,-1094.700073,0.900000036,-914.1000366,1.371664469,-0.414195908,0.157108356,ST
6.7,-3.901686668,-1.553377271,9.345983505,-0.342989981,-0.411587983,0.647870004,-1104.300049,-2.100000143,-909.3000488,1.372256323,-0.394695591,0.163334864,ST
6.73333333333333,-3.854433298,-1.53902185,8.969752312,-0.42683199,0.076219998,0.762199998,-1099.5,4.5,-918.9000244,1.372374706,-0.399783782,0.168835464,ST
6.76666666666667,-4.716357231,-1.17654717,8.760401726,0.114329994,0.487807989,1.326228023,-1094.700073,8.700000763,-921.3000488,1.356855646,-0.475972886,0.138591796,ST
6.8,-5.438913822,-0.9719823,8.935657501,0.716467977,0.693601966,2.103672028,-1094.700073,7.500000477,-930.9000244,1.340787908,-0.531740652,0.112023102,ST
6.83333333333333,-5.310911655,-1.184323072,9.438097954,1.196653962,1.013725996,2.500015974,-1101.900024,2.700000048,-916.500061,1.340748926,-0.515335375,0.118833673,ST
6.86666666666667,-5.527439117,-0.482103229,10.23063755,0.93750596,1.067080021,3.841487885,-1106.700073,5.100000381,-911.7000122,1.30424635,-0.501055955,0.05716545,ST
6.9,-5.701498985,0.082543731,9.800572395,1.150921941,-1.143299937,4.390272141,-1089.900024,3.900000095,-926.1000366,1.268611623,-0.520316984,-0.000149262,ST
6.93333333333333,-4.775573254,0.631639004,6.783539295,1.95885396,-0.114329994,2.507637978,-1106.700073,2.700000048,-923.7000122,1.224808738,-0.592875152,-0.078271313,ST
6.96666666666667,-5.169749737,0.669322014,5.470017433,1.219519973,2.461905956,1.577754021,-1099.5,9.300000191,-918.9000244,1.200193783,-0.72399287,-0.116066079,ST
7.0,-7.262053967,0.984543324,5.814548016,-0.861285985,3.803377867,1.295740008,-1092.300049,4.5,-930.9000244,1.1664347,-0.860194726,-0.157621055,ST
7.03333333333333,-6.287678719,0.141759887,7.462431908,-0.556405962,1.608241916,1.996963978,-1089.900024,3.900000095,-914.1000366,1.245736144,-0.727974639,-0.040242397,ST
7.06666666666667,-6.270332813,1.312325716,6.942047119,0.198172003,-0.228659987,2.187514067,-1075.5,5.100000381,-914.1000366,1.162373864,-0.726457704,-0.160321034,ST
7.1,-6.153096676,1.152023315,6.564021111,0.259148002,-0.701223969,3.833865881,-1073.100098,-2.100000143,-916.500061,1.146014943,-0.739815108,-0.175993244,ST
7.13333333333333,-6.456355095,1.172958374,6.943841934,0.503051996,1.219519973,3.147886038,-1092.300049,6.900000095,-899.7000122,1.142502635,-0.742501048,-0.1740159,ST
7.16666666666667,-6.499421597,1.584480762,5.575888634,1.23476398,1.265251994,3.612828016,-1080.300049,3.300000191,-902.1000366,1.076484588,-0.823077368,-0.261720183,ST
7.2,-6.171638966,1.954133034,5.12847805,0.586893976,2.324709892,1.326228023,-1087.5,3.900000095,-906.9000244,1.010307113,-0.842858253,-0.348303357,ST
7.23333333333333,-6.095674992,1.824934244,5.658432484,0.289635986,1.821658015,0.967993975,-1073.100098,-0.900000036,-897.3000488,1.028066927,-0.808942789,-0.321627829,ST
7.26666666666667,-5.718844891,1.454683661,6.893597603,-0.868907988,0.099086002,-0.175305992,-1075.5,5.100000381,-887.7000122,1.091922494,-0.707975328,-0.227526929,ST
7.3,-5.060887814,1.47083354,8.229848862,-1.150921941,-0.952749968,-1.501533985,-1058.700073,7.500000477,-902.1000366,1.120159574,-0.57634357,-0.183168578,ST
7.33333333333333,-5.936569214,1.131088376,9.05827713,-0.602137983,-0.076219998,-1.04421401,-1065.900024,5.100000381,-897.3000488,1.148880984,-0.576778642,-0.132923379,ST
7.36666666666667,-5.493345261,0.948654771,9.153382301,0.655492008,0.121951997,-1.394825935,-1068.300049,5.100000381,-894.9000244,1.165740578,-0.545486117,-0.1081876,ST
7.4,-5.347398281,0.918747604,8.637783051,0.907018006,-0.388722003,-2.751541853,-1065.900024,3.900000095,-887.7000122,1.173786242,-0.550401961,-0.105310599,ST
7.43333333333333,-5.542392731,0.708201289,7.924198151,1.196653962,-0.175305992,-3.437521935,-1056.300049,5.100000381,-894.9000244,1.189683355,-0.596949738,-0.091025594,ST
7.46666666666667,-4.859313488,0.278136492,8.231643677,1.577754021,-0.335367978,-2.347575903,-1077.900024,0.300000012,-902.1000366,1.222658778,-0.543545248,-0.043230193,ST
7.5,-5.516672611,0.199181616,7.93077755,1.859767914,-0.358233988,-1.524399996,-1061.100098,2.700000048,-887.7000122,1.235011028,-0.594252783,-0.030132054,ST
7.53333333333333,-5.864193916,0.276342064,7.757316113,0.876529992,-0.015244,-0.716467977,-1070.700073,9.300000191,-899.7000122,1.234728772,-0.636352526,-0.034992956,ST
7.56666666666667,-5.615964413,0.635825992,8.574379921,-0.106707998,-0.373477995,-2.096050024,-1061.100098,6.300000191,-887.7000122,1.221711801,-0.589941143,-0.064284767,ST
7.6,-5.129076004,0.476121813,8.222073555,0.221037999,-0.579271972,-1.592997909,-1073.100098,5.100000381,-880.500061,1.228567597,-0.562958379,-0.057984803,ST
7.63333333333333,-5.453867435,0.470140368,8.117398262,0.221037999,-0.388722003,-1.379581928,-1063.5,17.70000076,-897.3000488,1.232133551,-0.584769776,-0.056915653,ST
7.66666666666667,-6.129769325,0.558665514,7.88591671,0.457319975,0.160062,-1.158543944,-1049.100098,6.900000095,-899.7000122,1.228917644,-0.644741101,-0.067320672,ST
7.7,-6.016720295,0.164489314,7.631706238,0.701223969,0.243903995,-2.149404049,-1061.100098,8.100000381,-906.9000244,1.256741731,-0.663453231,-0.029601342,ST
7.73333333333333,-5.680563927,0.250023752,6.708771706,1.028970003,0.647870004,-2.36281991,-1070.700073,15.30000019,-894.9000244,1.259521409,-0.695900839,-0.034505094,ST
7.76666666666667,-5.979037285,0.050842151,7.082611084,0.945127964,0.884151995,-1.387203932,-1065.900024,8.100000381,-897.3000488,1.277533616,-0.701347338,-0.012414693,ST
7.8,-6.453364372,-0.358287632,7.36373806,0.998481989,0.342989981,-1.04421401,-1061.100098,8.700000763,-906.9000244,1.314030261,-0.716651479,0.038082306,ST
7.83333333333333,-6.938458443,-0.079553016,7.163958549,0.274392009,-0.434453994,-1.242385983,-1053.900024,14.70000076,-909.3000488,1.303045287,-0.758112384,0.017972754,ST
7.86666666666667,-6.717145443,-0.337352633,7.239922523,-0.282013983,-0.480185986,-0.259148002,-1049.100098,8.100000381,-902.1000366,1.319142178,-0.748924452,0.041549049,ST
7.9,-6.266744137,-0.419298232,7.324858665,-1.097568035,-1.250007987,-0.541162014,-1046.700073,11.70000076,-911.7000122,1.328296755,-0.71256095,0.05661927,ST
7.93333333333333,-6.129769325,-0.231481329,7.476189137,-1.265251994,-0.952749968,-0.198172003,-1063.5,7.500000477,-914.1000366,1.314642946,-0.690461008,0.0379621,ST
7.96666666666667,-5.557944298,0.06459944,7.920608997,-1.143299937,-1.34147191,-0.602137983,-1056.300049,14.70000076,-918.9000244,1.291995116,-0.624007431,0.001849805,ST
8.0,-5.476596832,-0.686069965,8.254971504,-0.312501997,-0.853663981,-0.800309956,-1063.5,9.900000572,-909.3000488,1.33194111,-0.590234118,0.069919002,ST
8.03333333333333,-6.206929684,-0.619077981,8.962574005,0.320124,-0.876529992,-1.082324028,-1058.700073,9.900000572,-916.500061,1.33430209,-0.600661616,0.069672082,ST
8.06666666666667,-6.268538475,-0.181237325,8.752027512,0.373477995,-1.996963978,0.282013983,-1068.300049,14.10000038,-909.3000488,1.311315654,-0.614580592,0.029828108,ST
8.1,-5.60579586,-0.167480037,8.679652214,0.312501997,-1.943609953,1.204275966,-1058.700073,11.10000038,-933.3000488,1.303545105,-0.578469559,0.019621511,ST
8.13333333333333,-4.357471466,-0.000598143,8.399123192,1.42531395,-0.038109999,0.358233988,-1058.700073,6.900000095,-923.7000122,1.295256564,-0.498633401,0.001515285,ST
8.16666666666667,-4.478894711,0.016748004,9.02358532,2.057940006,1.082324028,-0.503051996,-1068.300049,5.700000286,-921.3000488,1.296067915,-0.469871608,-0.003689686,ST
8.2,-3.985426664,-0.361278355,8.223867416,3.147886038,0.579271972,-1.577754021,-1065.900024,10.5,-918.9000244,1.318094637,-0.455569875,0.031095372,ST
8.23333333333333,-4.991503239,-0.590965271,7.611967564,4.13112402,2.431417942,-0.72408998,-1065.900024,11.70000076,-914.1000366,1.340950298,-0.561716589,0.063724758,ST
8.26666666666667,-5.245713711,0.006579573,6.99887085,2.942091942,2.118916035,2.317087889,-1056.300049,6.300000191,-914.1000366,1.308241625,-0.629868891,0.006284628,ST
8.3,-5.498728275,0.208751902,7.347588062,1.913121939,0.571649969,2.606724024,-1051.5,-3.300000191,-909.3000488,1.285040696,-0.641103056,-0.028582163,ST
8.33333333333333,-7.068853855,0.97437489,7.103546143,0.350611985,-1.631107926,2.454283953,-1053.900024,0.900000036,-906.9000244,1.223565122,-0.751322928,-0.118486613,ST
8.36666666666667,-6.881036758,1.120321751,5.941354275,0.731711984,0.579271972,2.301843882,-1075.5,8.100000381,-911.7000122,1.18000921,-0.830349187,-0.17611976,ST
8.4,-8.463125229,1.844074726,6.379793167,-0.548784018,1.021348,1.509155989,-1053.900024,8.100000381,-906.9000244,1.112359388,-0.891554212,-0.260730482,ST
8.43333333333333,-8.038443565,2.307635546,6.922308445,-0.61738199,-0.716467977,1.897877932,-1053.900024,6.300000191,-933.3000488,1.069775797,-0.843753928,-0.311898541,ST
8.46666666666667,-6.009542465,2.159894228,7.335625172,-0.42683199,-1.928365946,2.57623601,-1051.5,9.300000191,-914.1000366,1.079411286,-0.693816669,-0.292441031,ST
8.5,-5.781650066,2.62644577,7.84404707,-0.160062,-2.926847935,2.46952796,-1070.700073,11.70000076,-921.3000488,1.060477998,-0.621931859,-0.318581637,ST
8.53333333333333,-4.478894711,2.756840944,7.071246147,-0.068598002,-1.219519973,3.079288006,-1063.5,9.300000191,-918.9000244,1.030617114,-0.547999925,-0.363680064,ST
8.56666666666667,-4.696020603,2.91355443,6.997076511,-0.609759986,0.891773999,3.064043999,-1075.5,7.500000477,-909.3000488,1.009356547,-0.552995556,-0.390583581,ST
8.6,-4.501624107,2.856730938,7.580863953,-0.945127964,0.769822001,1.95885396,-1075.5,12.90000057,-918.9000244,1.016250246,-0.515881706,-0.36637685,ST
8.63333333333333,-5.707480431,2.229278803,7.925394535,-0.251525998,-0.396344006,-1.577754021,-1065.900024,12.90000057,-928.500061,1.059518127,-0.590413371,-0.289751165,ST
8.66666666666667,-6.296650887,1.47322619,7.746549606,0.586893976,0.556405962,-2.652456045,-1068.300049,8.700000763,-906.9000244,1.112669478,-0.658954533,-0.207929056,ST
8.7,-7.040142536,1.499544382,8.373403549,0.762199998,0.236281991,-2.934469938,-1056.300049,6.300000191,-906.9000244,1.13537093,-0.685932564,-0.181414809,ST
8.73333333333333,-6.650153637,1.216622829,8.503200531,1.95885396,0.251525998,-2.278977871,-1056.300049,6.900000095,-926.1000366,1.161696884,-0.665180886,-0.150177509,ST
8.76666666666667,-5.506504059,1.316512704,8.25078392,1.981719971,-0.381099999,-1.623485923,-1061.100098,3.300000191,-914.1000366,1.162980339,-0.599125477,-0.157839159,ST
8.8,-4.017127991,0.912766159,8.210708618,1.783547997,-1.067080021,-1.905499935,-1051.5,7.500000477,-911.7000122,1.188813904,-0.47925298,-0.120079806,ST
8.83333333333333,-4.488464832,1.341634631,7.84404707,1.623485923,-1.318606019,-2.08842802,-1049.100098,2.700000048,-914.1000366,1.176119391,-0.506404781,-0.161541187,ST
8.86666666666667,-4.798901081,1.11075151,7.668192863,1.051836014,-1.227141976,-2.339953899,-1061.100098,1.5,-909.3000488,1.189632954,-0.543618323,-0.14693644,ST
8.9,-5.336631775,0.643601835,7.479179859,0.449698001,-1.143299937,-3.643316031,-1056.300049,1.5,-921.3000488,1.225105046,-0.602064238,-0.095912457,ST
8.93333333333333,-5.931185722,0.859531462,8.035452843,1.120433927,-0.990859985,-2.301843882,-1070.700073,11.70000076,-921.3000488,1.22668492,-0.625823433,-0.103562166,ST
8.96666666666667,-6.060982704,0.495860517,8.695802689,0.678357959,-2.606724024,-1.737815976,-1063.5,5.700000286,-916.500061,1.253370101,-0.608193912,-0.06534068,ST
9.0,-4.887426376,0.365465343,8.123379707,0.663114011,-3.079288006,-2.218001842,-1063.5,5.700000286,-909.3000488,1.268448492,-0.550556611,-0.047785434,ST
9.03333333333333,-5.36833334,0.254808903,7.79918623,0.022865999,-3.155508041,-2.568614006,-1070.700073,3.900000095,-911.7000122,1.281459289,-0.587829085,-0.033403482,ST
9.06666666666667,-6.081917763,-0.173461467,6.633405685,-1.501533985,-3.330813885,-2.355197906,-1080.300049,5.700000286,-918.9000244,1.314477652,-0.706026005,0.017347424,ST
9.1,-6.583161354,-0.437242508,8.135940552,-4.375028133,-4.748506069,-2.035073996,-1082.700073,7.500000477,-923.7000122,1.33513365,-0.678200794,0.054608047,ST
9.13333333333333,-5.294761658,-1.591658473,7.960086823,-4.207344055,-4.596065998,0.129574001,-1080.300049,6.900000095,-916.500061,1.399725549,-0.592603545,0.175017499,ST
9.16666666666667,-4.689440727,-2.290289402,8.514565468,-3.521363974,-3.00306797,0.846041977,-1075.5,12.90000057,-923.7000122,1.431551149,-0.506195046,0.249489622,ST
9.2,-4.360462189,-1.998993754,8.555238724,-1.288118005,-3.163130045,0.891773999,-1104.300049,13.50000095,-914.1000366,1.419675909,-0.465875332,0.234100841,ST
9.23333333333333,-4.198365688,-2.046845198,8.328542709,-0.213415995,-1.410069942,1.509155989,-1082.700073,14.70000076,-938.1000366,1.41777811,-0.455963664,0.238664134,ST
9.26666666666667,-5.401230812,-1.578499317,9.52722168,-0.137196004,-1.516777992,1.699705958,-1111.5,12.90000057,-926.1000366,1.384735196,-0.498841516,0.176515033,ST
9.3,-4.322181225,-1.507918477,9.697691917,0.907018006,-1.135677934,2.652456045,-1101.900024,3.300000191,-928.500061,1.370187848,-0.429781849,0.155132923,ST
9.33333333333333,-4.091896057,-1.419991374,9.203027725,1.051836014,-0.53354001,2.530503988,-1109.100098,9.300000191,-923.7000122,1.363824815,-0.416996082,0.150424806,ST
9.36666666666667,-3.647475958,-0.674107134,8.826197624,0.693601966,0.152439997,3.125020027,-1111.5,11.10000038,-918.9000244,1.333275605,-0.396954469,0.088199448,ST
9.4,-3.488369703,-0.741099119,9.088184357,1.074702024,1.463423967,3.81099987,-1109.100098,15.90000057,-923.7000122,1.322450848,-0.373551193,0.078927204,ST
9.43333333333333,-3.74437499,-0.554478526,8.330337524,1.364337921,1.905499935,3.140264034,-1106.700073,4.5,-935.7000122,1.312056999,-0.414867032,0.065310084,ST
9.46666666666667,-3.724636316,-0.146545023,8.35904789,0.609759986,0.53354001,2.76678586,-1087.5,7.500000477,-923.7000122,1.290354734,-0.419210517,0.024606232,ST
9.5,-3.51827693,-0.647788823,8.396731377,0.602137983,0.716467977,3.40703392,-1104.300049,6.900000095,-926.1000366,1.299379097,-0.401798822,0.063675995,ST
9.53333333333333,-3.215018511,-0.520982504,7.88591671,1.257629991,0.564027965,2.507637978,-1099.5,12.30000019,-921.3000488,1.294601214,-0.390305704,0.062313163,ST
9.56666666666667,-4.957408905,-0.168078169,8.174221992,1.943609953,1.440557957,1.935987949,-1092.300049,7.500000477,-926.1000366,1.276522725,-0.515811902,0.025349909,ST
9.6,-6.767987728,0.671116412,8.253774643,1.211897969,-0.083841994,4.367405891,-1089.900024,8.700000763,-918.9000244,1.220632248,-0.650779336,-0.063595169,ST
9.63333333333333,-5.888119221,1.192098975,8.271718979,0.472563982,-1.333850026,5.663146019,-1101.900024,11.10000038,-933.3000488,1.169446867,-0.618685557,-0.133663875,ST
9.66666666666667,-5.852828979,2.074958086,7.85600996,0.068598002,-1.410069942,6.509187698,-1099.5,10.5,-926.1000366,1.094238564,-0.619778891,-0.242202564,ST
9.7,-5.124888897,2.344720364,8.407497406,-0.632625997,-1.875011921,5.74698782,-1094.700073,2.100000143,-930.9000244,1.068375937,-0.544176566,-0.269884122,ST
9.73333333333333,-3.523061991,2.286102533,9.100147247,-0.655492008,-1.524399996,3.27745986,-1109.100098,5.700000286,-930.9000244,1.070237122,-0.393102635,-0.251674005,ST
9.76666666666667,-3.561941385,2.22628808,8.984107018,-0.053353999,-1.257629991,0.106707998,-1113.900024,10.5,-923.7000122,1.073313565,-0.370809246,-0.244478838,ST
9.8,-3.908266068,2.452984333,8.040836334,0.053353999,0.785066009,-1.615863919,-1113.900024,5.100000381,-930.9000244,1.060675388,-0.423882062,-0.284713972,ST
9.83333333333333,-4.808471203,2.02172327,9.051099777,-0.609759986,1.532021999,-1.570132017,-1104.300049,3.300000191,-926.1000366,1.085799765,-0.470735224,-0.230726682,ST
9.86666666666667,-4.435828209,1.471431732,9.091175079,-0.282013983,1.806414008,-1.63872993,-1099.5,9.900000572,-926.1000366,1.114233972,-0.456102141,-0.172375815,ST
9.9,-4.841369152,1.103573799,6.974945068,1.272873998,3.033555984,-2.179892063,-1104.300049,-0.300000012,-930.9000244,1.125452181,-0.581275672,-0.160258991,ST
9.93333333333333,-4.865294933,0.601133704,7.906253815,0.129574001,4.710395813,-2.888737917,-1085.100098,14.10000038,-933.3000488,1.167730429,-0.563811871,-0.09065956,ST
9.96666666666667,-4.781554699,0.599937379,8.661109924,-0.480185986,2.08842802,-3.033555984,-1089.900024,9.300000191,-921.3000488,1.183263837,-0.518812982,-0.070379031,ST
10.0,-2.959013224,-0.111254595,8.930872917,1.737815976,1.242385983,-3.429899931,-1080.300049,6.300000191,-923.7000122,1.220672147,-0.362102866,-0.003665851,ST
10.0333333333333,-4.138551235,0.183031753,8.174221992,4.611310005,0.998481989,-6.295772076,-1073.100098,8.100000381,-926.1000366,1.231748392,-0.449786614,-0.021249321,ST
10.0666666666667,-4.771386623,0.572422802,7.765091896,5.434485912,1.623485923,-8.208893776,-1070.700073,9.300000191,-918.9000244,1.234082804,-0.532402636,-0.063841551,ST
10.1,-4.619458199,0.591563404,7.162163734,4.115880013,-0.152439997,-6.539675713,-1068.300049,0.300000012,-916.500061,1.245408476,-0.56523668,-0.079301272,ST
10.1333333333333,-3.960304499,0.006579573,7.273418427,2.286599874,-0.106707998,-5.769854069,-1065.900024,3.300000191,-923.7000122,1.293521245,-0.511568875,-0.013847579,ST
10.1666666666667,-5.870773315,-0.565843225,8.233437538,0.922261953,0.42683199,-3.887219906,-1070.700073,8.700000763,-930.9000244,1.337533994,-0.597332038,0.053071726,ST
10.2,-6.157283783,-1.204659939,9.003248215,0.571649969,-0.739333987,-2.439039946,-1065.900024,5.100000381,-918.9000244,1.379376526,-0.594925575,0.118280574,ST
10.2333333333333,-5.672788143,-1.404439688,7.804569721,1.486289978,-0.960371971,-2.446661949,-1065.900024,9.900000572,-914.1000366,1.412705688,-0.61401526,0.165892654,ST
10.2666666666667,-5.810958862,-1.893122554,8.196352959,1.013725996,0.480185986,-3.353679895,-1073.100098,2.100000143,-916.500061,1.449452875,-0.60629642,0.216579664,ST
10.3,-6.258967876,-2.226886272,8.447572708,1.890255928,-1.280496001,-2.644834042,-1058.700073,9.300000191,-916.500061,1.474803105,-0.616038895,0.248925303,ST
10.3333333333333,-4.79351759,-2.155707359,8.549855232,3.833865881,-3.216483831,-3.307947874,-1051.5,2.100000143,-914.1000366,1.482674153,-0.510792421,0.243764423,ST
10.3666666666667,-5.114122391,-1.514497995,8.086295128,5.289668083,-3.239349842,-3.704291821,-1077.900024,2.700000048,-911.7000122,1.468739312,-0.541646076,0.192295146,ST
10.4,-5.785837173,-1.054526091,8.107230186,5.182960033,-1.532021999,-2.568614006,-1065.900024,6.900000095,-914.1000366,1.449979363,-0.59834778,0.137414294,ST
10.4333333333333,-4.441809654,-0.593955994,8.747840881,4.009171963,-0.022865999,-0.320124,-1085.100098,1.5,-906.9000244,1.423287609,-0.495062199,0.075599496,ST
10.4666666666667,-4.111036777,0.517991841,8.423048973,3.315569878,-0.731711984,0.259148002,-1070.700073,4.5,-897.3000488,1.373369074,-0.46132441,-0.039124037,ST
10.5,-4.416687489,0.537132382,8.686232567,2.500015974,-0.121951997,1.150921941,-1061.100098,2.100000143,-916.500061,1.363581772,-0.467708779,-0.061471158,ST
10.5333333333333,-4.411304474,0.878672004,8.210110664,1.943609953,0.564027965,0.434453994,-1073.100098,-2.100000143,-914.1000366,1.346728465,-0.486826223,-0.100501425,ST
10.5666666666667,-4.988512516,0.79313755,8.731093407,1.455801964,1.227141976,0.785066009,-1068.300049,-3.900000095,-909.3000488,1.348981399,-0.512770195,-0.095354995,ST
10.6,-4.501624107,1.165780663,8.060574532,2.050318003,0.899396002,1.112811923,-1070.700073,-2.100000143,-906.9000244,1.327259135,-0.507395739,-0.139538434,ST
10.6333333333333,-4.085914612,1.296773911,8.149100304,1.890255928,0.853663981,0.655492008,-1065.900024,0.900000036,-918.9000244,1.319232256,-0.469858662,-0.157662618,ST
10.6666666666667,-3.904079199,1.225594997,7.240520477,0.960371971,-0.792688012,1.547266006,-1070.700073,-1.5,-904.500061,1.312642697,-0.483407425,-0.167999923,ST
10.7,-5.108738899,1.272250056,8.980518341,-0.792688012,0.045731999,2.347575903,-1085.100098,5.700000286,-911.7000122,1.316975102,-0.507570252,-0.146083229,ST
10.7333333333333,-5.80856657,1.854841352,8.159268379,-0.40396598,-1.013725996,3.361301899,-1068.300049,-1.5,-911.7000122,1.277513922,-0.584639479,-0.209280491,ST
10.7666666666667,-6.242219925,1.928412914,7.86737442,-2.096050024,-0.144817993,3.422277927,-1065.900024,-1.5,-904.500061,1.254158617,-0.640792744,-0.234257743,ST
10.8,-5.813351631,1.525862694,8.793299675,-3.086910009,-0.609759986,5.487839699,-1065.900024,-4.5,-921.3000488,1.268703978,-0.58634439,-0.18332448,ST
10.8333333333333,-5.900082111,2.070770979,9.281982422,-1.189031959,-1.082324028,5.083873749,-1087.5,-0.300000012,-914.1000366,1.240285071,-0.558231663,-0.215347153,ST
10.8666666666667,-4.299451828,2.034882307,7.591032505,1.707327962,-0.190549999,2.972579956,-1073.100098,-0.300000012,-914.1000366,1.215161482,-0.51098639,-0.257457301,ST
10.9,-3.926808596,2.246026754,8.242409706,0.083841994,-1.516777992,1.836901903,-1075.5,-0.900000036,-916.500061,1.208725457,-0.444252458,-0.265482764,ST
10.9333333333333,-4.161878586,2.354888916,8.000760078,-0.876529992,-1.509155989,0.304879993,-1075.5,-11.70000076,-911.7000122,1.201444929,-0.45698578,-0.280723242,ST
10.9666666666667,-5.280405998,1.826728582,8.288467407,-2.454283953,-1.295740008,-0.038109999,-1089.900024,-6.900000095,-916.500061,1.226170149,-0.53805421,-0.224407115,ST
11.0,-5.492148876,1.280025959,7.6795578,-2.957335949,-0.42683199,0.396344006,-1082.700073,-2.700000048,-911.7000122,1.249446024,-0.59925097,-0.173044268,NLL
11.0333333333333,-5.926400661,1.005478382,7.21360445,-4.199721813,-1.432935953,2.721053839,-1099.5,1.5,-911.7000122,1.257149131,-0.663590763,-0.14261209,NLL
11.0666666666667,-5.713461876,1.026413321,7.326653481,-6.265284061,-2.911603928,5.457351685,-1085.100098,-3.900000095,-921.3000488,1.242923765,-0.65373656,-0.1365114,NLL
11.1,-6.418074131,0.799717128,5.670395374,-9.89335537,-8.071698189,11.28055954,-1109.100098,6.900000095,-926.1000366,1.206980023,-0.79457594,-0.139004546,NLL
11.1333333333333,-4.136756897,0.206957474,5.489756107,-16.41778755,-9.230241776,14.49704361,-1123.5,5.100000381,-938.1000366,1.218016653,-0.661096042,-0.049770682,NLL
11.1666666666667,-3.636709213,-1.149032593,5.761312962,-22.27148438,-7.843037605,17.61444092,-1121.100098,17.70000076,-933.3000488,1.277689613,-0.569408884,0.163149421,NLL
11.2,-1.171762109,-3.648073912,8.917713165,-24.09314156,-4.184477806,18.80347443,-1140.300049,18.30000114,-933.3000488,1.296216047,-0.217529556,0.370648596,NLL
11.2333333333333,-0.854746282,-4.646972656,10.87005234,-20.38122749,-2.507637978,14.29124928,-1142.700073,36.90000153,-935.7000122,1.264862958,-0.106227433,0.42295795,NLL
11.2666666666667,-1.909870505,-4.425659657,11.63567543,-14.16167545,-1.623485923,9.214998245,-1152.300049,39.90000153,-921.3000488,1.236180931,-0.146027139,0.393534958,NLL
11.3,-2.750261307,-3.984828472,11.76427555,-3.963439941,0.746955991,3.429899931,-1152.300049,48.90000153,-926.1000366,1.218574942,-0.207927044,0.343553889,NLL
11.3333333333333,-1.951740503,-3.549380302,10.23183346,0.61738199,-0.487807989,-0.525918007,-1152.300049,42.90000153,-914.1000366,1.217984968,-0.182352602,0.334714397,NLL
11.3666666666667,-3.440518379,-2.585772038,7.577275276,3.826243877,-0.541162014,-1.981719971,-1135.5,37.5,-918.9000244,1.221626338,-0.358856479,0.325458371,NLL
11.4,-5.270835876,-1.84048593,8.120388985,1.646351933,0.282013983,-1.288118005,-1135.5,47.10000229,-928.500061,1.191146329,-0.522891758,0.244167895,NLL
11.4333333333333,-4.553064346,-2.763420582,8.365029335,0.632625997,2.225623846,1.143299937,-1147.5,41.70000076,-928.500061,1.220168091,-0.488947439,0.304712624,NLL
11.4666666666667,-3.943556547,-3.653457165,9.359741211,1.326228023,2.477149963,1.577754021,-1137.900024,38.70000076,-921.3000488,1.243342434,-0.397668076,0.35898923,NLL
11.5,-3.175540924,-3.503323317,9.336413383,2.721053839,2.378063917,1.265251994,-1140.300049,32.70000076,-926.1000366,1.243410234,-0.330035612,0.355024697,NLL
11.5333333333333,-4.325171947,-1.928412914,8.789710999,5.693634033,3.612828016,1.181409955,-1133.100098,41.10000229,-921.3000488,1.20417564,-0.430080828,0.237009427,NLL
11.5666666666667,-5.919222832,-1.017441154,7.983414173,4.192100048,2.972579956,1.189031959,-1118.700073,36.90000153,-930.9000244,1.162263517,-0.597381435,0.144776764,NLL
11.6,-5.772677898,-1.566536427,8.939845085,1.547266006,3.666181803,3.147886038,-1118.700073,33.90000153,-926.1000366,1.169657195,-0.578499442,0.163345005,NLL
11.6333333333333,-4.512390614,-1.512703538,9.652831078,-1.257629991,0.175305992,2.987823963,-1106.700073,29.70000076,-928.500061,1.157964008,-0.456507789,0.156092071,NLL
11.6666666666667,-3.957314014,-1.490572333,8.566005707,-1.310984015,1.34147191,4.161612034,-1111.5,39.30000305,-923.7000122,1.153437203,-0.435246176,0.16868779,NLL
11.7,-1.009067178,-2.926713467,7.851822853,-0.213415995,3.132642031,4.53508997,-1101.900024,33.90000153,-923.7000122,1.192683698,-0.180803616,0.325739209,NLL
11.7333333333333,-2.980546474,-1.437337518,7.310503483,1.310984015,2.820139885,1.966475964,-1104.300049,39.30000305,-918.9000244,1.163199012,-0.345033885,0.219785773,NLL
11.7666666666667,-3.768898964,-0.778183997,6.436018467,1.905499935,2.995445967,1.913121939,-1094.700073,29.70000076,-928.500061,1.126937812,-0.50089461,0.134469236,NLL
11.8,-5.796005249,-0.486888379,6.913336277,-0.678357959,1.379581928,2.431417942,-1092.300049,29.70000076,-918.9000244,1.093750127,-0.659035577,0.083359617,NLL
11.8333333333333,-6.818830013,-0.244042337,8.682044983,-1.135677934,1.440557957,1.532021999,-1094.700073,36.30000305,-918.9000244,1.062363566,-0.666503015,0.039244195,NLL
11.8666666666667,-6.147115231,-0.07716044,9.389648438,-0.556405962,-0.846041977,1.34147191,-1077.900024,41.70000076,-921.3000488,1.043315816,-0.593943921,0.012842703,NLL
11.9,-5.043541431,0.205761179,8.1754179,0.053353999,-2.19513607,0.503051996,-1087.5,39.90000153,-916.500061,1.024764153,-0.556390579,-0.019460126,NLL
11.9333333333333,-4.405323029,0.013159146,8.799879074,-0.167683989,-0.72408998,-0.464941978,-1085.100098,35.10000229,-930.9000244,1.033015542,-0.48169171,-0.004416464,NLL
11.9666666666667,-3.872975826,-0.825437307,8.892591476,2.660078049,-1.12805593,-2.942091942,-1092.300049,36.90000153,-923.7000122,1.074973005,-0.422352201,0.071677221,NLL
12.0,-3.570315361,-1.527657151,9.609167099,6.029001713,-1.326228023,-6.120465755,-1099.5,30.30000114,-921.3000488,1.118267289,-0.36249368,0.136486703,NLL
12.0333333333333,-3.581680059,-2.031891584,10.65771103,14.19978523,-2.347575903,-10.68604374,-1099.5,26.70000076,-918.9000244,1.163616568,-0.320546775,0.164258695,NLL
12.0666666666667,-5.331846237,-0.290099353,7.373906612,15.76991749,-4.550333977,-11.89794159,-1106.700073,30.30000114,-928.500061,1.156216698,-0.558806809,0.052805671,NLL
12.1,-3.795815229,-0.566441417,7.539592266,9.413169861,-1.04421401,-8.955849648,-1104.300049,28.50000191,-935.7000122,1.193286832,-0.478704457,0.064825242,NLL
12.1333333333333,-4.300647736,-0.196789041,8.787916183,7.118947983,-1.051836014,-7.964989662,-1116.300049,21.30000114,-930.9000244,1.199633666,-0.457962077,0.026488443,NLL
12.1666666666667,-4.276722431,-0.36247465,7.713651657,6.227173805,-0.670735955,-5.686011791,-1111.5,11.10000038,-938.1000366,1.223134506,-0.494919004,0.038163498,NLL
12.2,-4.326368332,-0.945065916,8.342898369,4.016793728,0.701223969,-5.312533855,-1121.100098,17.10000038,-933.3000488,1.267178651,-0.479793149,0.097826674,NLL
12.2333333333333,-4.103260994,-0.408531636,8.571987152,3.81099987,1.173787951,-5.190581799,-1106.700073,18.30000114,-918.9000244,1.263470584,-0.453299133,0.054730527,NLL
12.2666666666667,-5.199058533,0.232677609,8.841151237,3.612828016,0.121951997,-3.871975899,-1116.300049,19.5,-938.1000366,1.244383488,-0.515961533,-0.011495118,NLL
12.3,-3.458462715,0.507823408,7.808158398,3.589962006,-1.356715918,-2.934469938,-1109.100098,11.10000038,-940.500061,1.233206363,-0.433454494,-0.058240254,NLL
12.3333333333333,-3.164774418,0.151330173,7.354167938,2.439039946,-1.730193973,-2.949713945,-1109.100098,12.30000019,-933.3000488,1.253557009,-0.409575135,-0.029644162,NLL
12.3666666666667,-3.933986425,-0.115441591,8.073135376,1.356715918,-1.189031959,-3.429899931,-1113.900024,5.700000286,-921.3000488,1.277583358,-0.443919066,0.00661283,NLL
12.4,-4.207337856,-0.219518468,7.83686924,1.85214591,-1.112811923,-2.591480017,-1106.700073,11.10000038,-923.7000122,1.292022332,-0.481119829,0.022812251,NLL
12.4333333333333,-5.66919899,-0.991721034,8.66709137,1.143299937,0.442075998,-1.166165948,-1111.5,13.50000095,-930.9000244,1.331037454,-0.557824635,0.093899578,NLL
12.4666666666667,-5.776865005,-1.246529937,8.959583282,1.051836014,0.274392009,-1.006103992,-1113.900024,11.70000076,-933.3000488,1.352870676,-0.566507468,0.128681614,NLL
12.5,-5.454465866,-1.316512704,8.627016068,0.983237982,-0.251525998,-0.396344006,-1123.5,14.70000076,-928.500061,1.363919273,-0.559802487,0.145808908,NLL
12.5333333333333,-4.491455555,-1.870393038,9.035547256,1.394825935,0.434453994,1.013725996,-1113.900024,14.70000076,-938.1000366,1.385697769,-0.475522846,0.190272782,ST
12.5666666666667,-3.996193171,-1.441524506,9.923192024,1.288118005,-0.503051996,0.594515979,-1118.700073,9.300000191,-918.9000244,1.368935774,-0.398129047,0.150962472,ST
12.6,-4.563830853,-0.557469249,9.451256752,1.760681987,-0.213415995,1.23476398,-1116.300049,9.300000191,-926.1000366,1.336855758,-0.439017308,0.07455574,ST
12.6333333333333,-3.221598148,-0.607713282,9.308898926,1.524399996,2.294221878,2.23324585,-1104.300049,17.10000038,-938.1000366,1.329485458,-0.356159125,0.063563266,ST
12.6666666666667,-3.612185478,-0.200976044,9.080408096,1.493911982,2.964957952,1.432935953,-1109.100098,17.10000038,-935.7000122,1.314578392,-0.37889366,0.026674817,ST
12.7,-4.481287003,0.17286332,8.93805027,1.166165948,3.178373814,1.981719971,-1085.100098,3.900000095,-921.3000488,1.294609357,-0.45488628,-0.01444413,ST
12.7333333333333,-4.272535324,0.346922934,8.977527618,1.211897969,1.257629991,2.019829988,-1097.100098,12.30000019,-923.7000122,1.281561242,-0.447691217,-0.037180639,ST
12.7666666666667,-3.506912231,0.263182908,8.052799225,1.516777992,1.272873998,1.013725996,-1094.700073,5.700000286,-918.9000244,1.281148233,-0.419321234,-0.036335242,ST
12.8,-3.052921772,-0.455186814,7.738773823,1.882633924,1.669217944,-0.327746004,-1089.900024,2.100000143,-930.9000244,1.312490177,-0.386683818,0.037448311,ST
12.8333333333333,-4.983129025,-0.040673722,8.774757385,2.49239397,2.210379839,-1.516777992,-1097.100098,1.5,-928.500061,1.306138164,-0.494793835,0.008699515,ST
12.8666666666667,-5.709872723,1.144845605,8.34828186,5.472595692,0.327746004,-2.461905956,-1087.5,1.5,-928.500061,1.256211876,-0.576515126,-0.111078018,ST
12.9,-6.607087135,2.497246981,6.87864399,5.64027977,-0.53354001,-1.615863919,-1101.900024,5.700000286,-918.9000244,1.153331977,-0.703973659,-0.301148579,ST
12.9333333333333,-7.826700687,3.546987772,6.619648457,3.300325871,-2.339953899,0.365855992,-1089.900024,0.300000012,-918.9000244,1.055951508,-0.7834194,-0.453880839,ST
12.9666666666667,-3.624746323,1.498348117,6.891205311,-2.926847935,-0.853663981,9.062558174,-1089.900024,2.700000048,-909.3000488,1.157632583,-0.533671769,-0.259428148,ST
13.0,-3.295767784,1.600032449,10.62301922,-4.237832069,-0.495429993,2.431417942,-1104.300049,0.900000036,-909.3000488,1.188843161,-0.344073242,-0.165797839,NLR
13.0333333333333,-4.486072063,1.878168941,9.973436356,0.602137983,-1.257629991,-0.884151995,-1092.300049,3.300000191,-928.500061,1.185732502,-0.400123461,-0.182174061,NLR
13.0666666666667,-3.640298128,1.290194392,8.282485962,3.429899931,-0.121951997,-2.87349391,-1085.100098,3.900000095,-916.500061,1.202332914,-0.408308107,-0.16320043,NLR
13.1,-4.085914612,1.138266087,8.25078392,3.544229984,0.42683199,-4.146368027,-1097.100098,-3.900000095,-923.7000122,1.222272188,-0.448480274,-0.144521127,NLR
13.1333333333333,-4.347302914,0.833213151,8.000162125,4.481735706,0.80793196,-4.550333977,-1087.5,-4.5,-923.7000122,1.249164668,-0.487967495,-0.115270569,NLR
13.1666666666667,-4.057801723,0.066393867,9.162354469,6.463455677,1.615863919,-6.646383762,-1077.900024,-1.5,-906.9000244,1.305827483,-0.434457096,-0.033026101,NLR
13.2,-5.129673958,0.654368401,8.414076805,7.72870779,-0.167683989,-8.399443626,-1070.700073,-0.900000036,-914.1000366,1.31340149,-0.525299293,-0.073233114,NLR
13.2333333333333,-4.744470119,0.22250919,8.579164505,8.41468811,-1.402447939,-8.673835754,-1068.300049,-9.900000572,-911.7000122,1.356715666,-0.507872648,-0.040257328,NLR
13.2666666666667,-4.425659657,0.479112506,8.228055,8.742433548,-1.798792005,-7.934501648,-1065.900024,-0.900000036,-902.1000366,1.372765843,-0.493929926,-0.06065601,NLR
13.3,-2.814860821,0.263781041,7.849430084,9.512255669,0.213415995,-8.529017448,-1051.5,-9.300000191,-904.500061,1.405641208,-0.375344171,-0.046839745,NLR
13.3333333333333,-4.859911442,1.47083354,7.302727699,9.428413391,2.012207985,-7.515291691,-1049.100098,-14.10000038,-890.1000366,1.373441727,-0.550475838,-0.180580367,NLR
13.3666666666667,-5.066869259,1.882355928,7.242315292,7.36285162,1.303362012,-4.626554012,-1053.900024,-12.30000019,-885.3000488,1.355781338,-0.590624616,-0.247440984,NLR
13.4,-6.858307362,2.229876995,8.687428474,5.198204041,-0.388722003,-3.163130045,-1049.100098,-17.70000076,-885.3000488,1.364840231,-0.641541396,-0.254688812,NLR
13.4333333333333,-6.216499805,2.651567698,8.740064621,4.085391998,-1.981719971,-1.562510014,-1046.700073,-22.5,-878.1000366,1.353312278,-0.602886815,-0.29187041,NLR
13.4666666666667,-4.554858685,1.695735335,7.236333847,1.440557957,-0.022865999,-3.071666002,-1061.100098,-14.10000038,-873.3000488,1.389126355,-0.561060435,-0.240896011,NLR
13.5,-4.444800377,1.326681137,7.390654564,0.602137983,2.858249903,-5.830830097,-1041.900024,-15.90000057,-882.9000244,1.429071207,-0.54525732,-0.185849531,NLR
13.5333333333333,-5.660825253,1.523470163,9.936350822,0.609759986,3.216483831,-4.237832069,-1032.300049,-17.70000076,-868.500061,1.451844002,-0.52482272,-0.156684831,NLR
13.5666666666667,-6.124983788,1.245931864,8.873451233,3.666181803,0.221037999,-2.865871906,-1025.100098,-10.5,-880.500061,1.469090679,-0.588715692,-0.145147868,NLR
13.6,-5.156590462,1.625154495,6.973748684,4.436003685,0.754577994,-3.338435888,-1025.100098,-20.70000076,-870.9000244,1.44060224,-0.620378796,-0.217867757,NLR
13.6333333333333,-6.794904232,1.703511238,7.552153111,3.117398024,0.632625997,-2.919225931,-1013.100037,-24.90000153,-863.7000122,1.447169411,-0.70181205,-0.222429412,NLR
13.6666666666667,-6.238631248,2.181427479,8.053995132,2.057940006,0.411587983,-1.783547997,-1008.300049,-17.10000038,-866.1000366,1.431077448,-0.655281377,-0.257470316,NLR
13.7,-4.966979027,2.144940615,7.198650837,0.365855992,0.693601966,-0.594515979,-1020.300049,-17.70000076,-863.7000122,1.416959357,-0.599739665,-0.28357643,NLR
13.7333333333333,-7.091583252,1.666426301,8.220876694,-0.106707998,1.006103992,-0.182927996,-1020.300049,-20.10000038,-858.9000244,1.45587239,-0.682882017,-0.218081677,NLR
13.7666666666667,-5.528037548,2.478704453,7.918814659,0.434453994,0.007622,-1.097568035,-1013.100037,-20.10000038,-861.3000488,1.417021668,-0.607571369,-0.286810181,NLR
13.8,-5.471811771,2.630034685,7.796195507,0.259148002,0.060975999,0.541162014,-1005.900024,-19.5,-868.500061,1.398425613,-0.590948995,-0.318555629,NLR
13.8333333333333,-4.102662563,2.494256258,7.549760818,0.975615978,-0.160062,1.219519973,-1008.300049,-16.5,-863.7000122,1.395984571,-0.498630614,-0.321328724,NLR
13.8666666666667,-3.954921246,2.375225782,6.843353748,1.585376024,-0.289635986,0.373477995,-1015.500061,-24.30000114,-868.500061,1.391134104,-0.498976858,-0.334096933,NLR
13.9,-5.77088356,2.671904564,6.683051586,0.198172003,-2.035073996,0.266770005,-1003.500061,-17.10000038,-866.1000366,1.372963734,-0.637011784,-0.370059236,NLR
13.9333333333333,-7.275212765,2.548089027,7.058685303,-2.743919849,-2.17227006,0.945127964,-1020.300049,-23.70000076,-866.1000366,1.383058958,-0.745296868,-0.346828813,NLR
13.9666666666667,-8.400320053,2.543902159,7.157378674,-7.553401947,-4.641798019,3.300325871,-1017.900024,-17.70000076,-866.1000366,1.377157803,-0.809747086,-0.334243668,NLR
14.0,-9.646849632,3.087614059,7.065264702,-11.89031982,-6.128087997,8.041210175,-1037.100098,-15.90000057,-890.1000366,1.309746174,-0.867281636,-0.386359026,NLR
14.0333333333333,-7.266839027,2.162286758,6.456355095,-17.0580349,-5.617413998,17.21047592,-1044.300049,-5.700000286,-890.1000366,1.298142938,-0.812296173,-0.333366214,NLR
14.0666666666667,-3.904677391,0.047253296,6.347493172,-18.81871796,-4.878079891,21.02147484,-1063.5,-6.900000095,-911.7000122,1.414614208,-0.596860006,-0.059926438,NLR
14.1,-1.954731226,-1.427767277,7.52164793,-19.60378265,-1.379581928,23.40716171,-1087.5,2.700000048,-928.500061,1.442802334,-0.323239607,0.155284121,NLR
14.1333333333333,-2.124603748,-0.333165646,10.54944801,-16.95132828,-0.007622,11.89794159,-1085.100098,0.300000012,-928.500061,1.382687946,-0.224305161,0.073804784,NLR
14.1666666666667,-3.287992001,-0.165685609,10.71393681,-7.87352562,0.853663981,4.176856041,-1089.900024,4.5,-928.500061,1.359608092,-0.284515965,0.036855426,NLR
14.2,-3.69712162,-1.087423921,9.785020828,-3.91770792,1.592997909,0.449698001,-1080.300049,12.30000019,-918.9000244,1.375916502,-0.346520619,0.100760593,NLR
14.2333333333333,-4.710375786,-0.734519541,9.358545303,-1.471045971,2.743919849,-2.25611186,-1087.5,11.70000076,-918.9000244,1.374564215,-0.447448811,0.086220621,NLR
14.2666666666667,-4.380799294,-0.85654074,8.349477768,0.182927996,3.010689974,-1.882633924,-1089.900024,9.900000572,-933.3000488,1.38544906,-0.478194655,0.100227029,NLR
14.3,-4.326368332,-0.552085936,8.098855972,0.274392009,2.728675842,-1.181409955,-1077.900024,11.10000038,-928.500061,1.376978096,-0.491045217,0.07521629,NLR
14.3333333333333,-4.882042885,-0.54610455,8.57318306,-0.655492008,2.827761889,-0.327746004,-1073.100098,12.90000057,-918.9000244,1.373497673,-0.515500721,0.06729387,NLR
14.3666666666667,-3.526052713,-0.765622973,8.034854889,-0.29725799,0.289635986,0.160062,-1063.5,8.700000763,-918.9000244,1.38339547,-0.431977729,0.0902482,NLR
14.4,-4.8312006,-0.802707851,8.688624382,-0.106707998,0.510674,0.548784018,-1063.5,14.10000038,-923.7000122,1.382776088,-0.493277928,0.091537593,NLR
14.4333333333333,-5.087205887,-1.014450431,8.662306786,0.198172003,-0.221037999,1.242385983,-1053.900024,14.70000076,-923.7000122,1.389516569,-0.5209338,0.11016833,NLR
14.4666666666667,-4.623046875,-1.274642706,7.007245064,1.082324028,-0.388722003,0.640248001,-1070.700073,9.300000191,-921.3000488,1.416897948,-0.564471974,0.163283552,NLR
14.5,-6.357063293,-1.003683925,6.944439888,0.678357959,0.93750596,1.333850026,-1056.300049,9.300000191,-921.3000488,1.405235716,-0.702819226,0.145549055,NLR
14.5333333333333,-6.729108334,-1.470235467,8.371608734,0.060975999,-0.731711984,1.913121939,-1049.100098,12.30000019,-926.1000366,1.414722941,-0.675787587,0.165916999,ST
14.5666666666667,-5.772079468,-1.205258131,9.008631706,-0.42683199,0.068598002,-0.160062,-1061.100098,11.70000076,-926.1000366,1.398362099,-0.583197962,0.138542506,ST
14.6,-5.396445751,-1.205258131,8.875245094,0.388722003,-0.487807989,1.928365946,-1053.900024,12.30000019,-918.9000244,1.392252249,-0.55018521,0.133411925,ST
14.6333333333333,-5.366538525,-1.175949097,9.145606041,0.769822001,0.381099999,1.379581928,-1063.5,13.50000095,-926.1000366,1.387164899,-0.532504396,0.126814627,ST
14.6666666666667,-3.889723778,-0.482103229,9.312487602,1.150921941,0.030487999,0.792688012,-1063.5,16.5,-911.7000122,1.357791594,-0.423157175,0.063795061,ST
14.7,-5.288181782,-0.333763778,7.710062981,1.844523907,1.661595941,3.429899931,-1058.700073,5.700000286,-926.1000366,1.342860351,-0.567211124,0.042254309,ST
14.7333333333333,-5.423960686,0.474925518,7.799784184,1.006103992,3.628072023,2.698187828,-1056.300049,10.5,-921.3000488,1.29139473,-0.604151745,-0.043703738,ST
14.7666666666667,-4.35388279,0.117236026,7.853617191,0.198172003,2.76678586,2.538125992,-1058.700073,5.100000381,-918.9000244,1.297695898,-0.526497275,-0.022108757,ST
14.8,-4.887426376,-0.236266479,7.821317673,0.457319975,4.306429863,1.996963978,-1053.900024,8.700000763,-911.7000122,1.315154554,-0.559347519,0.018867464,ST
14.8333333333333,-5.172740459,-0.081347443,7.800382614,1.844523907,5.205825806,0.564027965,-1044.300049,12.30000019,-911.7000122,1.311217754,-0.587510469,0.00910528,ST
14.8666666666667,-6.137545109,0.17884475,6.94264555,2.896359921,4.268320084,-0.510674,-1034.700073,6.900000095,-904.500061,1.297430703,-0.703745678,-0.022327036,ST
14.9,-7.188482285,0.814670742,6.543684006,2.865871906,2.515259981,-0.266770005,-1020.300049,5.700000286,-916.500061,1.245227086,-0.807034423,-0.105386441,ST
14.9333333333333,-6.296650887,1.040768743,6.621442795,1.913121939,-0.320124,2.202757835,-1020.300049,6.900000095,-902.1000366,1.212048843,-0.764015231,-0.151741758,ST
14.9666666666667,-6.144722939,1.302755356,6.174629688,1.310984015,-0.746955991,1.981719971,-1032.300049,0.300000012,-909.3000488,1.177084636,-0.769029047,-0.20079841,ST
15.0,-5.933578491,1.340438366,6.893597603,0.144817993,0.548784018,1.74543798,-1029.900024,3.300000191,-904.500061,1.177297072,-0.714579453,-0.196143325,ST
15.0333333333333,-6.952215672,1.661641121,7.812943459,-0.327746004,0.754577994,0.259148002,-1022.700012,3.300000191,-906.9000244,1.169046382,-0.716837273,-0.2068891,ST
15.0666666666667,-6.864886761,1.496553659,7.403215408,-0.251525998,0.304879993,-0.030487999,-1037.100098,5.700000286,-914.1000366,1.172731045,-0.733926662,-0.200674012,ST
15.1,-6.460542202,1.11553669,7.851822853,0.213415995,0.083841994,-0.556405962,-1029.900024,9.300000191,-918.9000244,1.206569519,-0.692934448,-0.151047507,ST
15.1333333333333,-5.926998615,0.983347058,6.89778471,1.021348,0.175305992,-2.118916035,-1032.300049,9.300000191,-904.500061,1.21768998,-0.70343189,-0.142265762,ST
15.1666666666667,-6.297847271,0.446812809,6.972552776,0.876529992,0.678357959,-2.667700052,-1032.300049,2.100000143,-904.500061,1.267906813,-0.730064233,-0.075414843,ST
15.2,-5.923409939,0.376830071,7.26982975,0.83079797,-0.72408998,-2.964957952,-1017.900024,-0.300000012,-902.1000366,1.288361254,-0.691763626,-0.054046292,ST
15.2333333333333,-5.684751034,0.195592746,7.833878517,0.983237982,-1.714949965,-2.278977871,-1020.300049,13.50000095,-899.7000122,1.309929292,-0.636715862,-0.028840294,ST
15.2666666666667,-5.755331516,0.183031753,8.524733543,1.189031959,-3.376545906,-2.294221878,-1027.5,-1.5,-909.3000488,1.319789383,-0.597761573,-0.022287018,ST
15.3,-4.407117367,-0.194396466,7.625724792,2.530503988,-3.041177988,-2.667700052,-1034.700073,11.70000076,-904.500061,1.348114722,-0.534604854,0.014926065,ST
15.3333333333333,-5.738583565,0.391185492,8.534303665,3.597584009,-2.987823963,-4.32167387,-1025.100098,0.900000036,-899.7000122,1.335040167,-0.576070503,-0.03430802,ST
15.3666666666667,-5.897689819,0.214733332,7.327251434,4.923811913,-3.071666002,-4.542711735,-1044.300049,3.300000191,-899.7000122,1.352780298,-0.656119452,-0.032499867,ST
15.4,-5.926998615,-0.141759887,7.449870586,4.527467728,-1.608241916,-3.711913824,-1032.300049,7.500000477,-899.7000122,1.389728171,-0.666668503,0.006223023,ST
15.4333333333333,-6.152498722,-0.610105813,7.640079975,3.323191881,-2.728675842,-2.19513607,-1034.700073,-2.700000048,-902.1000366,1.43303487,-0.670754442,0.062335666,ST
15.4666666666667,-6.379194736,-0.981552601,7.371513844,2.690565825,-1.783547997,-1.608241916,-1037.100098,6.300000191,-909.3000488,1.473249664,-0.698817595,0.115655595,ST
15.5,-4.734899998,-1.672407746,7.530620098,1.74543798,-1.303362012,-0.663114011,-1044.300049,7.500000477,-914.1000366,1.526715856,-0.575440787,0.199549881,ST
15.5333333333333,-6.945636272,-0.909177303,7.581462383,1.63872993,-0.579271972,-4.634175777,-1044.300049,-2.100000143,-902.1000366,1.501133346,-0.707230826,0.138165777,ST
15.5666666666667,-6.823016644,-0.833811283,8.225064278,2.621968031,1.082324028,-2.378063917,-1039.5,-4.5,-914.1000366,1.489750543,-0.694628866,0.107668528,ST
15.6,-5.922213554,-1.635921001,7.875748634,1.844523907,-0.167683989,-0.053353999,-1041.900024,2.100000143,-911.7000122,1.539516,-0.646924911,0.183399656,ST
15.6333333333333,-6.645368576,-0.775193274,8.307009697,2.149404049,0.243903995,-0.083841994,-1044.300049,2.100000143,-904.500061,1.497035026,-0.668080173,0.108646989,ST
15.6666666666667,-4.782751083,-0.749473155,8.32196331,2.949713945,0.594515979,1.028970003,-1034.700073,-0.900000036,-902.1000366,1.487349985,-0.547303175,0.087730643,ST
15.7,-5.243919373,0.926523447,8.98709774,2.324709892,0.312501997,-0.625003994,-1041.900024,-0.900000036,-904.500061,1.411354058,-0.532028078,-0.067545563,ST
15.7333333333333,-3.889723778,0.853550017,8.123977661,4.062525749,0.083841994,-0.716467977,-1037.100098,0.300000012,-897.3000488,1.400520733,-0.462296447,-0.102631698,ST
15.7666666666667,-6.031075478,1.864411592,7.123882771,1.288118005,-0.053353999,-1.463423967,-1032.300049,-3.900000095,-899.7000122,1.342587141,-0.641450658,-0.221403745,ST
15.8,-5.892306328,1.493563056,7.123882771,-2.507637978,-2.667700052,-0.990859985,-1029.900024,-0.900000036,-892.500061,1.352140426,-0.669290506,-0.204547658,ST
15.8333333333333,-5.589047909,0.906784773,8.347084999,-4.13112402,-0.152439997,1.021348,-1037.100098,-2.700000048,-892.500061,1.393788698,-0.603666038,-0.122041905,ST
15.8666666666667,-5.812155247,0.443223953,7.769279003,-6.394857883,-1.272873998,5.769854069,-1034.700073,0.900000036,-904.500061,1.406485751,-0.631589947,-0.067158679,ST
15.9,-5.655441761,0.286510497,7.737577438,-7.02748394,-1.082324028,10.49549389,-1037.100098,3.900000095,-914.1000366,1.391250169,-0.628772132,-0.043862244,ST
15.9333333333333,-4.65534687,-0.015551717,9.030164719,-7.24090004,0.129574001,11.63879395,-1051.5,4.5,-906.9000244,1.379766973,-0.506580156,-0.006597989,ST
15.9666666666667,-6.113021374,1.421187758,8.324954033,-4.512223721,0.365855992,5.419241905,-1034.700073,-3.300000191,-914.1000366,1.297031607,-0.603080454,-0.132728553,ST
16.0,-7.2435112,2.246624947,6.528730392,-4.626554012,6.059489727,5.000031948,-1046.700073,-0.900000036,-902.1000366,1.18131619,-0.775228051,-0.286658465,ST
16.0333333333333,-7.10474205,1.611995339,7.080218315,-5.998513699,5.663146019,4.420759678,-1034.700073,5.100000381,-906.9000244,1.197848268,-0.780917487,-0.235879774,ST
16.0666666666667,-6.972552776,1.323690414,8.160464287,-5.038141727,2.400929928,2.309465885,-1041.900024,12.90000057,-906.9000244,1.22969127,-0.71784358,-0.169742183,ST
16.1,-5.538205624,1.258492827,7.437907696,-1.013725996,0.731711984,0.983237982,-1022.700012,15.90000057,-911.7000122,1.227467271,-0.65104398,-0.167876561,ST
16.1333333333333,-4.987316132,1.038974285,6.409699917,0.381099999,0.0,-0.373477995,-1032.300049,9.900000572,-914.1000366,1.232069636,-0.654259608,-0.16228552,ST
16.1666666666667,-5.845053196,0.710593879,6.710566044,-0.442075998,-0.670735955,-0.144817993,-1027.5,3.300000191,-902.1000366,1.2604942,-0.701009026,-0.116607227,ST
16.2,-5.418577194,0.622068703,6.780548573,-0.381099999,-1.897877932,-0.411587983,-1034.700073,12.90000057,-918.9000244,1.275186999,-0.674336484,-0.09437886,ST
16.2333333333333,-5.437119484,-0.028710863,7.008440971,-1.059458017,-0.762199998,0.320124,-1032.300049,9.900000572,-904.500061,1.323338807,-0.661838334,-0.013295892,ST
16.2666666666667,-6.247603416,0.024523862,7.847635746,-1.897877932,-1.158543944,0.838419974,-1037.100098,7.500000477,-918.9000244,1.325133709,-0.668819175,-0.003170145,ST
16.3,-5.851632595,-0.055627298,9.578063011,-2.057940006,-1.242385983,1.135677934,-1034.700073,7.500000477,-911.7000122,1.325507319,-0.570883794,0.005772578,ST
16.3333333333333,-4.437622547,-0.459373802,8.504995346,-0.228659987,-1.882633924,-0.099086002,-1032.300049,13.50000095,-918.9000244,1.345560969,-0.49488581,0.045498577,ST
16.3666666666667,-5.34679985,-0.54131937,7.908048153,-0.586893976,-0.221037999,-0.952749968,-1037.100098,8.700000763,-921.3000488,1.356735148,-0.573119677,0.065070146,ST
16.4,-6.125582218,-0.36486721,7.28837204,-0.434453994,1.067080021,-0.838419974,-1039.5,5.100000381,-914.1000366,1.35182702,-0.675845512,0.05462637,ST
16.4333333333333,-4.874865055,-1.266268611,5.944344997,-0.800309956,2.530503988,-2.339953899,-1041.900024,12.30000019,-914.1000366,1.439355439,-0.679950253,0.188040853,ST
16.4666666666667,-6.896588326,-0.119030453,7.093975544,-1.34147191,3.094532013,-5.350644112,-1029.900024,14.70000076,-914.1000366,1.36451844,-0.757743463,0.062711217,ST
16.5,-6.379194736,-2.05462122,8.353066444,-0.304879993,4.862835884,-4.138745785,-1017.900024,12.90000057,-899.7000122,1.471473145,-0.669225749,0.213988825,ST
16.5333333333333,-6.342110157,-3.006864786,7.938553333,-0.099086002,6.631139755,-3.27745986,-996.3000488,14.70000076,-914.1000366,1.558150314,-0.655296367,0.340158851,ST
16.5666666666667,-8.225662231,-3.152213573,7.78483057,2.17227006,10.41165161,-3.079288006,-993.9000244,15.90000057,-902.1000366,1.599103026,-0.76273988,0.380230446,ST
16.6,-7.831485748,-2.747270584,7.852420807,2.179892063,11.51684189,-0.815553963,-984.3000488,12.90000057,-882.9000244,1.588687764,-0.771465118,0.348569706,ST
16.6333333333333,-7.322466373,-1.689155698,6.514973164,1.935987949,10.34305382,0.998481989,-977.1000366,13.50000095,-887.7000122,1.541665222,-0.830795998,0.273734772,ST
16.6666666666667,-7.114312649,-1.772895813,4.911352158,-0.685979962,11.85221004,3.68142581,-955.500061,14.70000076,-875.7000122,1.585263984,-0.933480335,0.331494968,ST
16.7,-7.724418163,-1.456478119,5.925802231,-1.882633924,10.28207779,1.928365946,-943.500061,10.5,-863.7000122,1.528226292,-0.9233892,0.262620553,ST
16.7333333333333,-7.463029861,-1.056918621,5.718844891,-1.539644003,6.821690083,2.332331896,-938.7000122,17.10000038,-856.500061,1.473636753,-0.922015333,0.198973342,ST
16.7666666666667,-7.477385521,-0.648985147,3.858620405,0.068598002,5.716499805,2.736297846,-914.7000122,14.70000076,-851.7000122,1.447784022,-1.063294476,0.170113796,ST
16.8,-8.193362236,-0.471336663,3.421377897,0.243903995,4.451247692,2.637212038,-924.3000488,18.30000114,-846.9000244,1.416784332,-1.159229864,0.137085323,ST
16.8333333333333,-8.294448853,-0.279930919,3.36993742,-0.022865999,2.858249903,3.010689974,-924.3000488,17.10000038,-832.500061,1.364022016,-1.184175844,0.082721418,ST
16.8666666666667,-8.944629669,0.154919028,3.511697292,-0.137196004,-0.114329994,2.736297846,-914.7000122,14.10000038,-849.3000488,1.259128568,-1.19413405,-0.027400154,ST
16.9,-9.051099777,0.304454774,3.621157646,-0.792688012,-1.532021999,3.163130045,-914.7000122,12.30000019,-851.7000122,1.203145393,-1.187565787,-0.082867348,ST
16.9333333333333,-9.261645317,0.727341831,4.179822922,-1.280496001,-2.218001842,2.759163857,-931.500061,15.30000019,-839.7000122,1.124640422,-1.146522101,-0.162640448,ST
16.9666666666667,-8.159866333,0.591563404,3.357376575,-0.739333987,-1.608241916,1.509155989,-914.7000122,14.70000076,-842.1000366,1.110560755,-1.167025358,-0.175005041,ST
17.0,-8.969153404,0.724351168,3.884938717,-0.800309956,-3.353679895,-0.083841994,-921.9000244,6.300000191,-846.9000244,1.105626698,-1.153468091,-0.179219526,ST
17.0333333333333,-8.895582199,0.803305984,3.889723778,0.365855992,-6.684494019,-0.884151995,-912.3000488,10.5,-851.7000122,1.096104868,-1.142339712,-0.192779575,ST
17.0666666666667,-8.887207985,-0.119628593,4.155897141,-0.541162014,-9.108289719,-1.089946032,-926.7000122,9.300000191,-851.7000122,1.264065667,-1.123559635,-0.008257219,ST
17.1,-9.408190727,0.333763778,5.622543812,-0.609759986,-13.04124165,-3.178373814,-945.9000244,14.10000038,-863.7000122,1.238135933,-1.031925116,-0.040753253,ST
17.1333333333333,-8.247793198,-0.245238617,6.023299694,-1.173787951,-13.5900259,-0.472563982,-965.1000366,18.90000153,-880.500061,1.29389202,-0.93939132,0.027758151,ST
17.1666666666667,-6.898981094,-0.116637878,6.815839291,-1.250007987,-15.71656322,0.182927996,-984.3000488,9.300000191,-894.9000244,1.28486546,-0.79909783,0.019593422,ST
17.2,-4.809069633,-0.924130917,6.110628605,-1.295740008,-13.0183754,4.268320084,-1017.900024,9.900000572,-904.500061,1.342419955,-0.672191114,0.121120829,ST
17.2333333333333,-6.09746933,-1.340438366,9.049902916,-0.907018006,-11.60068417,3.27745986,-1022.700012,11.10000038,-909.3000488,1.342334016,-0.587037733,0.139054792,ST
17.2666666666667,-4.727123737,-0.785361707,7.713053703,-0.129574001,-10.57171345,3.323191881,-1032.300049,15.30000019,-909.3000488,1.315136562,-0.541401973,0.105202847,ST
17.3,-4.478894711,-0.742295444,7.28897047,-2.530503988,-9.115911484,5.121984005,-1056.300049,18.30000114,-921.3000488,1.297927128,-0.535311237,0.100766117,ST
17.3333333333333,-6.074141979,-0.366661638,6.503608704,-6.387235641,-6.440589905,6.714982033,-1068.300049,17.70000076,-928.500061,1.25369548,-0.705433888,0.066084409,ST
17.3666666666667,-2.62644577,-2.518181801,8.216690063,-9.771403313,-2.461905956,9.230241776,-1082.700073,21.30000114,-921.3000488,1.32731461,-0.371969207,0.268415185,ST
17.4,-3.975258112,-1.929609179,8.560622215,-9.786647797,-3.041177988,5.144849777,-1092.300049,25.50000191,-916.500061,1.2961667,-0.412387431,0.241608415,ST
17.4333333333333,-5.773874283,-2.161090612,9.172522545,-6.097599983,1.204275966,3.925329924,-1082.700073,19.5,-928.500061,1.281643819,-0.524878694,0.2394929,ST
17.4666666666667,-4.688842773,-2.633025408,9.53918457,-4.557955742,0.464941978,1.875011921,-1089.900024,20.10000038,-930.9000244,1.287004581,-0.460396449,0.268584432,ST
17.5,-4.519568443,-2.658147335,9.322656631,-2.76678586,-2.035073996,0.419209987,-1068.300049,20.70000076,-926.1000366,1.286763507,-0.438226523,0.279291451,ST
17.5333333333333,-5.553757668,-2.604314566,8.144314766,0.518296003,-1.806414008,0.129574001,-1087.5,30.30000114,-923.7000122,1.296660079,-0.545791474,0.30164378,ST
17.5666666666667,-4.469922543,-2.644390106,6.982720852,2.225623846,0.42683199,1.051836014,-1089.900024,25.50000191,-926.1000366,1.320588302,-0.541920905,0.346053655,ST
17.6,-5.121898174,-2.167072058,7.696305752,1.42531395,0.099086002,0.251525998,-1082.700073,27.30000114,-911.7000122,1.289183598,-0.565765948,0.283593922,ST
17.6333333333333,-5.042345047,-1.573714137,8.767580032,1.63872993,0.495429993,-0.556405962,-1070.700073,23.10000038,-928.500061,1.245736742,-0.524475661,0.193019514,ST
17.6666666666667,-5.777462959,-0.519188106,6.992291451,1.74543798,-1.646351933,0.861285985,-1089.900024,12.30000019,-928.500061,1.19057718,-0.657844277,0.09395255,ST
17.7,-5.383286953,-1.021030068,8.176614761,0.007622,2.934469938,2.538125992,-1089.900024,22.5,-914.1000366,1.199650559,-0.598247989,0.116566011,ST
17.7333333333333,-5.319285393,-0.517393649,7.940946102,1.097568035,-0.358233988,1.509155989,-1082.700073,32.70000076,-938.1000366,1.171853899,-0.59037899,0.069987829,ST
17.7666666666667,-4.957408905,0.11484345,7.121490002,1.310984015,-1.166165948,2.111294031,-1080.300049,23.10000038,-921.3000488,1.128697186,-0.603186275,-0.002471463,ST
17.8,-4.081727505,-0.342735916,8.120986938,0.990859985,0.800309956,2.705809832,-1097.100098,27.90000153,-930.9000244,1.141957094,-0.489760148,0.031495439,ST
17.8333333333333,-3.491958618,-0.896018147,7.704679489,1.42531395,1.844523907,1.547266006,-1077.900024,19.5,-926.1000366,1.169556895,-0.439455321,0.096314404,ST
17.8666666666667,-5.757126331,0.32000649,8.012722969,1.410069942,-0.358233988,-0.259148002,-1085.100098,25.50000191,-926.1000366,1.118658574,-0.585493968,-0.01152165,ST
17.9,-6.814044952,0.550889671,8.127566338,1.478667974,-1.55488801,0.045731999,-1075.5,23.10000038,-928.500061,1.09358791,-0.671994467,-0.057627167,ST
17.9333333333333,-5.222984314,0.825437307,8.775355339,3.246971846,-0.907018006,-1.181409955,-1080.300049,19.5,-918.9000244,1.081176392,-0.555302479,-0.09217129,ST
17.9666666666667,-5.606992245,1.060507536,8.253774643,4.756127834,-3.91770792,-2.507637978,-1075.5,27.90000153,-918.9000244,1.075378396,-0.580326423,-0.124436975,ST
18.0,-4.349097729,0.897214472,8.080911636,4.634175777,-4.306429863,-4.641798019,-1089.900024,27.90000153,-918.9000244,1.095595303,-0.503930068,-0.115608319,ST
18.0333333333333,-3.258682966,0.414513081,8.5055933,3.368923903,-4.054903984,-5.70887804,-1094.700073,24.90000153,-930.9000244,1.134511254,-0.388479889,-0.062566586,ST
18.0666666666667,-4.304236889,0.384007782,7.972647667,3.307947874,-2.431417942,-5.487839699,-1099.5,21.90000153,-916.500061,1.153795011,-0.47009016,-0.05211017,ST
18.1,-4.268946171,-0.21174261,8.003152847,2.942091942,-0.205793992,-4.611310005,-1111.5,20.10000038,-930.9000244,1.195551385,-0.486078842,0.010599373,ST
18.1333333333333,-4.813256264,-0.683677435,8.280691147,2.057940006,-0.175305992,-4.245453835,-1109.100098,15.90000057,-933.3000488,1.236157496,-0.518066982,0.070474784,ST
18.1666666666667,-4.844359875,-0.893625617,8.981715202,1.920743942,-1.577754021,-4.527467728,-1092.300049,13.50000095,-935.7000122,1.260040775,-0.494022123,0.09507485,ST
18.2,-4.704394341,-0.809287429,9.106128693,1.798792005,-3.346057892,-4.596065998,-1099.5,14.10000038,-938.1000366,1.268546043,-0.473806814,0.09051753,ST
18.2333333333333,-2.594146013,-1.494759321,8.406899452,2.073184013,-2.87349391,-4.283564091,-1109.100098,14.70000076,-930.9000244,1.30534901,-0.326555493,0.158721739,ST
18.2666666666667,-3.287992001,-1.29438138,8.712550163,0.746955991,-3.38416791,-3.742401838,-1116.300049,20.70000076,-930.9000244,1.310049777,-0.345622387,0.150307566,ST
18.3,-2.230475187,-2.147931337,7.815336227,0.685979962,-1.150921941,-2.500015974,-1099.5,12.90000057,-935.7000122,1.345120442,-0.281236946,0.24614496,ST
18.3333333333333,-4.470520496,-1.623360038,8.76877594,0.083841994,0.205793992,-2.271355867,-1101.900024,12.90000057,-938.1000366,1.333269385,-0.427227929,0.197812476,ST
18.3666666666667,-5.51188755,-2.130585194,9.110315323,0.449698001,-0.358233988,-1.036592007,-1113.900024,17.70000076,-933.3000488,1.347086799,-0.510340363,0.222988801,ST
18.4,-5.470017433,-2.376421928,9.219776154,0.411587983,0.373477995,-0.731711984,-1106.700073,12.90000057,-935.7000122,1.360674549,-0.519520942,0.246382829,ST
18.4333333333333,-5.255284309,-1.769306898,9.386059761,0.838419974,-0.495429993,-0.144817993,-1116.300049,13.50000095,-945.3000488,1.337542636,-0.505745843,0.197171109,ST
18.4666666666667,-4.858715534,-1.775288343,8.471498489,1.875011921,-1.913121939,0.693601966,-1106.700073,16.5,-928.500061,1.33950582,-0.507967303,0.20128981,ST
18.5,-5.683554649,-1.628743291,10.18816948,1.265251994,-6.051867962,0.792688012,-1111.5,10.5,-926.1000366,1.319151592,-0.496346417,0.163985761,ST
18.5333333333333,-6.276912212,-0.624461234,8.399722099,0.503051996,-16.24248123,1.364337921,-1137.900024,15.90000057,-933.3000488,1.271903705,-0.59431269,0.086144278,ST
18.5666666666667,-4.877257824,-0.253014475,6.955206394,-0.541162014,-16.82175446,3.338435888,-1161.900024,14.10000038,-926.1000366,1.237749478,-0.58447079,0.042177466,ST
18.6,-1.806989908,-0.698630989,7.931973934,-1.806414008,-17.47724533,5.419241905,-1181.100098,11.10000038,-918.9000244,1.237797412,-0.272635161,0.0779699,ST
18.6333333333333,2.125800133,-0.849961162,7.643669128,-2.507637978,-15.43454933,3.780511856,-1221.900024,18.90000153,-926.1000366,1.225153668,0.202409612,0.109429506,ST
18.6666666666667,0.323595345,-0.303856641,9.968650818,-0.457319975,-11.06714344,0.464941978,-1226.700073,16.5,-921.3000488,1.231140324,0.080412496,0.046152507,ST
18.7,1.583284497,-1.134079099,9.917808533,1.882633924,-3.673803806,0.350611985,-1253.100098,20.10000038,-916.500061,1.22341371,0.146878374,0.097582464,ST
18.7333333333333,0.851755619,-0.082543731,9.650438309,2.46952796,-2.36281991,-1.028970003,-1260.300049,13.50000095,-923.7000122,1.234523433,0.101453994,0.019689473,ST
18.7666666666667,0.099291734,0.407933503,9.377685547,2.141782045,-1.310984015,0.53354001,-1267.5,18.30000114,-911.7000122,1.236520499,0.0307682,-0.033713929,ST
18.8,0.526963949,-0.133984029,10.37359333,1.570132017,-0.952749968,1.455801964,-1265.100098,13.50000095,-921.3000488,1.231677195,0.048080289,0.001411447,ST
18.8333333333333,0.590965271,0.265575469,9.685729027,-0.449698001,-4.489357948,-0.007622,-1269.900024,13.50000095,-928.500061,1.233113577,0.064588393,-0.020980363,ST
18.8666666666667,0.056823581,0.561656237,9.653429031,-1.067080021,-2.317087889,0.625003994,-1269.900024,8.100000381,-909.3000488,1.233171968,0.020981592,-0.049127716,ST
18.9,0.238060907,0.457579374,9.871153831,-1.021348,-0.182927996,1.646351933,-1272.300049,21.90000153,-906.9000244,1.229258819,0.023864067,-0.045356384,ST
18.9333333333333,1.008469105,-0.043664437,9.62950325,-1.935987949,0.388722003,1.699705958,-1265.100098,22.5,-909.3000488,1.223195195,0.087622226,-0.002709926,ST
18.9666666666667,1.33684957,-0.31761393,9.894480705,-2.179892063,1.089946032,0.853663981,-1284.300049,20.10000038,-909.3000488,1.218542368,0.123298911,0.028215989,ST
19.0,-0.787156165,0.127404451,10.24678707,-1.669217944,1.036592007,0.152439997,-1267.5,17.70000076,-914.1000366,1.219682748,-0.037608177,-0.001844868,ST
19.0333333333333,0.931308627,-0.78835243,10.02487659,-2.614346027,2.797273874,0.274392009,-1262.700073,21.90000153,-921.3000488,1.218492366,0.062166932,0.065819797,ST
19.0666666666667,0.688462555,-0.913364291,10.20013237,-2.881115913,3.208861828,0.83079797,-1260.300049,27.30000114,-904.500061,1.216155681,0.061576061,0.088635253,ST
19.1,-0.062805012,-0.580198705,8.950611115,-2.560992002,4.527467728,1.905499935,-1250.700073,23.70000076,-918.9000244,1.213286373,0.000315438,0.073158399,ST
19.1333333333333,0.564048827,-1.106564522,9.822704315,-3.818621874,7.820171833,4.809482098,-1241.100098,19.5,-918.9000244,1.203411768,0.034067362,0.109762949,ST
19.1666666666667,-0.169274464,-2.487078428,8.32196331,-2.042695999,8.01072216,4.862835884,-1224.300049,29.70000076,-923.7000122,1.194658032,-0.021827176,0.258795473,ST
19.2,-2.205353022,-2.850749493,8.57318306,-4.710395813,9.824757576,3.033555984,-1219.5,28.50000191,-921.3000488,1.199573226,-0.209625455,0.314708639,ST
19.2333333333333,-3.296964169,-2.564239025,8.142519951,-6.692115784,9.077801704,4.756127834,-1188.300049,28.50000191,-928.500061,1.191286445,-0.354598912,0.315751928,ST
19.2666666666667,-1.68736136,-3.607400179,8.571987152,-6.996995926,8.315601349,6.295772076,-1183.5,32.10000229,-930.9000244,1.201529205,-0.227258572,0.391934281,ST
19.3,-3.406424284,-3.847853661,9.533801079,-5.457351685,5.541193962,3.490875959,-1169.100098,32.70000076,-928.500061,1.195316108,-0.313775927,0.392518123,ST
19.3333333333333,-4.131971836,-3.674990416,9.152783394,-2.080806017,4.855214119,1.692083955,-1157.100098,36.90000153,-933.3000488,1.192277285,-0.389267781,0.386920384,ST
19.3666666666667,-3.752150774,-3.370535612,9.025977135,0.42683199,1.714949965,0.144817993,-1140.300049,39.90000153,-923.7000122,1.184744129,-0.377301807,0.362968663,ST
19.4,-3.48059392,-3.444705486,7.456450462,1.920743942,0.022865999,2.560992002,-1154.700073,41.70000076,-930.9000244,1.201253451,-0.398240123,0.41601406,ST
19.4333333333333,-4.07634449,-3.165970802,7.816532135,0.182927996,-0.053353999,2.843005896,-1142.700073,38.10000229,-923.7000122,1.184965887,-0.441268667,0.389288346,ST
19.4666666666667,-3.96568799,-2.835795879,8.384169579,-0.548784018,-0.640248001,3.559473991,-1149.900024,32.70000076,-918.9000244,1.153469632,-0.425599758,0.335038481,ST
19.5,-3.226981401,-3.19109273,9.049902916,-0.419209987,-1.089946032,1.913121939,-1157.100098,42.90000153,-926.1000366,1.149339493,-0.34304102,0.337677672,ST
19.5333333333333,-3.19348526,-2.713176489,9.307105064,0.29725799,-1.105189919,0.152439997,-1154.700073,31.50000191,-930.9000244,1.134181722,-0.321887689,0.293807472,ST
19.5666666666667,-2.73710227,-2.341729641,9.636083603,1.23476398,-1.150921941,1.844523907,-1152.300049,33.30000305,-921.3000488,1.116524881,-0.279068941,0.246805253,ST
19.6,-2.755046606,-2.26875639,8.301626205,1.882633924,-0.868907988,1.737815976,-1157.100098,34.5,-933.3000488,1.117156786,-0.30307561,0.259276202,ST
19.6333333333333,-1.422384024,-3.166568995,9.089979172,0.525918007,0.0,-0.381099999,-1152.300049,41.70000076,-933.3000488,1.13284676,-0.176505412,0.320499109,ST
19.6666666666667,-3.691738367,-1.50133884,7.815336227,1.364337921,-2.614346027,-1.410069942,-1149.900024,43.5,-926.1000366,1.104998781,-0.386840099,0.212126975,ST
19.7,-3.483584642,-2.848954916,7.799784184,1.051836014,0.419209987,1.349093914,-1145.100098,37.5,-921.3000488,1.144587154,-0.396844705,0.319964384,ST
19.7333333333333,-3.246121883,-2.579790592,8.895582199,0.152439997,-0.228659987,1.257629991,-1152.300049,32.70000076,-930.9000244,1.130414761,-0.34866714,0.288366798,ST
19.7666666666667,-3.207840681,-2.360272169,9.706664085,2.149404049,-1.112811923,0.251525998,-1152.300049,32.10000229,-918.9000244,1.116247417,-0.315656237,0.243409979,ST
19.8,-2.655156612,-2.658745527,8.831581116,4.344540119,-0.060975999,-0.259148002,-1152.300049,32.70000076,-930.9000244,1.130082528,-0.286516211,0.277623158,ST
19.8333333333333,-2.940470934,-1.964301467,9.965062141,6.798823833,2.035073996,-4.817103863,-1147.5,28.50000191,-921.3000488,1.125727897,-0.284062217,0.20083694,ST
19.8666666666667,-2.439825296,-1.636519194,9.025379181,7.896391869,0.495429993,-5.495461941,-1147.5,33.30000305,-933.3000488,1.135779379,-0.264125795,0.174808009,ST
19.9,-3.33225441,-2.090509653,9.345385551,9.458901405,1.928365946,-5.769854069,-1142.700073,27.90000153,-928.500061,1.164840488,-0.324145553,0.20128294,ST
19.9333333333333,-3.45248127,-1.603621364,9.224560738,8.483285904,0.701223969,-6.654006004,-1145.100098,25.50000191,-926.1000366,1.176275607,-0.34737072,0.168600588,ST
19.9666666666667,-2.835197687,-0.645994425,7.711259365,7.698219776,1.387203932,-4.085391998,-1157.100098,24.30000114,-935.7000122,1.165473049,-0.351981104,0.089941807,ST
20.0,-3.234757185,-0.938486338,7.04851675,5.137228012,3.064043999,-0.792688012,-1140.300049,21.90000153,-916.500061,1.182796401,-0.416915563,0.117429727,ST
20.0333333333333,-3.893312693,-1.224996805,9.77604866,1.592997909,5.282045841,1.524399996,-1125.900024,16.5,-935.7000122,1.183575452,-0.391704159,0.120541772,ST
20.0666666666667,-4.008754253,-1.186715603,10.09127045,0.983237982,3.437521935,1.432935953,-1125.900024,16.5,-933.3000488,1.180472927,-0.383982005,0.115811397,ST
20.1,-3.911854982,-0.669322014,8.916517258,2.46952796,3.963439941,0.213415995,-1111.5,18.90000153,-926.1000366,1.168724972,-0.413425685,0.078327435,ST
20.1333333333333,-3.380105972,-0.543113828,8.797487259,2.263733864,3.117398024,-0.983237982,-1113.900024,15.30000019,-914.1000366,1.167277544,-0.378988808,0.062033844,ST
20.1666666666667,-2.741289139,-0.881662726,8.378787041,2.286599874,1.356715918,-0.891773999,-1113.900024,15.90000057,-921.3000488,1.183020839,-0.327285735,0.095001586,ST
20.2,-3.970473051,-0.854746282,8.177212715,1.493911982,-0.114329994,-1.288118005,-1104.300049,15.90000057,-928.500061,1.189167921,-0.424725026,0.10081458,ST
20.2333333333333,-4.774377346,-1.03777802,8.307607651,0.571649969,0.663114011,-0.754577994,-1111.5,8.700000763,-918.9000244,1.199635102,-0.500159907,0.119097064,ST
20.2666666666667,-4.174439907,-0.64958328,8.082705498,0.312501997,-0.213415995,-0.221037999,-1111.5,9.300000191,-930.9000244,1.185200573,-0.479548268,0.08675298,ST
20.3,-3.963893414,-0.957626879,7.85541153,0.396344006,-0.015244,1.74543798,-1116.300049,8.700000763,-938.1000366,1.194048304,-0.467202198,0.113692479,ST
20.3333333333333,-5.233152866,-1.22619307,8.538491249,0.182927996,0.381099999,1.676839948,-1101.900024,10.5,-921.3000488,1.201200501,-0.530382214,0.135008685,ST
20.3666666666667,-6.214107513,-0.892429292,10.28088093,-0.282013983,-0.571649969,0.945127964,-1113.900024,12.90000057,-921.3000488,1.178965734,-0.539106671,0.095957945,ST
20.4,-5.478989601,-0.318810195,9.28676796,1.493911982,-0.564027965,1.42531395,-1106.700073,14.10000038,-921.3000488,1.150958468,-0.533496041,0.043399793,ST
20.4333333333333,-4.225281715,-0.648985147,9.312487602,1.105189919,-0.457319975,0.907018006,-1111.5,17.10000038,-923.7000122,1.159210344,-0.446321095,0.062312735,ST
20.4666666666667,-2.716167212,-0.190209463,8.086295128,0.564027965,-2.004585981,0.160062,-1116.300049,15.90000057,-923.7000122,1.146298022,-0.341602556,0.028754413,ST
20.5,-2.895011902,-0.260790348,7.637687683,0.815553963,-0.594515979,0.068598002,-1111.5,12.90000057,-930.9000244,1.147904442,-0.357814662,0.031988262,ST
20.5333333333333,-4.202552319,0.007177716,8.905750275,0.884151995,0.381099999,-0.228659987,-1111.5,13.50000095,-930.9000244,1.138856036,-0.42466681,0.004890913,ST
20.5666666666667,-2.766411304,0.331969351,8.814832687,1.04421401,2.278977871,0.571649969,-1118.700073,17.70000076,-923.7000122,1.125119714,-0.331424176,-0.031218997,ST
20.6,-4.293470383,0.205163032,9.596606255,1.150921941,4.070147991,2.17227006,-1118.700073,17.70000076,-916.500061,1.122752331,-0.410376369,-0.026231471,ST
20.6333333333333,-4.153504848,0.526365817,8.866272926,0.907018006,2.896359921,3.307947874,-1104.300049,10.5,-928.500061,1.103792084,-0.436181081,-0.056492525,ST
20.6666666666667,-4.453772545,1.132284641,8.049209595,0.586893976,3.38416791,2.294221878,-1111.5,9.900000572,-928.500061,1.066986197,-0.494249833,-0.127326265,ST
20.7,-5.600412846,1.153817773,8.31418705,0.342989981,3.048799992,1.417691946,-1089.900024,8.100000381,-914.1000366,1.058511088,-0.573252669,-0.137772974,ST
20.7333333333333,-4.639794827,1.348812342,7.491740704,0.678357959,2.080806017,0.541162014,-1077.900024,6.300000191,-930.9000244,1.039454921,-0.555395268,-0.171833562,ST
20.7666666666667,-3.710879087,1.239352226,7.268035412,0.42683199,1.280496001,-0.754577994,-1073.100098,17.70000076,-918.9000244,1.042195739,-0.484148306,-0.169635999,ST
20.8,-5.531028271,1.227389336,7.274614811,0.282013983,0.929883957,-0.80793196,-1087.5,10.5,-921.3000488,1.044998028,-0.616075806,-0.167602097,ST
20.8333333333333,-5.64347887,0.853550017,8.423048973,-0.358233988,0.983237982,-1.082324028,-1080.300049,10.5,-926.1000366,1.077509949,-0.595324267,-0.112797565,ST
20.8666666666667,-5.805575848,0.924130917,8.433815956,-0.160062,-0.967993975,-1.288118005,-1068.300049,8.700000763,-916.500061,1.082449594,-0.597987367,-0.108340815,ST
20.9,-5.585459232,0.299071491,8.939845085,-0.259148002,0.121951997,-1.524399996,-1077.900024,11.70000076,-916.500061,1.121150658,-0.564929396,-0.04318188,ST
20.9333333333333,-5.036363602,-0.303856641,9.143213272,-0.457319975,-2.225623846,-2.484771967,-1082.700073,15.30000019,-923.7000122,1.158455636,-0.51275023,0.020848752,ST
20.9666666666667,-4.569812298,-0.507823408,7.777054787,-0.106707998,-1.8292799,-2.507637978,-1077.900024,6.900000095,-926.1000366,1.183330023,-0.52473505,0.060321602,ST
21.0,-4.487268448,-0.756650865,8.265737534,-0.335367978,-1.333850026,-1.814036012,-1087.5,18.90000153,-926.1000366,1.199954604,-0.498720371,0.087647886,NLL
21.0333333333333,-3.585867167,-1.385897279,7.53301239,0.175305992,-0.525918007,-1.74543798,-1073.100098,8.100000381,-928.500061,1.239672655,-0.447907208,0.16639708,NLL
21.0666666666667,-3.324478626,-1.309933066,7.48396492,-0.320124,-0.609759986,-1.653973937,-1085.100098,11.10000038,-933.3000488,1.245460988,-0.418374541,0.17331359,NLL
21.1,-4.603906631,-0.696238399,8.494826317,-2.050318003,-2.400929928,-1.006103992,-1085.100098,20.10000038,-933.3000488,1.212981196,-0.479710386,0.100306752,NLL
21.1333333333333,-4.264759541,-0.913364291,7.033563137,-3.079288006,-2.865871906,-0.884151995,-1089.900024,15.90000057,-933.3000488,1.224336561,-0.526730883,0.129053399,NLL
21.1666666666667,-8.083902359,0.369054228,8.427236557,-7.865903854,-4.42838192,1.821658015,-1094.700073,17.10000038,-933.3000488,1.138356789,-0.710951028,0.006303002,NLL
21.2,-7.886515141,-1.791438222,5.153599739,-16.57022858,-11.34153557,17.39340401,-1106.700073,26.10000038,-933.3000488,1.253141651,-0.909570532,0.243780936,NLL
21.2333333333333,-7.039544582,-1.788447499,3.089408398,-25.09924507,-11.9284296,22.32483673,-1121.100098,27.90000153,-926.1000366,1.327460127,-1.064230357,0.430250276,NLL
21.2666666666667,-5.06447649,-5.53760767,7.549162388,-28.06420326,-7.843037605,27.91938591,-1130.700073,42.90000153,-921.3000488,1.369763861,-0.608583815,0.614936548,NLL
21.3,-4.904174328,-4.785143852,7.50250721,-24.74101067,-8.475664139,26.41022873,-1140.300049,48.30000305,-914.1000366,1.272478626,-0.535567725,0.587827048,NLL
21.3333333333333,-2.186810732,-7.889505863,8.147903442,-21.35684395,-5.990891933,23.38429642,-1125.900024,63.90000153,-894.9000244,1.272348017,-0.277706187,0.753944837,NLL
21.3666666666667,-4.186402798,-5.955111504,8.769971848,-14.72570324,-6.089977741,15.28210926,-1123.5,60.30000305,-880.500061,1.191494464,-0.364038242,0.641775647,NLL
21.4,-3.686355114,-6.546076775,9.172522545,-9.695183754,-2.87349391,13.86441803,-1113.900024,66.30000305,-885.3000488,1.15237279,-0.334013212,0.631246997,NLL
21.4333333333333,-2.86630106,-6.168648243,8.955994606,-4.687530041,-3.048799992,7.545779705,-1118.700073,66.90000153,-868.500061,1.123863291,-0.273222923,0.611120744,NLL
21.4666666666667,-3.47102356,-4.262366772,8.274111748,-1.509155989,-2.461905956,4.443625927,-1104.300049,67.5,-858.9000244,1.07793009,-0.341856498,0.501636488,NLL
21.5,-3.511099339,-4.096681118,8.70118618,-0.190549999,-1.707327962,3.254593849,-1116.300049,60.30000305,-868.500061,1.051130852,-0.348660503,0.448700493,NLL
21.5333333333333,-3.13725996,-4.140345573,7.591630459,0.411587983,-1.310984015,2.06556201,-1101.900024,65.1000061,-861.3000488,1.059456247,-0.34790587,0.488902931,NLL
21.5666666666667,-3.051725388,-3.654653549,7.668790817,0.419209987,-0.564027965,0.785066009,-1099.5,71.1000061,-866.1000366,1.04512167,-0.34528481,0.452000352,NLL
21.6,-2.65455842,-4.181617737,8.64854908,2.591480017,0.769822001,0.541162014,-1111.5,70.5,-870.9000244,1.045169962,-0.283656048,0.44681512,NLL
21.6333333333333,-0.565843225,-5.974252224,11.60277748,9.84000206,3.056421995,-12.43910408,-1109.100098,68.70000458,-880.500061,1.08074095,-0.085720697,0.45886609,NLL
21.6666666666667,-1.570125341,-3.726430655,9.439892769,16.93608284,-0.998481989,-20.28214073,-1118.700073,57.90000153,-882.9000244,1.119743604,-0.128948374,0.369713666,NLL
21.7,-3.244327545,-3.299954891,9.7682724,24.93156052,2.690565825,-28.4834137,-1142.700073,52.50000381,-904.500061,1.181661769,-0.25988742,0.308806908,NLL
21.7333333333333,-5.054906368,-2.786149979,7.305119991,25.59467506,0.685979962,-25.95290947,-1140.300049,46.5,-918.9000244,1.26487036,-0.49860216,0.330536954,NLL
21.7666666666667,-4.646972656,-2.825029135,6.984515667,21.06720734,1.105189919,-21.44068527,-1159.5,39.90000153,-930.9000244,1.346535972,-0.533483524,0.360565197,NLL
21.8,-4.899389267,-0.973776758,8.360244751,15.98333359,0.228659987,-17.56108856,-1161.900024,33.90000153,-926.1000366,1.296273994,-0.525354577,0.15119824,NLL
21.8333333333333,-4.960997581,0.089123301,8.323757172,12.39337158,1.135677934,-10.58695793,-1169.100098,21.30000114,-926.1000366,1.262146314,-0.536649418,0.013640289,NLL
21.8666666666667,-2.841179132,-0.730930686,9.150391579,8.765299797,2.705809832,-6.105221748,-1159.5,12.90000057,-928.500061,1.304237566,-0.348879906,0.059472589,NLL
21.9,-3.012248039,-0.061608724,8.284279823,6.410101891,1.890255928,-5.693634033,-1161.900024,17.70000076,-921.3000488,1.306033704,-0.351320876,0.010552341,NLL
21.9333333333333,-2.936882019,-0.291295618,7.757914543,3.079288006,0.419209987,-3.818621874,-1142.700073,14.10000038,-926.1000366,1.324711216,-0.360414806,0.030585947,NLL
21.9666666666667,-3.811965227,-0.681882977,7.083209038,0.228659987,-0.731711984,-2.23324585,-1159.5,18.30000114,-930.9000244,1.35162081,-0.467032423,0.084637933,NLL
22.0,-3.322684288,-1.058713078,9.447070122,-1.669217944,0.678357959,-0.129574001,-1149.900024,20.70000076,-928.500061,1.360256722,-0.363551676,0.108766134,NLL
22.0333333333333,-2.345916748,-1.233370781,9.376489639,0.327746004,-0.518296003,0.0,-1154.700073,19.5,-930.9000244,1.365710967,-0.266724807,0.125967733,NLL
22.0666666666667,-2.533733606,-1.016244888,9.08878231,1.417691946,-0.251525998,-1.95885396,-1140.300049,17.10000038,-921.3000488,1.367624447,-0.268956187,0.11268631,NLL
22.1,-2.379412651,-0.991122901,9.855601311,1.661595941,-0.175305992,-1.631107926,-1157.100098,16.5,-926.1000366,1.369399982,-0.241187387,0.100639893,NLL
22.1333333333333,-2.874675035,-0.885251582,9.416564941,1.875011921,0.487807989,-0.998481989,-1154.700073,17.10000038,-926.1000366,1.370983217,-0.285994893,0.092701804,NLL
22.1666666666667,-3.06189394,-1.210043192,9.32145977,2.25611186,3.071666002,-0.960371971,-1154.700073,17.70000076,-935.7000122,1.383883156,-0.314358389,0.120248443,NLL
22.2,-3.746767521,-1.175949097,9.265832901,2.545747995,5.968025684,-0.853663981,-1135.5,12.90000057,-942.9000244,1.390132845,-0.376953712,0.122284661,NLL
22.2333333333333,-3.657644272,-1.252511382,9.374694824,3.338435888,8.85676384,0.365855992,-1142.700073,13.50000095,-940.500061,1.39611575,-0.382928231,0.126486516,NLL
22.2666666666667,-4.660729885,-0.740500987,10.09127045,3.544229984,9.27597332,0.975615978,-1116.300049,14.10000038,-928.500061,1.380471774,-0.43488451,0.079075154,NLL
22.3,-5.09498167,-0.084936298,9.270019531,3.064043999,6.631139755,1.036592007,-1089.900024,12.30000019,-923.7000122,1.35502167,-0.498294904,0.018706011,NLL
22.3333333333333,-4.03148365,-0.125610024,8.671876907,2.393307924,4.527467728,1.150921941,-1097.100098,6.300000191,-933.3000488,1.35191008,-0.454180786,0.011224589,NLL
22.3666666666667,-4.572205067,-0.049645867,7.77346611,1.836901903,2.820139885,0.182927996,-1092.300049,9.300000191,-938.1000366,1.350504508,-0.519937257,0.004654405,NLL
22.4,-5.710471153,0.197387174,7.525236607,0.945127964,3.048799992,0.175305992,-1094.700073,10.5,-914.1000366,1.336914111,-0.630155298,-0.02198376,NLL
22.4333333333333,-5.006456852,0.266771764,8.012125015,0.640248001,2.621968031,0.548784018,-1082.700073,5.100000381,-928.500061,1.330564529,-0.576352098,-0.032600275,NLL
22.4666666666667,-5.481980324,0.335558206,8.257363319,0.182927996,1.707327962,1.150921941,-1068.300049,14.70000076,-918.9000244,1.323943534,-0.586413218,-0.0405946,NLL
22.5,-4.550671577,0.115441591,7.981619835,0.365855992,0.365855992,0.548784018,-1058.700073,7.500000477,-926.1000366,1.334203894,-0.530828066,-0.019986753,NLL
22.5333333333333,-3.701308727,-0.005981429,7.079021931,0.411587983,-1.135677934,-0.121951997,-1068.300049,3.900000095,-926.1000366,1.342884615,-0.490075614,-0.003745336,ST
22.5666666666667,-4.445996761,-0.259594053,7.726212978,1.006103992,-0.205793992,0.594515979,-1075.5,8.700000763,-909.3000488,1.356193039,-0.515283293,0.024058447,ST
22.6,-5.606394291,0.387596637,7.976834774,1.364337921,-0.457319975,-0.053353999,-1082.700073,9.300000191,-921.3000488,1.326004239,-0.594223885,-0.03680886,ST
22.6333333333333,-5.836678982,0.775791407,7.578471661,1.310984015,-0.685979962,0.678357959,-1085.100098,7.500000477,-923.7000122,1.295257979,-0.640860487,-0.09087224,ST
22.6666666666667,-5.762509346,1.335653305,6.997674465,-0.739333987,-0.93750596,2.286599874,-1077.900024,11.70000076,-904.500061,1.242212779,-0.670825867,-0.169672485,ST
22.7,-4.020717144,0.612498403,8.564808846,-1.463423967,0.701223969,1.082324028,-1075.5,10.5,-921.3000488,1.283017349,-0.485909379,-0.088360077,ST
22.7333333333333,-5.212217808,0.532347262,9.032556534,-0.198172003,-0.40396598,-1.440557957,-1063.5,13.50000095,-911.7000122,1.29845297,-0.516035383,-0.06244812,ST
22.7666666666667,-5.159581184,-0.28232348,8.532509804,-0.121951997,-0.381099999,-1.669217944,-1073.100098,5.100000381,-926.1000366,1.340601062,-0.537875202,0.015024317,ST
22.8,-5.134459496,-0.167480037,8.202932358,-0.823175967,-0.182927996,-2.019829988,-1085.100098,12.90000057,-923.7000122,1.347306465,-0.554566507,0.022188277,ST
22.8333333333333,-4.996886253,-1.009067178,8.376992226,-0.541162014,1.951231956,-1.74543798,-1075.5,3.300000191,-928.500061,1.392961399,-0.541345206,0.103886282,ST
22.8666666666667,-5.605197906,-1.193893313,9.018799782,-0.602137983,0.548784018,-2.903981924,-1070.700073,0.900000036,-918.9000244,1.41194434,-0.550545352,0.130073519,ST
22.9,-4.966979027,-0.980954468,9.499108315,-0.152439997,-1.189031959,-1.074702024,-1077.900024,6.300000191,-923.7000122,1.403187505,-0.492105926,0.109101963,ST
22.9333333333333,-4.776171684,-0.821250319,9.521838188,0.342989981,-0.884151995,1.265251994,-1065.900024,2.700000048,-923.7000122,1.391599319,-0.468171589,0.089181405,ST
22.9666666666667,-4.231861591,-0.687864423,8.229250908,0.548784018,0.480185986,1.760681987,-1068.300049,12.90000057,-914.1000366,1.385525274,-0.473429201,0.082479463,ST
23.0,-4.919725895,-0.811680019,7.28897047,0.259148002,1.486289978,0.579271972,-1080.300049,8.700000763,-926.1000366,1.396052806,-0.572015288,0.104661542,ST
23.0333333333333,-5.740976334,-0.751865745,7.241118908,0.289635986,1.646351933,0.518296003,-1070.700073,11.10000038,-914.1000366,1.394812889,-0.650730782,0.102898158,ST
23.0666666666667,-6.068758488,-1.054526091,7.695109367,-0.388722003,-0.571649969,0.762199998,-1061.100098,8.100000381,-918.9000244,1.40920973,-0.66051463,0.130180971,ST
23.1,-6.143526554,-0.800913453,8.070743561,-0.823175967,-0.72408998,1.798792005,-1070.700073,8.100000381,-930.9000244,1.387794368,-0.649603134,0.103231393,ST
23.1333333333333,-5.100963116,-1.365560412,7.193267345,-0.045731999,-0.548784018,1.600619912,-1073.100098,8.100000381,-914.1000366,1.425074696,-0.615238726,0.172108245,ST
23.1666666666667,-6.010140419,-1.133480906,8.73827076,0.182927996,0.548784018,0.518296003,-1070.700073,3.300000191,-918.9000244,1.403758048,-0.60252061,0.135901623,ST
23.2,-5.115318775,-1.290194392,8.338710785,1.013725996,-0.175305992,0.91463995,-1070.700073,7.500000477,-921.3000488,1.409930384,-0.555203318,0.148160863,ST
23.2333333333333,-5.518466949,-0.925925314,7.997171402,0.541162014,1.006103992,1.814036012,-1075.5,11.70000076,-918.9000244,1.39102832,-0.595048477,0.118510202,ST
23.2666666666667,-5.034569263,-0.175255895,8.828590393,-0.060975999,0.228659987,1.897877932,-1075.5,14.10000038,-928.500061,1.343803526,-0.53448685,0.037328834,ST
23.3,-5.507102489,0.485093951,8.8890028,0.121951997,-0.640248001,3.125020027,-1063.5,6.900000095,-911.7000122,1.298540805,-0.549404807,-0.038653004,ST
23.3333333333333,-5.042345047,0.9719823,9.012818336,0.282013983,-2.317087889,3.368923903,-1063.5,6.300000191,-926.1000366,1.262427006,-0.51203413,-0.097635235,ST
23.3666666666667,-5.018419743,0.905588448,8.52413559,1.021348,-6.021379948,1.631107926,-1082.700073,9.900000572,-930.9000244,1.257251744,-0.517512304,-0.106386872,ST
23.4,-5.188890457,0.637620389,7.886515141,1.646351933,-10.22872353,-0.945127964,-1073.100098,8.700000763,-928.500061,1.272991375,-0.553688396,-0.086820876,ST
23.4333333333333,-4.219300747,0.808091164,6.908551216,1.318606019,-13.3308773,-2.614346027,-1121.100098,8.100000381,-928.500061,1.271244666,-0.527840305,-0.109911663,ST
23.4666666666667,-3.643887043,1.067685246,7.272222042,2.179892063,-12.13422394,-2.36281991,-1137.900024,8.100000381,-926.1000366,1.26798025,-0.455529606,-0.139774581,ST
23.5,-3.456668139,1.005478382,6.763202667,2.370441914,-9.885733604,-2.027451992,-1147.5,7.500000477,-921.3000488,1.274295831,-0.452321069,-0.146968259,ST
23.5333333333333,-3.89032197,1.159201026,8.312991142,1.295740008,-6.189064026,-1.402447939,-1152.300049,6.300000191,-938.1000366,1.28325654,-0.42911136,-0.140487864,ST
23.5666666666667,-3.356180191,1.156808496,8.874049187,0.327746004,-4.809482098,-0.236281991,-1154.700073,12.30000019,-926.1000366,1.288825735,-0.366343955,-0.13176087,ST
23.6,-3.454275608,1.290792584,9.763487816,-0.198172003,-4.222588062,0.175305992,-1166.700073,5.700000286,-930.9000244,1.289736434,-0.337309827,-0.131047338,ST
23.6333333333333,-2.552276134,1.399654508,10.560812,-0.952749968,-3.894841909,0.998481989,-1166.700073,9.900000572,-930.9000244,1.288140794,-0.248853049,-0.13052974,ST
23.6666666666667,-0.220116615,0.917551339,9.736571312,-1.12805593,-3.490875959,0.129574001,-1190.700073,14.10000038,-928.500061,1.293164356,-0.063420379,-0.099740442,ST
23.7,-1.2895962,0.718369722,9.856200218,-1.135677934,-1.585376024,-1.082324028,-1185.900024,5.100000381,-928.500061,1.29779023,-0.114303321,-0.076486744,ST
23.7333333333333,-1.360775232,-0.130993307,10.30062008,-1.387203932,-0.015244,-0.670735955,-1188.300049,15.30000019,-930.9000244,1.30778848,-0.127979028,-0.003271128,ST
23.7666666666667,-1.622163773,-0.747080564,9.584044456,-1.577754021,0.411587983,-1.105189919,-1183.5,4.5,-923.7000122,1.319432611,-0.159844683,0.063774975,ST
23.8,-1.900898337,-0.363670915,10.21568394,-2.713431835,0.121951997,-1.028970003,-1185.900024,9.900000572,-935.7000122,1.317614573,-0.179131276,0.045323837,ST
23.8333333333333,-2.112042904,-0.110656448,9.503295898,-1.44817996,1.608241916,0.495429993,-1183.5,12.30000019,-928.500061,1.31110264,-0.212984742,0.020364903,ST
23.8666666666667,-1.549190283,-0.61668539,9.939341545,-1.227141976,2.698187828,1.211897969,-1173.900024,12.30000019,-930.9000244,1.314661963,-0.169371771,0.055590143,ST
23.9,-1.616182327,-0.855942607,8.423647881,-0.769822001,3.689047813,-0.693601966,-1183.5,2.100000143,-933.3000488,1.323445746,-0.190103551,0.093919153,ST
23.9333333333333,-2.310626268,-0.835605741,9.301721573,-1.661595941,6.455833912,0.076219998,-1157.100098,10.5,-930.9000244,1.323608865,-0.240932745,0.092954951,ST
23.9666666666667,-3.590054035,-1.035983682,8.561818123,-1.013725996,5.121984005,1.227141976,-1152.300049,11.10000038,-921.3000488,1.328274558,-0.37064535,0.11566683,ST
24.0,-3.623550177,-1.418197036,9.748534203,-1.364337921,7.43144989,1.844523907,-1154.700073,10.5,-938.1000366,1.33407358,-0.366760895,0.140161827,ST
24.0333333333333,-3.209635258,-2.393768072,8.228055,-0.40396598,3.742401838,1.707327962,-1135.5,11.70000076,-926.1000366,1.37373116,-0.366232001,0.257691231,ST
24.0666666666667,-4.904772282,-1.608406425,8.449965477,-0.663114011,4.390272141,0.472563982,-1118.700073,11.70000076,-933.3000488,1.35079259,-0.499136597,0.201850327,ST
24.1,-5.060887814,-2.076752424,10.03444672,-0.129574001,2.17227006,1.653973937,-1128.300049,15.90000057,-923.7000122,1.348623793,-0.469477477,0.202997887,ST
24.1333333333333,-4.687646389,-1.306942344,9.009827614,0.960371971,1.775925994,1.082324028,-1111.5,13.50000095,-935.7000122,1.32507816,-0.477294532,0.152620922,ST
24.1666666666667,-5.404819965,-0.808091164,8.665895462,0.83079797,0.548784018,2.080806017,-1123.5,15.30000019,-921.3000488,1.2966635,-0.542922302,0.10114614,ST
24.2,-3.468631029,-1.397261977,8.91950798,1.04421401,3.40703392,1.798792005,-1109.100098,16.5,-930.9000244,1.314473492,-0.403574117,0.143922161,ST
24.2333333333333,-3.813161373,-0.265575469,8.979920387,0.182927996,-0.282013983,2.19513607,-1104.300049,14.70000076,-930.9000244,1.272133766,-0.401995612,0.04830789,ST
24.2666666666667,-3.660634995,-0.542515695,8.125174522,0.594515979,1.067080021,2.096050024,-1101.900024,13.50000095,-918.9000244,1.273324,-0.420521545,0.061226944,ST
24.3,-3.949537992,-0.643003702,8.997864723,0.967993975,1.250007987,0.693601966,-1106.700073,8.100000381,-930.9000244,1.275525159,-0.416069445,0.067585997,ST
24.3333333333333,-4.026100159,-0.440233231,8.377590179,1.836901903,0.800309956,2.164648056,-1104.300049,5.700000286,-923.7000122,1.266218983,-0.44241303,0.051631209,ST
24.3666666666667,-3.82691884,0.065795727,7.985208511,1.524399996,0.72408998,2.080806017,-1104.300049,14.10000038,-935.7000122,1.241352288,-0.447152797,0.000321895,ST
24.4,-3.882545948,0.405540943,7.727408886,0.350611985,0.632625997,2.606724024,-1109.100098,12.30000019,-933.3000488,1.216791257,-0.46229223,-0.044033407,ST
