seconds,sensor_accX_m_s_,sensor_accY_m_s_,sensor_accZ_m_s_,sensor_gyroX____s_,sensor_gyroY____s_,sensor_gyroZ____s_,sensor_magX___T_,sensor_magY___T_,sensor_magZ___T_,sensor_yaw____,sensor_pitch____,sensor_roll____,label1
0.0,-0.275743902,0.097497307,9.70486927,0.42683199,-0.335367978,0.365855992,-1212.300049,-1.5,-899.7000122,2.050247645,-0.026421401,-0.008848327,ST
0.0333333333333333,-0.193200186,0.025720147,9.496715546,0.556405962,-0.564027965,0.602137983,-1212.300049,-2.100000143,-918.9000244,2.049294961,-0.021382538,-0.005182668,ST
0.0666666666666667,-0.097497307,0.056225438,9.743150711,0.213415995,-0.541162014,0.388722003,-1221.900024,3.300000191,-899.7000122,2.048562884,-0.012288514,-0.00589946,ST
0.1,-0.041271865,-0.029309006,9.648046494,0.29725799,-0.571649969,0.221037999,-1212.300049,-0.300000012,-897.3000488,2.048210682,-0.005640851,0.000309922,ST
0.133333333333333,-0.126208171,0.04844958,9.670775414,0.282013983,-0.487807989,-0.045731999,-1202.700073,-2.100000143,-890.1000366,2.048265977,-0.010397475,-0.003905334,ST
0.166666666666667,-0.117236026,0.019140575,9.663000107,0.373477995,-0.289635986,-0.099086002,-1207.5,0.900000036,-897.3000488,2.048483694,-0.011333904,-0.002934533,ST
0.2,-0.197387174,-0.014355431,9.657018661,0.259148002,-0.472563982,0.121951997,-1217.100098,-0.300000012,-897.3000488,2.048293603,-0.017639059,8.57546e-05,ST
0.233333333333333,-0.088525161,-0.081347443,9.605578423,-0.152439997,-0.350611985,0.274392009,-1209.900024,3.300000191,-887.7000122,2.047901499,-0.01132224,0.00612889,ST
0.266666666666667,-0.059814297,-0.078954875,9.7084589,-0.121951997,-0.396344006,0.282013983,-1219.5,3.300000191,-892.500061,2.047362825,-0.006935141,0.007787853,ST
0.3,-0.103478737,-0.07596416,9.628905296,0.114329994,-0.449698001,0.243903995,-1224.300049,-5.100000381,-892.500061,2.046910522,-0.009132517,0.007713918,ST
0.333333333333333,-0.044860724,-0.080151156,9.654625893,0.060975999,-0.449698001,0.365855992,-1205.100098,2.100000143,-906.9000244,2.046256215,-0.005380393,0.008053652,ST
0.366666666666667,-0.019738719,-0.075366013,9.719822884,-0.137196004,-0.472563982,0.335367978,-1214.700073,3.900000095,-909.3000488,2.045651239,-0.002409355,0.008008982,ST
0.4,-0.026916433,-0.081347443,9.721617699,0.213415995,-0.602137983,0.411587983,-1219.5,-2.700000048,-894.9000244,2.04488895,-0.001911813,0.007997726,ST
0.433333333333333,0.01614986,-0.046655152,9.680345535,0.381099999,-0.594515979,0.457319975,-1219.5,-2.100000143,-885.3000488,2.044091237,0.001313559,0.005310172,ST
0.466666666666667,0.078954875,0.005981429,9.663598061,0.388722003,-0.739333987,0.487807989,-1229.100098,3.300000191,-899.7000122,2.043260744,0.007008831,0.000692478,ST
0.5,0.091515876,-0.014355431,9.642065048,0.358233988,-0.861285985,0.556405962,-1221.900024,-2.100000143,-890.1000366,2.042292079,0.00979519,0.000817963,ST
0.533333333333333,0.143554315,-0.041271865,9.789207458,0.236281991,-0.762199998,0.525918007,-1217.100098,5.700000286,-906.9000244,2.04120959,0.014515084,0.003100989,ST
0.566666666666667,0.266771764,-0.0765623,9.613951683,0.655492008,-0.373477995,0.663114011,-1226.700073,4.5,-897.3000488,2.039915916,0.024577811,0.005815169,ST
0.6,0.17884475,-0.042468149,9.688719749,0.373477995,-0.236281991,0.480185986,-1229.100098,-0.900000036,-902.1000366,2.039051974,0.020433736,0.004317097,ST
0.633333333333333,0.122021168,-0.058618013,9.616942406,0.335367978,-0.160062,0.388722003,-1236.300049,2.100000143,-899.7000122,2.038290785,0.014921472,0.005205947,ST
0.666666666666667,0.157909751,-0.101086162,9.680345535,0.335367978,-0.282013983,0.350611985,-1219.5,4.5,-890.1000366,2.037543226,0.01632874,0.008701154,ST
0.7,0.144750595,-0.10946016,9.615148544,0.251525998,-0.282013983,0.190549999,-1224.300049,0.900000036,-899.7000122,2.037144859,0.015747721,0.010360555,ST
0.733333333333333,0.044860724,-0.078356728,9.828086853,0.335367978,-0.213415995,0.045731999,-1219.5,-3.300000191,-899.7000122,2.037075243,0.007905243,0.008204459,ST
0.766666666666667,0.075366013,-0.06998273,9.604381561,0.556405962,-0.213415995,0.228659987,-1236.300049,-6.900000095,-906.9000244,2.036656044,0.008130798,0.006836426,ST
0.8,0.095702872,0.0,9.690514565,0.480185986,-0.129574001,0.152439997,-1241.100098,2.100000143,-897.3000488,2.036431716,0.009508312,0.001471757,ST
0.833333333333333,0.084936298,0.021533147,9.687523842,0.586893976,-0.228659987,0.160062,-1229.100098,4.5,-897.3000488,2.03614415,0.009252056,-0.00206525,ST
0.866666666666667,0.056823581,0.026318291,9.613353729,0.449698001,-0.396344006,0.205793992,-1224.300049,3.900000095,-885.3000488,2.035759877,0.007297789,-0.003138403,ST
0.9,0.11424531,-0.01614986,9.590025902,0.243903995,-0.350611985,0.342989981,-1238.700073,0.300000012,-892.500061,2.035136533,0.010953063,-6.01008e-05,ST
0.933333333333333,0.236266479,-0.083740018,9.712645531,0.175305992,-0.259148002,0.228659987,-1217.100098,1.5,-894.9000244,2.034643337,0.020615233,0.00580064,ST
0.966666666666667,0.248827472,-0.07716044,9.744945526,0.365855992,-0.320124,-0.022865999,-1236.300049,0.300000012,-892.500061,2.034642066,0.024441031,0.006833932,ST
1.0,0.055029154,0.04844958,9.697691917,0.480185986,-0.411587983,-0.060975999,-1229.100098,1.5,-904.500061,2.034889942,0.011821688,-0.002025573,ST
1.03333333333333,-0.068786442,0.061608724,9.579259872,0.144817993,-0.632625997,0.716467977,-1219.5,5.100000381,-882.9000244,2.033672065,-0.000690327,-0.005278986,ST
1.06666666666667,0.272753209,-0.153124601,9.686925888,-0.304879993,-0.541162014,1.051836014,-1229.100098,2.700000048,-894.9000244,2.031588881,0.020907922,0.010415699,ST
1.1,0.311034352,-0.154919028,9.855601311,0.213415995,-0.373477995,0.685979962,-1236.300049,2.700000048,-892.500061,2.030224441,0.029086031,0.014013681,ST
1.13333333333333,0.208153754,-0.089123301,9.669579506,0.487807989,-0.236281991,0.198172003,-1224.300049,1.5,-899.7000122,2.029949854,0.023987802,0.009995471,ST
1.16666666666667,0.18482618,-0.07596416,9.636681557,0.327746004,-0.236281991,0.236281991,-1231.5,2.100000143,-902.1000366,2.029567085,0.020909269,0.008124534,ST
1.2,0.228490621,-0.07117901,9.670775414,0.213415995,-0.327746004,0.152439997,-1233.900024,1.5,-897.3000488,2.029300703,0.023248152,0.007318752,ST
1.23333333333333,0.275145769,-0.10886202,9.68214035,0.335367978,-0.342989981,0.045731999,-1229.100098,2.700000048,-894.9000244,2.029134896,0.027425052,0.009742289,ST
1.26666666666667,0.204564899,-0.119030453,9.611559868,0.381099999,-0.243903995,-0.007622,-1219.5,-3.900000095,-899.7000122,2.029091635,0.02342484,0.011123973,ST
1.3,0.088525161,-0.026318291,9.716234207,0.320124,-0.304879993,0.182927996,-1229.100098,2.700000048,-890.1000366,2.02887711,0.013786345,0.004852734,ST
1.33333333333333,0.237462759,-0.123217449,9.648644447,0.205793992,-0.289635986,0.381099999,-1241.100098,-0.300000012,-892.500061,2.028115151,0.02170057,0.010145749,ST
1.36666666666667,0.247631192,-0.080749303,9.750329018,0.274392009,-0.358233988,0.282013983,-1229.100098,0.900000036,-887.7000122,2.027649087,0.024715042,0.008515483,ST
1.4,0.212340757,-0.096899159,9.641466141,0.365855992,-0.289635986,0.205793992,-1226.700073,0.300000012,-890.1000366,2.027200754,0.02304412,0.009204476,ST
1.43333333333333,0.202172324,-0.081347443,9.652233124,0.29725799,-0.198172003,0.205793992,-1217.100098,2.700000048,-885.3000488,2.026850862,0.021813766,0.00830415,ST
1.46666666666667,0.187218755,-0.067590155,9.635484695,0.221037999,-0.144817993,0.205793992,-1231.5,2.100000143,-887.7000122,2.026477982,0.020237286,0.00707353,ST
1.5,0.188415036,-0.116637878,9.699486732,0.213415995,-0.137196004,0.114329994,-1231.5,3.300000191,-902.1000366,2.026191956,0.019817915,0.010397691,ST
1.53333333333333,0.187218755,-0.146545023,9.679747581,0.274392009,-0.099086002,0.129574001,-1224.300049,3.900000095,-885.3000488,2.025873362,0.019588424,0.013545495,ST
1.56666666666667,0.156713456,-0.153722748,9.686326981,0.327746004,-0.121951997,0.182927996,-1229.100098,2.100000143,-892.500061,2.025521149,0.017347519,0.01477421,ST
1.6,0.123815596,-0.147741318,9.706664085,0.350611985,-0.251525998,0.228659987,-1229.100098,1.5,-882.9000244,2.025111748,0.014438022,0.014662114,ST
1.63333333333333,0.187218755,-0.153722748,9.706664085,0.388722003,-0.190549999,0.29725799,-1224.300049,0.900000036,-902.1000366,2.024576912,0.018052914,0.015014215,ST
1.66666666666667,0.240453482,-0.144152462,9.583446503,0.754577994,0.015244,0.167683989,-1238.700073,2.700000048,-894.9000244,2.02423349,0.023383659,0.01403596,ST
1.7,0.086132586,0.019140575,9.73776722,0.693601966,-0.121951997,0.030487999,-1217.100098,-2.100000143,-887.7000122,2.024379266,0.012813475,0.001336221,ST
1.73333333333333,0.140563592,-0.030505292,9.60677433,0.510674,-0.373477995,0.350611985,-1224.300049,-3.300000191,-890.1000366,2.023751344,0.014539193,0.002004924,ST
1.76666666666667,0.25660333,-0.056225438,9.640868187,0.213415995,-0.266770005,0.472563982,-1224.300049,-4.5,-897.3000488,2.022880867,0.023303074,0.004431578,ST
1.8,0.273949474,-0.071777157,9.683336258,0.335367978,0.038109999,0.396344006,-1229.100098,3.300000191,-880.500061,2.022140006,0.026735893,0.006118689,ST
1.83333333333333,0.212938905,-0.07058087,9.700084686,0.434453994,-0.076219998,0.236281991,-1214.700073,0.900000036,-892.500061,2.021678678,0.023357546,0.006415775,ST
1.86666666666667,0.101684302,-0.031103434,9.609167099,0.525918007,-0.137196004,0.335367978,-1229.100098,-0.300000012,-878.1000366,2.021099864,0.014261655,0.003451613,ST
1.9,0.095702872,-0.016748004,9.628307343,0.304879993,0.022865999,0.312501997,-1236.300049,-3.900000095,-902.1000366,2.020508194,0.010989143,0.0017735,ST
1.93333333333333,0.072973445,-0.043664437,9.675560951,0.365855992,-0.022865999,0.449698001,-1224.300049,-9.900000572,-902.1000366,2.019686348,0.008559795,0.003275772,ST
1.96666666666667,0.098095447,-0.068188302,9.684533119,0.365855992,-0.175305992,0.388722003,-1231.5,1.5,-897.3000488,2.018987468,0.009868544,0.005466428,ST
2.0,0.126806304,-0.018542431,9.628307343,0.358233988,-0.282013983,0.327746004,-1231.5,1.5,-890.1000366,2.018444869,0.012519322,0.002558029,ST
2.03333333333333,0.07596416,-0.025720147,9.573278427,0.259148002,-0.327746004,0.350611985,-1221.900024,-0.300000012,-897.3000488,2.017835057,0.009712532,0.002336396,ST
2.06666666666667,0.135778457,-0.047253296,9.681542397,0.106707998,-0.243903995,0.274392009,-1236.300049,1.5,-890.1000366,2.017338842,0.013023478,0.003989155,ST
2.1,0.023327576,-0.032897864,9.688719749,0.274392009,-0.480185986,0.434453994,-1231.5,3.300000191,-892.500061,2.016541736,0.005928797,0.003216042,ST
2.13333333333333,0.104076877,-0.097497307,9.57626915,0.106707998,-0.693601966,0.777444005,-1226.700073,3.300000191,-902.1000366,2.015026526,0.010460018,0.008226507,ST
2.16666666666667,0.280529052,-0.145348743,9.729991913,0.038109999,-0.586893976,0.579271972,-1226.700073,3.300000191,-882.9000244,2.013901169,0.024263993,0.012973516,ST
2.2,0.266771764,-0.113647163,9.799974442,0.282013983,-0.472563982,0.335367978,-1241.100098,2.100000143,-897.3000488,2.013332558,0.026897876,0.011676954,ST
2.23333333333333,0.139367312,-0.049645867,9.548754692,0.609759986,-0.457319975,0.396344006,-1236.300049,-0.900000036,-906.9000244,2.012736035,0.018848347,0.006413801,ST
2.26666666666667,0.197985321,-0.053832866,9.717431068,0.236281991,-0.411587983,0.495429993,-1219.5,3.900000095,-894.9000244,2.01188528,0.020411904,0.005526243,ST
2.3,0.270360619,-0.120226741,9.668382645,0.266770005,-0.411587983,0.571649969,-1231.5,0.900000036,-887.7000122,2.010613524,0.026697542,0.010451842,ST
2.33333333333333,0.285314202,-0.093310304,9.70068264,0.320124,-0.434453994,0.442075998,-1236.300049,2.700000048,-878.1000366,2.009807184,0.029203802,0.00945806,ST
2.36666666666667,0.36008206,-0.142956167,9.675560951,0.373477995,-0.106707998,0.320124,-1241.100098,-3.900000095,-894.9000244,2.009068206,0.035232626,0.012912748,ST
2.4,0.276342064,-0.046057008,9.736571312,0.396344006,0.015244,0.228659987,-1233.900024,-3.300000191,-890.1000366,2.008845194,0.03032429,0.00659863,ST
2.43333333333333,0.220116615,-0.03828115,9.642065048,0.487807989,-0.053353999,0.419209987,-1226.700073,-0.300000012,-892.500061,2.008120982,0.024948858,0.004088774,ST
2.46666666666667,0.246434897,-0.018542431,9.640868187,0.312501997,-0.129574001,0.358233988,-1224.300049,2.700000048,-897.3000488,2.007480489,0.025562289,0.002100169,ST
2.5,0.21652776,-0.010766573,9.676158905,0.304879993,-0.152439997,0.320124,-1233.900024,-5.100000381,-897.3000488,2.006939892,0.023518105,0.00104712,ST
2.53333333333333,0.261388481,-0.092114016,9.673168182,0.304879993,-0.167683989,0.304879993,-1226.700073,6.300000191,-885.3000488,2.006261083,0.026166089,0.006610525,ST
2.56666666666667,0.167480037,-0.047253296,9.703075409,0.350611985,-0.29725799,0.29725799,-1226.700073,-4.5,-894.9000244,2.005768215,0.020298208,0.004973795,ST
2.6,0.205163032,-0.05443101,9.647447586,0.213415995,-0.449698001,0.320124,-1233.900024,2.100000143,-890.1000366,2.005113071,0.021628351,0.005208052,ST
2.63333333333333,0.28710863,-0.055029154,9.642065048,0.259148002,-0.42683199,0.327746004,-1231.5,-0.900000036,-890.1000366,2.004460511,0.028288838,0.005254177,ST
2.66666666666667,0.285912335,-0.078356728,9.703673363,0.29725799,-0.396344006,0.251525998,-1233.900024,-1.5,-902.1000366,2.003960377,0.02958602,0.006872693,ST
2.7,0.254808903,-0.087927014,9.661205292,0.312501997,-0.457319975,0.327746004,-1224.300049,-0.300000012,-894.9000244,2.003246771,0.027738929,0.008166987,ST
2.73333333333333,0.340941489,-0.0765623,9.717431068,0.221037999,-0.365855992,0.289635986,-1233.900024,0.300000012,-890.1000366,2.002805529,0.032853678,0.007744193,ST
2.76666666666667,0.263182908,-0.032897864,9.624718666,0.457319975,-0.304879993,0.243903995,-1238.700073,-0.900000036,-890.1000366,2.00243248,0.029174379,0.003972697,ST
2.8,0.269762486,-0.045458864,9.704271317,0.335367978,-0.396344006,0.144817993,-1224.300049,3.300000191,-890.1000366,2.002160116,0.028689954,0.004066233,ST
2.83333333333333,0.333165646,-0.081945591,9.688121796,0.274392009,-0.442075998,0.160062,-1226.700073,2.700000048,-902.1000366,2.001780341,0.033203193,0.006808429,ST
2.86666666666667,0.382213354,-0.090917729,9.701878548,0.236281991,-0.457319975,0.205793992,-1229.100098,-0.900000036,-911.7000122,2.0013383,0.038166531,0.008349652,ST
2.9,0.348119199,-0.057421725,9.645653725,0.266770005,-0.335367978,0.29725799,-1224.300049,2.700000048,-894.9000244,2.000878097,0.037110337,0.006361947,ST
2.93333333333333,0.375633776,-0.117834166,9.633690834,0.213415995,-0.236281991,0.396344006,-1229.100098,-5.700000286,-882.9000244,2.000030204,0.038694434,0.010223787,ST
2.96666666666667,0.354100645,-0.120226741,9.718029022,0.083841994,-0.129574001,0.396344006,-1226.700073,2.100000143,-878.1000366,1.999262133,0.037228541,0.011668173,ST
3.0,0.39297992,-0.143554315,9.711449623,0.144817993,-0.053353999,0.274392009,-1236.300049,-2.100000143,-890.1000366,1.998668081,0.0396206,0.013756136,ST
3.03333333333333,0.319408357,-0.176452175,9.648046494,0.243903995,-0.076219998,0.259148002,-1231.5,-2.100000143,-899.7000122,1.998047236,0.034893729,0.016797773,ST
3.06666666666667,0.32479164,-0.203368604,9.655223846,0.213415995,0.030487999,0.274392009,-1229.100098,0.300000012,-887.7000122,1.997451199,0.033941234,0.019581008,ST
3.1,0.302062213,-0.230285048,9.650438309,0.342989981,0.129574001,0.015244,-1229.100098,-1.5,-894.9000244,1.997319655,0.031847415,0.022249905,ST
3.13333333333333,0.231481329,-0.169872597,9.733580589,0.503051996,0.060975999,-0.175305992,-1229.100098,5.700000286,-899.7000122,1.997735087,0.025918214,0.018125205,ST
3.16666666666667,0.157909751,-0.182433605,9.53140831,0.571649969,-0.091463998,-0.045731999,-1236.300049,2.100000143,-897.3000488,1.997788063,0.019489175,0.018134624,ST
3.2,-0.105871305,-0.394176215,9.616942406,0.472563982,0.198172003,-0.243903995,-1214.700073,-3.300000191,-887.7000122,1.998102658,-0.002866171,0.034094017,ST
3.23333333333333,-0.537730515,-0.406139076,9.695299149,0.708845973,0.701223969,-0.068598002,-1221.900024,3.300000191,-890.1000366,1.998386394,-0.040416646,0.038663127,ST
3.26666666666667,-0.262584776,-0.40255022,9.920201302,0.967993975,0.716467977,0.312501997,-1219.5,-0.300000012,-885.3000488,1.99796113,-0.0315334,0.038793867,ST
3.3,-0.196789041,-0.086730734,9.739562035,1.082324028,0.144817993,0.556405962,-1221.900024,1.5,-906.9000244,1.996407832,-0.023660091,0.016131003,ST
3.33333333333333,-0.135180309,0.42827037,9.634288788,0.602137983,0.282013983,1.63872993,-1231.5,2.100000143,-897.3000488,1.992417418,-0.016893668,-0.029367198,ST
3.36666666666667,0.173461467,0.531150937,9.680345535,-0.060975999,0.983237982,2.995445967,-1214.700073,-0.900000036,-906.9000244,1.986615491,0.00766597,-0.048077795,ST
3.4,0.240453482,0.316417634,9.513463974,-0.487807989,1.410069942,3.498497963,-1229.100098,-9.300000191,-894.9000244,1.980334108,0.018428275,-0.037051153,ST
3.43333333333333,-0.165685609,-0.03229972,9.675560951,-0.800309956,2.042695999,2.964957952,-1219.5,-1.5,-906.9000244,1.974234778,-0.011298236,-0.005217524,ST
3.46666666666667,-0.224901751,-0.469542235,9.774253845,-0.396344006,1.821658015,1.730193973,-1226.700073,4.5,-909.3000488,1.971669597,-0.022308821,0.034519326,ST
3.5,-0.610703945,-0.453990519,9.773655891,0.129574001,1.486289978,0.632625997,-1214.700073,-2.100000143,-904.500061,1.970942277,-0.053255063,0.042951854,ST
3.53333333333333,-1.447505951,-0.376231939,9.780235291,0.952749968,1.8292799,0.548784018,-1197.900024,5.700000286,-894.9000244,1.969765075,-0.125822314,0.03827348,ST
3.56666666666667,-1.711287022,-0.174657747,9.147400856,0.602137983,2.751541853,1.920743942,-1209.900024,5.700000286,-892.500061,1.964372387,-0.172237641,0.023268607,ST
3.6,-1.659846783,-0.237462759,9.209009171,-0.198172003,3.445143938,2.49239397,-1202.700073,0.300000012,-899.7000122,1.960470515,-0.180733093,0.024740596,ST
3.63333333333333,-2.260980368,-0.561656237,9.010425568,-0.411587983,3.628072023,3.574717999,-1190.700073,5.100000381,-887.7000122,1.95975032,-0.230572262,0.050455376,ST
3.66666666666667,-1.87577641,-0.541917503,8.604885101,-0.381099999,4.298808098,5.061007977,-1195.5,3.900000095,-911.7000122,1.953245688,-0.224718059,0.058277877,ST
3.7,-1.747175574,-0.877475739,8.784327507,-1.036592007,3.864353895,4.626554012,-1193.100098,2.100000143,-904.500061,1.951548651,-0.208804043,0.088409903,ST
3.73333333333333,-2.287298679,-0.285912335,9.472789764,-0.876529992,3.155508041,3.361301899,-1195.5,7.500000477,-906.9000244,1.93637681,-0.233479826,0.046423877,ST
3.76666666666667,-2.512798548,-0.235668331,9.506884575,-0.121951997,2.240867853,3.582340002,-1173.900024,5.700000286,-916.500061,1.926597658,-0.2537671,0.030393376,ST
3.8,-1.833906293,-0.631639004,10.11699009,0.045731999,3.666181803,2.835383892,-1181.100098,0.300000012,-914.1000366,1.926873175,-0.203493974,0.053240309,ST
3.83333333333333,-2.246026754,-0.408531636,9.774852753,0.304879993,3.567095995,2.46952796,-1181.100098,3.300000191,-909.3000488,1.921206386,-0.223495574,0.044241952,ST
3.86666666666667,-2.620464325,-0.332567483,9.164148331,0.625003994,3.201239824,2.431417942,-1164.300049,6.300000191,-909.3000488,1.915759459,-0.266669475,0.037070995,ST
3.9,-2.759831667,-0.046057008,8.74245739,-0.464941978,5.068629742,2.25611186,-1159.5,2.700000048,-914.1000366,1.905518571,-0.300933381,0.014263706,ST
3.93333333333333,-3.081632614,0.437840641,7.757316113,-0.40396598,5.830830097,3.140264034,-1152.300049,6.900000095,-909.3000488,1.882314841,-0.36507396,-0.038486036,ST
3.96666666666667,-3.252103329,0.391185492,8.967957497,-1.310984015,10.44976139,3.650938034,-1133.100098,2.700000048,-918.9000244,1.87354885,-0.365405183,-0.042372026,ST
4.0,-4.724731445,0.782370985,8.752626419,0.548784018,6.707359791,3.254593849,-1121.100098,8.700000763,-911.7000122,1.85180578,-0.471370406,-0.080616168,ST
4.03333333333333,-5.135655403,0.906186581,8.024087906,0.53354001,4.298808098,2.248489857,-1116.300049,6.900000095,-914.1000366,1.838285806,-0.535387376,-0.102435225,ST
4.06666666666667,-4.742675781,0.47073853,8.519350052,0.602137983,2.583858013,-0.716467977,-1111.5,1.5,-916.500061,1.857372244,-0.51788882,-0.067251942,ST
4.1,-5.160777569,1.440926433,8.605483055,0.579271972,0.106707998,-0.228659987,-1106.700073,3.300000191,-899.7000122,1.82220758,-0.530292706,-0.139202639,ST
4.13333333333333,-4.883239269,1.299764633,7.329644203,0.518296003,0.282013983,1.006103992,-1106.700073,6.900000095,-909.3000488,1.806993749,-0.566308053,-0.166289558,ST
4.16666666666667,-5.199656963,1.542610765,7.678361416,-0.525918007,0.80793196,1.135677934,-1113.900024,11.10000038,-899.7000122,1.79148091,-0.581713651,-0.190187361,ST
4.2,-5.057897091,1.477413177,7.386467457,-0.160062,0.586893976,1.349093914,-1116.300049,9.300000191,-911.7000122,1.785676067,-0.589074768,-0.196426529,ST
4.23333333333333,-5.234947205,0.907382905,7.887113094,-0.861285985,-0.731711984,0.304879993,-1101.900024,4.5,-906.9000244,1.818463027,-0.58388044,-0.135042171,ST
4.26666666666667,-4.446594715,0.619676113,7.506096363,-0.571649969,-1.570132017,-0.525918007,-1111.5,1.5,-911.7000122,1.839527938,-0.546818707,-0.096671475,ST
4.3,-4.191785812,0.218322188,7.817728519,-0.571649969,-3.452765942,-2.164648056,-1116.300049,8.100000381,-914.1000366,1.868136232,-0.504685364,-0.045862149,ST
4.33333333333333,-3.788039446,-0.258397758,7.265642643,0.442075998,-5.701255798,-3.696669817,-1106.700073,6.900000095,-916.500061,1.904825768,-0.479284366,0.017278233,ST
4.36666666666667,-4.560242176,-0.298473328,7.560527325,1.013725996,-6.996995926,-3.071666002,-1121.100098,3.300000191,-926.1000366,1.916405873,-0.51187748,0.031902418,ST
4.4,-4.216907978,-0.116039738,9.475182533,-0.823175967,-6.699738026,-2.682943821,-1123.5,5.100000381,-911.7000122,1.914421186,-0.433168805,0.01962955,ST
4.43333333333333,-3.806581974,0.500047505,10.52911091,-1.227141976,-6.402479649,-2.19513607,-1154.700073,9.300000191,-914.1000366,1.900591635,-0.370620584,-0.021614891,ST
4.46666666666667,-3.318497181,0.405540943,11.21877003,-0.899396002,-5.457351685,-1.646351933,-1154.700073,10.5,-916.500061,1.900180455,-0.305853137,-0.030048918,ST
4.5,-3.858022213,-0.151928321,12.96833801,-1.105189919,-4.001549721,-2.477149963,-1159.5,11.70000076,-916.500061,1.913330769,-0.289056403,0.0020521,ST
4.53333333333333,-4.639196873,-0.966000915,13.23331547,-0.419209987,-4.588443756,-3.750023842,-1161.900024,4.5,-918.9000244,1.934828863,-0.31704281,0.054104419,ST
4.56666666666667,-5.820529461,-1.434944987,13.28954029,0.007622,-4.314052105,-2.400929928,-1173.900024,8.700000763,-923.7000122,1.951103562,-0.377086072,0.091855775,ST
4.6,-3.791030169,-1.819550872,10.44716549,0.586893976,-3.932951927,-0.076219998,-1171.5,8.700000763,-918.9000244,1.970593942,-0.349000634,0.1474438,ST
4.63333333333333,-1.844672918,-2.509209871,8.211306572,0.846041977,-1.166165948,0.769822001,-1185.900024,5.700000286,-918.9000244,2.000232732,-0.252828399,0.251322958,ST
4.66666666666667,-1.784260511,-3.170755863,7.847037792,0.198172003,-1.76830399,0.754577994,-1188.300049,5.700000286,-918.9000244,2.020521913,-0.218903961,0.347069981,ST
4.7,-0.845176041,-3.170157671,8.180203438,-0.144817993,-2.103672028,1.013725996,-1188.300049,12.30000019,-918.9000244,2.0203598,-0.131168263,0.362884916,ST
4.73333333333333,-0.396568775,-2.698821068,8.792701721,0.137196004,-3.048799992,2.660078049,-1190.700073,11.70000076,-916.500061,2.008580495,-0.061454302,0.312667476,ST
4.76666666666667,-0.565245092,-1.821345329,9.74973011,0.0,-3.010689974,2.881115913,-1188.300049,11.10000038,-906.9000244,1.99713821,-0.055815518,0.222933825,ST
4.8,-0.883457184,-0.884653449,10.13971996,0.114329994,-1.867389917,2.934469938,-1200.300049,16.5,-909.3000488,1.984119873,-0.077292606,0.120677655,ST
4.83333333333333,-0.584983826,0.089123301,9.310693741,0.350611985,-2.218001842,3.262215853,-1188.300049,6.300000191,-914.1000366,1.971720032,-0.064855741,0.028897507,ST
4.86666666666667,-0.666929424,0.533543527,7.760306835,1.615863919,-1.661595941,4.016793728,-1200.300049,13.50000095,-911.7000122,1.959071412,-0.077968977,-0.045488128,ST
4.9,-1.361373425,0.937290013,10.16962719,-1.867389917,0.769822001,2.903981924,-1207.5,11.10000038,-897.3000488,1.950502533,-0.11758347,-0.076550053,ST
4.93333333333333,-0.791941285,-0.36247465,8.814234734,0.701223969,1.55488801,3.452765942,-1207.5,6.300000191,-906.9000244,1.953390338,-0.099915069,0.004421566,ST
4.96666666666667,-1.662837505,-1.040768743,9.024781227,-0.625003994,1.95885396,2.096050024,-1195.5,3.300000191,-916.500061,1.959780397,-0.159296503,0.0816557,ST
5.0,-2.347711086,0.174657747,8.497219086,0.342989981,0.80793196,3.193617821,-1202.700073,10.5,-902.1000366,1.938389844,-0.243338625,0.00422229,ST
5.03333333333333,-3.495547533,-0.337950766,8.46073246,0.121951997,1.211897969,1.371959925,-1190.700073,8.700000763,-906.9000244,1.943437738,-0.354127651,0.029341063,ST
5.06666666666667,-3.207242727,-0.145348743,7.869767189,-1.265251994,0.625003994,1.196653962,-1193.100098,5.100000381,-918.9000244,1.938397024,-0.377868261,0.02275652,ST
5.1,-3.451883078,0.013757288,8.287270546,-0.823175967,1.158543944,2.461905956,-1190.700073,14.10000038,-902.1000366,1.926700093,-0.391821889,0.004543666,ST
5.13333333333333,-2.769402027,-1.058114886,7.450469017,-0.655492008,0.419209987,0.975615978,-1193.100098,15.30000019,-914.1000366,1.960299056,-0.365800428,0.100668436,ST
5.16666666666667,-2.668315887,-0.183629885,7.647257805,-0.838419974,1.928365946,-0.060975999,-1197.900024,18.30000114,-921.3000488,1.9417276,-0.347288347,0.047949197,ST
5.2,-2.688054562,-0.64958328,8.633595467,-1.410069942,1.493911982,0.716467977,-1178.700073,15.90000057,-916.500061,1.946591722,-0.31684374,0.068477231,ST
5.23333333333333,-2.204755068,-1.985236526,9.843040466,-1.394825935,1.76830399,-2.25611186,-1193.100098,11.10000038,-926.1000366,1.976293486,-0.248901623,0.162899861,ST
5.26666666666667,-2.168268204,-0.842783451,10.0392313,0.586893976,2.06556201,0.083841994,-1171.5,12.30000019,-909.3000488,1.962630704,-0.223684535,0.101735149,ST
5.3,-1.884150386,-1.558760524,11.1631422,0.83079797,2.797273874,0.556405962,-1171.5,11.70000076,-921.3000488,1.967837597,-0.184559408,0.127997717,ST
5.33333333333333,-2.031891584,-1.451094866,12.56399345,0.708845973,0.472563982,-1.692083955,-1178.700073,16.5,-921.3000488,1.969459932,-0.166571268,0.118038341,ST
5.36666666666667,-1.172360182,-1.038974285,10.92986679,1.562510014,0.967993975,0.167683989,-1171.5,15.30000019,-914.1000366,1.967003754,-0.123434209,0.098813082,ST
5.4,-0.105273165,-0.89422375,9.142017365,2.835383892,1.890255928,1.181409955,-1173.900024,6.300000191,-914.1000366,1.965268875,-0.044794598,0.094187335,ST
5.43333333333333,-0.164489314,-2.060602427,8.601295471,2.286599874,3.437521935,0.541162014,-1149.900024,17.70000076,-918.9000244,1.968915885,-0.030863241,0.189831691,ST
5.46666666666667,-3.226383209,-1.305148005,10.8987627,1.890255928,2.385685921,-0.708845973,-1157.100098,9.300000191,-926.1000366,1.96444798,-0.224591329,0.135546245,ST
5.5,-3.064884663,-1.215426564,8.686830521,3.429899931,3.125020027,0.449698001,-1157.100098,6.900000095,-930.9000244,1.965563318,-0.310909925,0.133604425,ST
5.53333333333333,-4.521960735,-0.504832685,8.916517258,1.646351933,3.864353895,-0.358233988,-1145.100098,2.100000143,-928.500061,1.948206869,-0.425929903,0.079229626,ST
5.56666666666667,-4.9897089,-0.300865918,8.847132683,1.905499935,3.140264034,0.678357959,-1130.700073,8.100000381,-911.7000122,1.933920636,-0.490916929,0.045362281,ST
5.6,-4.902977943,0.24822934,8.461330414,0.861285985,3.833865881,1.417691946,-1147.5,14.10000038,-918.9000244,1.906478701,-0.519707296,-0.008599866,ST
5.63333333333333,-4.934679508,0.726145566,8.31000042,0.663114011,3.155508041,2.835383892,-1128.300049,11.10000038,-930.9000244,1.873582047,-0.533833292,-0.06638178,ST
5.66666666666667,-3.811965227,0.403746516,7.114312649,0.114329994,3.849109888,2.850627899,-1137.900024,12.90000057,-916.500061,1.871319914,-0.508500409,-0.061834397,ST
5.7,-4.746862411,0.068188302,7.490544319,0.0,4.817103863,1.112811923,-1130.700073,12.30000019,-909.3000488,1.887317418,-0.55382787,-0.026339944,ST
5.73333333333333,-5.310911655,0.369652361,6.252986431,0.655492008,3.208861828,1.364337921,-1118.700073,3.900000095,-911.7000122,1.871965687,-0.661939598,-0.05074053,ST
5.76666666666667,-5.461045265,0.408531636,6.306221485,0.625003994,3.422277927,1.707327962,-1106.700073,4.5,-923.7000122,1.862104478,-0.702187438,-0.063341378,ST
5.8,-5.68116188,-0.297277063,7.939151764,0.434453994,1.669217944,0.106707998,-1101.900024,8.100000381,-918.9000244,1.908371483,-0.645805537,0.010327948,ST
5.83333333333333,-5.65005827,0.094506592,7.93077755,0.137196004,0.503051996,-1.547266006,-1099.5,11.10000038,-933.3000488,1.902077377,-0.627690042,-0.004116106,ST
5.86666666666667,-6.21051836,0.026318291,8.429030418,0.175305992,1.211897969,0.693601966,-1101.900024,15.30000019,-914.1000366,1.901195212,-0.634275287,-0.004261606,ST
5.9,-6.031075478,0.11484345,8.800477982,-0.221037999,0.571649969,0.960371971,-1089.900024,10.5,-921.3000488,1.895435633,-0.610675411,-0.011282114,ST
5.93333333333333,-4.973558903,-0.408531636,8.229250908,0.266770005,1.028970003,1.173787951,-1099.5,11.10000038,-909.3000488,1.917253695,-0.564896639,0.030601383,ST
5.96666666666667,-5.841464043,-0.608311415,8.187978745,-0.320124,0.373477995,-0.076219998,-1092.300049,9.300000191,-916.500061,1.933926518,-0.602822404,0.061125955,ST
6.0,-5.287583828,-0.368456066,7.74714756,-0.121951997,-0.975615978,0.487807989,-1106.700073,17.10000038,-916.500061,1.927482044,-0.598564082,0.051303644,ST
6.03333333333333,-4.78693819,-0.532347262,8.388955116,-0.045731999,-0.091463998,1.097568035,-1085.100098,13.50000095,-916.500061,1.93012787,-0.537860363,0.059595549,ST
6.06666666666667,-5.45506382,-0.266173631,7.779447556,0.320124,-0.708845973,1.250007987,-1087.5,15.30000019,-921.3000488,1.917944961,-0.590283931,0.039952805,ST
6.1,-4.892809391,0.194994614,7.943338871,0.045731999,-0.175305992,2.454283953,-1101.900024,6.900000095,-928.500061,1.885775158,-0.561047186,-0.011681279,ST
6.13333333333333,-4.715160847,-0.046655152,8.441592216,0.358233988,0.373477995,1.288118005,-1094.700073,11.70000076,-918.9000244,1.88990948,-0.523409902,-0.000334894,ST
6.16666666666667,-5.016624928,0.315221339,7.720829487,1.455801964,-0.182927996,1.028970003,-1104.300049,9.300000191,-911.7000122,1.87327963,-0.56122121,-0.032077668,ST
6.2,-4.726525784,-0.104076877,7.378691673,0.701223969,-1.173787951,0.632625997,-1099.5,3.900000095,-916.500061,1.889832445,-0.56588899,-0.000613318,ST
6.23333333333333,-4.528540611,0.023327576,8.137137413,0.525918007,-2.736297846,0.419209987,-1094.700073,5.700000286,-904.500061,1.888382341,-0.521947217,-0.003171655,ST
6.26666666666667,-4.972362518,0.063403152,7.809354782,0.83079797,-3.201239824,0.586893976,-1109.100098,8.100000381,-916.500061,1.885779773,-0.54950503,-0.008045713,ST
6.3,-5.082420826,-0.176452175,9.069044113,0.72408998,-2.347575903,0.358233988,-1111.5,7.500000477,-916.500061,1.895965865,-0.516879951,0.011751912,ST
6.33333333333333,-4.707385063,-0.728538156,8.469106674,0.358233988,-1.928365946,0.243903995,-1113.900024,3.300000191,-906.9000244,1.918333101,-0.508114872,0.057639985,ST
6.36666666666667,-4.639196873,-0.744089842,9.265832901,-0.929883957,-0.160062,-0.121951997,-1106.700073,3.900000095,-909.3000488,1.925792165,-0.476318081,0.074674707,ST
6.4,-3.661831379,-1.073666692,9.301721573,-1.166165948,-1.463423967,0.503051996,-1104.300049,6.900000095,-935.7000122,1.936683863,-0.400891411,0.104761761,ST
6.43333333333333,-3.990211725,-0.919943869,9.350171089,-0.739333987,-1.219519973,0.815553963,-1130.700073,5.700000286,-918.9000244,1.932943627,-0.400006236,0.10042342,ST
6.46666666666667,-4.061988831,-0.218322188,9.311291695,-0.358233988,-1.318606019,0.647870004,-1109.100098,10.5,-918.9000244,1.910423587,-0.406585312,0.046730814,ST
6.5,-3.174344778,0.084338158,8.822010994,0.449698001,-1.55488801,1.798792005,-1118.700073,11.70000076,-916.500061,1.891997067,-0.361210363,0.004839457,ST
6.53333333333333,-2.738896608,-0.558067381,8.797487259,-0.457319975,-1.364337921,0.792688012,-1116.300049,10.5,-930.9000244,1.904356458,-0.316947241,0.046958054,ST
6.56666666666667,-4.244422436,-0.430064797,8.111416817,0.091463998,-1.036592007,0.960371971,-1125.900024,6.300000191,-916.500061,1.904011755,-0.434820082,0.050462978,ST
6.6,-4.154701233,-0.857737005,8.369216919,-0.160062,1.006103992,0.503051996,-1125.900024,9.900000572,-921.3000488,1.91944772,-0.453899046,0.088385933,ST
6.63333333333333,-5.301939487,0.044262581,8.030069351,0.785066009,1.417691946,-0.060975999,-1123.5,8.700000763,-914.1000366,1.888459246,-0.548309163,0.022126923,ST
6.66666666666667,-5.188890457,-1.048544645,8.564808846,0.632625997,1.775925994,-0.42683199,-1118.700073,12.90000057,-911.7000122,1.925877594,-0.546154863,0.091505087,ST
6.7,-5.065672874,-0.801511586,9.142615318,0.068598002,0.388722003,-1.966475964,-1121.100098,12.30000019,-914.1000366,1.928124657,-0.517176984,0.089965102,ST
6.73333333333333,-3.618764877,-2.126398325,8.159866333,0.93750596,0.304879993,-0.891773999,-1113.900024,4.5,-914.1000366,1.984929233,-0.4392308,0.20855124,ST
6.76666666666667,-4.871874332,-1.414009929,9.849021912,0.015244,-1.204275966,-3.262215853,-1116.300049,12.30000019,-918.9000244,1.9705722,-0.448535322,0.164286933,ST
6.8,-5.214012146,-0.35529694,8.412282944,2.324709892,-1.12805593,-0.503051996,-1118.700073,12.30000019,-916.500061,1.932632236,-0.521820099,0.077990288,ST
6.83333333333333,-4.622448921,-0.757248998,7.211809635,0.967993975,-0.114329994,0.060975999,-1128.300049,10.5,-918.9000244,1.942191942,-0.553657595,0.09517526,ST
6.86666666666667,-5.477793217,-0.586778283,8.232241631,-0.72408998,-0.40396598,-0.373477995,-1109.100098,6.900000095,-926.1000366,1.933701969,-0.575746858,0.079643797,ST
6.9,-4.655944824,-1.025217056,6.806867123,-0.945127964,-0.434453994,0.586893976,-1123.5,11.70000076,-921.3000488,1.958980477,-0.588810175,0.128883134,ST
6.93333333333333,-6.409699917,-1.011459708,9.100745201,-1.867389917,-0.236281991,0.457319975,-1116.300049,8.100000381,-935.7000122,1.950422872,-0.603937402,0.118103877,ST
6.96666666666667,-5.049522877,-1.284212947,7.089788437,0.121951997,-2.454283953,1.730193973,-1113.900024,6.900000095,-906.9000244,1.970793339,-0.606628325,0.158801865,ST
7.0,-5.904269218,-1.556966186,7.219585896,-0.121951997,-0.640248001,1.04421401,-1118.700073,8.700000763,-926.1000366,1.990265018,-0.653608124,0.194704261,ST
7.03333333333333,-5.700302601,-0.022729432,7.565312386,0.739333987,-2.850627899,2.926847935,-1137.900024,8.700000763,-921.3000488,1.902642493,-0.647088222,0.056467623,ST
7.06666666666667,-3.998585701,-0.978561878,7.000067234,0.236281991,-1.928365946,3.125020027,-1125.900024,8.700000763,-923.7000122,1.930731739,-0.549509834,0.114532368,ST
7.1,-4.276124001,-0.787754297,9.652831078,-0.777444005,-1.432935953,1.692083955,-1128.300049,12.90000057,-928.500061,1.914965374,-0.449280279,0.089296828,ST
7.13333333333333,-3.682766199,-0.946262181,9.383069038,-0.350611985,-3.536607981,0.876529992,-1140.300049,6.300000191,-909.3000488,1.915933056,-0.388051531,0.097388279,ST
7.16666666666667,-2.808879375,-1.057516813,9.285571098,0.335367978,-2.423795938,2.545747995,-1137.900024,15.90000057,-926.1000366,1.914994868,-0.318262458,0.107046627,ST
7.2,-3.982435942,-0.689658821,9.542773247,0.007622,-1.432935953,2.06556201,-1140.300049,8.100000381,-918.9000244,1.901547155,-0.374653036,0.079572374,ST
7.23333333333333,-3.381302118,-1.416402578,9.261645317,0.358233988,-1.63872993,2.835383892,-1157.100098,3.300000191,-926.1000366,1.914326555,-0.353470633,0.128363871,ST
7.26666666666667,-2.9111619,-1.499544382,9.011023521,0.541162014,-1.410069942,2.538125992,-1149.900024,9.300000191,-906.9000244,1.918154966,-0.319020228,0.153533336,ST
7.3,-2.923722744,-1.817158341,9.909434319,0.358233988,-1.951231956,1.775925994,-1159.5,4.5,-916.500061,1.920439613,-0.291483332,0.171832357,ST
7.33333333333333,-2.685662031,-1.699922323,9.861582756,0.846041977,-2.553369999,1.42531395,-1159.5,9.300000191,-914.1000366,1.916929935,-0.267358069,0.169278876,ST
7.36666666666667,-2.064191341,-1.823139787,9.223962784,2.141782045,0.007622,1.219519973,-1166.700073,9.300000191,-928.500061,1.919596463,-0.231830704,0.184458479,ST
7.4,-3.493753195,-1.105368257,9.887901306,1.760681987,-1.265251994,1.04421401,-1159.5,6.300000191,-911.7000122,1.903187935,-0.308668432,0.128289465,ST
7.43333333333333,-2.399151564,-0.504832685,7.518657207,2.949713945,-0.40396598,2.271355867,-1166.700073,8.100000381,-914.1000366,1.886566706,-0.308267751,0.080950783,ST
7.46666666666667,-3.888527393,-0.380418926,8.109622002,1.661595941,0.61738199,1.318606019,-1149.900024,5.700000286,-926.1000366,1.876363291,-0.40580573,0.054869031,ST
7.5,-5.777462959,0.199181616,8.528920174,1.196653962,-0.602137983,2.042695999,-1159.5,6.900000095,-921.3000488,1.848758963,-0.53747167,-0.000811344,ST
7.53333333333333,-4.269544601,-0.273949474,8.746644974,-0.487807989,-0.708845973,2.515259981,-1157.100098,15.90000057,-906.9000244,1.855097999,-0.4782568,0.020832905,ST
7.56666666666667,-4.1140275,-0.148937598,8.734682083,-0.685979962,-2.271355867,2.103672028,-1166.700073,10.5,-906.9000244,1.849853011,-0.44885899,0.017699432,ST
7.6,-3.303543568,-0.461766362,8.832777023,0.007622,-1.028970003,2.301843882,-1159.5,9.900000572,-904.500061,1.855569024,-0.383828959,0.040854474,ST
7.63333333333333,-4.234253883,-0.041271865,9.256262779,-0.259148002,-2.522881985,1.95885396,-1171.5,12.30000019,-916.500061,1.842059727,-0.412466585,0.01483796,ST
7.66666666666667,-4.145130634,0.136974737,9.018799782,0.342989981,-1.173787951,2.705809832,-1164.300049,8.100000381,-926.1000366,1.827847096,-0.424496607,-0.009268106,ST
7.7,-4.112831116,0.46834594,8.177212715,-0.350611985,-0.29725799,1.920743942,-1157.100098,8.700000763,-918.9000244,1.809384654,-0.453776174,-0.044557526,ST
7.73333333333333,-5.767892838,0.25181818,9.200634956,-0.525918007,-0.038109999,2.36281991,-1166.700073,8.700000763,-930.9000244,1.810453943,-0.527678494,-0.033800452,ST
7.76666666666667,-3.229373932,-0.229088753,8.667689323,-1.516777992,-1.882633924,0.632625997,-1164.300049,10.5,-921.3000488,1.828884006,-0.401352286,0.012131653,ST
7.8,-3.664822102,0.279332757,9.430920601,-1.227141976,-2.225623846,1.577754021,-1183.5,17.10000038,-916.500061,1.814699508,-0.377116091,-0.016464664,ST
7.83333333333333,-2.984135389,-0.112450875,9.677354813,-0.922261953,-1.699705958,1.806414008,-1169.100098,8.700000763,-904.500061,1.818125573,-0.320491177,0.003643627,ST
7.86666666666667,-2.795720339,-0.072375298,8.370412827,-0.038109999,-1.242385983,1.493911982,-1173.900024,12.30000019,-916.500061,1.816569252,-0.320278167,0.006579441,ST
7.9,-3.399844646,0.418700069,8.713149071,-0.29725799,-0.091463998,0.868907988,-1176.300049,9.900000572,-909.3000488,1.802380481,-0.356158948,-0.031383527,ST
7.93333333333333,-2.801701784,-0.229088753,7.824906349,-0.655492008,0.769822001,0.411587983,-1164.300049,12.90000057,-909.3000488,1.817316327,-0.347808065,0.015523788,ST
7.96666666666667,-3.488967896,-0.230285048,8.690419197,-0.754577994,0.358233988,-0.160062,-1164.300049,16.5,-911.7000122,1.820278067,-0.372806538,0.024481453,ST
8.0,-3.608596563,0.01614986,9.616344452,-0.594515979,-0.564027965,0.495429993,-1178.700073,11.70000076,-921.3000488,1.812681604,-0.362496833,0.006643079,ST
8.03333333333333,-1.607808352,-0.530552804,9.228748322,-0.868907988,-1.036592007,1.204275966,-1173.900024,21.30000114,-914.1000366,1.820889787,-0.228489854,0.043139916,ST
8.06666666666667,-2.982340813,-0.897812605,10.43699646,-1.288118005,-0.693601966,0.312501997,-1171.5,9.300000191,-909.3000488,1.82733332,-0.261876305,0.074296886,ST
8.1,-2.707793236,-1.065890789,10.61763573,-0.602137983,-1.051836014,-0.114329994,-1178.700073,7.500000477,-916.500061,1.831876466,-0.251257167,0.093063911,ST
8.13333333333333,-1.687959433,-1.089218378,10.36043453,1.082324028,-3.460387945,-1.699705958,-1176.300049,11.70000076,-914.1000366,1.836555192,-0.178605625,0.100812073,ST
8.16666666666667,-1.836298943,-0.126208171,7.252483368,2.820139885,-6.204308033,-2.545747995,-1183.5,8.100000381,-914.1000366,1.828662016,-0.221714899,0.036541423,ST
8.2,-1.919440746,-0.692649543,7.768681049,1.935987949,-3.841487885,-2.073184013,-1200.300049,13.50000095,-914.1000366,1.840343908,-0.230663147,0.071231764,ST
8.23333333333333,-2.575603724,-0.573020995,8.744850159,1.402447939,-2.98020196,-2.713431835,-1195.5,18.90000153,-894.9000244,1.843906007,-0.265377832,0.066263175,ST
8.26666666666667,-3.780861616,-0.613694668,10.51116657,1.791170001,-3.300325871,-2.538125992,-1197.900024,12.30000019,-899.7000122,1.84667313,-0.316620999,0.059416332,ST
8.3,-3.025407076,-0.475523651,10.40888405,1.288118005,-3.780511856,-1.730193973,-1207.5,7.500000477,-911.7000122,1.846715096,-0.287567669,0.048565408,ST
8.33333333333333,-2.083332062,-0.720762253,10.51774597,0.312501997,-3.871975899,-0.571649969,-1205.100098,5.700000286,-902.1000366,1.850882902,-0.218186768,0.06224365,ST
8.36666666666667,-0.538328648,-0.957626879,9.314880371,-0.40396598,-3.765267849,-0.792688012,-1207.5,14.10000038,-904.500061,1.856301529,-0.099102181,0.091590778,ST
8.4,-1.116134763,-0.445616513,8.510976791,-0.510674,-1.387203932,0.167683989,-1214.700073,18.30000114,-904.500061,1.852803005,-0.119211683,0.064747087,ST
8.43333333333333,-1.183126807,-0.823044717,8.646755219,-2.248489857,0.548784018,1.631107926,-1224.300049,14.10000038,-918.9000244,1.852547575,-0.131353352,0.088316861,ST
8.46666666666667,-2.857927084,-0.192003891,9.082202911,-3.239349842,0.579271972,3.460387945,-1214.700073,14.70000076,-897.3000488,1.837437446,-0.253527085,0.04514782,ST
8.5,-2.135370493,-1.390084267,9.510473251,-5.160093784,1.463423967,7.057971954,-1221.900024,18.30000114,-921.3000488,1.841532584,-0.231918338,0.119457617,NLL
8.53333333333333,-3.159391165,-0.89422375,9.078016281,-7.423827648,2.934469938,10.39640808,-1207.5,20.10000038,-916.500061,1.815662938,-0.314725601,0.10941559,NLL
8.56666666666667,-1.741194248,-2.110846519,9.640270233,-7.843037605,6.288149834,11.85221004,-1202.700073,19.5,-911.7000122,1.815045614,-0.223751524,0.193419381,NLL
8.6,-2.388983011,-1.766914368,10.49441814,-5.983269691,8.811031342,12.27141953,-1202.700073,25.50000191,-914.1000366,1.790529844,-0.235477284,0.178533008,NLL
8.63333333333333,-2.776579618,-1.088620186,9.27659893,-3.589962006,7.545779705,11.82172203,-1181.100098,27.90000153,-918.9000244,1.758938589,-0.286148986,0.134779129,NLL
8.66666666666667,-1.936188817,-2.370440483,9.319067955,-4.519845963,7.225656033,13.25465775,-1157.100098,31.50000191,-921.3000488,1.757843495,-0.235214457,0.220091749,NLL
8.7,-3.472818136,-0.601133704,8.348879814,-4.573199749,3.490875959,7.660109997,-1147.5,31.50000191,-926.1000366,1.715328131,-0.352192697,0.121241127,NLL
8.73333333333333,-4.789330959,-1.053329825,7.407402515,-6.707359791,3.391789913,11.77598953,-1145.100098,36.90000153,-914.1000366,1.696858374,-0.521135423,0.137171568,NLL
8.76666666666667,-6.952215672,-0.132189602,6.547871113,-9.314084053,1.105189919,15.04582787,-1128.300049,36.30000305,-902.1000366,1.616275877,-0.737084846,0.05544461,NLL
8.8,-2.753850222,-3.74437499,7.464226246,-10.70890999,2.118916035,20.12970161,-1123.5,40.5,-902.1000366,1.752911418,-0.455353784,0.365982643,NLL
8.83333333333333,-2.40274024,-3.501528978,9.89208889,-8.887251854,0.358233988,12.29428577,-1116.300049,39.90000153,-899.7000122,1.72413312,-0.300370326,0.352977889,NLL
8.86666666666667,-2.890226841,-1.87338376,8.973938942,-2.660078049,-0.716467977,3.856731892,-1099.5,43.5,-887.7000122,1.683725031,-0.30539134,0.246194855,NLL
8.9,-5.054307938,-1.239352226,9.004444122,1.432935953,0.282013983,2.568614006,-1111.5,47.10000229,-892.500061,1.654511048,-0.439272145,0.173977851,NLL
8.93333333333333,-5.150609016,-1.722053647,7.96846056,2.324709892,-0.518296003,-0.053353999,-1097.100098,50.10000229,-885.3000488,1.667251597,-0.525408629,0.19750337,NLL
8.96666666666667,-5.012438297,-0.706406832,8.00614357,0.731711984,-2.057940006,-3.125020027,-1099.5,45.90000153,-890.1000366,1.633711481,-0.545518826,0.122586191,NLL
9.0,-4.999876976,-0.820053995,7.850626469,1.471045971,-1.570132017,-0.586893976,-1099.5,36.30000305,-894.9000244,1.628097682,-0.556915966,0.108203972,NLL
9.03333333333333,-2.992509365,-2.399749517,9.018201828,-0.022865999,-1.562510014,-1.966475964,-1111.5,45.30000305,-902.1000366,1.681588041,-0.380610308,0.22026026,NLL
9.06666666666667,-4.803088188,-1.175350904,8.166445732,2.500015974,-0.929883957,-2.743919849,-1109.100098,46.5,-897.3000488,1.663935222,-0.485221154,0.16378974,NLL
9.1,-4.209730148,-2.013349295,8.506191254,1.463423967,0.93750596,-1.013725996,-1113.900024,45.90000153,-902.1000366,1.688366359,-0.460905606,0.210965703,NLL
9.13333333333333,-4.728320122,-1.271651983,8.027676582,1.166165948,0.381099999,-1.013725996,-1116.300049,45.90000153,-899.7000122,1.673249558,-0.507394117,0.172996607,NLL
9.16666666666667,-5.223582745,-1.582088113,9.113306046,-0.350611985,0.922261953,1.097568035,-1116.300049,45.90000153,-887.7000122,1.670844038,-0.51384853,0.171946713,NLL
9.2,-4.243226051,-1.574312329,9.310693741,1.714949965,0.114329994,-0.068598002,-1118.700073,39.30000305,-894.9000244,1.669969371,-0.449978532,0.166743033,NLL
9.23333333333333,-3.662429333,-1.495357394,8.351272583,1.646351933,-0.335367978,-0.983237982,-1111.5,41.70000076,-902.1000366,1.675065522,-0.419690707,0.172589648,NLL
9.26666666666667,-3.858022213,-1.047946453,8.698793411,1.135677934,-0.205793992,-0.42683199,-1116.300049,37.5,-909.3000488,1.661029784,-0.416052386,0.134531608,NLL
9.3,-3.018827677,-1.726838708,8.391347885,2.080806017,1.250007987,-1.318606019,-1109.100098,37.5,-911.7000122,1.682445274,-0.363520709,0.181004628,NLL
9.33333333333333,-4.076942444,-1.33684957,8.877039909,2.210379839,1.539644003,-2.660078049,-1113.900024,40.5,-904.500061,1.67978647,-0.408742175,0.157883691,NLL
9.36666666666667,-3.238944292,-1.76272738,8.149100304,3.818621874,2.035073996,-3.734779835,-1118.700073,36.90000153,-906.9000244,1.702683538,-0.383818408,0.19400665,NLL
9.4,-4.27133894,-2.04744339,8.621034622,3.689047813,1.722571969,-3.292703867,-1094.700073,38.70000076,-897.3000488,1.72102401,-0.431658957,0.218960065,NLL
9.43333333333333,-3.463247776,-2.301055908,8.961976051,4.184477806,1.318606019,-5.670767784,-1106.700073,35.70000076,-911.7000122,1.74229679,-0.378415104,0.240451214,NLL
9.46666666666667,-2.719157934,-2.197577238,8.405104637,7.088459969,1.295740008,-8.025965691,-1106.700073,39.90000153,-909.3000488,1.761614296,-0.325157829,0.246173874,NLL
9.5,-3.280215979,-1.943366528,8.777748108,8.902495384,1.623485923,-11.68452549,-1109.100098,29.70000076,-918.9000244,1.777409998,-0.341085185,0.220580607,NLL
9.53333333333333,-5.877352715,-1.058114886,8.293850899,10.07628345,0.320124,-11.6159277,-1106.700073,31.50000191,-902.1000366,1.774343019,-0.538451221,0.148850628,ST
9.56666666666667,-5.347398281,-1.836897016,7.185491562,7.896391869,1.493911982,-9.458901405,-1116.300049,28.50000191,-923.7000122,1.833244619,-0.5999086,0.217427537,ST
9.6,-5.940755844,-0.638218522,7.780045509,6.524431705,1.478667974,-7.370473862,-1109.100098,26.10000038,-911.7000122,1.793562835,-0.638586328,0.116995684,ST
9.63333333333333,-5.209825516,-1.916450024,7.727408886,3.628072023,1.44817996,-3.38416791,-1101.900024,25.50000191,-926.1000366,1.854295045,-0.598458165,0.206455379,ST
9.66666666666667,-5.520859718,-1.082040668,8.732887268,2.987823963,0.769822001,-3.178373814,-1092.300049,25.50000191,-923.7000122,1.828881055,-0.572433636,0.146779638,ST
9.7,-4.534522057,-1.832111955,8.165847778,1.509155989,-0.434453994,-0.739333987,-1106.700073,22.5,-911.7000122,1.858201386,-0.51800656,0.198717338,ST
9.73333333333333,-3.794020891,-1.783662319,9.207214355,1.935987949,0.846041977,-1.074702024,-1113.900024,14.70000076,-918.9000244,1.858599201,-0.421970337,0.191565773,ST
9.76666666666667,-4.543494225,-0.650181413,8.263344765,3.437521935,0.099086002,-1.013725996,-1101.900024,18.30000114,-921.3000488,1.827182555,-0.478016264,0.109939009,ST
9.8,-3.794619083,-0.57900238,7.763895988,2.225623846,0.320124,-0.076219998,-1121.100098,27.90000153,-914.1000366,1.815813335,-0.45981371,0.079920704,ST
9.83333333333333,-4.798303127,-0.361278355,8.399722099,3.262215853,1.440557957,-0.373477995,-1104.300049,17.10000038,-914.1000366,1.8050758,-0.505040899,0.048974353,ST
9.86666666666667,-5.173936844,0.086730734,9.146801949,3.856731892,0.922261953,-1.524399996,-1099.5,21.90000153,-916.500061,1.788278508,-0.513498812,0.002035653,ST
9.9,-5.252891541,0.472532958,9.065454483,3.68142581,-0.510674,-1.471045971,-1094.700073,16.5,-914.1000366,1.773255998,-0.520787935,-0.039190076,ST
9.93333333333333,-4.006361485,-0.122021168,9.048109055,3.285081863,-0.792688012,-2.019829988,-1106.700073,12.90000057,-918.9000244,1.795181685,-0.447321091,-0.004543987,ST
9.96666666666667,-3.343619108,0.073571585,9.057679176,2.393307924,-2.332331896,-2.545747995,-1101.900024,19.5,-911.7000122,1.799255323,-0.378990666,-0.008686683,ST
10.0,-3.204849958,-0.869699895,8.825001717,0.838419974,0.449698001,-2.103672028,-1106.700073,14.10000038,-928.500061,1.830751797,-0.356982865,0.067647609,NLR
10.0333333333333,-3.19348526,-1.499544382,8.653932571,2.545747995,0.891773999,-2.858249903,-1109.100098,5.700000286,-921.3000488,1.861626056,-0.352376019,0.138508118,NLR
10.0666666666667,-3.115128517,-2.187408924,9.393237114,6.463455677,1.242385983,-6.234796047,-1097.100098,15.90000057,-914.1000366,1.894988215,-0.325014385,0.196664863,NLR
10.1,-1.707698226,-3.433340549,11.89048386,13.11746216,0.411587983,-15.25924397,-1104.300049,12.90000057,-923.7000122,1.940253549,-0.1857294,0.246692287,NLR
10.1333333333333,-5.738583565,-0.57421726,7.313494205,22.63733864,2.728675842,-15.8690033,-1092.300049,2.100000143,-914.1000366,1.934570357,-0.528228897,0.113833103,NLR
10.1666666666667,-4.606298923,-1.151425242,7.637687683,21.0748291,2.073184013,-16.06717491,-1082.700073,-0.300000012,-899.7000122,1.9825293,-0.535115898,0.124715129,NLR
10.2,-9.987791061,4.016530037,6.8601017,18.63578987,-1.295740008,-16.34156799,-1075.5,-8.100000381,-921.3000488,1.769037837,-0.808569339,-0.278848509,NLR
10.2333333333333,-5.020812035,1.069479585,5.171544075,8.186027527,0.838419974,-4.679907799,-1070.700073,-11.10000038,-892.500061,1.818926636,-0.777474226,-0.230284328,NLR
10.2666666666667,-8.003152847,3.432742596,7.000665188,2.08842802,-1.272873998,-1.631107926,-1061.100098,-12.90000057,-899.7000122,1.712711259,-0.794128455,-0.387064326,NLR
10.3,-2.453582525,0.321202785,8.082705498,-0.259148002,-2.888737917,4.740883827,-1075.5,-6.300000191,-897.3000488,1.859766002,-0.449905497,-0.132404659,NLR
10.3333333333333,-6.023299694,2.584575891,8.740064621,1.379581928,1.173787951,-4.108257771,-1070.700073,-7.500000477,-885.3000488,1.816633256,-0.546818675,-0.23718916,NLR
10.3666666666667,-5.008849144,1.249520659,8.903956413,1.722571969,-1.562510014,-0.579271972,-1058.700073,-21.30000114,-878.1000366,1.853646148,-0.518611331,-0.169906643,NLR
10.4,-6.242219925,1.104770064,8.927284241,4.839970112,-3.757645845,-4.21496582,-1073.100098,-13.50000095,-882.9000244,1.880400256,-0.57644809,-0.140325848,NLR
10.4333333333333,-4.594934464,0.811081886,8.135342598,7.096081734,-5.952781677,-4.161612034,-1068.300049,-9.300000191,-873.3000488,1.907172928,-0.523969525,-0.116004931,NLR
10.4666666666667,-4.519568443,1.950544238,8.215494156,9.420791626,-9.22262001,-7.797306061,-1065.900024,-15.30000019,-870.9000244,1.88611978,-0.491175228,-0.206636562,NLR
10.5,-2.376421928,1.192697048,6.522748947,12.41623783,-12.36288357,-7.347607613,-1092.300049,-20.10000038,-870.9000244,1.914009281,-0.375510308,-0.198216205,NLR
10.5333333333333,-3.401638985,2.844169855,9.631298065,14.85527802,-8.803409576,-13.77295399,-1085.100098,-27.90000153,-858.9000244,1.922343828,-0.335175047,-0.27174432,NLR
10.5666666666667,-2.110846519,3.53023982,7.795597553,17.30956078,-8.894873619,-11.08238792,-1092.300049,-23.70000076,-858.9000244,1.916934862,-0.263709233,-0.398105052,NLR
10.6,-2.948246717,4.926903725,8.421853065,12.58392143,-5.106739998,-11.75312328,-1092.300049,-24.30000114,-851.7000122,1.916428571,-0.285488831,-0.50032388,NLR
10.6333333333333,-2.921330214,5.185899734,7.496525764,7.065593719,-3.567095995,-6.059489727,-1085.100098,-29.10000038,-844.500061,1.908699725,-0.303039247,-0.579371313,NLR
10.6666666666667,-3.604409456,6.145918846,8.695204735,0.868907988,-1.036592007,-3.102154016,-1077.900024,-29.70000076,-839.7000122,1.906729655,-0.320458716,-0.604235855,NLR
10.7,-3.195279837,4.790526867,9.014014244,-0.327746004,-0.007622,0.038109999,-1068.300049,-35.10000229,-834.9000244,1.931746845,-0.308837153,-0.522819694,NLR
10.7333333333333,-2.448797226,4.048829556,8.777748108,-1.12805593,1.288118005,-1.295740008,-1065.900024,-26.10000038,-854.1000366,1.951350582,-0.267122996,-0.455167854,NLR
10.7666666666667,-4.297657013,3.607998371,9.349573135,0.182927996,1.562510014,-2.309465885,-1065.900024,-31.50000191,-830.1000366,1.973410258,-0.370295938,-0.39302109,NLR
10.8,-3.209635258,2.839384794,7.103546143,-0.137196004,0.853663981,-1.981719971,-1056.300049,-24.90000153,-837.3000488,1.979382021,-0.391024412,-0.383227612,NLR
10.8333333333333,-4.562634468,2.59833312,8.953003883,-1.189031959,1.623485923,-2.782029867,-1063.5,-27.30000114,-842.1000366,2.010928364,-0.439268317,-0.31094814,NLR
10.8666666666667,-3.466238499,2.892021179,8.864479065,-1.227141976,0.663114011,-0.960371971,-1058.700073,-24.90000153,-854.1000366,2.010675649,-0.379961299,-0.312337618,NLR
10.9,-4.487866879,3.201261282,9.667186737,-0.929883957,-0.304879993,-1.074702024,-1046.700073,-36.90000153,-813.3000488,2.010547451,-0.405930882,-0.3160152,NLR
10.9333333333333,-2.666521311,2.700017452,8.319570541,-0.419209987,0.137196004,0.388722003,-1056.300049,-33.30000305,-842.1000366,2.010232977,-0.326111976,-0.31420011,NLR
10.9666666666667,-3.436331272,2.700017452,9.280786514,-0.198172003,1.615863919,-0.815553963,-1051.5,-30.90000153,-844.500061,2.018102398,-0.339629524,-0.291303001,NLR
11.0,-3.451883078,3.256290436,8.31000042,0.327746004,0.769822001,0.060975999,-1061.100098,-29.10000038,-849.3000488,1.997973223,-0.361271528,-0.349084307,NLR
11.0333333333333,-4.066175938,3.585867167,8.174819946,-0.564027965,1.486289978,0.182927996,-1049.100098,-28.50000191,-849.3000488,1.979863943,-0.409215723,-0.393340705,NLR
11.0666666666667,-4.013539314,2.890825033,7.744156837,-1.989341974,2.042695999,1.120433927,-1039.5,-24.30000114,-839.7000122,1.986847788,-0.443306611,-0.364925434,NLR
11.1,-5.541794777,3.589456081,9.311291695,-2.019829988,1.204275966,0.922261953,-1044.300049,-24.30000114,-842.1000366,1.982870253,-0.490432282,-0.365407662,NLR
11.1333333333333,-4.058400154,3.119315624,6.599909782,-3.041177988,-2.431417942,4.900945663,-1056.300049,-32.70000076,-842.1000366,1.949636545,-0.497655037,-0.418049081,NLR
11.1666666666667,-4.204347134,3.606204033,8.767580032,-5.213448048,-1.166165948,5.061007977,-1056.300049,-28.50000191,-851.7000122,1.949668394,-0.437749007,-0.394675013,NLR
11.2,-5.151207447,4.557849407,7.5706954,-5.74698782,-3.40703392,7.461937904,-1065.900024,-25.50000191,-861.3000488,1.893228397,-0.493833766,-0.492034923,NLR
11.2333333333333,-3.178531647,1.845869184,7.204033852,-8.330845833,-1.547266006,12.3095293,-1089.900024,-27.90000153,-868.500061,1.947906863,-0.425704898,-0.318107616,NLR
11.2666666666667,-5.419175148,2.76282239,8.702382088,-6.478699684,-2.59910202,12.91928959,-1099.5,-19.5,-875.7000122,1.925608976,-0.500836979,-0.309380475,NLR
11.3,-4.305433273,1.665230036,6.019112587,-6.85217762,-7.065593719,17.17998695,-1113.900024,-24.90000153,-873.3000488,1.91357737,-0.552396808,-0.287137795,NLR
11.3333333333333,-1.574312329,1.459468842,8.996069908,-10.6936655,-4.02441597,12.77447128,-1133.100098,-12.90000057,-887.7000122,1.927487777,-0.273567813,-0.188412349,NLR
11.3666666666667,-1.869794965,1.958320141,9.77604866,-7.789683819,-4.641798019,11.15860748,-1135.5,-15.30000019,-873.3000488,1.906060708,-0.201094563,-0.188418249,NLR
11.4,0.613694668,0.426475942,10.37179947,-8.346089363,-2.202757835,6.768335819,-1161.900024,-16.5,-902.1000366,1.905538335,-0.016096034,-0.076222134,NLR
11.4333333333333,-1.79084003,1.957721949,11.73018169,-3.849109888,0.670735955,3.269837856,-1149.900024,-9.300000191,-906.9000244,1.894258106,-0.11798125,-0.139083493,NLR
11.4666666666667,-0.361876488,0.851157427,9.242505074,-2.286599874,-1.402447939,3.041177988,-1149.900024,-11.10000038,-894.9000244,1.892166692,-0.060591401,-0.103518782,NLR
11.5,-1.792634487,1.747773767,10.35265827,-1.532021999,1.478667974,0.655492008,-1149.900024,-6.300000191,-897.3000488,1.885772262,-0.142380776,-0.148503236,NLR
11.5333333333333,-1.772297621,0.804502308,9.53140831,-0.762199998,0.144817993,-0.053353999,-1161.900024,-10.5,-897.3000488,1.893058623,-0.17224809,-0.101012224,NLR
11.5666666666667,-2.97935009,1.482796431,9.691112518,-0.068598002,1.158543944,-0.449698001,-1161.900024,-4.5,-911.7000122,1.885744841,-0.262739277,-0.137396305,NLR
11.6,-2.353692532,1.119125485,9.180297852,-0.815553963,1.417691946,0.419209987,-1145.100098,-9.300000191,-909.3000488,1.88749713,-0.254641324,-0.124879887,NLR
11.6333333333333,-2.886039734,1.483394623,9.789207458,-0.480185986,1.455801964,0.312501997,-1149.900024,-9.300000191,-902.1000366,1.881637485,-0.277455488,-0.142914834,NLR
11.6666666666667,-1.433748722,1.341036558,9.24190712,-0.708845973,0.541162014,0.884151995,-1149.900024,-9.300000191,-904.500061,1.879678428,-0.190484702,-0.14324226,NLR
11.7,-0.882260859,0.772800744,8.895582199,0.266770005,2.225623846,-0.815553963,-1147.5,-10.5,-904.500061,1.886939907,-0.129033226,-0.10378315,NLR
11.7333333333333,-3.280814171,1.275838971,9.375292778,0.891773999,2.400929928,-1.471045971,-1135.5,-8.100000381,-902.1000366,1.884740356,-0.274804794,-0.126334525,NLR
11.7666666666667,-1.933198094,1.144247532,9.542773247,0.434453994,1.684461951,-1.34147191,-1125.900024,-13.50000095,-909.3000488,1.888295145,-0.219981535,-0.121296498,NLR
11.8,-2.932096958,1.464254022,9.470995903,1.402447939,1.974097967,-2.240867853,-1133.100098,-3.900000095,-897.3000488,1.886419071,-0.277560647,-0.145160533,NLR
11.8333333333333,-1.120321751,0.775791407,9.661803246,2.522881985,1.996963978,-3.231727839,-1128.300049,-6.300000191,-911.7000122,1.903213739,-0.158991099,-0.098649088,NLR
11.8666666666667,-3.752748966,1.462459564,9.019995689,4.954299927,3.00306797,-4.961921692,-1128.300049,-9.900000572,-902.1000366,1.901562749,-0.323936562,-0.14588941,NLR
11.9,-3.237747908,1.126901388,8.95659256,2.263733864,2.210379839,-3.307947874,-1101.900024,-9.300000191,-897.3000488,1.911905649,-0.341466773,-0.132938966,NLR
11.9333333333333,-2.392571926,1.206454396,9.56191349,3.932951927,1.653973937,-4.260697842,-1104.300049,-15.30000019,-914.1000366,1.922251094,-0.270782111,-0.130886862,NLR
11.9666666666667,-4.098475456,1.239950418,7.628117085,2.545747995,3.285081863,-3.727157831,-1097.100098,-10.5,-897.3000488,1.921355173,-0.426326352,-0.153359129,NLR
12.0,-3.101371288,0.263182908,8.777150154,0.990859985,3.597584009,-2.301843882,-1085.100098,-14.70000076,-890.1000366,1.958736726,-0.370929673,-0.066476707,NLR
12.0333333333333,-4.734301567,0.101684302,9.278393745,4.009171963,4.436003685,-3.841487885,-1073.100098,-13.50000095,-882.9000244,1.983415297,-0.452615216,-0.028630466,ST
12.0666666666667,-3.352591276,-0.098693587,9.311889648,5.81558609,3.963439941,-4.054903984,-1077.900024,-11.10000038,-885.3000488,2.00308592,-0.382819167,-0.005766443,ST
12.1,-5.389866352,2.61687541,9.131250381,6.600651741,2.339953899,-6.821690083,-1068.300049,-14.10000038,-887.7000122,1.937858928,-0.482609454,-0.196607583,ST
12.1333333333333,-3.769496918,1.909870505,7.318279266,5.297289848,0.167683989,-1.974097967,-1065.900024,-11.70000076,-868.500061,1.92368496,-0.469321107,-0.243041042,ST
12.1666666666667,-3.902284861,3.075052977,7.337419987,2.964957952,0.625003994,-1.250007987,-1063.5,-16.5,-873.3000488,1.875363589,-0.461736022,-0.359890114,ST
12.2,-4.191187859,2.34412241,8.247793198,1.204275966,1.089946032,0.243903995,-1053.900024,-19.5,-856.500061,1.902150089,-0.457964334,-0.299565266,ST
12.2333333333333,-4.955016136,2.690447092,7.661613464,1.120433927,2.49239397,-1.653973937,-1049.100098,-23.70000076,-873.3000488,1.89129969,-0.525553041,-0.32729106,ST
12.2666666666667,-5.655441761,2.262774944,8.214297295,-0.480185986,2.446661949,-1.471045971,-1037.100098,-21.30000114,-880.500061,1.913435393,-0.571347139,-0.285854289,ST
12.3,-5.853426933,2.624651432,9.162354469,-0.487807989,0.998481989,-0.929883957,-1037.100098,-23.70000076,-866.1000366,1.91717256,-0.557955897,-0.279753058,ST
12.3333333333333,-5.169151783,2.94405961,9.932164192,1.333850026,-0.72408998,0.381099999,-1044.300049,-15.90000057,-873.3000488,1.91412608,-0.4879222,-0.28784906,ST
12.3666666666667,-2.627642155,2.70898962,7.726810932,2.294221878,-0.754577994,-0.632625997,-1039.5,-24.90000153,-856.500061,1.901419116,-0.363449451,-0.325786365,ST
12.4,-4.325171947,2.655754805,8.004947662,1.120433927,1.8292799,-3.826243877,-1041.900024,-15.90000057,-875.7000122,1.908952884,-0.447108753,-0.321773245,ST
12.4333333333333,-4.184010029,2.200567961,7.845242977,0.975615978,2.080806017,-2.957335949,-1044.300049,-20.10000038,-878.1000366,1.928437777,-0.470209394,-0.287363277,ST
12.4666666666667,-3.58407259,1.349410534,7.085601807,1.897877932,1.486289978,-1.814036012,-1025.100098,-20.70000076,-858.9000244,1.964718537,-0.46639499,-0.215656915,ST
12.5,-6.145918846,1.199276686,7.214800358,1.265251994,1.42531395,-3.498497963,-1003.500061,-20.10000038,-863.7000122,1.988391232,-0.630752331,-0.181790026,ST
12.5333333333333,-7.598210335,1.272848248,8.563014984,1.013725996,-0.160062,-2.507637978,-1034.700073,-13.50000095,-868.500061,2.009265084,-0.697166361,-0.155934335,ST
12.5666666666667,-6.945636272,0.837400138,8.654530525,0.564027965,-1.440557957,-0.929883957,-1027.5,-23.10000038,-868.500061,2.039285736,-0.678905782,-0.112167665,ST
12.6,-5.985616684,1.517488718,8.507986069,0.464941978,-1.562510014,-0.693601966,-1027.5,-19.5,-878.1000366,2.013334806,-0.626218639,-0.157733537,ST
12.6333333333333,-3.623550177,1.451094866,7.063470364,1.257629991,-2.339953899,0.213415995,-1017.900024,-13.50000095,-863.7000122,1.996570583,-0.511245413,-0.191687087,ST
12.6666666666667,-4.047035217,1.535433054,7.525236607,0.754577994,0.365855992,-2.012207985,-1022.700012,-19.5,-861.3000488,1.997102564,-0.493137784,-0.198317962,ST
12.7,-5.668002605,1.873981953,7.907450199,1.013725996,0.076219998,-2.157026052,-1025.100098,-21.30000114,-856.500061,1.989301935,-0.574697386,-0.221611592,ST
12.7333333333333,-5.606394291,1.445711613,7.895487309,0.495429993,-0.182927996,-0.907018006,-1022.700012,-18.30000114,-868.500061,2.006740035,-0.599257775,-0.193382893,ST
12.7666666666667,-6.385176182,2.308233738,9.326245308,-0.365855992,-2.301843882,0.80793196,-1008.300049,-21.30000114,-861.3000488,1.986735633,-0.587563786,-0.227698179,ST
12.8,-5.251097202,2.348907471,8.329140663,-1.653973937,-4.61893177,2.972579956,-1020.300049,-12.30000019,-863.7000122,1.96371136,-0.549844243,-0.26206536,ST
12.8333333333333,-5.673984051,2.629436493,7.421159744,-5.64027977,-5.449729919,7.850659847,-1041.900024,-9.900000572,-880.500061,1.918795542,-0.595523608,-0.316707538,ST
12.8666666666667,-1.798615932,0.816465139,8.188577652,-7.423827648,-1.097568035,10.54122543,-1063.5,-19.5,-882.9000244,1.970053407,-0.328544353,-0.157018734,ST
12.9,-3.581680059,0.773997009,7.55933094,-5.594547749,0.137196004,7.667731762,-1065.900024,-20.70000076,-880.500061,1.968528512,-0.410062498,-0.113748657,ST
12.9333333333333,-4.394556522,-0.005981429,7.930179596,-5.312533855,2.774407864,3.201239824,-1063.5,-14.70000076,-887.7000122,1.995175202,-0.480795147,-0.030564846,ST
12.9666666666667,-6.454560757,0.631040812,8.802271843,-3.971061945,1.974097967,3.429899931,-1053.900024,-15.30000019,-882.9000244,1.973451111,-0.588277248,-0.056173621,ST
13.0,-4.105653286,0.730930686,9.977622986,-3.064043999,1.23476398,3.696669817,-1068.300049,-8.700000763,-878.1000366,1.959602389,-0.450572933,-0.067579395,ST
13.0333333333333,-4.471118927,2.549285412,8.240615845,-1.349093914,-1.440557957,4.32167387,-1053.900024,-12.30000019,-887.7000122,1.879833917,-0.469799758,-0.229950007,ST
13.0666666666667,-3.954921246,2.03787303,8.795692444,-5.061007977,0.030487999,6.051867962,-1063.5,-13.50000095,-904.500061,1.86869886,-0.428312838,-0.22565583,ST
13.1,-4.66192627,1.195089698,8.489442825,-6.295772076,1.158543944,6.867421627,-1068.300049,0.300000012,-887.7000122,1.880815463,-0.479896889,-0.159361384,ST
13.1333333333333,-3.429751873,-0.080151156,7.777054787,-6.593029976,0.038109999,9.786647797,-1070.700073,-10.5,-899.7000122,1.914561159,-0.43499541,-0.037536734,ST
13.1666666666667,-1.910468698,-0.643003702,7.56650877,-5.777475834,-0.038109999,7.080837727,-1068.300049,-3.300000191,-882.9000244,1.932376667,-0.303958348,0.053167382,ST
13.2,-4.524353504,-0.474925518,7.69810009,-4.519845963,0.83079797,5.083873749,-1077.900024,0.900000036,-902.1000366,1.924408298,-0.466250706,0.061856823,ST
13.2333333333333,-5.132066727,-0.705210567,9.722215652,-3.818621874,1.082324028,0.876529992,-1075.5,-10.5,-897.3000488,1.925368334,-0.481015266,0.073813444,ST
13.2666666666667,-6.415083408,0.151330173,9.493126869,-1.737815976,-0.442075998,1.935987949,-1080.300049,2.700000048,-902.1000366,1.889194549,-0.562975227,0.010794026,ST
13.3,-5.674582481,0.325389773,10.16902828,-3.231727839,-0.922261953,2.987823963,-1063.5,0.300000012,-918.9000244,1.867137871,-0.524005515,-0.017715879,ST
13.3333333333333,-2.956620693,-0.125610024,8.813038826,-2.57623601,-0.800309956,3.612828016,-1082.700073,-3.900000095,-911.7000122,1.869731054,-0.370443552,0.008083686,ST
13.3666666666667,-3.839479685,0.477318078,8.245400429,-2.545747995,1.059458017,3.018311977,-1080.300049,-0.900000036,-906.9000244,1.846260799,-0.417095559,-0.036050816,ST
13.4,-3.380105972,-0.066393867,8.635390282,-2.911603928,2.606724024,1.951231956,-1073.100098,3.300000191,-902.1000366,1.854381359,-0.387995605,-0.000951063,ST
13.4333333333333,-4.268348217,0.330773056,7.764493942,-1.204275966,2.461905956,1.006103992,-1080.300049,9.900000572,-899.7000122,1.840341412,-0.470840384,-0.028711166,ST
13.4666666666667,-4.505811214,0.489879102,6.973748684,-1.265251994,2.774407864,1.760681987,-1065.900024,2.100000143,-906.9000244,1.822725143,-0.545215567,-0.056950856,ST
13.5,-5.332444668,0.363072783,9.628307343,-1.463423967,3.460387945,1.04421401,-1065.900024,5.700000286,-914.1000366,1.827108604,-0.520289381,-0.041676612,ST
13.5333333333333,-6.132161617,0.473729223,8.78731823,-0.503051996,1.539644003,0.571649969,-1065.900024,5.100000381,-914.1000366,1.821379854,-0.583817848,-0.049978723,ST
13.5666666666667,-5.449680805,0.282921612,8.594716072,-0.045731999,0.396344006,0.929883957,-1051.5,2.100000143,-916.500061,1.826457342,-0.569858956,-0.037687115,ST
13.6,-4.69960928,0.321202785,7.625724792,0.746955991,-0.655492008,-0.579271972,-1044.300049,5.700000286,-916.500061,1.826140052,-0.556538022,-0.041229367,ST
13.6333333333333,-5.280405998,0.21054633,6.972552776,-0.243903995,-0.144817993,1.242385983,-1051.5,2.100000143,-897.3000488,1.827900287,-0.620155527,-0.034485192,ST
13.6666666666667,-4.295264721,-0.708201289,7.541984558,-2.660078049,0.342989981,1.356715918,-1056.300049,10.5,-902.1000366,1.876433205,-0.545775705,0.062247858,ST
13.7,-5.970065117,-0.409727931,8.393141747,-1.600619912,-0.015244,0.266770005,-1058.700073,6.900000095,-918.9000244,1.870213733,-0.597934916,0.054414968,ST
13.7333333333333,-5.819333076,-0.271556914,7.693315029,-0.518296003,-1.760681987,0.967993975,-1053.900024,7.500000477,-926.1000366,1.86042677,-0.630365422,0.040906983,ST
13.7666666666667,-5.487363815,0.099889874,8.564210892,-0.61738199,-1.821658015,0.503051996,-1053.900024,7.500000477,-904.500061,1.837916482,-0.585946842,0.003926064,ST
13.8,-4.446594715,0.034094151,7.895487309,-0.007622,-2.896359921,1.349093914,-1053.900024,5.100000381,-918.9000244,1.832302784,-0.531318805,-0.002963166,ST
13.8333333333333,-3.938771486,-0.400755793,8.467909813,-0.358233988,-0.922261953,-0.327746004,-1061.100098,6.900000095,-914.1000366,1.849793078,-0.462923285,0.033283468,ST
13.8666666666667,-5.842660427,0.570030272,8.120388985,0.72408998,-0.602137983,0.068598002,-1061.100098,8.700000763,-904.500061,1.812871424,-0.580105498,-0.041840773,ST
13.9,-5.350986958,0.225499898,8.066555977,-0.289635986,-0.221037999,0.983237982,-1056.300049,9.300000191,-906.9000244,1.816285654,-0.583593953,-0.032568832,ST
13.9333333333333,-5.715256214,0.14714317,8.510976791,-0.396344006,-0.625003994,0.289635986,-1056.300049,14.10000038,-911.7000122,1.821557259,-0.588210971,-0.021642228,ST
13.9666666666667,-4.663122654,0.135180309,8.237027168,-0.388722003,-1.349093914,0.060975999,-1065.900024,13.50000095,-928.500061,1.823354602,-0.53540943,-0.017536394,ST
14.0,-4.943651676,-0.228490621,7.976834774,-0.571649969,-0.457319975,-0.182927996,-1056.300049,3.300000191,-916.500061,1.841352542,-0.549321638,0.017848422,ST
14.0333333333333,-4.770788193,-0.415111214,8.566603661,-0.442075998,-1.166165948,-0.480185986,-1058.700073,12.30000019,-906.9000244,1.853017488,-0.518771914,0.040220421,ST
14.0666666666667,-4.331153393,-0.239855334,8.477479935,0.007622,-1.676839948,0.411587983,-1077.900024,9.300000191,-914.1000366,1.847828576,-0.482243177,0.031001733,ST
14.1,-3.48298645,-0.266173631,7.955301285,0.060975999,-1.006103992,0.61738199,-1070.700073,5.100000381,-914.1000366,1.847393429,-0.430376839,0.032290976,ST
14.1333333333333,-4.547082901,-0.100488022,8.363833427,-0.746955991,1.440557957,1.204275966,-1075.5,7.500000477,-918.9000244,1.838548604,-0.48123341,0.017917183,ST
14.1666666666667,-4.677477837,-0.558067381,8.877039909,-1.95885396,2.08842802,1.166165948,-1073.100098,13.50000095,-899.7000122,1.850859785,-0.486042383,0.051601066,ST
14.2,-4.306629181,-0.268566191,9.319665909,-0.556405962,0.876529992,1.295740008,-1087.5,11.10000038,-916.500061,1.841194929,-0.449904336,0.035415275,ST
14.2333333333333,-4.191187859,-0.832016885,8.499013901,-0.815553963,1.23476398,1.181409955,-1065.900024,7.500000477,-921.3000488,1.857998409,-0.456117906,0.07916849,ST
14.2666666666667,-4.374817848,-1.151425242,8.101248741,-1.051836014,3.597584009,0.868907988,-1053.900024,13.50000095,-904.500061,1.877074844,-0.48621303,0.124927472,ST
14.3,-5.12130022,-1.308138728,9.063660622,-0.525918007,7.675354004,1.402447939,-1044.300049,15.90000057,-916.500061,1.882659299,-0.513745535,0.138894762,ST
14.3333333333333,-5.918624878,-0.966000915,8.19754982,0.449698001,7.492425919,0.739333987,-1034.700073,10.5,-902.1000366,1.875138041,-0.601776695,0.123076502,ST
14.3666666666667,-6.827203751,-0.923532724,7.070648193,2.98020196,7.561023712,0.259148002,-1022.700012,10.5,-906.9000244,1.880716386,-0.732720706,0.124466711,ST
14.4,-7.177117348,-0.39776507,5.458652973,2.446661949,6.410101891,0.137196004,-1029.900024,11.70000076,-890.1000366,1.858259143,-0.870628337,0.087909585,ST
14.4333333333333,-6.226070404,-0.955832481,7.69092226,0.228659987,5.251557827,0.335367978,-1010.700012,7.500000477,-885.3000488,1.879300143,-0.730145266,0.116035142,ST
14.4666666666667,-5.617160797,-0.743491709,7.338615894,0.800309956,6.646383762,-0.068598002,-1015.500061,9.300000191,-894.9000244,1.874157408,-0.682761099,0.105062538,ST
14.5,-6.073543549,-0.6753034,7.226763248,0.823175967,10.67080021,2.751541853,-977.1000366,8.100000381,-887.7000122,1.865246368,-0.707119702,0.093382348,ST
14.5333333333333,-6.741669655,-0.367259771,8.281888008,2.294221878,10.5259819,1.615863919,-974.7000122,11.10000038,-882.9000244,1.841894809,-0.703156146,0.05501954,ST
14.5666666666667,-8.747840881,0.47073853,7.09337759,2.568614006,10.99854565,3.460387945,-955.500061,5.700000286,-856.500061,1.779420983,-0.846320607,-0.032837067,ST
14.6,-8.311196327,0.431261092,4.556055069,2.164648056,6.996995926,3.178373814,-933.9000244,0.300000012,-846.9000244,1.739806659,-1.008457593,-0.081779113,ST
14.6333333333333,-8.091677666,0.717173398,5.508896828,1.173787951,5.907049656,1.021348,-926.7000122,6.900000095,-851.7000122,1.707602873,-0.98810093,-0.120345621,ST
14.6666666666667,-8.518154144,0.754856408,3.943556547,0.891773999,3.437521935,-0.434453994,-931.500061,6.300000191,-837.3000488,1.666009543,-1.099097075,-0.170396817,ST
14.7,-8.00614357,0.212938905,4.371228695,0.93750596,3.246971846,-0.045731999,-926.7000122,4.5,-834.9000244,1.743778681,-1.08344796,-0.08403121,ST
14.7333333333333,-7.791410446,0.437840641,3.794020891,0.785066009,0.548784018,0.739333987,-924.3000488,3.900000095,-839.7000122,1.722965765,-1.106133002,-0.108108255,ST
14.7666666666667,-7.921805382,0.14116174,4.343116283,0.746955991,0.106707998,0.663114011,-921.9000244,-2.100000143,-839.7000122,1.769371582,-1.080558047,-0.056562023,ST
14.8,-7.591032505,0.450401664,3.680373669,0.785066009,-1.821658015,-0.030487999,-921.9000244,7.500000477,-842.1000366,1.728497318,-1.104854086,-0.104241763,ST
14.8333333333333,-8.000162125,0.11424531,4.395154476,-0.015244,-1.989341974,-0.678357959,-914.7000122,4.5,-839.7000122,1.782964282,-1.075599408,-0.043608959,ST
14.8666666666667,-7.833878517,-0.061010584,5.141636848,1.135677934,-2.446661949,-0.967993975,-917.1000366,4.5,-844.500061,1.821010909,-1.012854397,-0.002687889,ST
14.9,-8.13055706,0.165685609,4.557251453,0.83079797,-1.653973937,-0.952749968,-921.9000244,5.100000381,-846.9000244,1.804337912,-1.043603527,-0.024623719,ST
14.9333333333333,-9.105530739,-0.221312895,6.046029091,0.983237982,-0.815553963,-0.564027965,-924.3000488,0.300000012,-844.500061,1.844467396,-1.000526857,0.020014672,ST
14.9666666666667,-8.744252205,0.038879294,6.43900919,2.278977871,-1.410069942,-1.013725996,-931.500061,11.10000038,-837.3000488,1.83189329,-0.951154185,-0.000796121,ST
15.0,-7.90505743,0.161498606,5.078233719,2.568614006,-1.089946032,0.518296003,-924.3000488,0.300000012,-846.9000244,1.814225742,-0.983663838,-0.026093978,ST
15.0333333333333,-7.915225983,0.442027658,4.814452648,1.486289978,-1.349093914,-0.198172003,-933.9000244,2.100000143,-849.3000488,1.777838329,-1.009357064,-0.072284396,ST
15.0666666666667,-7.937357426,0.118432306,4.051222324,0.739333987,-1.173787951,-0.221037999,-933.9000244,2.700000048,-846.9000244,1.803432065,-1.070399234,-0.044288895,ST
15.1,-7.976236343,-0.299669623,4.61706543,0.320124,-1.692083955,-1.166165948,-943.500061,0.300000012,-856.500061,1.874078897,-1.051224859,0.034995316,ST
15.1333333333333,-7.739970207,-0.784165442,4.417883873,0.282013983,-1.532021999,-1.440557957,-926.7000122,8.100000381,-849.3000488,1.962970476,-1.046085696,0.135806283,ST
15.1666666666667,-9.298132896,-0.716575265,5.38029623,0.144817993,-2.431417942,-1.067080021,-921.9000244,5.100000381,-856.500061,1.962949889,-1.04018785,0.134738124,ST
15.2,-7.650248528,-1.459468842,6.764399052,-0.731711984,-2.888737917,0.129574001,-931.500061,0.900000036,-842.1000366,2.011942012,-0.883404975,0.196214553,ST
15.2333333333333,-6.951617718,-0.998898745,5.792416573,-1.158543944,-3.163130045,1.189031959,-936.3000488,4.5,-854.1000366,1.993847456,-0.869757886,0.177198803,ST
15.2666666666667,-6.817633629,-1.230978251,6.182405949,-1.211897969,-0.838419974,2.202757835,-919.500061,11.10000038,-863.7000122,1.998695086,-0.83764481,0.189196678,ST
15.3,-6.985113621,-0.488084674,5.822323799,0.442075998,-0.571649969,1.775925994,-933.9000244,5.700000286,-861.3000488,1.938778697,-0.863911373,0.111698903,ST
15.3333333333333,-6.952814102,-0.500645638,5.700900555,0.198172003,0.076219998,1.539644003,-941.1000366,3.300000191,-870.9000244,1.922644395,-0.876956821,0.092483376,ST
15.3666666666667,-7.594023228,-0.348119199,5.944344997,0.205793992,-0.655492008,0.655492008,-945.9000244,6.900000095,-858.9000244,1.90290625,-0.896460956,0.067664455,ST
15.4,-8.018106461,-0.692649543,5.060887814,0.518296003,0.29725799,1.067080021,-950.7000122,5.100000381,-863.7000122,1.939904535,-0.97743077,0.113855862,ST
15.4333333333333,-9.106128693,-0.388792932,5.857016087,0.83079797,-0.876529992,0.53354001,-957.9000244,4.5,-858.9000244,1.910191808,-0.991567814,0.077429646,ST
15.4666666666667,-8.084500313,-0.619077981,5.13984251,0.975615978,-2.606724024,1.455801964,-941.1000366,8.100000381,-851.7000122,1.931043395,-0.995435306,0.102520742,ST
15.5,-6.732697487,-0.824839175,4.776171684,0.663114011,-2.888737917,1.471045971,-950.7000122,3.900000095,-866.1000366,1.96737426,-0.95847081,0.147310159,ST
15.5333333333333,-7.22496891,-0.79792273,5.785837173,0.640248001,-1.402447939,0.769822001,-948.3000488,5.100000381,-856.500061,1.959497986,-0.909690363,0.137578591,ST
15.5666666666667,-7.519853592,-0.60950768,5.430540085,-0.129574001,-1.890255928,1.112811923,-962.7000122,6.900000095,-863.7000122,1.941779576,-0.930848591,0.117378105,ST
15.6,-7.21779108,-0.367857933,5.964681625,-0.952749968,-1.150921941,2.126538038,-943.500061,0.900000036,-868.500061,1.903432582,-0.892330051,0.073745558,ST
15.6333333333333,-7.328447819,-0.79313755,5.801986694,-2.46952796,-0.419209987,3.056421995,-955.500061,5.100000381,-866.1000366,1.930064725,-0.895526572,0.116973358,ST
15.6666666666667,-7.6795578,-0.952243626,6.871466637,-3.269837856,0.53354001,2.484771967,-948.3000488,0.300000012,-866.1000366,1.934829604,-0.855036722,0.132261148,ST
15.7,-8.571987152,-0.356493205,5.667404652,-2.187514067,0.556405962,2.225623846,-953.1000366,2.100000143,-863.7000122,1.890958686,-0.950909644,0.083521566,ST
15.7333333333333,-7.808756351,-0.489879102,6.172237396,-3.208861828,0.609759986,2.797273874,-957.9000244,3.300000191,-866.1000366,1.880755319,-0.916580999,0.079844862,ST
15.7666666666667,-7.1310606,0.385204077,5.578281403,-2.164648056,0.266770005,1.913121939,-974.7000122,5.700000286,-861.3000488,1.792512194,-0.910638846,-0.025189546,ST
15.8,-7.212408066,-0.373839349,6.09746933,-3.368923903,1.501533985,3.071666002,-953.1000366,5.700000286,-866.1000366,1.832257937,-0.883141852,0.035722098,ST
15.8333333333333,-7.120294094,-0.483299524,6.936065674,-2.629590034,0.960371971,2.545747995,-955.500061,8.100000381,-866.1000366,1.844189402,-0.824471153,0.059783919,ST
15.8666666666667,-6.93546772,-0.124413736,5.651853085,-1.082324028,1.913121939,2.728675842,-955.500061,8.700000763,-863.7000122,1.81855836,-0.870646078,0.031492574,ST
15.9,-7.525835037,-0.023925718,5.912643433,-1.905499935,0.731711984,2.218001842,-950.7000122,2.700000048,-870.9000244,1.796844062,-0.89692058,0.010411327,ST
15.9333333333333,-6.747650623,-0.698630989,5.446091652,-0.53354001,-0.381099999,0.266770005,-960.3000488,8.700000763,-863.7000122,1.861138506,-0.890687567,0.094290228,ST
15.9666666666667,-8.052799225,-0.234472051,4.489062786,-0.792688012,-1.021348,-0.800309956,-960.3000488,9.300000191,-858.9000244,1.840654808,-1.008625268,0.069365292,ST
16.0,-8.607276917,-0.241649762,5.334239006,-1.189031959,-0.518296003,0.259148002,-962.7000122,5.700000286,-861.3000488,1.825175373,-1.0128745,0.053468243,ST
16.0333333333333,-8.811244011,-0.007775859,5.707480431,-0.838419974,-0.175305992,0.998481989,-957.9000244,9.900000572,-861.3000488,1.789890851,-1.000574857,0.014424496,ST
16.0666666666667,-8.259756088,-0.043664437,5.708078384,0.175305992,-1.021348,1.562510014,-955.500061,5.100000381,-870.9000244,1.782065371,-0.975212044,0.006519475,ST
16.1,-7.753129005,-0.178246602,5.215806484,0.40396598,-0.663114011,1.006103992,-950.7000122,2.700000048,-861.3000488,1.795702579,-0.976654422,0.023475486,ST
16.1333333333333,-7.683744431,-0.020935005,6.494038105,0.685979962,-0.42683199,-0.053353999,-948.3000488,12.30000019,-863.7000122,1.783792974,-0.898080433,0.007239698,ST
16.1666666666667,-7.812943459,0.28471604,5.49992466,1.150921941,-1.288118005,-0.42683199,-960.3000488,5.100000381,-863.7000122,1.75162426,-0.939885766,-0.036034681,ST
16.2,-7.211809635,0.105273165,5.396445751,0.838419974,-1.34147191,0.190549999,-974.7000122,4.5,-868.500061,1.761496373,-0.929623112,-0.025138129,ST
16.2333333333333,-7.120294094,-0.049047723,5.289976597,0.693601966,-1.356715918,0.312501997,-965.1000366,5.700000286,-866.1000366,1.78032532,-0.929559982,-0.002460603,ST
16.2666666666667,-7.995377064,-0.099889874,5.496933937,1.150921941,-1.135677934,-0.381099999,-962.7000122,6.900000095,-858.9000244,1.793129628,-0.955353928,0.010888998,ST
16.3,-7.693912983,-0.080749303,5.492148876,1.181409955,-2.23324585,-0.53354001,-962.7000122,3.900000095,-875.7000122,1.797005969,-0.949435586,0.012981349,ST
16.3333333333333,-7.513872147,-0.690257013,5.779257298,0.198172003,-3.559473991,-0.91463995,-960.3000488,10.5,-875.7000122,1.8643197,-0.916439958,0.095326252,ST
16.3666666666667,-8.235830307,-0.509617805,6.252388477,-0.457319975,-6.501565933,-1.310984015,-977.1000366,12.90000057,-875.7000122,1.858076822,-0.910796463,0.087286669,ST
16.4,-6.522748947,-0.949851036,6.67647171,-0.335367978,-5.12960577,-0.990859985,-974.7000122,6.300000191,-873.3000488,1.88868371,-0.805274642,0.127471126,ST
16.4333333333333,-6.374409676,-1.244735479,5.539402008,-0.266770005,-5.403997898,0.045731999,-991.500061,2.700000048,-892.500061,1.935171582,-0.826508914,0.193286986,ST
16.4666666666667,-6.487458706,-0.93669188,6.264351368,-0.815553963,-3.201239824,0.754577994,-989.1000366,15.90000057,-892.500061,1.909079586,-0.802545269,0.160955765,ST
16.5,-6.846942425,-1.494161129,7.204033852,-0.716467977,-3.490875959,0.975615978,-996.3000488,15.90000057,-887.7000122,1.927344734,-0.761572799,0.190817973,ST
16.5333333333333,-6.646564484,-0.887046039,8.186782837,-0.495429993,-4.077769756,0.838419974,-1013.100037,20.70000076,-887.7000122,1.882453674,-0.696002715,0.127420421,ST
16.5666666666667,-7.147808552,-0.652574003,7.437907696,-0.007622,-4.573199749,2.248489857,-1017.900024,11.70000076,-902.1000366,1.857412739,-0.740387666,0.095363763,ST
16.6,-6.631012917,-0.82842803,8.250185966,-0.83079797,-4.641798019,1.387203932,-1020.300049,15.90000057,-902.1000366,1.855628816,-0.687889317,0.097821019,ST
16.6333333333333,-5.574692726,-1.129293919,7.941544056,0.655492008,-3.68142581,-0.045731999,-1022.700012,6.300000191,-909.3000488,1.874942014,-0.623848379,0.129102138,ST
16.6666666666667,-6.270332813,-0.422288924,7.247698307,1.242385983,-3.582340002,-0.007622,-1022.700012,8.100000381,-902.1000366,1.843958377,-0.683762977,0.076849126,ST
16.7,-5.956307888,-0.738108456,6.452766418,-1.516777992,-2.423795938,2.141782045,-1037.100098,12.90000057,-899.7000122,1.85571978,-0.724068057,0.103056228,ST
16.7333333333333,-5.557944298,-1.101181269,6.809857845,-1.791170001,-1.12805593,2.263733864,-1032.300049,15.90000057,-899.7000122,1.876715334,-0.691171717,0.143256744,ST
16.7666666666667,-6.921710491,-0.641807437,8.202334404,-0.518296003,-0.983237982,0.800309956,-1039.5,9.900000572,-909.3000488,1.845643374,-0.696108368,0.097486614,ST
16.8,-7.090386868,-0.229088753,7.913431644,0.022865999,-2.073184013,2.042695999,-1041.900024,17.70000076,-906.9000244,1.810405202,-0.71797645,0.047695103,ST
16.8333333333333,-5.609385014,-0.379222631,8.073135376,-0.777444005,-2.827761889,2.858249903,-1044.300049,8.700000763,-911.7000122,1.804016794,-0.636856317,0.045133572,ST
16.8666666666667,-4.048231602,-0.748875022,8.677260399,0.221037999,-1.737815976,0.556405962,-1039.5,11.10000038,-904.500061,1.819386421,-0.486021843,0.075201249,ST
16.9,-4.642187595,-0.564646959,8.549257278,1.524399996,0.083841994,-0.785066009,-1044.300049,14.10000038,-899.7000122,1.818160261,-0.493549894,0.067247922,ST
16.9333333333333,-5.115916729,-0.093310304,7.487553596,2.187514067,0.548784018,-1.082324028,-1041.900024,14.10000038,-902.1000366,1.801753564,-0.568184214,0.027818777,ST
16.9666666666667,-5.51906538,-0.002392572,7.572490215,1.928365946,0.731711984,-1.021348,-1046.700073,8.700000763,-904.500061,1.793682878,-0.612150056,0.007307946,ST
17.0,-5.035167694,-0.267369896,6.226070404,1.867389917,0.022865999,-0.42683199,-1053.900024,16.5,-894.9000244,1.811249994,-0.66355668,0.031910382,ST
17.0333333333333,-6.279304981,-0.416905642,7.490544319,0.129574001,1.135677934,-1.493911982,-1039.5,11.70000076,-902.1000366,1.825155131,-0.689112058,0.050360679,ST
17.0666666666667,-6.320576668,-0.053832866,8.088088989,0.129574001,-1.166165948,-0.381099999,-1046.700073,9.900000572,-899.7000122,1.806190029,-0.669381013,0.019196808,ST
17.1,-6.075936317,-0.217125893,7.228557587,0.205793992,-1.913121939,0.586893976,-1046.700073,7.500000477,-904.500061,1.809725194,-0.687607961,0.025817803,ST
17.1333333333333,-6.473701477,-0.520982504,8.076725006,-0.952749968,-0.602137983,-0.365855992,-1034.700073,14.10000038,-897.3000488,1.828654494,-0.67699056,0.056904518,ST
17.1666666666667,-6.111824989,-0.379222631,7.275212765,-0.114329994,-1.516777992,-0.541162014,-1051.5,10.5,-906.9000244,1.827400146,-0.68982621,0.054145155,ST
17.2,-5.98920536,-0.025720147,8.304018974,0.251525998,-0.762199998,0.221037999,-1037.100098,13.50000095,-894.9000244,1.80455759,-0.643594656,0.017296598,ST
17.2333333333333,-5.805575848,-0.013757288,7.384075165,0.846041977,-2.797273874,-0.335367978,-1039.5,13.50000095,-892.500061,1.798912519,-0.656052797,0.005822266,ST
17.2666666666667,-5.444297314,-0.495262384,7.410393238,0.762199998,-0.221037999,-0.61738199,-1044.300049,7.500000477,-914.1000366,1.828150499,-0.638315817,0.051289773,ST
17.3,-5.980831623,-0.426475942,8.23882103,0.693601966,-0.236281991,-1.059458017,-1053.900024,13.50000095,-909.3000488,1.830617173,-0.630094109,0.051686964,ST
17.3333333333333,-5.842062473,-0.318810195,7.979227066,1.12805593,-0.716467977,-0.198172003,-1061.100098,14.70000076,-904.500061,1.826428818,-0.630271912,0.042242724,ST
17.3666666666667,-4.631421089,-0.409727931,7.137042046,1.737815976,0.022865999,0.350611985,-1065.900024,8.100000381,-911.7000122,1.832775584,-0.589454823,0.050956238,ST
17.4,-4.574597359,-1.372738123,8.980518341,1.486289978,-1.082324028,-1.326228023,-1053.900024,14.70000076,-890.1000366,1.872774662,-0.502623471,0.121849562,ST
17.4333333333333,-4.821630478,-0.047253296,7.449870586,3.231727839,-2.881115913,-3.132642031,-1063.5,11.10000038,-909.3000488,1.836095466,-0.553749534,0.032946715,ST
17.4666666666667,-4.008155823,-0.737510264,6.905560493,2.118916035,-1.036592007,-2.225623846,-1053.900024,8.700000763,-909.3000488,1.867294073,-0.531426926,0.083533772,ST
17.5,-5.421567917,-1.113742232,8.668886185,1.387203932,0.701223969,-2.57623601,-1061.100098,4.5,-923.7000122,1.889740844,-0.549622213,0.116276487,ST
17.5333333333333,-5.691330433,-1.121518016,8.608473778,1.684461951,-1.089946032,-1.600619912,-1061.100098,8.100000381,-904.500061,1.897812862,-0.569515738,0.124545236,ST
17.5666666666667,-5.425156593,-1.229183793,9.497912407,1.493911982,-1.463423967,-0.53354001,-1063.5,6.900000095,-904.500061,1.900397376,-0.529824739,0.125910453,ST
17.6,-5.2672472,-0.573619127,8.392543793,2.439039946,-2.19513607,-1.021348,-1068.300049,2.700000048,-918.9000244,1.881904016,-0.547891515,0.083433829,ST
17.6333333333333,-5.703293324,-0.251220047,7.357756615,2.263733864,0.274392009,-0.251525998,-1068.300049,7.500000477,-904.500061,1.864371285,-0.625982714,0.047188554,ST
17.6666666666667,-5.926400661,-0.342137784,7.499516487,0.678357959,-0.556405962,-0.685979962,-1063.5,5.100000381,-904.500061,1.86518714,-0.65480942,0.045841916,ST
17.7,-5.252293587,-0.192003891,6.593928337,-0.038109999,-0.861285985,-0.022865999,-1061.100098,7.500000477,-914.1000366,1.858006807,-0.666085332,0.034231967,ST
17.7333333333333,-4.931688786,-0.999496877,7.251885414,-0.487807989,-0.29725799,0.320124,-1065.900024,5.100000381,-914.1000366,1.900784223,-0.6151552,0.10743683,ST
17.7666666666667,-5.823520184,-1.052133441,8.029471397,-0.922261953,-1.814036012,0.42683199,-1058.700073,3.900000095,-916.500061,1.908654622,-0.618910284,0.124264321,ST
17.8,-5.231956482,-1.233370781,7.732194424,-0.899396002,-1.34147191,1.562510014,-1063.5,9.300000191,-902.1000366,1.918731818,-0.596744748,0.147753387,ST
17.8333333333333,-5.644077301,-1.08024621,8.28368187,-1.288118005,-1.288118005,2.934469938,-1063.5,9.300000191,-911.7000122,1.905420421,-0.593908597,0.134126127,ST
17.8666666666667,-5.276817322,-1.352999449,8.360842705,-0.670735955,-1.356715918,3.239349842,-1070.700073,8.100000381,-906.9000244,1.909015101,-0.567192891,0.150773771,ST
17.9,-5.663815975,-0.789548695,8.199941635,-0.083841994,-0.846041977,2.621968031,-1068.300049,9.900000572,-914.1000366,1.883027579,-0.591287578,0.110659795,ST
17.9333333333333,-5.331248283,-0.605918825,8.516958237,0.106707998,-1.097568035,2.606724024,-1073.100098,3.300000191,-911.7000122,1.862703577,-0.567145365,0.080472722,ST
17.9666666666667,-4.941857338,-0.378026366,8.272316933,0.655492008,-1.646351933,2.019829988,-1068.300049,8.700000763,-902.1000366,1.845656868,-0.544575521,0.053089776,ST
18.0,-3.851442575,-0.406737208,8.476284027,0.205793992,-1.615863919,2.19513607,-1080.300049,14.70000076,-909.3000488,1.839661083,-0.458251367,0.04751966,ST
18.0333333333333,-4.746264458,-0.760837853,8.38536644,-0.190549999,-3.025933981,1.821658015,-1070.700073,11.10000038,-926.1000366,1.850039566,-0.495211868,0.077780989,ST
18.0666666666667,-4.258179665,-0.663340569,8.339309692,0.007622,-1.714949965,1.775925994,-1092.300049,9.900000572,-916.500061,1.847089181,-0.476238609,0.077670056,ST
18.1,-4.093690395,-1.268063068,8.404506683,0.259148002,-4.062525749,1.166165948,-1087.5,2.700000048,-911.7000122,1.86727707,-0.452114974,0.127856819,ST
18.1333333333333,-5.367136955,-0.895420015,8.152091026,0.556405962,-8.963471413,0.922261953,-1094.700073,7.500000477,-918.9000244,1.857758149,-0.530350336,0.113218763,ST
18.1666666666667,-5.295359612,-0.527562082,8.419460297,0.304879993,-12.66014194,1.493911982,-1113.900024,9.900000572,-916.500061,1.834954398,-0.536367641,0.075831909,ST
18.2,-3.679177523,-0.747678697,6.233247757,0.106707998,-17.54584312,0.586893976,-1137.900024,12.30000019,-918.9000244,1.846357153,-0.510344747,0.105022585,ST
18.2333333333333,-4.383191586,0.311034352,9.804759979,0.198172003,-14.96960735,0.327746004,-1181.100098,8.700000763,-916.500061,1.799509313,-0.428406678,0.005576465,ST
18.2666666666667,-1.396663785,-0.464757085,7.517460823,1.120433927,-16.71504593,2.522881985,-1181.100098,11.70000076,-914.1000366,1.807815348,-0.226582343,0.044741142,ST
18.3,-0.912168026,0.094506592,10.81442451,0.137196004,-10.49549389,1.371959925,-1212.300049,9.900000572,-911.7000122,1.798386775,-0.112201635,0.005890768,ST
18.3333333333333,-1.302755356,0.418700069,11.70506001,1.196653962,-12.43910408,1.585376024,-1243.5,6.900000095,-904.500061,1.792833399,-0.096018032,-0.024860665,ST
18.3666666666667,-0.21652776,-0.185424328,9.867564201,0.83079797,-9.672317505,2.294221878,-1248.300049,11.10000038,-894.9000244,1.790559918,-0.026726445,0.00713776,ST
18.4,0.474327385,0.622666836,9.393237114,1.55488801,-7.477181911,0.327746004,-1257.900024,11.10000038,-902.1000366,1.790381297,0.033768821,-0.043877004,ST
18.4333333333333,0.10886202,0.213537037,9.277197838,-0.990859985,-4.382649899,2.23324585,-1281.900024,4.5,-885.3000488,1.78640119,0.023798953,-0.028002761,ST
18.4666666666667,0.57421726,-0.057421725,10.14031792,-1.867389917,-2.385685921,2.522881985,-1291.5,8.700000763,-890.1000366,1.780670007,0.051540323,-0.000181284,ST
18.5,1.335653305,-0.409727931,8.940443039,-1.562510014,-2.004585981,2.317087889,-1277.100098,6.900000095,-892.500061,1.773888244,0.121460209,0.034039192,ST
18.5333333333333,0.10886202,-0.28471604,9.876536369,-1.74543798,0.152439997,2.400929928,-1286.700073,11.10000038,-882.9000244,1.770139624,0.043975979,0.032755166,ST
18.5666666666667,0.79553014,-0.692051411,9.394433975,-1.844523907,0.91463995,1.913121939,-1284.300049,11.70000076,-902.1000366,1.765184021,0.071420541,0.064220922,ST
18.6,2.014545441,-1.79562521,8.779542923,-2.812517881,2.248489857,2.820139885,-1281.900024,15.30000019,-887.7000122,1.749230277,0.172911987,0.16332592,ST
18.6333333333333,1.763923645,-1.940375805,10.66788006,-3.010689974,1.257629991,0.312501997,-1289.100098,13.50000095,-885.3000488,1.747355957,0.163010732,0.178919358,ST
18.6666666666667,3.140250683,-2.337542772,9.923192024,-0.731711984,1.082324028,-1.326228023,-1279.5,25.50000191,-906.9000244,1.74250617,0.256805974,0.215705946,ST
18.7,0.71777159,-1.504927754,10.00214672,1.775925994,1.310984015,-3.086910009,-1293.900024,6.900000095,-887.7000122,1.75690106,0.12607691,0.166288534,ST
18.7333333333333,-0.666331291,-1.801008463,9.657018661,1.943609953,2.675322056,-1.570132017,-1265.100098,20.10000038,-897.3000488,1.759527596,-0.012094701,0.176585198,ST
18.7666666666667,-0.315221339,-1.117331028,10.1839819,1.196653962,1.996963978,-1.021348,-1274.700073,15.30000019,-890.1000366,1.760889657,-0.027393885,0.128111184,ST
18.8,-1.122116208,-1.065292597,9.231739044,1.04421401,0.068598002,0.655492008,-1255.5,11.70000076,-887.7000122,1.759150339,-0.09486131,0.117175192,ST
18.8333333333333,-0.785361707,-0.753660142,8.927882195,1.196653962,1.867389917,0.663114011,-1260.300049,12.30000019,-909.3000488,1.756259572,-0.092028804,0.092606839,ST
18.8666666666667,-0.135180309,-0.89661634,9.581053734,0.93750596,0.320124,0.678357959,-1277.100098,15.30000019,-911.7000122,1.755213108,-0.037985981,0.09191116,ST
18.9,0.47313109,-0.708799422,9.380078316,0.304879993,-1.310984015,1.181409955,-1260.300049,15.30000019,-897.3000488,1.752789187,0.027522796,0.07958124,ST
18.9333333333333,0.926523447,-0.740500987,9.217981339,-0.487807989,-2.050318003,2.355197906,-1281.900024,12.90000057,-904.500061,1.748300171,0.08135515,0.08079655,ST
18.9666666666667,0.668125689,-0.166283742,8.516359329,-0.907018006,0.083841994,2.903981924,-1279.5,15.30000019,-894.9000244,1.746500279,0.0788042,0.037047883,ST
19.0,0.07058087,-0.633433402,10.83655643,-0.754577994,1.196653962,2.515259981,-1250.700073,9.900000572,-904.500061,1.741079891,0.023764019,0.053929129,ST
19.0333333333333,1.070675969,-0.192602038,9.39263916,-0.304879993,-2.080806017,1.371959925,-1267.5,17.70000076,-897.3000488,1.739868142,0.088941674,0.031109096,ST
19.0666666666667,0.462962657,0.0,10.1977396,-1.257629991,-1.051836014,2.202757835,-1267.5,14.70000076,-887.7000122,1.73732601,0.057591352,0.009609732,ST
19.1,0.101086162,-0.214135185,9.980015755,-1.577754021,0.282013983,2.942091942,-1250.700073,12.30000019,-902.1000366,1.731481334,0.022138369,0.020524156,ST
19.1333333333333,0.651377678,-1.177743554,9.324450493,-3.429899931,1.265251994,4.115880013,-1265.100098,18.30000114,-894.9000244,1.721770715,0.053197294,0.098325873,ST
19.1666666666667,1.850654364,-1.812373161,8.970350266,-3.833865881,0.411587983,3.628072023,-1265.100098,18.90000153,-887.7000122,1.708499251,0.154248374,0.173643043,ST
19.2,1.158004761,-1.735212803,9.20482254,-3.551851988,1.067080021,2.286599874,-1248.300049,15.90000057,-897.3000488,1.703931031,0.130612209,0.187213475,ST
19.2333333333333,-0.449205369,-1.856635809,9.904649734,-1.067080021,2.416173935,0.823175967,-1257.900024,23.70000076,-887.7000122,1.703435016,0.005165635,0.187326489,ST
19.2666666666667,-0.577806115,-1.540218115,10.48305416,0.228659987,-0.762199998,-0.137196004,-1253.100098,21.30000114,-892.500061,1.70295996,-0.037133582,0.157002799,ST
19.3,-0.215331465,-1.744783044,9.58045578,0.93750596,-3.071666002,-0.899396002,-1245.900024,30.90000153,-911.7000122,1.704157859,-0.022482825,0.172339349,ST
19.3333333333333,-0.095702872,-1.417000651,9.270617485,1.021348,-1.974097967,-0.564027965,-1262.700073,23.70000076,-892.500061,1.704352551,-0.010798141,0.155780842,ST
19.3666666666667,-0.194994614,-1.104770064,9.088184357,0.731711984,0.685979962,0.541162014,-1262.700073,19.5,-897.3000488,1.703208371,-0.019223022,0.130057663,ST
19.4,-0.220116615,-1.158004761,9.075623512,0.518296003,2.378063917,0.564027965,-1253.100098,24.30000114,-897.3000488,1.702725946,-0.025567808,0.12721661,ST
19.4333333333333,0.832016885,-1.538423777,9.880125999,-0.289635986,1.539644003,0.449698001,-1272.300049,22.5,-909.3000488,1.702095553,0.048336716,0.146614223,ST
19.4666666666667,-0.475523651,-0.890036762,9.01341629,0.525918007,0.472563982,0.670735955,-1265.100098,22.5,-902.1000366,1.701473352,-0.022809169,0.112332916,ST
19.5,-1.251315117,-0.14235802,9.480566025,-1.410069942,5.198204041,3.993927956,-1260.300049,27.30000114,-894.9000244,1.690953337,-0.105364859,0.045940026,ST
19.5333333333333,-0.739902854,-1.586275101,9.450658798,-2.934469938,6.295772076,7.225656033,-1250.700073,24.30000114,-894.9000244,1.687620826,-0.094252199,0.132922411,ST
19.5666666666667,-1.464852095,-1.164584398,8.354861259,-4.550333977,6.524431705,7.926879883,-1233.900024,21.90000153,-899.7000122,1.67574761,-0.157811214,0.141256729,ST
19.6,-0.812876284,-3.135465384,9.07263279,-7.652487755,5.617413998,11.05189991,-1219.5,22.5,-894.9000244,1.676042276,-0.114707475,0.29085496,ST
19.6333333333333,-0.882260859,-3.596633673,9.615148544,-9.04731369,2.294221878,9.138777733,-1205.100098,33.90000153,-909.3000488,1.666759399,-0.100727725,0.347821252,ST
19.6666666666667,-2.05462122,-3.504519701,9.57626915,-6.04424572,2.477149963,7.926879883,-1212.300049,39.30000305,-926.1000366,1.655191225,-0.175530628,0.356173569,ST
19.7,-1.591658473,-3.606204033,9.322058678,-4.451247692,1.250007987,7.073215961,-1209.900024,40.5,-916.500061,1.64466125,-0.167284765,0.370101992,ST
19.7333333333333,-0.637022257,-4.052418709,8.408694267,-2.789651871,0.205793992,6.859799862,-1195.5,41.10000229,-916.500061,1.641049354,-0.101733681,0.427936274,ST
19.7666666666667,-0.169274464,-3.572109938,8.830384254,-2.858249903,-0.579271972,4.314052105,-1195.5,45.90000153,-899.7000122,1.631471071,-0.044509292,0.400611341,ST
19.8,-2.411712408,-2.563042641,8.615651131,-0.571649969,0.495429993,4.596065998,-1188.300049,45.30000305,-897.3000488,1.614260343,-0.202335644,0.322444592,ST
19.8333333333333,-2.953629971,-2.94166708,8.983509064,-0.350611985,2.332331896,6.394857883,-1178.700073,45.30000305,-899.7000122,1.602914151,-0.281952904,0.316742787,ST
19.8666666666667,-3.307730675,-2.695830345,8.972743034,-1.653973937,-0.823175967,4.763750076,-1178.700073,41.10000229,-906.9000244,1.588295236,-0.324482478,0.298956978,ST
19.9,-2.87587142,-2.938676357,8.125174522,-2.08842802,-0.685979962,5.289668083,-1166.700073,53.70000076,-892.500061,1.589109244,-0.32353834,0.334871143,ST
19.9333333333333,-2.361468554,-3.49016428,9.024183273,-3.208861828,-1.059458017,5.556437969,-1183.5,47.10000229,-887.7000122,1.585793072,-0.265873643,0.360832463,ST
19.9666666666667,-2.807682991,-3.340628386,8.955994606,-1.974097967,-1.074702024,4.13112402,-1171.5,52.50000381,-890.1000366,1.57734152,-0.280286144,0.359122552,ST
20.0,-2.621660709,-3.660634995,9.180297852,-0.746955991,0.746955991,2.911603928,-1173.900024,41.10000229,-897.3000488,1.576782544,-0.267750082,0.373426171,ST
20.0333333333333,-2.407525539,-3.163578272,8.365029335,0.434453994,0.40396598,3.643316031,-1161.900024,46.5,-892.500061,1.568525271,-0.266414904,0.363136663,ST
20.0666666666667,-2.461956501,-2.924919128,8.783729553,0.289635986,0.42683199,3.185995817,-1169.100098,45.90000153,-906.9000244,1.55562791,-0.263671213,0.332067218,ST
20.1,-2.180829287,-2.969779968,9.022986412,0.716467977,0.243903995,2.294221878,-1169.100098,46.5,-902.1000366,1.54916304,-0.236871181,0.320031849,ST
20.1333333333333,-2.476910114,-2.341729641,8.845337868,1.067080021,-0.083841994,1.722571969,-1161.900024,44.70000076,-897.3000488,1.535914581,-0.256728647,0.275471988,ST
20.1666666666667,-2.072565317,-2.956022501,8.280093193,1.676839948,1.120433927,1.722571969,-1164.300049,42.90000153,-887.7000122,1.545447859,-0.241187985,0.32024213,ST
20.2,-2.342926025,-2.63601613,8.604286194,0.167683989,1.051836014,0.967993975,-1157.100098,47.10000229,-890.1000366,1.540503407,-0.252237928,0.303809566,ST
20.2333333333333,-1.951740503,-2.697624683,8.269925117,-0.038109999,0.800309956,1.714949965,-1137.900024,44.70000076,-890.1000366,1.539880414,-0.23063714,0.311932479,ST
20.2666666666667,-3.337637663,-2.331561327,7.681950092,0.304879993,1.120433927,2.179892063,-1147.5,51.30000305,-904.500061,1.533435061,-0.346848458,0.299061467,ST
20.3,-3.200064898,-3.00507021,8.474489212,-1.318606019,1.631107926,2.736297846,-1142.700073,42.90000153,-892.500061,1.539572997,-0.34637547,0.330578497,ST
20.3333333333333,-3.267056942,-2.798112869,8.107230186,-2.538125992,0.167683989,2.157026052,-1125.900024,51.90000153,-897.3000488,1.535660992,-0.360464015,0.334198458,ST
20.3666666666667,-4.142738342,-2.873478889,8.543275833,-1.760681987,1.219519973,3.871975899,-1142.700073,54.30000305,-887.7000122,1.526678273,-0.413594913,0.327824214,ST
20.4,-4.423865318,-2.950041056,9.222167969,-1.623485923,1.181409955,4.847591877,-1142.700073,50.10000229,-882.9000244,1.512843925,-0.427825006,0.314263235,ST
20.4333333333333,-4.322779179,-2.982340813,8.755617142,0.121951997,1.882633924,4.93905592,-1130.700073,50.10000229,-887.7000122,1.509300196,-0.438853172,0.321869774,ST
20.4666666666667,-4.345508575,-2.397955179,8.820216179,-0.800309956,0.144817993,2.721053839,-1125.900024,51.30000305,-904.500061,1.487642992,-0.443597994,0.281912852,ST
20.5,-4.641589642,-2.455975056,8.164651871,0.480185986,0.670735955,4.580821991,-1125.900024,49.50000381,-882.9000244,1.483245822,-0.484368149,0.28582272,ST
20.5333333333333,-2.851347446,-3.584670782,8.232839584,-0.800309956,0.716467977,3.231727839,-1123.5,49.50000381,-882.9000244,1.514662322,-0.363912077,0.374323825,ST
20.5666666666667,-4.333545685,-2.776579618,7.934366703,0.792688012,0.663114011,3.368923903,-1121.100098,51.90000153,-897.3000488,1.498565922,-0.447523981,0.344713008,ST
20.6,-3.279019833,-3.400442839,7.39424324,0.358233988,0.647870004,1.867389917,-1111.5,54.90000153,-880.500061,1.521066226,-0.404403141,0.404306936,ST
20.6333333333333,-3.841274261,-2.996696234,7.8482337,-0.442075998,0.167683989,0.495429993,-1109.100098,51.90000153,-899.7000122,1.509186459,-0.422005989,0.377056983,ST
20.6666666666667,-3.548184156,-3.717458487,7.613761902,0.213415995,-0.42683199,1.737815976,-1116.300049,48.90000153,-887.7000122,1.527785349,-0.404898414,0.429940592,ST
20.7,-3.866396189,-3.164774418,8.023489952,0.045731999,-0.060975999,0.716467977,-1121.100098,53.10000229,-897.3000488,1.510176796,-0.417713613,0.388865772,ST
20.7333333333333,-3.841274261,-3.232364655,7.775260448,2.23324585,1.455801964,1.943609953,-1104.300049,55.50000381,-880.500061,1.509828874,-0.427981731,0.389037811,ST
20.7666666666667,-3.902284861,-2.933293104,8.20592308,0.251525998,-0.503051996,-0.099086002,-1104.300049,47.10000229,-892.500061,1.496010939,-0.422381812,0.355449279,ST
20.8,-3.554165602,-3.091202974,7.837467194,0.472563982,-0.998481989,0.320124,-1121.100098,51.30000305,-894.9000244,1.500929609,-0.403951431,0.369668941,ST
20.8333333333333,-5.030980587,-2.055817366,8.474489212,0.838419974,0.464941978,1.592997909,-1109.100098,51.30000305,-885.3000488,1.463332112,-0.482477282,0.285377,ST
20.8666666666667,-5.017821312,-1.905085325,7.871561527,1.067080021,0.564027965,1.844523907,-1111.5,50.70000076,-882.9000244,1.44444266,-0.534315678,0.249839781,ST
20.9,-3.488967896,-2.968583584,7.674772263,0.29725799,0.602137983,1.539644003,-1097.100098,48.30000305,-885.3000488,1.482030975,-0.443260374,0.333584215,ST
20.9333333333333,-4.323975563,-2.238250971,7.958890438,-1.028970003,-0.838419974,-0.891773999,-1104.300049,51.90000153,-892.500061,1.463988305,-0.470100269,0.292396467,ST
20.9666666666667,-4.308423996,-3.373526335,7.972647667,-0.282013983,1.166165948,-0.083841994,-1097.100098,50.10000229,-887.7000122,1.501310229,-0.46579415,0.3739547,ST
21.0,-4.715759277,-3.164176226,8.440395355,0.175305992,0.967993975,0.922261953,-1101.900024,55.50000381,-875.7000122,1.495445881,-0.478890668,0.362540267,ST
21.0333333333333,-4.825817585,-2.857328892,8.976331711,0.983237982,-0.205793992,0.518296003,-1099.5,56.70000076,-878.1000366,1.477173636,-0.475182862,0.322915954,ST
21.0666666666667,-3.646877766,-3.062491894,8.210708618,2.286599874,0.457319975,1.478667974,-1097.100098,55.50000381,-890.1000366,1.485882301,-0.419881622,0.343541741,ST
21.1,-4.814452648,-1.832111955,8.335720062,2.423795938,0.274392009,1.646351933,-1092.300049,52.50000381,-890.1000366,1.445169736,-0.487054727,0.252030018,ST
21.1333333333333,-4.863500595,-1.716670275,8.981715202,3.102154016,1.135677934,0.663114011,-1097.100098,42.90000153,-890.1000366,1.423360231,-0.490125971,0.201114754,ST
21.1666666666667,-4.395154476,-2.108453989,8.329738617,2.378063917,-0.350611985,-1.04421401,-1097.100098,53.70000076,-897.3000488,1.440898904,-0.477449623,0.231614398,ST
21.2,-3.534426928,-2.206549406,8.445778847,1.211897969,-1.646351933,-1.227141976,-1099.5,48.30000305,-899.7000122,1.44989956,-0.410349385,0.24751902,ST
21.2333333333333,-3.773684025,-2.786149979,7.522844315,2.332331896,-0.640248001,-0.342989981,-1104.300049,46.5,-890.1000366,1.483477044,-0.431900884,0.324457534,ST
21.2666666666667,-4.216310024,-1.687959433,7.479179859,0.884151995,0.243903995,-0.266770005,-1101.900024,50.10000229,-890.1000366,1.452934742,-0.482159522,0.252717824,ST
21.3,-3.358572721,-2.599529266,7.859000683,0.678357959,0.990859985,0.708845973,-1104.300049,45.30000305,-897.3000488,1.474150448,-0.411385594,0.302168703,ST
21.3333333333333,-5.36833334,-1.003683925,7.898478031,-0.282013983,0.060975999,-0.190549999,-1101.900024,50.10000229,-899.7000122,1.416204296,-0.546764488,0.176982285,ST
21.3666666666667,-4.745666504,-1.821345329,7.789616108,2.294221878,2.995445967,1.730193973,-1077.900024,48.30000305,-892.500061,1.433863509,-0.543002334,0.210316791,ST
21.4,-5.30493021,-2.209540129,8.470302582,1.288118005,0.663114011,-2.035073996,-1092.300049,50.10000229,-897.3000488,1.456066697,-0.544701979,0.243923076,ST
21.4333333333333,-5.881539822,-1.497151852,9.485949516,1.257629991,-0.868907988,-2.500015974,-1094.700073,45.30000305,-902.1000366,1.428890023,-0.546812019,0.183015222,ST
21.4666666666667,-3.366348743,-3.41719079,8.405104637,2.385685921,-1.493911982,-3.673803806,-1123.5,44.10000229,-892.500061,1.508006537,-0.400010243,0.339204256,ST
21.5,-4.172047138,-2.295074463,8.129361153,2.652456045,-0.442075998,-2.416173935,-1104.300049,43.5,-897.3000488,1.494316733,-0.43985172,0.29276492,ST
21.5333333333333,-3.615774155,-1.852448821,7.272820473,3.864353895,0.175305992,-2.111294031,-1099.5,40.5,-904.500061,1.485938791,-0.445815448,0.258971597,ST
21.5666666666667,-4.294666767,-1.704707503,7.481572151,2.637212038,0.891773999,-0.739333987,-1118.700073,44.70000076,-909.3000488,1.477301022,-0.491741648,0.232139276,ST
21.6,-5.275620937,-1.177743554,9.53140831,2.36281991,-0.167683989,-1.669217944,-1101.900024,41.70000076,-887.7000122,1.443393512,-0.499378283,0.151141155,ST
21.6333333333333,-4.198963642,-1.796223402,8.471498489,3.102154016,-0.480185986,-0.419209987,-1113.900024,47.10000229,-892.500061,1.463622204,-0.465411913,0.188273929,ST
21.6666666666667,-3.488369703,-1.856635809,9.027173996,3.269837856,1.562510014,-1.23476398,-1099.5,44.70000076,-911.7000122,1.472120574,-0.389478249,0.195925796,ST
21.7,-3.351993322,-2.288495064,9.207813263,4.21496582,0.495429993,-3.986305952,-1106.700073,37.5,-906.9000244,1.493124734,-0.352962487,0.227290746,ST
21.7333333333333,-2.451189995,-3.200064898,7.936161041,4.207344055,-0.678357959,-5.53357172,-1106.700073,36.90000153,-911.7000122,1.54060864,-0.296510034,0.339517042,ST
21.7666666666667,-3.519473314,-1.9744699,7.440898418,4.794238091,0.022865999,-7.111325741,-1111.5,45.30000305,-885.3000488,1.534964622,-0.388287497,0.280548789,ST
21.8,-5.144029617,-1.9744699,7.454057693,5.396375656,3.193617821,-4.53508997,-1111.5,33.30000305,-911.7000122,1.539203721,-0.529948134,0.262528731,ST
21.8333333333333,-4.581177235,-2.032489777,7.739970207,3.803377867,1.996963978,-4.72563982,-1106.700073,38.10000229,-909.3000488,1.547830149,-0.523709308,0.257380805,ST
21.8666666666667,-4.480090618,-2.211932659,7.706473827,2.248489857,0.266770005,-2.934469938,-1113.900024,41.70000076,-914.1000366,1.562072647,-0.512820454,0.272702664,ST
21.9,-4.596130371,-2.286700487,9.022986412,0.72408998,-0.442075998,-3.780511856,-1118.700073,41.70000076,-918.9000244,1.560519887,-0.47325843,0.256812014,ST
21.9333333333333,-4.641589642,-2.444012165,8.883021355,2.370441914,0.198172003,-3.185995817,-1109.100098,34.5,-911.7000122,1.570464387,-0.467900742,0.264030098,ST
21.9666666666667,-5.027989864,-1.770503163,8.163455009,2.705809832,0.373477995,-1.920743942,-1113.900024,30.30000114,-904.500061,1.558177171,-0.519567517,0.227197609,ST
22.0,-4.464539051,-1.827326775,8.065360069,2.248489857,0.640248001,-2.286599874,-1101.900024,36.90000153,-909.3000488,1.56184755,-0.501914668,0.222826892,ST
22.0333333333333,-4.673291206,-1.438533902,7.873355865,3.033555984,1.608241916,-0.198172003,-1113.900024,29.70000076,-911.7000122,1.548579202,-0.523571869,0.188325853,ST
22.0666666666667,-4.030287266,-1.903290987,8.373403549,1.059458017,0.099086002,-1.12805593,-1113.900024,30.30000114,-909.3000488,1.562707592,-0.46423929,0.212667479,ST
22.1,-4.889220715,-1.439131975,7.861392975,3.239349842,1.775925994,-0.053353999,-1104.300049,33.30000305,-909.3000488,1.553293739,-0.530072957,0.185245615,ST
22.1333333333333,-5.014232635,-1.588069558,8.940443039,2.248489857,2.012207985,-0.42683199,-1097.100098,35.10000229,-902.1000366,1.55201317,-0.514246224,0.176243299,ST
22.1666666666667,-4.462744713,-1.610200882,9.614550591,2.317087889,0.167683989,-1.295740008,-1104.300049,29.10000038,-906.9000244,1.55156063,-0.454798127,0.166923036,ST
22.2,-3.403433561,-1.438533902,7.436711788,3.048799992,-0.518296003,0.777444005,-1101.900024,31.50000191,-914.1000366,1.558458527,-0.429966611,0.180603848,ST
22.2333333333333,-3.366348743,-1.250118852,8.689821243,2.019829988,0.785066009,-0.823175967,-1092.300049,27.90000153,-918.9000244,1.550010803,-0.386180438,0.152013893,ST
22.2666666666667,-4.04284811,-1.360177159,8.070743561,3.315569878,1.737815976,-1.646351933,-1104.300049,29.70000076,-902.1000366,1.55888762,-0.441605563,0.15971115,ST
22.3,-4.340723515,-0.916953146,8.074332237,2.98020196,1.44817996,-2.98020196,-1097.100098,24.90000153,-916.500061,1.550945452,-0.477185641,0.125634509,ST
22.3333333333333,-4.780956745,-0.845774174,8.231045723,3.269837856,-0.007622,-2.858249903,-1094.700073,28.50000191,-923.7000122,1.549386853,-0.510673081,0.106705255,ST
22.3666666666667,-4.899987221,-1.175350904,9.019397736,3.696669817,-0.685979962,-3.414655924,-1092.300049,31.50000191,-906.9000244,1.564125525,-0.497837479,0.120454866,ST
22.4,-4.181617737,-0.68008858,8.85849762,4.664663792,-1.760681987,-4.512223721,-1099.5,21.90000153,-909.3000488,1.559014711,-0.452345901,0.084675757,ST
22.4333333333333,-4.554858685,-0.96480459,7.706473827,5.487839699,0.160062,-3.048799992,-1104.300049,19.5,-916.500061,1.579484194,-0.508799067,0.10820253,ST
22.4666666666667,-4.116419792,-0.518589973,7.628715515,3.490875959,-0.099086002,-3.422277927,-1104.300049,17.70000076,-916.500061,1.57294597,-0.497931491,0.077952263,ST
22.5,-5.298350334,-0.540123105,7.361943722,3.262215853,1.333850026,-1.592997909,-1099.5,24.30000114,-914.1000366,1.575561455,-0.591243713,0.071539264,ST
22.5333333333333,-6.140535831,-0.567637682,9.057081223,1.760681987,-0.442075998,-1.951231956,-1099.5,16.5,-923.7000122,1.576259596,-0.593129575,0.064585639,ST
22.5666666666667,-5.694321156,-0.815268874,9.508080482,2.416173935,-0.510674,-1.082324028,-1085.100098,16.5,-928.500061,1.586928571,-0.553883608,0.077254171,ST
22.6,-4.063185215,-0.494066089,8.76099968,3.612828016,-0.945127964,-1.12805593,-1099.5,18.90000153,-918.9000244,1.582495576,-0.465398634,0.057921688,ST
22.6333333333333,-4.156495571,-0.752463877,7.960684776,3.330813885,-0.746955991,-1.272873998,-1097.100098,15.90000057,-909.3000488,1.597899184,-0.47469745,0.081147336,ST
22.6666666666667,-3.192289114,-0.448009074,8.396132469,2.919225931,0.358233988,-1.692083955,-1092.300049,14.10000038,-921.3000488,1.59326724,-0.393924332,0.057915793,ST
22.7,-2.136566639,-1.147238255,7.565312386,2.736297846,-1.34147191,-1.592997909,-1101.900024,14.10000038,-918.9000244,1.620235448,-0.302663909,0.124010178,ST
22.7333333333333,-4.947838783,-0.229088753,8.560622215,3.772889853,2.59910202,-1.699705958,-1099.5,15.30000019,-916.500061,1.599361588,-0.463065685,0.053170137,ST
22.7666666666667,-4.367640018,-0.958225012,9.307105064,4.039659977,2.042695999,-1.34147191,-1082.700073,11.70000076,-918.9000244,1.619400183,-0.446276209,0.085505369,ST
22.8,-4.326966286,-0.447410941,9.269421577,5.907049656,0.274392009,-1.85214591,-1087.5,14.10000038,-909.3000488,1.612786329,-0.439148869,0.051500784,ST
22.8333333333333,-3.140250683,-0.801511586,8.804066658,6.821690083,0.213415995,-3.666181803,-1085.100098,6.300000191,-923.7000122,1.63173247,-0.370841275,0.072881034,ST
22.8666666666667,-4.389173031,-0.298473328,7.902066708,6.021379948,0.564027965,-3.483253956,-1073.100098,5.100000381,-911.7000122,1.629453762,-0.466111634,0.043315731,ST
22.9,-4.155299187,-0.284117907,8.431423187,5.495461941,2.347575903,-4.839970112,-1085.100098,0.900000036,-911.7000122,1.637457474,-0.462680824,0.032305179,ST
22.9333333333333,-6.204536915,0.156713456,7.387663841,6.013757706,0.373477995,-4.496979713,-1077.900024,2.100000143,-914.1000366,1.628682337,-0.636207845,-0.009790662,ST
22.9666666666667,-5.839071751,0.124413736,7.482768536,5.205825806,2.294221878,-4.557955742,-1075.5,6.300000191,-911.7000122,1.636440784,-0.657899413,-0.016846015,ST
23.0,-5.158983231,0.17764847,8.808253288,5.602169991,0.419209987,-3.719535828,-1073.100098,4.5,-899.7000122,1.644054009,-0.567228678,-0.023137143,ST
23.0333333333333,-3.663625717,-0.410326064,8.709559441,7.32474184,0.769822001,-4.969543934,-1070.700073,4.5,-906.9000244,1.681790183,-0.443548053,0.023756065,ST
23.0666666666667,-5.348594666,0.510215938,7.492338657,9.344572067,2.06556201,-5.93753767,-1058.700073,-8.700000763,-894.9000244,1.664375119,-0.573274642,-0.048471164,ST
23.1,-5.41797924,0.784763575,8.225064278,7.690598011,1.85214591,-5.167716026,-1068.300049,-2.700000048,-899.7000122,1.658197206,-0.581036242,-0.086438582,ST
23.1333333333333,-6.764997005,1.736409068,6.285286427,4.634175777,1.150921941,-2.019829988,-1049.100098,-5.700000286,-897.3000488,1.5848155,-0.747734247,-0.218450427,ST
23.1666666666667,-5.810958862,1.696931601,7.053301811,0.663114011,-0.289635986,0.967993975,-1051.5,-8.700000763,-885.3000488,1.574770255,-0.695518452,-0.233093515,ST
23.2,-6.769782066,1.890131831,8.484658241,-0.571649969,-0.304879993,1.95885396,-1037.100098,-6.300000191,-885.3000488,1.577169599,-0.670948117,-0.224418209,ST
23.2333333333333,-4.754040241,1.106564522,8.391945839,-1.12805593,-1.288118005,3.185995817,-1041.900024,-9.900000572,-902.1000366,1.610238072,-0.557691242,-0.158442412,ST
23.2666666666667,-4.454370499,1.53423667,8.650941849,0.152439997,-0.144817993,1.562510014,-1049.100098,-4.5,-897.3000488,1.600663477,-0.490784817,-0.172818263,ST
23.3,-4.291077614,1.300362825,6.736884117,0.007622,-0.29725799,1.410069942,-1046.700073,-9.900000572,-899.7000122,1.592122121,-0.537705864,-0.186130549,ST
23.3333333333333,-4.064381599,1.683772445,9.376489639,-1.333850026,1.402447939,0.419209987,-1061.100098,-0.900000036,-892.500061,1.593369139,-0.441773825,-0.178821601,ST
23.3666666666667,-4.262366772,1.240548491,7.141229153,-0.464941978,0.541162014,-0.213415995,-1049.100098,-5.700000286,-890.1000366,1.595730794,-0.508692281,-0.173257054,ST
23.4,-5.327659607,1.106564522,7.814737797,-0.564027965,2.385685921,-0.137196004,-1041.900024,-3.900000095,-902.1000366,1.606606085,-0.571048172,-0.150437301,ST
23.4333333333333,-7.498918533,1.659846783,8.254372597,-1.455801964,-0.388722003,-0.342989981,-1053.900024,-5.700000286,-902.1000366,1.588093362,-0.679869799,-0.180682547,ST
23.4666666666667,-4.867089272,0.269164324,9.522436142,-1.875011921,-1.547266006,0.518296003,-1044.300049,-8.100000381,-892.500061,1.654417622,-0.520640595,-0.059452638,ST
23.5,-5.667404652,1.166378736,7.296746254,-0.960371971,-1.920743942,-2.035073996,-1037.100098,-5.100000381,-899.7000122,1.622291589,-0.612255364,-0.123683378,ST
23.5333333333333,-5.364744186,-0.065197587,7.361345768,-1.585376024,0.091463998,-2.317087889,-1039.5,-9.300000191,-890.1000366,1.683986486,-0.62648402,-0.020543268,ST
23.5666666666667,-5.81993103,0.58139497,8.468507767,-0.571649969,-3.689047813,-0.884151995,-1034.700073,-4.5,-890.1000366,1.666264725,-0.604352421,-0.052709753,ST
23.6,-4.696618557,-0.68726629,6.853522301,0.213415995,-5.266801834,1.608241916,-1053.900024,-8.700000763,-899.7000122,1.728269544,-0.594063853,0.061463527,ST
23.6333333333333,-5.881539822,-0.422288924,8.162857056,1.280496001,-2.888737917,1.608241916,-1061.100098,-2.100000143,-899.7000122,1.721408937,-0.611399191,0.051604969,ST
23.6666666666667,-4.693029881,-0.085534446,7.993582726,1.867389917,-2.568614006,3.010689974,-1068.300049,-3.900000095,-897.3000488,1.69898789,-0.548805321,0.016020381,ST
23.7,-5.161973953,0.668125689,8.244802475,1.135677934,-0.91463995,1.387203932,-1065.900024,-3.300000191,-909.3000488,1.661241911,-0.554476352,-0.054028476,ST
23.7333333333333,-4.317994118,0.718967855,9.811339378,0.007622,-3.368923903,1.844523907,-1075.5,-4.5,-914.1000366,1.651268863,-0.447860075,-0.069450677,ST
23.7666666666667,-4.245020866,0.116039738,7.954703331,-0.556405962,-4.382649899,0.960371971,-1094.700073,-5.700000286,-899.7000122,1.667522788,-0.473498454,-0.02907072,ST
23.8,-2.357879639,0.194994614,8.65632534,-2.271355867,-4.756127834,1.783547997,-1089.900024,-10.5,-892.500061,1.665707793,-0.316897004,-0.02250664,ST
23.8333333333333,-2.907572985,-0.117236026,8.102444649,-2.263733864,-2.76678586,2.400929928,-1092.300049,1.5,-911.7000122,1.669399648,-0.333731751,0.006559859,ST
23.8666666666667,-3.91843462,0.460570097,9.056482315,-3.307947874,1.478667974,3.658559799,-1097.100098,-2.700000048,-904.500061,1.648235148,-0.387425823,-0.030874562,ST
23.9,-3.421377897,-0.556272984,8.887207985,-4.138745785,-0.815553963,5.81558609,-1113.900024,-0.300000012,-902.1000366,1.661347833,-0.3724271,0.036781334,ST
23.9333333333333,-5.221189976,-0.250621915,9.374694824,-3.346057892,-2.17227006,4.83234787,-1097.100098,-2.100000143,-897.3000488,1.649012932,-0.464650273,0.031207421,ST
23.9666666666667,-4.599719524,0.06459944,9.473986626,-2.926847935,-5.861317635,4.565577984,-1106.700073,6.300000191,-921.3000488,1.627609584,-0.448477588,0.004881389,ST
24.0,-3.366348743,-0.482103229,9.354357719,-1.875011921,-6.547297955,4.436003685,-1125.900024,-0.900000036,-906.9000244,1.632082506,-0.36532558,0.038931582,ST
24.0333333333333,-3.373526335,-0.032897864,8.213101387,-1.570132017,-5.670767784,3.498497963,-1137.900024,-0.300000012,-928.500061,1.615340472,-0.376188596,0.013446055,ST
24.0666666666667,-3.162381887,-0.151928321,8.379982948,-1.76830399,-3.475631952,4.02441597,-1133.100098,2.700000048,-928.500061,1.608935697,-0.361252622,0.016967276,ST
24.1,-2.61687541,-0.595750391,9.740757942,-1.707327962,-2.553369999,3.269837856,-1149.900024,3.900000095,-906.9000244,1.612558052,-0.283669997,0.051077856,ST
24.1333333333333,-2.627043962,-0.409727931,9.639672279,-1.493911982,-2.736297846,2.705809832,-1152.300049,12.30000019,-916.500061,1.605726394,-0.268018012,0.045902931,ST
24.1666666666667,-2.622856855,-0.260790348,9.369311333,-0.632625997,-1.570132017,2.439039946,-1145.100098,3.300000191,-918.9000244,1.597893346,-0.269608716,0.033199818,ST
24.2,-2.152716637,-0.472532958,8.942835808,-1.371959925,1.028970003,2.027451992,-1159.5,5.100000381,-916.500061,1.597746043,-0.247408052,0.04797476,ST
24.2333333333333,-1.900898337,-0.010766573,10.17261791,-1.356715918,1.516777992,1.181409955,-1145.100098,3.300000191,-914.1000366,1.588209141,-0.205533592,0.016343685,ST
24.2666666666667,-3.536221266,0.42587781,9.458435059,-0.259148002,0.449698001,1.737815976,-1140.300049,3.300000191,-914.1000366,1.573596598,-0.316166831,-0.027848414,ST
24.3,-3.264664412,-0.11484345,9.333422661,0.396344006,0.647870004,1.478667974,-1147.5,8.100000381,-926.1000366,1.580032305,-0.3314668,-0.000426528,ST
24.3333333333333,-3.486575365,0.07596416,9.365124702,0.304879993,-1.821658015,1.097568035,-1145.100098,3.900000095,-911.7000122,1.576363124,-0.346662048,-0.006630527,ST
24.3666666666667,-2.152716637,0.223705471,8.457741737,-0.182927996,-5.411619663,1.028970003,-1159.5,9.900000572,-921.3000488,1.569923885,-0.26641868,-0.021788982,ST
24.4,-2.204156876,0.154320881,8.256167412,-0.251525998,-4.626554012,0.785066009,-1154.700073,10.5,-928.500061,1.569244052,-0.256854186,-0.019540053,ST
24.4333333333333,-2.19817543,0.205761179,9.22336483,-0.114329994,-5.289668083,-0.030487999,-1178.700073,11.10000038,-911.7000122,1.568999669,-0.234352141,-0.021298098,ST
