seconds,sensor_accX_m_s_,sensor_accY_m_s_,sensor_accZ_m_s_,sensor_gyroX____s_,sensor_gyroY____s_,sensor_gyroZ____s_,sensor_magX___T_,sensor_magY___T_,sensor_magZ___T_,sensor_yaw____,sensor_pitch____,sensor_roll____,label2
0.0,-0.931308627,-0.449205369,9.600194931,-0.182927996,0.358233988,1.135677934,-1212.300049,17.10000038,-904.500061,2.476895916,-0.096491727,0.044869276,ST
0.0333333333333333,-0.879270196,-0.444420218,9.884910583,0.182927996,0.228659987,0.929883957,-1236.300049,14.10000038,-906.9000244,2.475175878,-0.091036982,0.044567119,ST
0.0666666666666667,-0.858335137,-0.418101937,9.680345535,0.541162014,-0.29725799,0.411587983,-1229.100098,19.5,-909.3000488,2.474378355,-0.088820805,0.042878865,ST
0.1,-0.933701158,-0.371446788,9.591820717,0.678357959,-0.076219998,0.114329994,-1226.700073,17.10000038,-909.3000488,2.473911191,-0.094738509,0.038912866,ST
0.133333333333333,-1.055722356,-0.353502482,9.540380478,0.731711984,0.022865999,0.015244,-1231.5,8.700000763,-904.500061,2.473791204,-0.10553273,0.036706317,ST
0.166666666666667,-1.174154639,-0.146545023,9.991978645,0.647870004,-0.442075998,-0.007622,-1233.900024,10.5,-909.3000488,2.471991276,-0.113655139,0.019062393,ST
0.2,-1.109555244,-0.25181818,9.492528915,0.586893976,-0.541162014,0.350611985,-1219.5,12.30000019,-906.9000244,2.471992755,-0.114867461,0.023510549,ST
0.233333333333333,-0.898410738,-0.351109922,9.786815643,0.495429993,0.121951997,0.114329994,-1221.900024,10.5,-911.7000122,2.472772553,-0.098066272,0.031833318,ST
0.266666666666667,-0.94147706,-0.275743902,9.679149628,0.381099999,-0.457319975,-0.121951997,-1236.300049,14.10000038,-911.7000122,2.47275271,-0.096679807,0.02898378,ST
0.3,-0.881064594,-0.293688208,9.713841438,0.525918007,-0.259148002,-0.213415995,-1224.300049,15.90000057,-906.9000244,2.473257229,-0.091714612,0.029247388,ST
0.333333333333333,-0.980356336,-0.21054633,9.62531662,0.708845973,-0.480185986,-0.190549999,-1219.5,14.10000038,-906.9000244,2.473109971,-0.097949908,0.023246595,ST
0.366666666666667,-0.951645494,-0.251220047,9.583446503,0.564027965,-0.40396598,-0.060975999,-1226.700073,12.90000057,-904.500061,2.473429539,-0.098149641,0.024634956,ST
0.4,-0.933701158,-0.168078169,9.716234207,0.449698001,-0.472563982,-0.068598002,-1224.300049,11.10000038,-899.7000122,2.473050226,-0.095878602,0.018854206,ST
0.433333333333333,-0.961215734,-0.304454774,9.67017746,0.480185986,-0.419209987,-0.167683989,-1241.100098,12.30000019,-914.1000366,2.474199666,-0.097565143,0.027109303,ST
0.466666666666667,-0.965402782,-0.359483927,9.581053734,0.335367978,-0.030487999,-0.221037999,-1221.900024,15.90000057,-899.7000122,2.475311984,-0.099470135,0.033993064,ST
0.5,-0.92712158,-0.328978628,9.52722168,0.663114011,-0.129574001,-0.091463998,-1231.5,8.700000763,-904.500061,2.475531945,-0.097546214,0.033560501,ST
0.533333333333333,-1.037179947,-0.236266479,9.572680473,0.525918007,-0.42683199,-0.007622,-1231.5,8.100000381,-902.1000366,2.474912345,-0.10438929,0.026577962,ST
0.566666666666667,-1.027609587,-0.232677609,9.472191811,0.381099999,-0.40396598,0.160062,-1219.5,9.300000191,-909.3000488,2.474488914,-0.106448627,0.024679501,ST
0.6,-0.934897482,-0.260192186,9.628905296,0.243903995,-0.205793992,0.175305992,-1231.5,6.900000095,-911.7000122,2.47435733,-0.099424449,0.025993094,ST
0.633333333333333,-0.859531462,-0.305052906,9.650438309,0.40396598,-0.518296003,0.015244,-1221.900024,13.50000095,-899.7000122,2.47470614,-0.091202771,0.029483246,ST
0.666666666666667,-0.897214472,-0.279332757,9.694103241,0.396344006,-0.419209987,-0.099086002,-1229.100098,2.100000143,-902.1000366,2.474836456,-0.091425412,0.028518266,ST
0.7,-0.865512908,-0.203966752,9.649840355,0.411587983,-0.342989981,-0.053353999,-1233.900024,14.70000076,-902.1000366,2.474465455,-0.089612493,0.022857086,ST
0.733333333333333,-0.893625617,-0.132189602,9.636083603,0.53354001,-0.221037999,0.129574001,-1224.300049,10.5,-909.3000488,2.473616175,-0.09146586,0.015288866,ST
0.766666666666667,-0.783567309,-0.266173631,9.609167099,0.259148002,-0.060975999,0.068598002,-1219.5,18.30000114,-904.500061,2.4742688,-0.084309541,0.023640835,ST
0.8,-0.832615018,-0.203966752,9.70068264,0.129574001,-0.091463998,0.030487999,-1226.700073,9.900000572,-906.9000244,2.474063127,-0.085102514,0.02164885,ST
0.833333333333333,-0.794932008,-0.272753209,9.645653725,0.29725799,-0.129574001,0.114329994,-1221.900024,9.900000572,-904.500061,2.474267519,-0.08275656,0.026212573,ST
0.866666666666667,-0.938486338,-0.168676317,9.571483612,0.213415995,-0.076219998,0.076219998,-1224.300049,8.100000381,-921.3000488,2.473586311,-0.093519082,0.019704025,ST
0.9,-0.946860313,-0.182433605,9.6025877,0.129574001,-0.228659987,0.320124,-1233.900024,2.100000143,-911.7000122,2.472983725,-0.096569252,0.019013122,ST
0.933333333333333,-0.93429935,-0.25421077,9.593615532,0.007622,-0.266770005,0.457319975,-1236.300049,12.90000057,-916.500061,2.472687004,-0.096591123,0.024178305,ST
0.966666666666667,-0.937290013,-0.220116615,9.684533119,0.022865999,-0.304879993,0.564027965,-1231.5,12.30000019,-911.7000122,2.471475272,-0.096108864,0.022986042,ST
1.0,-0.890036762,-0.264379203,9.63309288,0.030487999,-0.198172003,0.701223969,-1217.100098,7.500000477,-911.7000122,2.470454373,-0.092916479,0.026146144,ST
1.03333333333333,-0.89661634,-0.248827472,9.659410477,-0.022865999,-0.144817993,0.685979962,-1224.300049,11.10000038,-906.9000244,2.469234353,-0.092489426,0.025821906,ST
1.06666666666667,-0.85893333,-0.325987905,9.641466141,0.068598002,-0.198172003,0.594515979,-1221.900024,9.300000191,-902.1000366,2.468618003,-0.089488332,0.031643091,ST
1.1,-0.917551339,-0.310436189,9.703673363,0.228659987,-0.350611985,0.434453994,-1236.300049,8.700000763,-897.3000488,2.467812197,-0.092552624,0.031545202,ST
1.13333333333333,-0.892429292,-0.361876488,9.639074326,0.40396598,-0.213415995,0.373477995,-1229.100098,5.700000286,-914.1000366,2.467558288,-0.092101185,0.035190587,ST
1.16666666666667,-0.901999593,-0.319408357,9.737169266,0.42683199,-0.137196004,0.29725799,-1231.5,12.90000057,-921.3000488,2.466901534,-0.092100403,0.032957933,ST
1.2,-0.904392183,-0.301464051,9.688719749,0.487807989,-0.236281991,0.480185986,-1221.900024,18.30000114,-904.500061,2.465934521,-0.092488399,0.030974892,ST
1.23333333333333,-1.063498259,-0.149535745,9.69290638,0.457319975,-0.259148002,0.61738199,-1233.900024,8.700000763,-902.1000366,2.463810423,-0.103927754,0.019474958,ST
1.26666666666667,-0.920542061,-0.279332757,9.573278427,0.221037999,-0.114329994,0.564027965,-1224.300049,13.50000095,-909.3000488,2.463491948,-0.097921162,0.026157195,ST
1.3,-1.204659939,-0.030505292,9.424939156,0.038109999,-0.175305992,0.289635986,-1229.100098,7.500000477,-911.7000122,2.461259857,-0.118141119,0.010063147,ST
1.33333333333333,-1.344625354,0.056823581,9.414770126,0.167683989,-0.480185986,0.114329994,-1243.5,8.100000381,-897.3000488,2.459652694,-0.134143324,-0.001404555,ST
1.36666666666667,-2.161090612,0.296678901,8.994276047,-0.068598002,-1.135677934,-0.495429993,-1233.900024,10.5,-904.500061,2.456727443,-0.206332778,-0.023961811,ST
1.4,-2.314813375,0.187218755,8.909937859,-0.762199998,-1.966475964,-1.227141976,-1245.900024,9.300000191,-909.3000488,2.45946181,-0.238539289,-0.020497344,ST
1.43333333333333,-2.193988323,-0.178246602,9.122278214,-1.455801964,-3.925329924,-2.164648056,-1243.5,11.70000076,-909.3000488,2.469643841,-0.232013437,0.009893995,ST
1.46666666666667,-1.990619779,-0.300865918,9.326843262,-1.562510014,-5.53357172,-2.926847935,-1248.300049,6.900000095,-894.9000244,2.478598823,-0.2083214,0.02952365,ST
1.5,-1.481600165,-0.720762253,9.545763969,-1.04421401,-7.72870779,-3.40703392,-1250.700073,9.900000572,-906.9000244,2.4901903,-0.158671152,0.06485068,ST
1.53333333333333,-1.219613552,-1.302755356,9.621727943,-0.556405962,-9.474145889,-4.032037735,-1265.100098,10.5,-887.7000122,2.502552242,-0.123240344,0.114841822,ST
1.56666666666667,-1.022824526,-1.50133884,9.671373367,0.342989981,-10.30494404,-3.734779835,-1279.5,7.500000477,-909.3000488,2.510252256,-0.095386612,0.14362301,ST
1.6,-0.119628593,-1.871589303,9.322656631,0.998481989,-9.504633904,-2.591480017,-1298.700073,13.50000095,-887.7000122,2.514417202,-0.025617567,0.180637383,ST
1.63333333333333,1.015646815,-2.300457954,9.163550377,1.524399996,-8.902495384,-1.310984015,-1313.100098,9.900000572,-882.9000244,2.511996363,0.085486091,0.227636131,ST
1.66666666666667,2.157501698,-2.574407339,8.612062454,2.06556201,-7.378095627,0.099086002,-1317.900024,5.100000381,-878.1000366,2.502419761,0.198941164,0.269151554,ST
1.7,2.950639248,-3.20066309,9.146203995,1.699705958,-6.913153648,-0.487807989,-1325.100098,12.30000019,-878.1000366,2.488617947,0.274774481,0.3144231,ST
1.73333333333333,3.282010555,-2.751457691,8.890796661,2.004585981,-7.088459969,-0.365855992,-1332.300049,4.5,-875.7000122,2.488076712,0.328076674,0.302773289,ST
1.76666666666667,3.687551498,-2.893217564,8.807655334,2.012207985,-6.387235641,-0.282013983,-1337.100098,8.700000763,-858.9000244,2.480596007,0.37402238,0.31189042,ST
1.8,3.591848612,-2.566033363,8.925489426,1.989341974,-6.158576012,-1.189031959,-1341.900024,0.900000036,-863.7000122,2.487500863,0.378412426,0.28605912,ST
1.83333333333333,2.559453726,-1.750166297,8.650941849,1.875011921,-4.718018055,-1.989341974,-1351.5,6.300000191,-851.7000122,2.509257947,0.317602958,0.222452657,ST
1.86666666666667,2.920134068,0.271556914,9.364526749,2.705809832,-5.121984005,0.091463998,-1368.300049,3.900000095,-839.7000122,2.562050933,0.315260456,0.04388814,ST
1.9,4.827611923,1.057516813,9.024781227,2.36281991,-5.525949955,1.173787951,-1368.300049,1.5,-842.1000366,2.600187752,0.443850574,-0.067557835,ST
1.93333333333333,6.540095329,1.799812198,9.316077232,1.349093914,-5.670767784,1.120433927,-1377.900024,2.700000048,-844.500061,2.639334883,0.563050982,-0.15229326,ST
1.96666666666667,6.677668095,2.335150242,9.853209496,1.935987949,-4.748506069,0.312501997,-1394.700073,5.700000286,-830.1000366,2.6702272,0.5830955,-0.211144851,ST
2.0,6.013131142,2.632427216,9.53918457,2.248489857,-3.696669817,-0.221037999,-1373.100098,1.5,-822.9000244,2.693771369,0.561683985,-0.255685393,ST
2.03333333333333,5.365940571,3.172550201,8.957191467,2.096050024,-2.370441914,-0.160062,-1377.900024,4.5,-803.7000122,2.726369228,0.530918497,-0.319796726,ST
2.06666666666667,5.034569263,2.704802513,8.039041519,1.082324028,-0.541162014,0.693601966,-1389.900024,6.900000095,-808.500061,2.726879301,0.535140821,-0.324096602,ST
2.1,4.585962296,2.502630234,7.619743347,0.304879993,0.442075998,1.42531395,-1380.300049,2.700000048,-820.500061,2.721030325,0.523211935,-0.318188589,ST
2.13333333333333,4.972960472,1.568928957,7.471404076,-0.815553963,1.493911982,2.263733864,-1392.300049,3.300000191,-820.500061,2.676694918,0.560754322,-0.238395378,ST
2.16666666666667,5.63151598,0.90140146,8.453554153,-1.631107926,1.615863919,1.516777992,-1397.100098,10.5,-830.1000366,2.6241905,0.577114845,-0.143089171,ST
2.2,5.396445751,0.648985147,8.442788124,-0.853663981,-0.525918007,0.411587983,-1380.300049,2.700000048,-832.500061,2.59850995,0.571256644,-0.095253511,ST
2.23333333333333,5.520261288,0.248827472,8.444582939,-0.853663981,-0.266770005,0.525918007,-1385.100098,1.5,-818.1000366,2.571861307,0.577321069,-0.04608555,ST
2.26666666666667,5.799594402,0.078356728,8.796888351,-1.486289978,-1.364337921,-0.541162014,-1377.900024,3.300000191,-818.1000366,2.558506284,0.583205639,-0.01724352,ST
2.3,5.075242996,0.730332553,9.290356636,-1.303362012,-2.667700052,-1.356715918,-1397.100098,8.700000763,-827.7000122,2.584481986,0.527547346,-0.060245106,ST
2.33333333333333,5.619553089,1.145443797,9.060071945,-0.373477995,-4.260697842,-0.716467977,-1389.900024,9.300000191,-825.3000488,2.609961304,0.549724746,-0.106198844,ST
2.36666666666667,7.236333847,1.327877402,7.960086823,-1.036592007,-5.945159912,-1.196653962,-1404.300049,8.100000381,-813.3000488,2.63688039,0.683373305,-0.146006727,ST
2.4,8.886012077,1.895515084,7.418767452,-1.42531395,-6.524431705,-0.769822001,-1404.300049,4.5,-791.7000122,2.688301036,0.814554449,-0.215104827,ST
2.43333333333333,13.61134148,-0.537132382,7.655033588,-2.500015974,-4.72563982,1.036592007,-1413.900024,0.300000012,-801.3000488,2.540698407,1.000584201,-0.025616268,ST
2.46666666666667,11.28516388,-0.336156338,8.490639687,-4.009171963,1.189031959,-2.888737917,-1404.300049,7.500000477,-786.9000244,2.510478622,0.946827648,0.0212836,ST
2.5,8.235232353,-0.001794429,6.986310005,-3.62045002,5.975647926,-1.013725996,-1394.700073,4.5,-810.9000244,2.527489337,0.880488482,0.008261394,ST
2.53333333333333,6.448579311,-0.82603544,6.647760868,-3.894841909,8.429931641,0.114329994,-1406.700073,7.500000477,-813.3000488,2.465236772,0.786177677,0.100379745,ST
2.56666666666667,2.909965515,-1.00727272,7.838065624,-4.436003685,6.814067841,-2.019829988,-1385.100098,3.900000095,-851.7000122,2.459615459,0.466590783,0.126269556,ST
2.6,1.878767014,-1.162191749,7.440898418,-2.637212038,6.859799862,-0.929883957,-1385.100098,5.700000286,-844.500061,2.455713209,0.303569643,0.149391897,ST
2.63333333333333,1.769306898,-1.876972675,7.693912983,-2.782029867,6.333881855,-1.051836014,-1361.100098,11.70000076,-842.1000366,2.442572855,0.234294396,0.218906997,ST
2.66666666666667,0.452794224,-1.856635809,8.476881981,-2.530503988,4.862835884,-1.951231956,-1368.300049,9.300000191,-844.500061,2.448336147,0.101841052,0.219307749,ST
2.7,0.169274464,-2.004975319,8.993678093,-1.562510014,4.496979713,-1.646351933,-1363.5,9.900000572,-856.500061,2.452875719,0.038575606,0.221070667,ST
2.73333333333333,0.366661638,-0.997702479,9.920201302,-0.464941978,1.95885396,-1.036592007,-1353.900024,11.70000076,-849.3000488,2.458759392,0.035018877,0.132524229,ST
2.76666666666667,1.58866775,-1.034787297,9.690514565,0.670735955,-1.074702024,-0.182927996,-1339.5,12.90000057,-861.3000488,2.460133858,0.119333608,0.114726116,ST
2.8,1.989423513,-0.3271842,9.188672066,0.815553963,-2.652456045,0.419209987,-1346.700073,8.100000381,-858.9000244,2.467357068,0.188147431,0.058889568,ST
2.83333333333333,3.74198246,-0.92712158,8.439797401,0.861285985,-1.364337921,1.379581928,-1353.900024,9.900000572,-858.9000244,2.455504344,0.347882384,0.092880235,ST
2.86666666666667,4.696618557,-1.674202204,9.204223633,-0.556405962,-0.457319975,-0.945127964,-1356.300049,15.90000057,-856.500061,2.434456134,0.430844108,0.152966996,ST
2.9,4.172047138,-1.992414236,9.404602051,-0.160062,0.754577994,-2.019829988,-1334.700073,2.700000048,-846.9000244,2.42222353,0.415564243,0.191141453,ST
2.93333333333333,3.081034422,-1.809980631,9.7150383,0.503051996,2.263733864,-1.951231956,-1337.100098,12.90000057,-856.500061,2.428208548,0.33252633,0.184507447,ST
2.96666666666667,2.157501698,-1.967890382,9.562511444,1.501533985,3.231727839,-0.464941978,-1339.5,8.100000381,-858.9000244,2.426033029,0.240857752,0.196390906,ST
3.0,1.014450431,-1.701716781,9.337011337,1.85214591,2.36281991,-0.045731999,-1325.100098,6.900000095,-858.9000244,2.428846034,0.144128985,0.182808611,ST
3.03333333333333,0.361876488,-1.461861372,9.127063751,2.164648056,1.783547997,0.312501997,-1337.100098,0.900000036,-870.9000244,2.430535043,0.064337901,0.162352183,ST
3.06666666666667,0.128002599,-1.504329562,8.925489426,1.996963978,1.478667974,0.983237982,-1337.100098,3.300000191,-863.7000122,2.429066184,0.027262738,0.163200465,ST
3.1,0.843979716,-1.643098712,9.728795052,0.929883957,0.350611985,1.417691946,-1341.900024,13.50000095,-858.9000244,2.426593636,0.067151094,0.165028462,ST
3.13333333333333,0.696238399,-1.368551135,10.40888405,1.265251994,-0.929883957,1.8292799,-1346.700073,14.10000038,-870.9000244,2.424640577,0.067300449,0.138710297,ST
3.16666666666667,0.577806115,-1.064694524,9.512268066,3.346057892,-0.884151995,2.500015974,-1346.700073,0.300000012,-861.3000488,2.421285294,0.063088676,0.115775904,ST
3.2,0.730930686,-1.041965008,8.821412086,3.551851988,0.571649969,2.87349391,-1339.5,5.700000286,-863.7000122,2.415631725,0.076178459,0.112730281,ST
3.23333333333333,0.306847334,-0.608909547,8.823804855,1.791170001,2.629590034,3.010689974,-1332.300049,-0.900000036,-863.7000122,2.412675323,0.04361957,0.080079552,ST
3.26666666666667,0.586180091,-0.496458679,9.152783394,2.263733864,2.843005896,3.628072023,-1337.100098,-0.300000012,-861.3000488,2.407598788,0.054013292,0.059423081,ST
3.3,0.452794224,-0.628648281,8.387759209,2.484771967,0.045731999,2.042695999,-1337.100098,7.500000477,-863.7000122,2.403067611,0.05361591,0.067717417,ST
3.33333333333333,0.524571359,0.592759669,8.193362236,2.804895878,-0.304879993,2.263733864,-1334.700073,2.100000143,-861.3000488,2.404634494,0.061597236,-0.038858998,ST
3.36666666666667,1.485787153,0.513804793,8.165249825,2.080806017,-2.446661949,3.521363974,-1334.700073,6.300000191,-868.500061,2.399966469,0.15203077,-0.058669634,ST
3.4,2.27114892,0.497654945,7.844645023,1.364337921,-2.942091942,3.10977602,-1320.300049,3.900000095,-858.9000244,2.395370601,0.246142892,-0.062844953,ST
3.43333333333333,1.863813519,1.260287285,9.247290611,0.419209987,-3.307947874,2.621968031,-1341.900024,5.100000381,-858.9000244,2.402923904,0.216334427,-0.113645175,ST
3.46666666666667,1.873981953,1.384701014,8.792103767,0.678357959,-2.98020196,2.804895878,-1351.5,6.900000095,-844.500061,2.404995591,0.214191009,-0.144744648,ST
3.5,2.79332757,1.367952943,8.225064278,0.442075998,-2.57623601,2.911603928,-1353.900024,6.300000191,-856.500061,2.404052423,0.294069725,-0.158379387,ST
3.53333333333333,3.73958993,0.60950768,10.16484165,-0.40396598,-2.888737917,1.34147191,-1358.700073,0.300000012,-837.3000488,2.381094415,0.338603888,-0.089051411,ST
3.56666666666667,3.428555489,0.866709173,9.180297852,0.190549999,-3.567095995,0.350611985,-1358.700073,14.10000038,-856.500061,2.382261788,0.355743045,-0.092960738,ST
3.6,3.088212252,0.122021168,10.22944069,-0.510674,-1.714949965,-0.53354001,-1363.5,2.700000048,-842.1000366,2.36444402,0.313514856,-0.03446956,ST
3.63333333333333,2.423077106,0.168676317,9.38067627,0.442075998,-1.951231956,0.221037999,-1358.700073,6.300000191,-856.500061,2.360594133,0.27192349,-0.022928754,ST
3.66666666666667,3.730019569,-0.837400138,8.841151237,-0.167683989,-0.83079797,0.137196004,-1353.900024,-2.700000048,-842.1000366,2.334580133,0.362888206,0.059723155,ST
3.7,3.541006327,-0.57660985,10.13732719,-1.631107926,-1.814036012,-0.259148002,-1373.100098,11.70000076,-839.7000122,2.335847003,0.346003962,0.05960493,ST
3.73333333333333,2.796916485,0.654966533,9.530810356,-0.777444005,-0.907018006,1.04421401,-1358.700073,9.300000191,-851.7000122,2.363826425,0.303385653,-0.032412406,ST
3.76666666666667,5.296555996,-0.148937598,9.231140137,-0.076219998,0.823175967,2.218001842,-1373.100098,7.500000477,-834.9000244,2.3476254,0.454096186,0.0016816,ST
3.8,4.340125561,0.957626879,12.72608948,-1.996963978,0.632625997,0.099086002,-1356.300049,6.900000095,-842.1000366,2.370984365,0.358912052,-0.053942134,ST
3.83333333333333,4.237244606,0.451597929,12.27927685,-0.442075998,2.843005896,-0.342989981,-1353.900024,6.900000095,-851.7000122,2.367320199,0.336669171,-0.041446847,ST
3.86666666666667,2.405730963,0.698630989,13.54674244,-1.646351933,4.83234787,-0.586893976,-1353.900024,3.300000191,-851.7000122,2.370187038,0.218235606,-0.046664359,ST
3.9,1.592256546,1.853046894,15.00441647,-1.737815976,4.108257771,0.868907988,-1356.300049,9.300000191,-868.500061,2.377840811,0.132713093,-0.098794415,ST
3.93333333333333,2.799309015,0.729136288,11.35993099,-0.099086002,4.992409706,2.012207985,-1341.900024,12.30000019,-870.9000244,2.369563084,0.20264661,-0.07409921,ST
3.96666666666667,0.32000649,0.706406832,12.04540348,-1.897877932,5.853695869,0.670735955,-1344.300049,5.100000381,-873.3000488,2.366200471,0.065431773,-0.060002443,ST
4.0,1.192098975,-1.287801862,11.31985569,-0.175305992,2.934469938,2.423795938,-1325.100098,12.90000057,-878.1000366,2.352281788,0.089699482,0.063577267,ST
4.03333333333333,1.023422599,-3.251505136,8.731093407,1.097568035,1.143299937,1.028970003,-1320.300049,10.5,-861.3000488,2.329801731,0.10339773,0.277258944,ST
4.06666666666667,1.21901536,-3.488967896,7.136443615,1.021348,3.68142581,2.385685921,-1317.900024,14.10000038,-878.1000366,2.313339549,0.1326488,0.399706653,ST
4.1,3.067277193,-4.217505932,8.558229446,0.693601966,4.588443756,5.327777863,-1315.5,15.90000057,-873.3000488,2.299362431,0.255675641,0.442185076,ST
4.13333333333333,2.87587142,-4.175037861,10.09784985,-0.594515979,0.129574001,3.208861828,-1313.100098,17.70000076,-866.1000366,2.303274255,0.255168743,0.408784766,ST
4.16666666666667,3.289786339,-3.349600554,11.85339928,-0.472563982,1.471045971,3.208861828,-1315.5,13.50000095,-892.500061,2.324070286,0.256748863,0.308858514,ST
4.2,3.750954628,-3.512295485,10.84493065,0.83079797,1.189031959,3.521363974,-1310.700073,9.900000572,-868.500061,2.318776558,0.292636368,0.311604013,ST
4.23333333333333,2.712578297,-2.196381092,9.742552757,1.036592007,3.033555984,2.08842802,-1313.100098,19.5,-875.7000122,2.334063582,0.269427281,0.247827245,ST
4.26666666666667,2.527153969,-1.234567046,8.790308952,1.272873998,3.079288006,2.278977871,-1313.100098,15.90000057,-870.9000244,2.35131556,0.271080777,0.171243374,ST
4.3,2.45717144,-0.723752975,8.753822327,1.059458017,2.888737917,1.189031959,-1320.300049,10.5,-904.500061,2.366366509,0.268811397,0.108228598,ST
4.33333333333333,3.131876707,-0.130993307,7.606584072,0.945127964,2.370441914,0.564027965,-1293.900024,19.5,-902.1000366,2.385084919,0.352734709,0.043442506,ST
4.36666666666667,2.738896608,0.302062213,9.190466881,-0.091463998,2.347575903,0.0,-1293.900024,13.50000095,-887.7000122,2.402532311,0.305879503,-0.010102678,ST
4.4,1.990619779,0.349913627,9.759301186,0.472563982,1.836901903,0.213415995,-1286.700073,9.300000191,-897.3000488,2.406836954,0.230428884,-0.028707911,ST
4.43333333333333,0.778782129,0.235668331,9.082202911,0.891773999,2.743919849,-0.083841994,-1279.5,10.5,-897.3000488,2.406408499,0.125864345,-0.027821619,ST
4.46666666666667,1.162789941,0.019140575,7.940946102,1.661595941,5.419241905,0.152439997,-1286.700073,11.10000038,-894.9000244,2.403547985,0.13292482,-0.012064375,ST
4.5,1.585677028,-0.166283742,8.19754982,1.615863919,7.118947983,0.137196004,-1272.300049,12.30000019,-892.500061,2.399810358,0.164881049,0.008513039,ST
4.53333333333333,1.04017067,0.17884475,7.927188873,1.402447939,8.620481491,0.716467977,-1262.700073,18.30000114,-916.500061,2.401642819,0.129002158,-0.01567416,ST
4.56666666666667,1.059909344,0.120226741,8.227457047,1.135677934,9.702805519,1.135677934,-1253.100098,14.10000038,-904.500061,2.399244711,0.116557096,-0.016124313,ST
4.6,0.726145566,-1.731623888,8.999060631,0.099086002,9.207375526,0.350611985,-1238.700073,14.10000038,-909.3000488,2.38450181,0.076939262,0.138144699,ST
4.63333333333333,-1.204061747,-1.269857526,9.059473038,0.365855992,7.858281612,-0.876529992,-1221.900024,11.70000076,-923.7000122,2.388069236,-0.083183212,0.138684541,ST
4.66666666666667,-3.736599207,-0.911569893,10.49681091,0.746955991,7.256144047,0.175305992,-1200.300049,11.70000076,-909.3000488,2.382601194,-0.282015283,0.100373607,ST
4.7,-5.710471153,-0.859531462,13.60296726,1.318606019,3.185995817,0.045731999,-1181.100098,13.50000095,-916.500061,2.374275871,-0.37361127,0.07062442,ST
4.73333333333333,-4.468128204,-0.099889874,11.24807835,2.073184013,1.913121939,-0.373477995,-1193.100098,13.50000095,-921.3000488,2.359119532,-0.379417166,0.023445129,ST
4.76666666666667,-4.611682415,-0.668723822,8.834571838,0.907018006,4.222588062,-0.198172003,-1188.300049,8.100000381,-921.3000488,2.375176879,-0.457711596,0.059714678,ST
4.8,-2.375823975,-0.93669188,7.418169022,3.064043999,5.160093784,1.295740008,-1190.700073,12.30000019,-926.1000366,2.393497925,-0.355896184,0.104032534,ST
4.83333333333333,-5.000475407,1.645491362,8.644960403,1.699705958,5.068629742,0.266770005,-1176.300049,4.5,-916.500061,2.310676713,-0.480220895,-0.10076843,ST
4.86666666666667,-3.070267916,1.140060544,6.105843544,3.78813386,4.756127834,3.262215853,-1147.5,8.100000381,-914.1000366,2.275624044,-0.470358412,-0.17033105,ST
4.9,-4.36524725,1.741792321,9.938743591,-0.259148002,4.420759678,1.951231956,-1159.5,6.300000191,-916.500061,2.269588413,-0.431141691,-0.173901629,ST
4.93333333333333,-4.533325672,2.277130365,8.448769569,1.44817996,1.646351933,1.653973937,-1152.300049,8.100000381,-916.500061,2.237597087,-0.467624828,-0.242551071,ST
4.96666666666667,-5.200853348,0.135180309,8.543275833,-0.708845973,4.108257771,1.105189919,-1140.300049,11.70000076,-914.1000366,2.311589475,-0.532480224,-0.081087874,ST
5.0,-5.349790573,0.587974548,7.237529755,-1.478667974,1.272873998,0.251525998,-1135.5,11.10000038,-923.7000122,2.310416575,-0.609636666,-0.079522601,ST
5.03333333333333,-5.068065166,-1.646089435,7.944534779,-1.676839948,5.403997898,0.129574001,-1149.900024,12.90000057,-923.7000122,2.422450535,-0.585027948,0.122647561,ST
5.06666666666667,-7.28119421,-0.78835243,9.824498177,-1.189031959,2.271355867,-1.181409955,-1125.900024,6.900000095,-928.500061,2.40810189,-0.623567674,0.095882026,ST
5.1,-4.959203243,-0.471336663,7.013824463,0.442075998,-0.320124,2.202757835,-1130.700073,11.70000076,-914.1000366,2.392259487,-0.617021503,0.073237348,ST
5.13333333333333,-5.591440678,-0.0765623,8.983509064,0.030487999,0.990859985,1.089946032,-1123.5,6.300000191,-918.9000244,2.363531594,-0.574819816,0.024768917,ST
5.16666666666667,-5.395847797,1.258492827,7.364336491,0.983237982,-0.861285985,1.577754021,-1135.5,5.100000381,-918.9000244,2.285737028,-0.611148115,-0.111762575,ST
5.2,-4.060194492,0.187218755,8.079116821,0.754577994,2.675322056,0.678357959,-1121.100098,11.10000038,-914.1000366,2.318185431,-0.513073093,-0.049859047,ST
5.23333333333333,-5.497531891,0.704612434,8.566005707,0.381099999,0.152439997,-1.783547997,-1133.100098,10.5,-909.3000488,2.310259344,-0.552567211,-0.071325856,ST
5.26666666666667,-5.123094559,0.67769599,7.649650574,0.899396002,0.464941978,-1.42531395,-1109.100098,2.700000048,-918.9000244,2.306728669,-0.578750781,-0.083407485,ST
5.3,-5.13984251,0.164489314,7.284783363,-0.038109999,1.669217944,-1.166165948,-1113.900024,10.5,-921.3000488,2.332282449,-0.605941948,-0.040297946,ST
5.33333333333333,-5.181712627,0.274547637,7.221978188,-0.602137983,1.646351933,-1.067080021,-1118.700073,5.100000381,-921.3000488,2.334945662,-0.6192459,-0.037096137,ST
5.36666666666667,-5.857016087,0.299071491,6.695014477,-0.93750596,0.792688012,-0.762199998,-1109.100098,10.5,-935.7000122,2.332972311,-0.689406407,-0.040439576,ST
5.4,-4.514184952,-0.403746516,5.885128498,-0.762199998,1.890255928,-0.853663981,-1101.900024,14.70000076,-933.3000488,2.385235588,-0.665753725,0.042433569,ST
5.43333333333333,-6.535310268,-0.035888579,7.369719505,-1.631107926,1.189031959,-3.338435888,-1104.300049,5.100000381,-923.7000122,2.374857469,-0.709732387,0.021636287,ST
5.46666666666667,-6.33074522,0.555076659,8.595314026,-0.602137983,-1.402447939,0.076219998,-1104.300049,5.100000381,-933.3000488,2.333169607,-0.65139376,-0.04332064,ST
5.5,-4.425061703,-1.500142574,7.633500576,0.167683989,-0.449698001,-0.579271972,-1116.300049,6.300000191,-926.1000366,2.431087943,-0.560440703,0.126841703,ST
5.53333333333333,-5.964083672,-0.268566191,8.965564728,-0.236281991,-1.493911982,-1.166165948,-1109.100098,15.30000019,-921.3000488,2.394715271,-0.578355223,0.056890778,ST
5.56666666666667,-4.511194229,-1.071274042,8.825001717,0.342989981,-1.943609953,-0.952749968,-1118.700073,8.100000381,-921.3000488,2.419631326,-0.500134972,0.102522015,ST
5.6,-5.23375082,-0.072973445,9.365722656,0.586893976,-2.06556201,-0.93750596,-1133.100098,3.300000191,-923.7000122,2.389372047,-0.504621621,0.036248722,ST
5.63333333333333,-3.927406788,-0.186620608,8.840553284,1.753059983,-1.364337921,0.449698001,-1111.5,4.5,-930.9000244,2.384018364,-0.442414217,0.023072985,ST
5.66666666666667,-3.747963905,-0.111852735,9.533801079,1.646351933,-1.714949965,-0.579271972,-1135.5,9.900000572,-921.3000488,2.382752246,-0.374326558,0.009781064,ST
5.7,-3.178531647,0.32479164,8.437404633,1.486289978,-2.179892063,0.464941978,-1133.100098,6.900000095,-928.500061,2.370060589,-0.361756941,-0.026033825,ST
5.73333333333333,-2.405132771,-0.572422802,8.862086296,1.23476398,-0.685979962,1.42531395,-1135.5,12.30000019,-916.500061,2.388311657,-0.293288006,0.035737062,ST
5.76666666666667,-3.615176201,-1.389486074,10.63318729,1.34147191,-1.135677934,-0.952749968,-1128.300049,3.300000191,-909.3000488,2.411402636,-0.315910121,0.104696706,ST
5.8,-3.624746323,-0.751267552,9.610363007,2.987823963,-1.882633924,-0.083841994,-1145.100098,-3.900000095,-916.500061,2.405416758,-0.345788558,0.081200634,ST
5.83333333333333,-3.987819195,-0.829624295,9.697093964,2.614346027,-0.777444005,0.144817993,-1135.5,-1.5,-926.1000366,2.406590187,-0.376073647,0.080763021,ST
5.86666666666667,-4.810265541,-0.120226741,9.584044456,2.713431835,-1.196653962,0.952749968,-1137.900024,-0.300000012,-916.500061,2.386622244,-0.437109072,0.029824541,ST
5.9,-3.446499825,-0.771006286,7.984012604,2.49239397,-0.373477995,1.615863919,-1142.700073,3.300000191,-909.3000488,2.403497666,-0.415124092,0.072543336,ST
5.93333333333333,-3.625942707,-1.360177159,8.241811752,1.532021999,0.29725799,-0.312501997,-1142.700073,0.900000036,-935.7000122,2.429998389,-0.411938229,0.134499425,ST
5.96666666666667,-3.557156324,-1.986432791,8.677858353,0.983237982,-1.265251994,-1.669217944,-1125.900024,5.700000286,-911.7000122,2.457508625,-0.388242871,0.197539035,ST
6.0,-4.521362782,-1.841084123,8.262148857,1.013725996,-1.722571969,-0.922261953,-1140.300049,0.300000012,-921.3000488,2.464845009,-0.457483734,0.211522591,ST
6.03333333333333,-4.056007385,-1.68975389,8.348879814,1.272873998,-1.371959925,1.516777992,-1140.300049,2.700000048,-914.1000366,2.457889807,-0.446495426,0.200044764,ST
6.06666666666667,-3.690542221,-1.431954265,8.271718979,0.746955991,-1.676839948,2.881115913,-1149.900024,1.5,-902.1000366,2.443308549,-0.421678698,0.176412565,ST
6.1,-4.361658573,-0.88943857,8.413478851,0.93750596,-0.442075998,2.743919849,-1149.900024,3.300000191,-916.500061,2.416846041,-0.460574432,0.123353709,ST
6.13333333333333,-4.921520233,-0.439635098,8.376394272,1.257629991,-1.150921941,3.094532013,-1152.300049,0.300000012,-916.500061,2.388406352,-0.508735238,0.070760357,ST
6.16666666666667,-5.060289383,-0.281725347,8.708363533,-0.274392009,-0.876529992,2.713431835,-1130.700073,-3.300000191,-921.3000488,2.36965441,-0.520323337,0.041863283,ST
6.2,-3.926210403,-0.066393867,8.609669685,-0.243903995,-2.149404049,4.070147991,-1152.300049,6.300000191,-914.1000366,2.34954563,-0.449495201,0.013873008,ST
6.23333333333333,-3.939967871,-0.331371218,8.369814873,-0.29725799,-0.464941978,3.544229984,-1149.900024,3.900000095,-918.9000244,2.350721214,-0.441912228,0.030770609,ST
6.26666666666667,-3.992006302,0.204564899,9.538585663,0.068598002,-0.929883957,3.307947874,-1164.300049,8.700000763,-909.3000488,2.32959159,-0.409020706,-0.007895076,ST
6.3,-2.933293104,-0.067590155,8.120388985,0.434453994,-1.95885396,4.02441597,-1159.5,0.900000036,-921.3000488,2.326567332,-0.361275671,0.001357794,ST
6.33333333333333,-3.467434883,-0.306847334,9.423742294,-0.731711984,-0.381099999,2.621968031,-1152.300049,3.300000191,-918.9000244,2.329417658,-0.354561798,0.02329349,ST
6.36666666666667,-3.048734665,-0.648386955,9.64385891,-1.067080021,-2.423795938,3.086910009,-1159.5,3.300000191,-916.500061,2.33377962,-0.317555561,0.05404693,ST
6.4,-2.753252029,-1.41221559,9.283179283,-1.432935953,-1.272873998,2.408551931,-1173.900024,1.5,-909.3000488,2.349593907,-0.294016902,0.122760355,ST
6.43333333333333,-2.855534554,-1.357186437,10.3371067,-0.365855992,-0.800309956,2.355197906,-1183.5,2.700000048,-916.500061,2.346586372,-0.27403103,0.12798893,ST
6.46666666666667,-2.363861084,-1.325484872,8.997266769,0.007622,-0.891773999,2.553369999,-1181.100098,2.100000143,-921.3000488,2.345163717,-0.259044274,0.140349345,ST
6.5,-2.969181776,-1.156808496,9.232934952,-0.274392009,0.213415995,2.050318003,-1173.900024,8.100000381,-921.3000488,2.338111059,-0.29644917,0.12841879,ST
6.53333333333333,-2.815459013,-0.771006286,8.993678093,-0.053353999,-0.038109999,2.964957952,-1173.900024,12.90000057,-918.9000244,2.3240738,-0.300990464,0.097383947,ST
6.56666666666667,-2.021125078,-1.04734838,8.619838715,-0.144817993,0.121951997,2.804895878,-1166.700073,1.5,-918.9000244,2.323696936,-0.250976613,0.113166839,ST
6.6,-3.20066309,-0.916355014,9.14799881,-0.960371971,-0.388722003,2.164648056,-1181.100098,8.100000381,-916.500061,2.317141072,-0.309542699,0.104323865,ST
6.63333333333333,-2.310626268,-1.146041989,9.709056854,-1.211897969,-0.838419974,2.652456045,-1188.300049,2.700000048,-916.500061,2.314650963,-0.253696136,0.114300723,ST
6.66666666666667,-2.484685898,-1.591060281,9.81313324,-0.663114011,-1.310984015,3.140264034,-1185.900024,6.300000191,-918.9000244,2.31686229,-0.246545469,0.146575134,ST
6.7,-2.655156612,-0.662742436,9.556529999,0.304879993,-0.381099999,3.269837856,-1181.100098,11.70000076,-909.3000488,2.297502196,-0.263403846,0.091177877,ST
6.73333333333333,-2.686858177,-0.036486723,9.984202385,0.259148002,0.975615978,4.054903984,-1178.700073,1.5,-916.500061,2.274038437,-0.26475544,0.02712348,ST
6.76666666666667,-3.592446804,-0.178246602,9.370508194,0.213415995,3.673803806,2.705809832,-1176.300049,3.900000095,-918.9000244,2.26724364,-0.344256387,0.019802857,ST
6.8,-4.454968929,0.199181616,9.729991913,-0.198172003,3.727157831,1.585376024,-1164.300049,5.700000286,-928.500061,2.253567974,-0.410695068,-0.009694875,ST
6.83333333333333,-4.828209877,0.720762253,9.369909286,0.114329994,1.471045971,3.597584009,-1171.5,0.300000012,-923.7000122,2.225685086,-0.459726935,-0.061165669,ST
6.86666666666667,-3.589456081,-0.015551717,8.446376801,-0.640248001,0.312501997,3.262215853,-1164.300049,8.100000381,-921.3000488,2.238553781,-0.419674019,-0.017838188,ST
6.9,-4.250403881,0.89422375,7.88173008,-0.632625997,1.775925994,2.553369999,-1169.100098,5.100000381,-921.3000488,2.202357112,-0.476315125,-0.089397669,ST
6.93333333333333,-3.698916197,0.06041244,6.598114967,-0.632625997,2.49239397,1.974097967,-1173.900024,8.100000381,-916.500061,2.2245415,-0.503744528,-0.034266866,ST
6.96666666666667,-6.359456062,0.723154843,8.064762115,-1.55488801,2.949713945,0.312501997,-1152.300049,3.900000095,-911.7000122,2.201946337,-0.62696736,-0.072203644,ST
7.0,-4.851537704,-0.31761393,6.264949322,-0.815553963,1.753059983,0.746955991,-1154.700073,3.900000095,-906.9000244,2.250983631,-0.65186973,0.013242953,ST
7.03333333333333,-5.496335983,0.527562082,8.100649834,-2.080806017,1.562510014,-0.899396002,-1145.100098,8.700000763,-911.7000122,2.219166432,-0.614539587,-0.038999348,ST
7.06666666666667,-5.504709721,-0.57421726,8.783131599,-2.423795938,1.028970003,0.442075998,-1137.900024,2.700000048,-906.9000244,2.258982376,-0.577475054,0.037292031,ST
7.1,-4.026698589,0.351708055,8.676063538,-2.621968031,-2.568614006,0.068598002,-1145.100098,13.50000095,-911.7000122,2.230059699,-0.474590996,-0.015482218,ST
7.13333333333333,-3.436929464,0.54131937,9.200037003,-2.187514067,-0.929883957,-0.083841994,-1135.5,12.90000057,-906.9000244,2.216836815,-0.391341548,-0.043623798,ST
7.16666666666667,-2.796916485,-0.008972145,8.70537281,-1.219519973,-0.251525998,0.373477995,-1135.5,9.300000191,-902.1000366,2.227604781,-0.331704463,-0.009062196,ST
7.2,-3.511697292,-0.056225438,9.34359169,-1.135677934,1.387203932,-1.379581928,-1137.900024,7.500000477,-899.7000122,2.233383725,-0.352840139,0.003435406,ST
7.23333333333333,-3.140848637,-0.018542431,8.943433762,0.670735955,3.125020027,-1.814036012,-1128.300049,12.90000057,-887.7000122,2.236600921,-0.34583338,0.002435395,ST
7.26666666666667,-3.83589077,0.392381787,8.765187263,1.326228023,4.070147991,-2.385685921,-1128.300049,11.70000076,-906.9000244,2.229129772,-0.397273113,-0.030800913,ST
7.3,-3.547585964,-0.056225438,8.329140663,1.173787951,2.843005896,-1.905499935,-1123.5,14.10000038,-904.500061,2.244399298,-0.40523595,-0.002717701,ST
7.33333333333333,-3.947145462,-0.404942781,8.108426094,1.150921941,2.98020196,-1.890255928,-1123.5,14.10000038,-892.500061,2.263133405,-0.442020348,0.033461486,ST
7.36666666666667,-5.513681889,-0.732127011,8.973340988,0.663114011,2.210379839,-1.85214591,-1109.100098,9.300000191,-902.1000366,2.284210224,-0.526693603,0.069850635,ST
7.4,-4.916137218,0.119030453,9.102540016,0.716467977,1.669217944,-1.570132017,-1109.100098,11.10000038,-899.7000122,2.258574672,-0.506983547,0.011745482,ST
7.43333333333333,-4.201954365,-0.103478737,8.939845085,0.785066009,1.928365946,-0.701223969,-1099.5,20.70000076,-902.1000366,2.260166996,-0.459564393,0.011074746,ST
7.46666666666667,-4.963988304,-0.32239905,9.163550377,0.205793992,0.93750596,-1.120433927,-1099.5,8.700000763,-892.500061,2.269918732,-0.486315494,0.028271616,ST
7.5,-5.457456589,0.503038228,7.999564171,0.266770005,0.868907988,-0.975615978,-1104.300049,20.70000076,-894.9000244,2.240491192,-0.565659704,-0.033630992,ST
7.53333333333333,-5.394651413,0.475523651,7.433122635,0.365855992,1.006103992,0.411587983,-1089.900024,17.70000076,-914.1000366,2.228139615,-0.609663705,-0.055358988,ST
7.56666666666667,-5.049522877,0.406139076,7.605986118,0.411587983,0.304879993,-1.105189919,-1101.900024,11.70000076,-894.9000244,2.231425448,-0.591959427,-0.053416701,ST
7.6,-5.158983231,0.034094151,8.243008614,-0.144817993,-1.189031959,-2.096050024,-1106.700073,13.50000095,-909.3000488,2.252441489,-0.569821701,-0.01983015,ST
7.63333333333333,-5.155394077,-0.312230617,8.273513794,-0.060975999,-1.34147191,-2.500015974,-1104.300049,14.70000076,-911.7000122,2.278657159,-0.559328339,0.02247202,ST
7.66666666666667,-5.22238636,-0.268566191,8.304018974,0.205793992,-0.983237982,-2.606724024,-1106.700073,9.300000191,-916.500061,2.287189498,-0.559327512,0.031078786,ST
7.7,-5.6506567,-0.626255691,8.771168709,0.282013983,-0.068598002,-2.019829988,-1101.900024,12.30000019,-899.7000122,2.306007079,-0.567477328,0.060315666,ST
7.73333333333333,-5.240330696,-0.491075367,8.877637863,0.449698001,0.487807989,-1.585376024,-1111.5,18.90000153,-918.9000244,2.307251336,-0.543558084,0.057414204,ST
7.76666666666667,-5.111131668,-0.653770268,8.362636566,0.72408998,0.792688012,-1.478667974,-1099.5,12.30000019,-911.7000122,2.318210431,-0.547134479,0.072606909,ST
7.8,-4.882042885,-0.718967855,8.309402466,0.716467977,1.196653962,-1.890255928,-1094.700073,17.10000038,-911.7000122,2.327023489,-0.536142037,0.082795574,ST
7.83333333333333,-5.074046612,-0.596348524,7.917020321,0.632625997,0.251525998,-1.402447939,-1099.5,8.100000381,-914.1000366,2.327082941,-0.559054023,0.077792465,ST
7.86666666666667,-5.360557079,-0.894821882,8.206521988,0.381099999,0.335367978,-0.282013983,-1097.100098,17.10000038,-911.7000122,2.339266037,-0.571278891,0.099033415,ST
7.9,-5.281602383,-0.658555388,9.110315323,0.731711984,-0.099086002,-0.175305992,-1089.900024,11.10000038,-921.3000488,2.329788245,-0.538299639,0.079296376,ST
7.93333333333333,-5.541794777,-0.327782363,9.381274223,0.739333987,-1.295740008,0.137196004,-1099.5,10.5,-911.7000122,2.313715368,-0.533343599,0.047186536,ST
7.96666666666667,-4.582373142,-0.459373802,8.58514595,0.541162014,-1.394825935,0.221037999,-1094.700073,14.70000076,-906.9000244,2.315507295,-0.501137319,0.050740427,ST
8.0,-3.981837749,-0.453990519,8.490639687,0.739333987,-0.708845973,-0.678357959,-1094.700073,11.10000038,-923.7000122,2.317721187,-0.45606733,0.052121933,ST
8.03333333333333,-3.865199804,-0.631040812,8.97872448,0.967993975,-0.564027965,-1.501533985,-1097.100098,10.5,-918.9000244,2.325963843,-0.420016151,0.064476161,ST
8.06666666666667,-3.567324638,-0.818857729,7.924796104,2.896359921,-0.792688012,-2.46952796,-1097.100098,15.90000057,-926.1000366,2.342569883,-0.419551844,0.090060239,ST
8.1,-4.250403881,-0.694444001,8.133547783,3.506119967,-0.541162014,-1.699705958,-1097.100098,18.90000153,-921.3000488,2.344842474,-0.461001855,0.083316654,ST
8.13333333333333,-4.694226265,-0.605320692,7.833280563,3.62045002,0.0,0.152439997,-1092.300049,11.10000038,-926.1000366,2.343372598,-0.516252526,0.074287897,ST
8.16666666666667,-6.040646076,0.290099353,7.620341301,3.285081863,0.876529992,1.653973937,-1111.5,4.5,-933.3000488,2.298107955,-0.629288308,-0.010278564,ST
8.2,-6.864886761,0.726743698,7.702287197,1.76830399,-0.823175967,1.875011921,-1101.900024,6.300000191,-923.7000122,2.257453252,-0.699574942,-0.074975386,ST
8.23333333333333,-6.166255951,0.836203873,8.165249825,0.243903995,-2.164648056,1.402447939,-1094.700073,10.5,-923.7000122,2.242318272,-0.655885663,-0.096767356,ST
8.26666666666667,-5.315696716,0.850559294,8.274709702,-0.29725799,-3.81099987,1.120433927,-1111.5,5.700000286,-926.1000366,2.23829563,-0.58764138,-0.101311445,ST
8.3,-3.923817873,0.677097857,8.298037529,-0.091463998,-2.378063917,0.510674,-1111.5,12.90000057,-918.9000244,2.244997109,-0.481822803,-0.087330556,ST
8.33333333333333,-4.220496655,0.711790144,7.775858402,0.175305992,-0.571649969,0.838419974,-1121.100098,10.5,-930.9000244,2.242313216,-0.490619735,-0.090811005,ST
8.36666666666667,-4.125990391,0.672910869,8.046218872,-0.564027965,-0.312501997,0.693601966,-1106.700073,12.30000019,-923.7000122,2.243376753,-0.477183562,-0.085275947,ST
8.4,-3.977052689,0.275145769,8.430825233,-0.922261953,-0.53354001,-0.411587983,-1125.900024,12.30000019,-921.3000488,2.261444165,-0.449630738,-0.044789034,ST
8.43333333333333,-4.672692776,0.313426912,8.688026428,-0.442075998,0.663114011,-1.04421401,-1111.5,11.70000076,-918.9000244,2.266119511,-0.482106569,-0.03729569,ST
8.46666666666667,-5.411997795,0.951047301,8.670680046,0.419209987,0.907018006,0.503051996,-1116.300049,15.30000019,-926.1000366,2.241001051,-0.534584052,-0.087850446,ST
8.5,-5.101561546,0.372044921,8.362038612,1.318606019,1.63872993,1.34147191,-1113.900024,5.700000286,-923.7000122,2.254893838,-0.546105653,-0.058734027,ST
8.53333333333333,-5.112926006,0.635825992,8.800477982,0.975615978,0.42683199,0.282013983,-1116.300049,9.900000572,-923.7000122,2.249488656,-0.531203602,-0.070143043,ST
8.56666666666667,-4.395154476,0.146545023,9.356750488,0.792688012,-0.83079797,-0.457319975,-1104.300049,4.5,-914.1000366,2.269077714,-0.465979299,-0.032174319,ST
8.6,-3.954323292,0.117834166,9.352563858,0.899396002,-1.265251994,-1.219519973,-1099.5,0.300000012,-921.3000488,2.277443796,-0.41835037,-0.018759677,ST
8.63333333333333,-3.411209345,-0.447410941,8.726905823,0.556405962,-0.983237982,-1.486289978,-1118.700073,12.30000019,-930.9000244,2.299436162,-0.385077243,0.030512354,ST
8.66666666666667,-3.133671045,-0.912168026,8.243008614,-0.152439997,-0.541162014,-1.783547997,-1113.900024,8.100000381,-928.500061,2.324416947,-0.366925579,0.090500408,ST
8.7,-3.388479948,-0.710593879,7.914628029,-0.099086002,-0.038109999,-0.586893976,-1116.300049,11.10000038,-923.7000122,2.325191226,-0.392082633,0.090238139,ST
8.73333333333333,-4.551867962,-0.372044921,8.0103302,0.182927996,0.320124,0.548784018,-1118.700073,14.10000038,-916.500061,2.311580584,-0.479368774,0.059676304,ST
8.76666666666667,-5.033372879,-0.226696193,8.204129219,0.419209987,-0.129574001,0.594515979,-1106.700073,8.100000381,-918.9000244,2.299393441,-0.530595934,0.035733542,ST
8.8,-5.225975037,0.232677609,8.394936562,-0.175305992,-1.814036012,0.647870004,-1111.5,10.5,-923.7000122,2.274045299,-0.547684653,-0.011139343,ST
8.83333333333333,-3.829311371,0.149535745,8.234036446,-0.594515979,-2.820139885,0.53354001,-1101.900024,10.5,-921.3000488,2.270478506,-0.464077322,-0.015913354,ST
8.86666666666667,-3.987819195,-1.171163917,8.409292221,-0.960371971,-2.347575903,-1.067080021,-1113.900024,8.100000381,-914.1000366,2.319482015,-0.444857592,0.09386678,ST
8.9,-5.752939224,-1.305148005,9.842442513,-1.135677934,-2.050318003,-2.446661949,-1118.700073,15.90000057,-928.500061,2.33518027,-0.498212427,0.122787325,ST
8.93333333333333,-4.395752907,-1.68975389,9.267028809,0.754577994,-2.073184013,-2.240867853,-1116.300049,8.700000763,-935.7000122,2.35949857,-0.448306148,0.167215155,ST
8.96666666666667,-4.06916666,-1.342232823,9.122278214,1.006103992,-0.998481989,-0.754577994,-1121.100098,11.70000076,-933.3000488,2.354186036,-0.421952296,0.150090659,ST
9.0,-3.662429333,-0.964206457,8.749036789,0.663114011,-0.670735955,0.663114011,-1128.300049,11.70000076,-928.500061,2.341646853,-0.401982184,0.120576464,ST
9.03333333333333,-3.768300772,-0.885849714,8.989490509,-0.030487999,0.335367978,1.585376024,-1113.900024,11.70000076,-918.9000244,2.332792822,-0.397895588,0.104172966,ST
9.06666666666667,-3.855629683,-0.85654074,9.097156525,0.022865999,0.480185986,1.471045971,-1118.700073,7.500000477,-916.500061,2.327464688,-0.399639839,0.096217503,ST
9.1,-4.15111208,-1.131686449,9.398620605,0.762199998,1.143299937,0.853663981,-1125.900024,12.30000019,-918.9000244,2.332799386,-0.410683204,0.111384866,ST
9.13333333333333,-4.062587261,-1.10596633,9.653429031,1.280496001,1.257629991,0.503051996,-1118.700073,12.30000019,-914.1000366,2.333156687,-0.402024335,0.111518165,ST
9.16666666666667,-3.762319326,-0.588572681,9.471593857,1.196653962,0.792688012,0.503051996,-1133.100098,5.100000381,-916.500061,2.319310215,-0.38596082,0.075135449,ST
9.2,-3.523660183,-0.511412263,9.408788681,0.967993975,0.983237982,1.615863919,-1092.300049,15.30000019,-916.500061,2.311359261,-0.367648742,0.058586868,ST
9.23333333333333,-3.682168245,-0.637620389,9.012818336,1.036592007,1.173787951,2.25611186,-1106.700073,10.5,-914.1000366,2.310556735,-0.383873201,0.065107959,ST
9.26666666666667,-3.418387175,-0.358287632,8.406899452,0.678357959,1.996963978,0.960371971,-1104.300049,14.10000038,-918.9000244,2.303250036,-0.387795842,0.048111403,ST
9.3,-3.451284885,-0.57182467,8.012125015,1.150921941,1.882633924,0.998481989,-1113.900024,10.5,-930.9000244,2.308084774,-0.402784659,0.062389102,ST
9.33333333333333,-3.631924152,-0.321202785,7.861392975,1.105189919,0.320124,1.013725996,-1109.100098,13.50000095,-906.9000244,2.30048206,-0.424012136,0.045489096,ST
9.36666666666667,-4.359864235,-0.135778457,7.964871883,1.074702024,0.251525998,1.280496001,-1116.300049,5.700000286,-930.9000244,2.289819966,-0.478054482,0.023745735,ST
9.4,-4.757030964,0.020336861,7.72860527,1.364337921,0.411587983,1.158543944,-1113.900024,8.700000763,-918.9000244,2.279207777,-0.530103496,0.003058318,ST
9.43333333333333,-6.532319546,0.756052732,8.521144867,0.434453994,0.251525998,2.804895878,-1094.700073,10.5,-914.1000366,2.240116492,-0.615948495,-0.06208991,ST
9.46666666666667,-6.226668358,1.631734014,8.799879074,0.106707998,-0.983237982,4.054903984,-1104.300049,3.900000095,-928.500061,2.180444272,-0.608836342,-0.155387812,ST
9.5,-4.62484169,1.757344007,6.97315073,0.015244,-0.602137983,3.224105835,-1111.5,14.70000076,-921.3000488,2.138460761,-0.581713714,-0.222412259,ST
9.53333333333333,-4.825219154,1.246529937,8.852516174,-0.678357959,0.29725799,1.097568035,-1106.700073,4.5,-916.500061,2.168643677,-0.517039562,-0.159795261,ST
9.56666666666667,-5.029784203,1.582686305,9.057679176,0.091463998,0.632625997,1.12805593,-1109.100098,13.50000095,-916.500061,2.161896471,-0.506051386,-0.169994202,ST
9.6,-3.906471729,1.300362825,8.245400429,0.594515979,1.539644003,0.373477995,-1109.100098,5.700000286,-921.3000488,2.165472591,-0.45832832,-0.161233682,ST
9.63333333333333,-4.139149189,1.07785368,7.872159481,0.396344006,2.019829988,-0.259148002,-1101.900024,11.70000076,-918.9000244,2.173818531,-0.477158083,-0.143272878,ST
9.66666666666667,-4.469324112,0.962412059,8.602492332,-0.564027965,0.922261953,-0.556405962,-1099.5,2.700000048,-926.1000366,2.184709105,-0.478030041,-0.120031592,ST
9.7,-4.397547245,0.686668158,9.408190727,-1.250007987,1.806414008,-0.609759986,-1097.100098,6.900000095,-940.500061,2.200050587,-0.451160615,-0.085058337,ST
9.73333333333333,-3.977650642,-0.078954875,8.93805027,-0.221037999,3.932951927,-0.762199998,-1077.900024,12.90000057,-909.3000488,2.229216638,-0.433711542,-0.018490331,ST
9.76666666666667,-5.230162144,-0.427672237,9.611559868,1.417691946,7.957367897,-2.820139885,-1087.5,12.90000057,-911.7000122,2.256313209,-0.492390667,0.028363624,ST
9.8,-3.765310049,-0.745286167,10.11938286,3.658559799,9.352193832,-4.352161884,-1061.100098,7.500000477,-914.1000366,2.279705066,-0.407957312,0.058869204,ST
9.83333333333333,-4.856322765,-0.537730515,7.898478031,5.053385735,6.55491972,-4.961921692,-1049.100098,10.5,-916.500061,2.293319538,-0.514860497,0.062064924,ST
9.86666666666667,-5.11651516,-0.316417634,6.215303421,3.795755863,5.464973927,-3.551851988,-1053.900024,8.100000381,-906.9000244,2.297518292,-0.642091821,0.052834697,ST
9.9,-6.836774349,0.183629885,5.487363815,1.486289978,2.698187828,-2.629590034,-1039.5,3.300000191,-902.1000366,2.265042454,-0.827842678,-0.003860193,ST
9.93333333333333,-6.426447868,0.221911043,6.430634975,0.137196004,0.411587983,-1.692083955,-1041.900024,4.5,-897.3000488,2.252855059,-0.798326535,-0.023642348,ST
9.96666666666667,-6.178218842,-0.315819502,6.311006546,0.739333987,-0.975615978,-0.640248001,-1027.5,12.30000019,-906.9000244,2.294663257,-0.778890768,0.032593806,ST
10.0,-6.491047382,-0.978561878,6.967767239,0.221037999,-0.335367978,-1.402447939,-1013.100037,9.900000572,-902.1000366,2.350927199,-0.754949674,0.110793539,LD
10.0333333333333,-7.595817566,-0.937888205,7.428337574,-0.312501997,-1.539644003,-1.928365946,-1027.5,9.900000572,-897.3000488,2.36151301,-0.779128899,0.123451285,LD
10.0666666666667,-7.375102997,-1.264474273,6.780548573,0.335367978,-1.333850026,-1.615863919,-1020.300049,10.5,-911.7000122,2.394489082,-0.805205165,0.166750038,LD
10.1,-6.989300728,-0.93190676,6.595722675,-0.068598002,-2.629590034,-0.564027965,-1029.900024,6.300000191,-906.9000244,2.381499069,-0.804923133,0.148617138,LD
10.1333333333333,-5.441306591,-1.675996661,6.203938961,-0.975615978,-1.821658015,1.8292799,-1044.300049,2.100000143,-899.7000122,2.434356527,-0.732535459,0.230169685,LD
10.1666666666667,-5.790622234,-1.542012572,7.986404896,-1.920743942,-1.471045971,1.85214591,-1034.700073,8.100000381,-909.3000488,2.411478278,-0.651764294,0.201997715,LD
10.2,-6.200349808,-1.29198885,8.635988235,-1.775925994,-0.952749968,3.00306797,-1039.5,9.900000572,-911.7000122,2.379516674,-0.625215639,0.160262954,LD
10.2333333333333,-6.845746517,-1.08024621,8.931470871,-1.227141976,-0.304879993,3.147886038,-1034.700073,15.90000057,-914.1000366,2.3566047,-0.643141194,0.131170384,LD
10.2666666666667,-6.160872459,-0.833811283,8.948817253,-0.083841994,-0.175305992,3.00306797,-1041.900024,9.300000191,-916.500061,2.334955574,-0.613890206,0.101601802,LD
10.3,-5.384482861,-0.550889671,8.381777763,0.754577994,-0.685979962,2.027451992,-1039.5,9.900000572,-914.1000366,2.315589633,-0.580380097,0.07158994,LD
10.3333333333333,-5.209825516,0.10946016,8.211904526,0.922261953,-1.173787951,1.150921941,-1041.900024,6.900000095,-906.9000244,2.28054813,-0.56861094,0.008794669,LD
10.3666666666667,-5.541196346,-0.007177716,6.975543499,1.272873998,0.434453994,1.692083955,-1039.5,8.700000763,-906.9000244,2.27447528,-0.642258497,0.000204914,LD
10.4,-6.254182816,0.093310304,7.720231533,0.670735955,1.089946032,1.707327962,-1032.300049,8.700000763,-904.500061,2.265770512,-0.671606851,-0.011197818,LD
10.4333333333333,-4.602111816,-0.369054228,6.67228508,0.556405962,-0.335367978,1.318606019,-1049.100098,6.900000095,-904.500061,2.291861521,-0.623591216,0.034093919,LD
10.4666666666667,-4.671496391,-0.512608528,7.301531315,0.129574001,-1.653973937,0.42683199,-1032.300049,14.10000038,-911.7000122,2.305843521,-0.581316682,0.059860376,LD
10.5,-4.329957008,-0.500645638,6.520954609,1.135677934,-1.463423967,0.144817993,-1049.100098,8.100000381,-909.3000488,2.312140612,-0.582004655,0.069986623,LD
10.5333333333333,-6.506599426,-0.146545023,6.958197117,0.884151995,-0.221037999,0.182927996,-1046.700073,5.100000381,-916.500061,2.292386814,-0.700311796,0.035921346,LD
10.5666666666667,-6.511384487,0.391185492,6.068160534,0.746955991,-0.884151995,1.905499935,-1046.700073,6.300000191,-904.500061,2.242955921,-0.783066852,-0.034767283,LD
10.6,-6.871466637,0.754856408,6.46233654,0.060975999,-1.013725996,2.964957952,-1049.100098,9.900000572,-909.3000488,2.196628764,-0.802647467,-0.094897836,LD
10.6333333333333,-7.489347935,1.458272576,8.382375717,-1.410069942,-4.184477806,4.199721813,-1049.100098,6.300000191,-906.9000244,2.15001836,-0.740698874,-0.152829642,LD
10.6666666666667,-6.051412582,1.380514026,8.579762459,-1.730193973,-5.190581799,3.536607981,-1049.100098,9.300000191,-909.3000488,2.141058835,-0.641147676,-0.158460049,LD
10.7,-4.17743063,1.460665107,8.755018234,-0.945127964,-4.070147991,1.524399996,-1073.100098,11.70000076,-916.500061,2.136345458,-0.492568276,-0.163465262,LD
10.7333333333333,-4.749853134,1.413411856,9.730589867,-0.289635986,-4.009171963,-0.701223969,-1082.700073,7.500000477,-918.9000244,2.144857252,-0.458115528,-0.148800979,LD
10.7666666666667,-5.169749737,0.50124383,8.318374634,0.350611985,-3.628072023,-0.411587983,-1080.300049,8.100000381,-921.3000488,2.175065426,-0.522027503,-0.08807321,LD
10.8,-5.031578541,0.142956167,8.350075722,0.93750596,-3.147886038,-2.25611186,-1073.100098,6.900000095,-916.500061,2.204675409,-0.532756156,-0.038144365,LD
10.8333333333333,-6.892401695,0.575413525,7.575480938,0.571649969,-8.201272011,-1.028970003,-1089.900024,9.900000572,-933.3000488,2.192831594,-0.672381753,-0.064202809,LD
10.8666666666667,-6.786530018,0.419896364,7.248894691,-0.205793992,-11.07476616,0.42683199,-1111.5,5.700000286,-914.1000366,2.196038845,-0.714236579,-0.0594079,LD
10.9,-4.599121094,0.037683006,8.074332237,-2.812517881,-18.39950752,4.748506069,-1128.300049,11.10000038,-916.500061,2.21106271,-0.554428663,-0.020327044,LD
10.9333333333333,-3.655849934,-0.562254369,7.470805645,-4.260697842,-27.05809975,4.260697842,-1166.700073,11.10000038,-938.1000366,2.234146513,-0.451697572,0.049000606,LD
10.9666666666667,-0.947458446,-0.334361911,8.27710247,-3.506119967,-19.9772625,4.153989792,-1193.100098,13.50000095,-923.7000122,2.222289759,-0.187663853,0.044652731,LD
11.0,3.573306084,-1.157406688,7.045526028,-3.68142581,-19.14646339,2.164648056,-1233.900024,14.70000076,-921.3000488,2.212019226,0.278828557,0.127639934,LD
11.0333333333333,1.911664963,-0.843979716,9.159363747,-4.93905592,-12.98788738,0.525918007,-1243.5,15.30000019,-911.7000122,2.215609063,0.242193404,0.108776338,LD
11.0666666666667,2.909965515,-1.879365206,9.445874214,-2.789651871,-8.361333847,0.731711984,-1279.5,18.90000153,-906.9000244,2.196253775,0.289008756,0.175150732,LD
11.1,0.839194596,-1.775886536,10.81562138,-1.631107926,-6.402479649,-0.518296003,-1289.100098,15.90000057,-897.3000488,2.197324699,0.148465807,0.168753451,LD
11.1333333333333,0.069384582,-1.892524362,11.51185989,-0.106707998,-4.115880013,-1.006103992,-1284.300049,20.70000076,-902.1000366,2.19828899,0.052258845,0.164784696,LD
11.1666666666667,2.427264214,-1.930207372,10.2832737,0.434453994,-2.46952796,-1.371959925,-1296.300049,17.10000038,-899.7000122,2.198223185,0.182765043,0.179144034,LD
11.2,2.161090612,-1.738801599,10.1845808,-0.167683989,-0.411587983,-2.164648056,-1291.5,18.90000153,-892.500061,2.203158142,0.200099998,0.17184956,LD
11.2333333333333,0.932504892,-1.993012428,10.19474888,0.442075998,2.294221878,-2.370441914,-1301.100098,18.30000114,-897.3000488,2.206031346,0.11350112,0.187002332,LD
11.2666666666667,0.706406832,-2.251410246,8.820216179,1.493911982,3.025933981,-2.141782045,-1296.300049,20.70000076,-899.7000122,2.206415085,0.084234338,0.230445215,LD
11.3,0.326586068,-1.915851951,8.991883278,1.410069942,3.307947874,-1.85214591,-1284.300049,17.10000038,-892.500061,2.211690682,0.046719527,0.214188673,LD
11.3333333333333,-0.322997212,-1.381112099,9.805357933,2.057940006,2.240867853,-0.625003994,-1284.300049,13.50000095,-906.9000244,2.214414574,-0.012413402,0.158763978,LD
11.3666666666667,0.319408357,-0.977963746,10.03624058,3.300325871,2.751541853,0.541162014,-1272.300049,15.30000019,-916.500061,2.214214309,0.015506463,0.110772901,LD
11.4,-0.489879102,-0.547300816,10.59191608,3.468009949,1.867389917,0.510674,-1274.700073,12.30000019,-906.9000244,2.213198245,-0.032450997,0.062693089,LD
11.4333333333333,-0.194396466,-0.321800917,10.9513998,2.49239397,1.676839948,0.236281991,-1272.300049,9.900000572,-911.7000122,2.212284111,-0.023919308,0.035362791,LD
11.4666666666667,1.707698226,0.07716044,10.4615202,1.646351933,0.746955991,0.411587983,-1272.300049,12.90000057,-909.3000488,2.212797673,0.104745845,0.003714386,LD
11.5,1.252511382,0.243444189,9.878331184,0.800309956,1.608241916,0.990859985,-1272.300049,9.300000191,-914.1000366,2.213168915,0.118664265,-0.018430421,LD
11.5333333333333,0.7554546,-0.531749129,8.628810883,0.068598002,5.038141727,0.701223969,-1267.5,8.700000763,-918.9000244,2.206149676,0.090567682,0.037524686,LD
11.5666666666667,1.446309686,-0.438438803,8.688624382,-0.701223969,6.379613876,0.777444005,-1241.100098,14.10000038,-899.7000122,2.204243677,0.135428166,0.047631123,LD
11.6,1.14364934,-0.317015767,7.357756615,0.190549999,8.407065392,2.035073996,-1241.100098,12.90000057,-923.7000122,2.201576162,0.138240619,0.044309638,LD
11.6333333333333,-1.493563056,-0.543113828,9.231739044,-0.929883957,12.16471195,1.410069942,-1214.700073,13.50000095,-909.3000488,2.199907115,-0.088551179,0.05588564,LD
11.6666666666667,-4.539905071,0.159106031,10.4884367,-0.091463998,10.08390617,1.379581928,-1200.300049,14.70000076,-930.9000244,2.187074148,-0.336386081,0.004708262,LD
11.7,-3.400442839,0.304454774,10.58174706,0.663114011,7.87352562,2.538125992,-1188.300049,8.100000381,-935.7000122,2.174935102,-0.328116199,-0.020702148,LD
11.7333333333333,-3.408218622,0.639414847,9.740159988,1.272873998,6.288149834,0.586893976,-1161.900024,18.30000114,-911.7000122,2.163405477,-0.341286892,-0.053982952,LD
11.7666666666667,-3.425564766,0.934897482,10.15407467,0.495429993,6.11284399,-0.114329994,-1157.100098,12.90000057,-926.1000366,2.153630355,-0.336512598,-0.082756289,LD
11.8,-2.713176489,0.721958578,9.169531822,-0.518296003,4.862835884,-0.129574001,-1142.700073,16.5,-914.1000366,2.154006405,-0.307710121,-0.07929906,LD
11.8333333333333,-2.628838301,-0.080151156,8.646755219,-0.571649969,5.34302187,-1.196653962,-1130.700073,12.90000057,-933.3000488,2.175803301,-0.305574507,-0.011647487,LD
11.8666666666667,-3.699514389,-0.171667039,8.177810669,-0.320124,5.914671898,-1.669217944,-1130.700073,17.70000076,-926.1000366,2.186446975,-0.396051055,0.011918199,LD
11.9,-3.814357758,-0.365465343,8.712550163,-0.586893976,5.373509884,-2.141782045,-1128.300049,16.5,-923.7000122,2.199450034,-0.41494336,0.036048979,LD
11.9333333333333,-3.733608484,-0.80031532,8.664100647,-0.205793992,3.849109888,-2.690565825,-1111.5,12.90000057,-938.1000366,2.220390827,-0.412859367,0.077116686,LD
11.9666666666667,-4.032680035,-0.922934592,8.500807762,0.846041977,2.515259981,-2.675322056,-1116.300049,8.700000763,-921.3000488,2.23465652,-0.435114611,0.099285757,LD
12.0,-4.187000751,-1.095797896,8.502004623,1.501533985,2.073184013,-2.324709892,-1111.5,17.70000076,-923.7000122,2.248203304,-0.450802365,0.119066558,LD
12.0333333333333,-4.380200863,-1.095797896,7.741764545,1.577754021,1.592997909,-2.23324585,-1106.700073,9.900000572,-916.500061,2.259762459,-0.49422697,0.133548086,ST
12.0666666666667,-4.179822922,-1.04734838,7.77346611,0.838419974,1.867389917,-2.202757835,-1101.900024,8.700000763,-933.3000488,2.264545672,-0.492898515,0.134386544,ST
12.1,-4.21511364,-0.852951884,8.427236557,0.373477995,0.419209987,-1.585376024,-1101.900024,12.30000019,-918.9000244,2.256457274,-0.470650631,0.110546715,ST
12.1333333333333,-4.789330959,-0.93908447,9.172522545,0.40396598,-0.701223969,-1.379581928,-1087.5,17.70000076,-918.9000244,2.256270646,-0.475775144,0.104604309,ST
12.1666666666667,-3.030790329,-1.085629463,8.785524368,0.548784018,-2.080806017,-1.265251994,-1111.5,11.10000038,-921.3000488,2.263594305,-0.371193393,0.117504989,ST
12.2,-3.119913816,-0.928317904,8.775953293,0.487807989,-1.028970003,-0.769822001,-1106.700073,11.10000038,-926.1000366,2.261801362,-0.346623167,0.108219243,ST
12.2333333333333,-3.067277193,-1.373934388,8.063565254,0.792688012,0.556405962,-0.442075998,-1101.900024,13.50000095,-918.9000244,2.277383181,-0.35586069,0.149733489,ST
12.2666666666667,-4.695422173,-1.414009929,8.053397179,0.625003994,1.440557957,-0.29725799,-1094.700073,16.5,-923.7000122,2.285236029,-0.475234979,0.165905656,ST
12.3,-6.153695107,-1.315316439,8.554042816,0.876529992,1.63872993,0.015244,-1101.900024,11.70000076,-926.1000366,2.281343995,-0.576975695,0.155912541,ST
12.3333333333333,-5.692526817,-1.55576992,8.495424271,1.006103992,0.868907988,0.099086002,-1089.900024,13.50000095,-918.9000244,2.291347436,-0.582119344,0.172326629,ST
12.3666666666667,-4.90656662,-1.317708969,8.749635696,1.089946032,0.861285985,0.076219998,-1104.300049,13.50000095,-926.1000366,2.282621012,-0.52555286,0.153317464,ST
12.4,-4.357471466,-1.458870649,8.481069565,1.455801964,1.173787951,0.495429993,-1097.100098,11.10000038,-916.500061,2.288265694,-0.487349527,0.163377412,ST
12.4333333333333,-4.988512516,-0.93190676,8.897974968,0.891773999,1.013725996,0.358233988,-1087.5,17.70000076,-923.7000122,2.267774927,-0.504303989,0.119409783,ST
12.4666666666667,-5.283396721,-0.172265172,8.981715202,1.082324028,1.95885396,1.692083955,-1087.5,15.90000057,-923.7000122,2.230057598,-0.526879468,0.045838494,ST
12.5,-4.230665207,0.01614986,8.802271843,1.067080021,3.010689974,3.132642031,-1092.300049,9.300000191,-926.1000366,2.207262647,-0.472763465,0.006712356,ST
12.5333333333333,-4.777966022,-0.130395174,8.699989319,0.038109999,3.40703392,3.498497963,-1070.700073,9.900000572,-918.9000244,2.203337575,-0.498457095,0.010298979,ST
12.5666666666667,-4.237843037,-0.608909547,9.081007004,-0.106707998,2.812517881,2.240867853,-1065.900024,6.300000191,-921.3000488,2.217804192,-0.458317105,0.049103595,ST
12.6,-4.369434357,-0.264379203,8.253176689,0.83079797,1.196653962,1.211897969,-1070.700073,15.30000019,-909.3000488,2.210497471,-0.479692406,0.035467845,ST
12.6333333333333,-4.977147579,-0.273949474,7.326653481,1.661595941,2.179892063,0.693601966,-1063.5,9.900000572,-918.9000244,2.210383399,-0.56702958,0.034130396,ST
12.6666666666667,-5.060887814,0.04844958,6.87864399,1.356715918,1.059458017,1.04421401,-1061.100098,9.300000191,-909.3000488,2.191933638,-0.618101523,0.001440167,ST
12.7,-5.863595486,0.276940197,7.78483057,0.838419974,0.929883957,1.486289978,-1061.100098,5.700000286,-921.3000488,2.173118543,-0.639357636,-0.02822837,ST
12.7333333333333,-6.08610487,0.644199967,7.750736713,0.312501997,-0.167683989,1.387203932,-1056.300049,15.90000057,-916.500061,2.147060611,-0.656771644,-0.068679237,ST
12.7666666666667,-5.307322502,0.254808903,7.574284554,0.129574001,0.175305992,1.356715918,-1065.900024,12.90000057,-916.500061,2.15928722,-0.624910317,-0.045308361,ST
12.8,-5.699106216,0.462364525,7.797989845,-0.106707998,0.564027965,0.365855992,-1051.5,3.300000191,-921.3000488,2.152794969,-0.629348492,-0.055247828,ST
12.8333333333333,-5.63151598,0.566441417,7.677762985,-0.876529992,0.236281991,0.282013983,-1053.900024,9.900000572,-923.7000122,2.144384734,-0.631177529,-0.067300409,ST
12.8666666666667,-5.237339973,0.036486723,7.824906349,-0.72408998,-0.121951997,0.571649969,-1058.700073,15.30000019,-911.7000122,2.170241303,-0.600175093,-0.01957056,ST
12.9,-5.836081028,-0.046057008,8.475686073,0.129574001,-0.861285985,0.609759986,-1065.900024,11.10000038,-904.500061,2.179468985,-0.601182238,-0.001837917,ST
12.9333333333333,-5.240330696,-0.281725347,8.27710247,0.655492008,-0.670735955,-0.571649969,-1056.300049,11.10000038,-904.500061,2.195583595,-0.573053384,0.024421151,ST
12.9666666666667,-5.473008156,-0.331969351,7.451664925,0.72408998,-0.373477995,-0.80793196,-1046.700073,8.100000381,-923.7000122,2.205050737,-0.614492754,0.038023232,ST
13.0,-5.236741543,-0.735715866,8.089883804,0.099086002,0.045731999,-0.53354001,-1056.300049,13.50000095,-909.3000488,2.22705058,-0.585386028,0.075483154,ST
13.0333333333333,-5.66202116,-0.806894839,7.636491299,0.350611985,-0.823175967,-0.396344006,-1061.100098,9.900000572,-911.7000122,2.239431465,-0.619315623,0.095886012,ST
13.0666666666667,-5.405417919,-1.141854882,8.190969467,-0.40396598,-0.899396002,-1.318606019,-1065.900024,9.300000191,-914.1000366,2.259037127,-0.589326144,0.128009375,ST
13.1,-5.561533451,-1.408028603,8.414076805,-0.053353999,-1.082324028,-0.777444005,-1061.100098,5.700000286,-916.500061,2.274793305,-0.579849282,0.155044383,ST
13.1333333333333,-4.288685322,-1.448104143,8.710158348,0.190549999,-0.922261953,-0.152439997,-1058.700073,16.5,-914.1000366,2.27850812,-0.486116843,0.161954382,ST
13.1666666666667,-4.044044495,-1.209445119,7.549162388,1.181409955,-0.442075998,-0.640248001,-1068.300049,10.5,-906.9000244,2.278830318,-0.485747352,0.158649217,ST
13.2,-5.34261322,-1.100583076,7.489946365,0.731711984,0.419209987,-0.121951997,-1058.700073,10.5,-918.9000244,2.274868398,-0.577923473,0.148980083,ST
13.2333333333333,-4.799499035,-1.306344271,7.835672855,0.358233988,-0.266770005,0.259148002,-1053.900024,6.900000095,-914.1000366,2.28053126,-0.55359007,0.159732316,ST
13.2666666666667,-5.089000225,-1.377523303,7.489946365,0.411587983,-0.541162014,0.990859985,-1051.5,6.300000191,-926.1000366,2.286876324,-0.577989052,0.173755253,ST
13.3,-5.947933674,-1.33206439,8.456544876,-0.282013983,-1.524399996,1.63872993,-1053.900024,8.700000763,-926.1000366,2.276504864,-0.59694028,0.160400465,ST
13.3333333333333,-5.993392467,-1.227987528,8.192166328,-0.769822001,-1.250007987,2.461905956,-1063.5,7.500000477,-921.3000488,2.266670117,-0.616459519,0.151038049,ST
13.3666666666667,-5.256480217,-1.152023315,7.285979748,-1.059458017,-0.304879993,2.378063917,-1058.700073,9.900000572,-916.500061,2.264116216,-0.61840443,0.154292029,ST
13.4,-5.75892067,-1.16039741,7.41996336,-1.600619912,0.564027965,0.998481989,-1070.700073,14.70000076,-916.500061,2.262255362,-0.644285852,0.156026205,ST
13.4333333333333,-5.161375523,-1.382906556,7.979227066,-0.91463995,-0.251525998,0.602137983,-1061.100098,13.50000095,-921.3000488,2.267179165,-0.590387663,0.167648734,ST
13.4666666666667,-4.023707867,-1.399056435,8.837562561,-0.419209987,-1.204275966,0.579271972,-1061.100098,8.700000763,-909.3000488,2.261784368,-0.471895864,0.159902847,ST
13.5,-5.526242733,-1.220809817,8.684437752,0.746955991,0.205793992,1.211897969,-1061.100098,11.10000038,-918.9000244,2.253066492,-0.535562535,0.144252339,ST
13.5333333333333,-5.773275852,-0.951047301,8.993678093,1.417691946,0.564027965,1.95885396,-1087.5,17.70000076,-916.500061,2.235502893,-0.559858505,0.113491458,ST
13.5666666666667,-5.155394077,-0.273949474,8.638978958,1.028970003,-0.388722003,1.74543798,-1065.900024,6.300000191,-918.9000244,2.201071608,-0.543874466,0.051223205,ST
13.6,-4.27133894,-0.695042133,8.159866333,0.91463995,0.731711984,1.410069942,-1058.700073,12.30000019,-911.7000122,2.210710096,-0.500811455,0.073028853,ST
13.6333333333333,-5.225975037,-0.558665514,8.461330414,0.625003994,0.350611985,0.678357959,-1068.300049,9.300000191,-914.1000366,2.207211462,-0.537297971,0.066872968,ST
13.6666666666667,-5.343211174,-0.961215734,7.765091896,0.739333987,1.63872993,0.800309956,-1058.700073,6.900000095,-918.9000244,2.227959719,-0.585281678,0.106391704,ST
13.7,-4.937072277,-0.730332553,7.109527588,0.213415995,-0.030487999,1.006103992,-1053.900024,6.900000095,-914.1000366,2.224393496,-0.599331964,0.102350294,ST
13.7333333333333,-4.877855778,-1.012656093,7.159771442,-0.503051996,0.586893976,1.333850026,-1046.700073,7.500000477,-926.1000366,2.236898968,-0.596211162,0.12863537,ST
13.7666666666667,-3.996193171,-0.997104347,7.162163734,-1.219519973,-1.493911982,1.250007987,-1063.5,9.900000572,-911.7000122,2.237565649,-0.530747486,0.135886838,ST
13.8,-5.421567917,-0.316417634,7.844645023,-0.670735955,-0.503051996,1.798792005,-1061.100098,9.300000191,-928.500061,2.199102084,-0.582314473,0.069491911,ST
13.8333333333333,-6.783539295,-0.008374002,8.05100441,0.259148002,0.83079797,2.515259981,-1065.900024,12.30000019,-909.3000488,2.167125162,-0.666016602,0.020377891,ST
13.8666666666667,-6.394746304,0.158507884,8.707167625,0.800309956,1.189031959,2.17227006,-1056.300049,8.700000763,-921.3000488,2.146601158,-0.644723251,-0.009830711,ST
13.9,-6.31878233,0.592759669,8.747242928,0.663114011,0.099086002,1.257629991,-1065.900024,14.10000038,-914.1000366,2.119662792,-0.630555737,-0.053225013,ST
13.9333333333333,-5.648862362,0.96480459,8.386562347,1.272873998,0.998481989,0.487807989,-1058.700073,15.30000019,-906.9000244,2.093917635,-0.603369115,-0.098562257,ST
13.9666666666667,-4.373023033,0.938486338,8.085098267,0.625003994,0.236281991,-1.272873998,-1058.700073,17.10000038,-921.3000488,2.089812231,-0.523817979,-0.111065025,ST
14.0,-5.080028057,0.447410941,6.890008926,0.594515979,1.676839948,-1.798792005,-1058.700073,10.5,-918.9000244,2.109868265,-0.603326944,-0.079116885,ST
14.0333333333333,-5.852828979,-0.059216153,7.458244801,0.007622,1.798792005,-2.263733864,-1046.700073,12.30000019,-902.1000366,2.153132537,-0.653410112,-0.011547186,ST
14.0666666666667,-6.232649803,-0.208153754,7.166350842,0.495429993,0.548784018,-1.882633924,-1051.5,9.300000191,-923.7000122,2.172995226,-0.694968217,0.0157449,ST
14.1,-5.653048992,-0.263781041,7.256072521,0.663114011,-0.121951997,-1.935987949,-1053.900024,11.10000038,-902.1000366,2.186433993,-0.670956577,0.031640377,ST
14.1333333333333,-5.651853085,0.071777157,7.55933094,-0.190549999,-1.455801964,-1.646351933,-1053.900024,11.70000076,-902.1000366,2.171047822,-0.647776109,0.002946958,ST
14.1666666666667,-4.757629395,-1.620967507,7.013824463,-1.173787951,-0.868907988,-2.911603928,-1041.900024,5.700000286,-918.9000244,2.277242884,-0.600220538,0.179251274,ST
14.2,-5.663217545,-1.434944987,8.350075722,-2.332331896,-0.442075998,-4.657042027,-1051.5,6.300000191,-909.3000488,2.281141675,-0.591554919,0.17944285,ST
14.2333333333333,-5.618356705,-1.517488718,8.835767746,-1.364337921,-2.591480017,-2.17227006,-1053.900024,18.90000153,-911.7000122,2.280306807,-0.564825217,0.175709658,ST
14.2666666666667,-4.421473026,-1.58149004,8.880628586,-0.365855992,-3.216483831,0.137196004,-1053.900024,11.70000076,-923.7000122,2.279005815,-0.480333305,0.176042517,ST
14.3,-4.389173031,-1.15561223,8.137137413,0.990859985,-1.509155989,1.211897969,-1058.700073,19.5,-914.1000366,2.265258011,-0.48592499,0.149501223,ST
14.3333333333333,-5.022008419,-1.067685246,7.140630722,0.777444005,-0.419209987,1.592997909,-1063.5,15.30000019,-921.3000488,2.261995542,-0.570802602,0.146559659,ST
14.3666666666667,-5.087205887,-0.988132179,6.16147089,-0.442075998,1.166165948,0.289635986,-1063.5,12.90000057,-914.1000366,2.266527884,-0.651312693,0.155436601,ST
14.4,-5.509494781,-1.241146684,5.910848618,-0.838419974,0.640248001,0.289635986,-1056.300049,19.5,-921.3000488,2.28812301,-0.71391897,0.191395924,ST
14.4333333333333,-7.578471661,-1.531245947,9.111512184,-1.364337921,-0.754577994,-0.647870004,-1053.900024,13.50000095,-906.9000244,2.276321578,-0.692283626,0.17468253,ST
14.4666666666667,-6.489253044,-1.591060281,9.088184357,-0.266770005,-2.530503988,1.250007987,-1049.100098,17.70000076,-923.7000122,2.272418297,-0.63404328,0.172450521,ST
14.5,-5.172740459,-1.69453907,8.716139793,0.358233988,-1.135677934,1.844523907,-1061.100098,11.70000076,-914.1000366,2.276596332,-0.558645981,0.184348901,ST
14.5333333333333,-5.370725632,-1.294979572,9.17431736,0.266770005,0.015244,1.135677934,-1080.300049,12.90000057,-902.1000366,2.258435875,-0.53569597,0.152132314,ST
14.5666666666667,-4.624243259,-0.968991637,8.741859436,0.72408998,0.221037999,1.539644003,-1058.700073,12.90000057,-918.9000244,2.241291854,-0.500175762,0.120750303,ST
14.6,-4.306031227,-0.733921409,8.09586525,1.76830399,2.431417942,1.120433927,-1061.100098,13.50000095,-911.7000122,2.229807945,-0.494074444,0.09629393,ST
14.6333333333333,-6.677668095,-0.851755619,7.806962013,2.164648056,2.278977871,0.838419974,-1044.300049,14.70000076,-899.7000122,2.233554874,-0.643727504,0.10105365,ST
14.6666666666667,-5.812155247,0.026318291,9.017004967,1.028970003,-0.144817993,1.189031959,-1049.100098,15.30000019,-918.9000244,2.18565559,-0.590780641,0.019547521,ST
14.7,-4.597326756,-0.306847334,7.982217789,1.608241916,-0.053353999,1.74543798,-1053.900024,15.30000019,-914.1000366,2.190040235,-0.542860419,0.029624656,ST
14.7333333333333,-3.930397511,-0.611302137,7.281792641,1.882633924,1.943609953,-0.015244,-1044.300049,7.500000477,-918.9000244,2.209921644,-0.510876985,0.065608213,ST
14.7666666666667,-4.850939274,-0.634031534,6.762006283,2.278977871,1.669217944,-1.013725996,-1034.700073,9.300000191,-916.500061,2.222574971,-0.589226773,0.082617698,ST
14.8,-5.65005827,-0.392381787,6.31878233,1.844523907,0.93750596,0.022865999,-1049.100098,10.5,-914.1000366,2.214441759,-0.693144899,0.06539708,ST
14.8333333333333,-6.105245113,-0.149535745,6.184200287,0.983237982,-0.518296003,2.042695999,-1041.900024,9.900000572,-914.1000366,2.191922806,-0.75258553,0.033754151,ST
14.8666666666667,-6.474299431,0.057421725,6.971954346,0.175305992,-0.327746004,2.644834042,-1044.300049,8.100000381,-909.3000488,2.166503077,-0.749386017,0.001117442,ST
14.9,-6.477290154,0.495860517,7.711259365,-0.342989981,-0.998481989,3.102154016,-1041.900024,9.900000572,-916.500061,2.129263261,-0.712093446,-0.048163826,ST
14.9333333333333,-5.818734646,0.519786239,7.593424797,0.121951997,-0.876529992,2.446661949,-1049.100098,5.700000286,-911.7000122,2.114922208,-0.667735607,-0.065650038,ST
14.9666666666667,-5.694321156,0.598741114,7.601799011,-0.106707998,-0.967993975,1.12805593,-1049.100098,11.10000038,-902.1000366,2.107106945,-0.647693297,-0.075815744,ST
15.0,-6.278108597,0.670518279,8.487648964,-0.221037999,-1.432935953,0.114329994,-1061.100098,8.100000381,-918.9000244,2.105734458,-0.637127973,-0.07770418,ST
15.0333333333333,-5.429942131,0.050244011,7.879337311,0.457319975,-1.34147191,0.099086002,-1056.300049,11.10000038,-911.7000122,2.136240856,-0.611231768,-0.02626762,ST
15.0666666666667,-5.769687176,-0.099889874,8.231045723,0.0,-0.327746004,-0.487807989,-1051.5,8.700000763,-911.7000122,2.152892831,-0.610987771,0.001509115,ST
15.1,-5.934774399,0.218322188,7.740568161,0.381099999,-0.266770005,-0.251525998,-1046.700073,14.70000076,-916.500061,2.141223417,-0.641284995,-0.019703763,ST
15.1333333333333,-5.080626488,-0.424083352,6.790717125,-0.099086002,-0.487807989,0.175305992,-1051.5,9.900000572,-914.1000366,2.17513404,-0.641163793,0.037582846,ST
15.1666666666667,-5.080626488,-0.421690792,7.617350578,-1.12805593,-1.63872993,-0.785066009,-1044.300049,6.900000095,-914.1000366,2.183431533,-0.601620588,0.052067766,ST
15.2,-4.988512516,-1.068881512,7.479179859,-0.754577994,-1.364337921,-1.272873998,-1046.700073,11.70000076,-909.3000488,2.223987301,-0.586301722,0.122668088,ST
15.2333333333333,-4.666113377,-0.668125689,8.605483055,-1.089946032,-1.714949965,-0.975615978,-1051.5,14.70000076,-911.7000122,2.208243096,-0.520803427,0.092393013,ST
15.2666666666667,-5.089000225,-0.446214646,8.137735367,0.060975999,-2.416173935,1.059458017,-1049.100098,4.5,-906.9000244,2.192351235,-0.544611172,0.064796097,ST
15.3,-4.232459545,-0.736912131,8.481667519,0.221037999,-1.859767914,1.013725996,-1058.700073,15.90000057,-921.3000488,2.198158343,-0.480922476,0.080003678,ST
15.3333333333333,-4.544690132,-0.489280939,8.129361153,0.678357959,-1.577754021,0.137196004,-1058.700073,13.50000095,-916.500061,2.191343551,-0.49865833,0.065173698,ST
15.3666666666667,-5.24092865,-0.926523447,7.960684776,0.846041977,-0.205793992,-0.381099999,-1056.300049,11.10000038,-918.9000244,2.209755665,-0.554738719,0.09919906,ST
15.4,-5.365342617,-1.202267408,7.555741787,0.785066009,-0.022865999,-0.983237982,-1070.700073,9.300000191,-926.1000366,2.235275302,-0.596652126,0.14171116,ST
15.4333333333333,-6.449775696,-1.291390657,7.702287197,0.762199998,0.411587983,-1.006103992,-1065.900024,8.700000763,-928.500061,2.247360376,-0.662425197,0.158345804,ST
15.4666666666667,-6.603498459,-1.108957052,8.422451019,0.495429993,-1.021348,-0.221037999,-1080.300049,6.300000191,-911.7000122,2.234879955,-0.659810278,0.136862931,ST
15.5,-5.445493698,-0.798520863,8.437404633,0.388722003,-1.432935953,0.495429993,-1063.5,8.100000381,-921.3000488,2.215938306,-0.596223165,0.105477538,ST
15.5333333333333,-5.16556263,-1.264474273,8.652137756,-0.053353999,-0.647870004,0.121951997,-1073.100098,13.50000095,-928.500061,2.23198881,-0.547773724,0.135851669,ST
15.5666666666667,-5.797201633,-0.971384168,8.519948959,-0.190549999,0.93750596,-0.114329994,-1068.300049,5.700000286,-921.3000488,2.224097676,-0.581565358,0.120799189,ST
15.6,-5.437717915,-0.868503571,8.656923294,0.304879993,1.920743942,0.472563982,-1068.300049,8.700000763,-909.3000488,2.215303182,-0.567164753,0.104763527,ST
15.6333333333333,-5.241527081,-0.78835243,8.177810669,1.059458017,0.762199998,0.472563982,-1080.300049,17.70000076,-916.500061,2.211809421,-0.568564571,0.097570852,ST
15.6666666666667,-4.812060356,-0.035888579,8.028873444,1.204275966,-0.022865999,1.318606019,-1065.900024,14.10000038,-909.3000488,2.172924233,-0.547924365,0.02589009,ST
15.7,-4.95202589,-0.522776961,7.739371777,1.028970003,1.059458017,1.455801964,-1063.5,11.70000076,-914.1000366,2.186285562,-0.564130538,0.053491077,ST
15.7333333333333,-5.533420563,-0.156115308,8.426638603,0.800309956,0.548784018,0.983237982,-1063.5,11.10000038,-918.9000244,2.171530754,-0.576676989,0.027381059,ST
15.7666666666667,-4.405323029,-0.184228033,7.982217789,0.891773999,-0.381099999,0.823175967,-1082.700073,11.10000038,-911.7000122,2.168470471,-0.522720452,0.022354139,ST
15.8,-4.018324375,-0.01614986,7.815934181,0.990859985,-1.059458017,0.846041977,-1051.5,12.30000019,-911.7000122,2.160217314,-0.488003291,0.006260658,ST
15.8333333333333,-4.828808308,0.317015767,7.659819126,0.967993975,-1.166165948,0.571649969,-1070.700073,-0.900000036,-911.7000122,2.142930291,-0.539404715,-0.02883483,ST
15.8666666666667,-5.289976597,0.315221339,8.141324043,0.396344006,0.121951997,0.221037999,-1058.700073,9.300000191,-916.500061,2.138942077,-0.565526459,-0.036492624,ST
15.9,-5.283995152,0.291295618,7.28119421,0.518296003,0.510674,0.373477995,-1075.5,2.700000048,-909.3000488,2.13699485,-0.609364715,-0.039897164,ST
15.9333333333333,-6.578376293,0.406737208,7.461833477,-0.045731999,0.846041977,0.243903995,-1063.5,12.30000019,-921.3000488,2.130429332,-0.688916438,-0.050105443,ST
15.9666666666667,-6.569404125,0.309838057,8.395534515,-0.358233988,0.274392009,0.007622,-1056.300049,4.5,-918.9000244,2.136122849,-0.671584162,-0.04039311,ST
16.0,-5.977242947,0.083141871,8.400320053,-0.182927996,0.289635986,-0.564027965,-1056.300049,8.700000763,-918.9000244,2.150248156,-0.634824238,-0.018091033,ST
16.0333333333333,-5.06447649,-0.099889874,8.312991142,0.190549999,0.419209987,-0.61738199,-1058.700073,12.90000057,-916.500061,2.163635092,-0.574086998,0.003571021,ST
16.0666666666667,-4.966979027,-0.39058736,7.445085526,0.091463998,1.387203932,-1.150921941,-1053.900024,8.700000763,-914.1000366,2.184530906,-0.585393151,0.038454765,ST
16.1,-5.605197906,-0.035290435,7.621537685,-0.365855992,1.158543944,-0.72408998,-1053.900024,14.10000038,-914.1000366,2.172593479,-0.620907386,0.016139446,ST
16.1333333333333,-5.142833233,-0.703416109,7.607182503,-0.327746004,1.211897969,-0.289635986,-1051.5,13.50000095,-918.9000244,2.203861786,-0.602832417,0.070337493,ST
16.1666666666667,-5.242722988,-1.279427767,8.302224159,-0.746955991,-0.510674,-0.975615978,-1046.700073,13.50000095,-918.9000244,2.237599797,-0.571101171,0.130189451,ST
16.2,-5.27143383,-1.008469105,7.835672855,-0.053353999,0.030487999,-0.983237982,-1049.100098,10.5,-904.500061,2.238597721,-0.583079696,0.129509204,ST
16.2333333333333,-5.383286953,-1.099984884,8.211904526,0.167683989,0.099086002,-0.93750596,-1049.100098,8.700000763,-899.7000122,2.241897631,-0.578144546,0.132670868,ST
16.2666666666667,-4.825817585,-1.16039741,7.623930454,0.472563982,-0.838419974,-0.853663981,-1049.100098,15.90000057,-923.7000122,2.250871854,-0.562931094,0.146259364,ST
16.3,-5.39883852,-1.070675969,7.713053703,0.548784018,-0.327746004,0.114329994,-1051.5,14.10000038,-916.500061,2.247273883,-0.595494169,0.139084325,ST
16.3333333333333,-5.325266838,-0.799717128,7.896085262,-0.114329994,-2.164648056,0.846041977,-1049.100098,16.5,-911.7000122,2.229231757,-0.589607632,0.110112223,ST
16.3666666666667,-5.300743103,-1.066488862,7.719035149,-0.114329994,-1.082324028,1.55488801,-1053.900024,9.300000191,-918.9000244,2.236835694,-0.594143019,0.12850667,ST
16.4,-5.559739113,-1.306344271,8.373403549,-0.335367978,-0.304879993,0.541162014,-1056.300049,5.700000286,-914.1000366,2.24587951,-0.58444336,0.146853904,ST
16.4333333333333,-6.189583302,-1.250118852,7.78483057,-0.464941978,-0.335367978,0.464941978,-1051.5,12.30000019,-906.9000244,2.249648443,-0.640808364,0.155435125,ST
16.4666666666667,-5.481980324,-1.418795109,7.226165295,-0.40396598,-0.449698001,0.93750596,-1075.5,8.700000763,-923.7000122,2.263655222,-0.639928906,0.181893014,ST
16.5,-5.660825253,-1.463655829,7.032965183,-0.40396598,0.0,0.838419974,-1061.100098,16.5,-923.7000122,2.271719253,-0.659354844,0.197787807,ST
16.5333333333333,-6.97315073,-1.318307161,7.777653217,-0.266770005,0.358233988,0.731711984,-1058.700073,9.300000191,-909.3000488,2.257073846,-0.705977748,0.176501831,ST
16.5666666666667,-6.46233654,-0.912168026,8.762794495,-0.320124,-1.112811923,1.722571969,-1049.100098,15.90000057,-926.1000366,2.218777783,-0.651195289,0.120404458,ST
16.6,-5.430540085,-0.404942781,8.69759655,0.114329994,-1.836901903,3.445143938,-1068.300049,14.70000076,-911.7000122,2.181461467,-0.58420689,0.064454653,ST
16.6333333333333,-4.524353504,-0.516197383,8.418862343,0.746955991,-0.144817993,2.19513607,-1058.700073,15.90000057,-916.500061,2.176400977,-0.519964655,0.05960902,ST
16.6666666666667,-4.262964725,-0.049645867,9.18927002,0.289635986,-0.754577994,1.410069942,-1063.5,8.100000381,-909.3000488,2.155386094,-0.45823418,0.019133215,ST
16.7,-3.396255732,0.047851436,8.287869453,1.150921941,0.221037999,0.815553963,-1061.100098,14.70000076,-921.3000488,2.14677892,-0.410064082,-0.000330287,ST
16.7333333333333,-4.217505932,-0.208751902,7.901468754,1.387203932,2.149404049,0.053353999,-1053.900024,15.30000019,-914.1000366,2.154845045,-0.468680977,0.01635779,ST
16.7666666666667,-5.701498985,-0.200976044,6.786530018,0.907018006,2.46952796,0.647870004,-1058.700073,14.70000076,-914.1000366,2.158729013,-0.640821345,0.023558376,ST
16.8,-5.349790573,-0.016748004,7.555741787,0.282013983,0.579271972,1.463423967,-1049.100098,7.500000477,-923.7000122,2.147148599,-0.624288427,0.006901984,ST
16.8333333333333,-5.240330696,-0.093310304,6.922308445,0.411587983,-1.455801964,1.501533985,-1049.100098,23.10000038,-906.9000244,2.147010121,-0.639617716,0.009703345,ST
16.8666666666667,-6.854120255,0.424681515,7.908646584,0.243903995,-0.487807989,1.150921941,-1063.5,5.700000286,-911.7000122,2.116207919,-0.693554849,-0.037773996,ST
16.9,-6.478486538,0.898410738,7.973245621,0.053353999,-1.12805593,1.455801964,-1063.5,12.30000019,-906.9000244,2.079618412,-0.682139985,-0.092469728,ST
16.9333333333333,-5.450278759,0.509617805,7.072442532,0.121951997,0.609759986,0.388722003,-1046.700073,11.70000076,-923.7000122,2.087812671,-0.664114877,-0.078587645,ST
16.9666666666667,-6.357063293,0.958225012,8.150894165,0.038109999,0.53354001,-0.282013983,-1056.300049,13.50000095,-916.500061,2.071708384,-0.661342304,-0.10533671,ST
17.0,-6.528730392,0.93429935,8.458937645,0.701223969,0.762199998,-1.775925994,-1061.100098,15.30000019,-906.9000244,2.073197647,-0.657636465,-0.107871911,LD
17.0333333333333,-5.135655403,0.486290246,8.045022964,1.181409955,-1.509155989,-2.042695999,-1051.5,10.5,-918.9000244,2.097481618,-0.592994069,-0.073666158,LD
17.0666666666667,-4.998680592,0.303258479,7.864383698,0.884151995,-0.800309956,-2.416173935,-1056.300049,10.5,-926.1000366,2.116335572,-0.572903793,-0.04761775,LD
17.1,-5.724228382,-0.13996546,7.633500576,1.600619912,1.089946032,-2.179892063,-1049.100098,15.90000057,-906.9000244,2.14641138,-0.623748704,-0.002484735,LD
17.1333333333333,-6.081319809,-0.25899592,8.209512711,1.089946032,-0.243903995,-1.455801964,-1049.100098,11.10000038,-914.1000366,2.1634561,-0.632990048,0.021173896,LD
17.1666666666667,-5.156590462,0.007177716,7.997769833,1.105189919,-0.670735955,-1.615863919,-1049.100098,11.10000038,-916.500061,2.157650299,-0.586885802,0.00441997,LD
17.2,-5.119505882,-0.773997009,8.869263649,1.280496001,0.594515979,-1.227141976,-1051.5,6.300000191,-906.9000244,2.191599074,-0.542486106,0.0622786,LD
17.2333333333333,-4.283899784,-1.121518016,8.121584892,0.846041977,-1.036592007,-2.431417942,-1058.700073,7.500000477,-909.3000488,2.223580738,-0.496955936,0.117704472,LD
17.2666666666667,-4.727722168,-0.686069965,7.056890965,1.570132017,-2.027451992,-2.553369999,-1053.900024,11.10000038,-911.7000122,2.22108988,-0.557852987,0.103170889,LD
17.3,-5.580075741,-0.708799422,6.927093983,1.661595941,-1.928365946,-1.897877932,-1049.100098,10.5,-923.7000122,2.224309533,-0.637477557,0.101673713,LD
17.3333333333333,-6.010140419,-0.627451956,7.076629639,1.242385983,-4.855214119,0.129574001,-1065.900024,4.5,-914.1000366,2.21795069,-0.676805831,0.090467891,LD
17.3666666666667,-6.756622791,-1.418197036,7.418169022,-1.34147191,-6.615895748,1.067080021,-1065.900024,14.10000038,-902.1000366,2.256941087,-0.70661137,0.157700093,LD
17.4,-5.779855728,-1.595845461,9.690514565,-2.637212038,-11.4025116,0.358233988,-1085.100098,10.5,-914.1000366,2.254336751,-0.570932899,0.162793271,LD
17.4333333333333,-5.217002869,-1.969086647,8.70118618,-1.120433927,-15.92235756,0.396344006,-1106.700073,12.30000019,-914.1000366,2.269785842,-0.522929909,0.203631579,LD
17.4666666666667,-4.736694336,-1.896711349,7.802774906,-0.160062,-19.09310913,0.083841994,-1116.300049,14.10000038,-923.7000122,2.274056725,-0.507265699,0.225121656,LD
17.5,-5.242722988,-1.911664963,8.34469223,0.396344006,-22.7135601,1.280496001,-1166.700073,16.5,-923.7000122,2.261650784,-0.510245926,0.220121309,LD
17.5333333333333,-1.820149064,-1.318905234,7.897281647,0.823175967,-24.67241287,4.253076077,-1217.100098,10.5,-923.7000122,2.230714075,-0.28204853,0.175541475,LD
17.5666666666667,-0.629246414,-0.93190676,9.478173256,1.219519973,-27.10383224,4.504601955,-1257.900024,11.70000076,-916.500061,2.204249806,-0.089232697,0.114575968,LD
17.6,2.610296011,-0.876279473,9.055884361,2.87349391,-21.13580513,6.714982033,-1286.700073,14.70000076,-890.1000366,2.188936431,0.196675602,0.099447589,LD
17.6333333333333,5.374912739,-1.884748459,10.38136959,2.080806017,-12.93453407,6.04424572,-1325.100098,13.50000095,-875.7000122,2.159078196,0.402455518,0.154454866,LD
17.6666666666667,5.490952492,-0.890036762,10.74803066,4.062525749,-5.647902012,2.911603928,-1322.700073,15.30000019,-875.7000122,2.173248515,0.461785998,0.097022245,LD
17.7,5.765500069,-1.128695846,10.22944069,3.490875959,-2.225623846,2.591480017,-1334.700073,9.900000572,-873.3000488,2.164604306,0.494559811,0.102784601,LD
17.7333333333333,3.768898964,-0.202770472,10.4352026,1.737815976,2.118916035,0.952749968,-1322.700073,17.70000076,-875.7000122,2.188169228,0.388756501,0.041900778,LD
17.7666666666667,3.77009511,0.047851436,8.112014771,2.23324585,3.27745986,1.516777992,-1329.900024,8.100000381,-868.500061,2.198481214,0.418231954,0.005438596,LD
17.8,2.044452667,0.079553016,8.210708618,1.928365946,4.961921692,0.655492008,-1315.5,11.10000038,-894.9000244,2.200672263,0.290515563,-0.007212793,LD
17.8333333333333,1.436739445,0.495262384,9.025379181,1.737815976,3.064043999,0.647870004,-1317.900024,12.90000057,-897.3000488,2.207241668,0.19402136,-0.042625981,LD
17.8666666666667,0.770408154,0.944467723,8.941638947,2.339953899,0.213415995,0.80793196,-1308.300049,13.50000095,-880.500061,2.212595006,0.112541059,-0.092620217,LD
17.9,0.146545023,0.973178625,9.853209496,1.257629991,-0.243903995,1.303362012,-1308.300049,7.500000477,-892.500061,2.210453146,0.040934117,-0.098436225,LD
17.9333333333333,1.417000651,1.515694261,10.07930756,-0.091463998,-0.076219998,1.935987949,-1310.700073,8.700000763,-887.7000122,2.209741991,0.111815769,-0.13487686,LD
17.9666666666667,3.538613796,1.181930542,9.088184357,-1.318606019,1.189031959,1.417691946,-1310.700073,12.30000019,-892.500061,2.206324008,0.289396199,-0.129109459,LD
18.0,1.918244481,1.141256809,10.6403656,-2.461905956,2.812517881,-0.449698001,-1310.700073,9.900000572,-885.3000488,2.202990983,0.20765413,-0.11046956,LD
18.0333333333333,2.657549143,0.122021168,9.025977135,-1.875011921,2.858249903,-1.432935953,-1308.300049,9.300000191,-897.3000488,2.189709356,0.259287947,-0.041261457,LD
18.0666666666667,1.79084003,-0.349315494,8.997864723,-1.974097967,3.932951927,-3.208861828,-1303.5,11.70000076,-897.3000488,2.18226106,0.207924967,0.019602133,LD
18.1,-0.303856641,-0.567637682,9.377685547,-1.280496001,4.207344055,-3.818621874,-1284.300049,13.50000095,-887.7000122,2.186293719,0.026008637,0.051062263,LD
18.1333333333333,0.293688208,-0.591563404,10.40110779,-0.739333987,1.753059983,-2.240867853,-1284.300049,15.90000057,-890.1000366,2.19046813,0.025522857,0.056093227,LD
18.1666666666667,0.738706589,-1.104770064,10.01710033,-0.480185986,-0.221037999,-0.350611985,-1291.5,10.5,-906.9000244,2.189416439,0.06039477,0.095634788,LD
18.2,1.983442068,-1.320699692,9.527819633,-0.72408998,1.34147191,-0.480185986,-1286.700073,8.700000763,-904.500061,2.1873289,0.158630241,0.125697538,LD
18.2333333333333,1.920637131,-1.598237991,9.169531822,-1.196653962,3.689047813,-1.74543798,-1289.100098,8.100000381,-906.9000244,2.185732581,0.185870205,0.15934156,LD
18.2666666666667,1.415804386,-1.323092222,9.070837975,-0.998481989,4.260697842,-2.035073996,-1269.900024,12.30000019,-902.1000366,2.192198654,0.158301072,0.149854201,LD
18.3,0.497056812,-1.471431732,8.458339691,0.388722003,4.53508997,-1.722571969,-1272.300049,8.700000763,-906.9000244,2.194544271,0.081529487,0.165067442,LD
18.3333333333333,-1.471431732,-0.946860313,10.38555622,-0.022865999,3.582340002,-1.295740008,-1267.5,15.90000057,-904.500061,2.197754116,-0.077255364,0.113747916,LD
18.3666666666667,-0.36008206,-0.93429935,11.07521534,-0.221037999,0.579271972,0.365855992,-1250.700073,17.10000038,-906.9000244,2.195940745,-0.046639809,0.093294113,LD
18.4,0.190807611,-0.89422375,10.05538177,0.495429993,-0.518296003,0.182927996,-1257.900024,11.10000038,-909.3000488,2.195477608,-0.000217203,0.089475656,LD
18.4333333333333,0.004785144,-1.038376212,10.00274467,0.785066009,1.463423967,-0.777444005,-1262.700073,24.30000114,-902.1000366,2.197299484,-0.001527852,0.099067538,LD
18.4666666666667,-0.542515695,-1.031796575,8.758607864,1.608241916,2.926847935,-0.739333987,-1248.300049,13.50000095,-914.1000366,2.199410991,-0.046867121,0.109856832,LD
18.5,-2.155707359,-1.131686449,9.737169266,1.280496001,2.263733864,-1.006103992,-1241.100098,19.5,-904.500061,2.202231169,-0.172400526,0.112659978,LD
18.5333333333333,-1.382308364,-0.54610455,10.83356571,1.067080021,0.632625997,0.655492008,-1238.700073,9.900000572,-918.9000244,2.194053072,-0.139671417,0.065114019,LD
18.5666666666667,-0.310436189,-0.28471604,9.948911667,1.021348,1.021348,1.989341974,-1245.900024,16.5,-911.7000122,2.188157274,-0.065235638,0.038048139,LD
18.6,0.338548928,-0.432457358,9.69649601,0.602137983,2.667700052,2.118916035,-1233.900024,8.100000381,-916.500061,2.184842123,0.001365205,0.041806493,LD
18.6333333333333,1.476216912,-0.224901751,9.653429031,-0.388722003,5.53357172,0.381099999,-1236.300049,14.70000076,-902.1000366,2.185244763,0.106705326,0.028544084,LD
18.6666666666667,-0.012561003,-0.081945591,9.207214355,0.083841994,7.202789783,0.251525998,-1224.300049,15.90000057,-916.500061,2.185976415,0.022387072,0.014719579,LD
18.7,-2.027106524,-0.278734624,10.13792515,0.304879993,11.83696556,0.792688012,-1195.5,17.70000076,-933.3000488,2.185522208,-0.145247679,0.023143678,LD
18.7333333333333,-2.765813112,-0.212938905,9.977025032,0.038109999,10.16012573,2.294221878,-1183.5,14.10000038,-928.500061,2.181667596,-0.245117809,0.021299744,LD
18.7666666666667,-1.476216912,-0.617283523,9.008631706,-0.350611985,8.795787811,3.490875959,-1169.100098,17.10000038,-914.1000366,2.183285786,-0.196244436,0.055230366,LD
18.8,-1.869196773,-0.276342064,9.052295685,0.464941978,7.096081734,2.134160042,-1173.900024,14.70000076,-928.500061,2.176711909,-0.210126414,0.036917911,LD
18.8333333333333,-2.242438078,0.345128506,9.030762672,1.562510014,6.745470047,1.272873998,-1142.700073,13.50000095,-926.1000366,2.163065691,-0.241646624,-0.017771908,LD
18.8666666666667,-3.664822102,0.617283523,8.453554153,2.583858013,8.41468811,0.106707998,-1142.700073,10.5,-926.1000366,2.15130066,-0.368110172,-0.059069783,LD
18.9,-5.14702034,0.783567309,8.769971848,1.631107926,8.963471413,-0.670735955,-1123.5,15.30000019,-921.3000488,2.14278529,-0.495941755,-0.082643742,LD
18.9333333333333,-5.988009453,0.717173398,9.247290611,0.518296003,10.8079958,-0.373477995,-1111.5,14.10000038,-923.7000122,2.143821099,-0.565667389,-0.080008667,LD
18.9666666666667,-5.788229465,0.580796838,8.685633659,-0.556405962,6.875043869,-0.114329994,-1087.5,16.5,-916.500061,2.147942531,-0.58882696,-0.070421581,LD
19.0,-5.040550709,0.113647163,8.209512711,-0.861285985,4.900945663,-0.61738199,-1080.300049,9.900000572,-926.1000366,2.171389653,-0.567116528,-0.026915477,LD
19.0333333333333,-4.272535324,-0.261986613,7.842252731,-0.342989981,2.804895878,-1.753059983,-1073.100098,14.10000038,-921.3000488,2.198031675,-0.520364546,0.019847671,LD
19.0666666666667,-5.04533577,-0.343334079,7.274016857,0.739333987,2.713431835,-1.577754021,-1063.5,11.70000076,-926.1000366,2.211168445,-0.583411067,0.038915975,LD
19.1,-5.775668621,-0.888840437,8.235232353,0.777444005,2.545747995,-0.518296003,-1056.300049,10.5,-906.9000244,2.239356659,-0.6045575,0.086220286,LD
19.1333333333333,-6.078329086,-0.531749129,8.777150154,0.625003994,0.960371971,0.045731999,-1065.900024,8.700000763,-914.1000366,2.228501804,-0.606073945,0.065821206,LD
19.1666666666667,-4.98193264,-0.553880394,8.662306786,0.320124,-0.236281991,0.007622,-1049.100098,0.900000036,-914.1000366,2.227841517,-0.552540734,0.064167998,LD
19.2,-4.834191322,-1.045553923,7.406804562,0.663114011,0.72408998,-0.983237982,-1051.5,13.50000095,-909.3000488,2.259895191,-0.569286538,0.120032025,LD
19.2333333333333,-4.929296017,-0.934897482,7.839262009,0.365855992,0.876529992,-1.981719971,-1053.900024,9.900000572,-906.9000244,2.263372937,-0.562270533,0.120252225,LD
19.2666666666667,-5.515476227,-1.454085588,6.566413403,1.631107926,1.905499935,-0.685979962,-1046.700073,7.500000477,-916.500061,2.303488592,-0.651964582,0.185133462,LD
19.3,-6.21769619,-1.155014038,7.624528408,1.493911982,1.455801964,-0.053353999,-1051.5,3.300000191,-904.500061,2.289418101,-0.67275374,0.158914308,LD
19.3333333333333,-6.81105423,-0.713584542,7.909842491,1.471045971,-1.12805593,1.539644003,-1037.100098,5.100000381,-906.9000244,2.256324677,-0.697159359,0.107676794,LD
19.3666666666667,-5.73320055,-0.960617602,7.317681313,1.44817996,-0.640248001,1.867389917,-1044.300049,9.900000572,-909.3000488,2.263435491,-0.670031059,0.120603074,LD
19.4,-5.523850441,-1.076657295,7.81055069,0.586893976,-1.143299937,0.945127964,-1053.900024,9.300000191,-914.1000366,2.268556984,-0.627629792,0.130505531,LD
19.4333333333333,-4.724731445,-0.766221166,6.863092422,0.022865999,-1.844523907,1.097568035,-1046.700073,6.900000095,-911.7000122,2.257983431,-0.605865833,0.115478116,LD
19.4666666666667,-4.61766386,-1.607808352,7.141827106,0.038109999,-1.333850026,1.646351933,-1039.5,8.100000381,-906.9000244,2.297409791,-0.573913106,0.191294143,LD
19.5,-6.091487885,-1.373336315,7.674174309,-0.099086002,-1.288118005,0.670735955,-1044.300049,9.300000191,-914.1000366,2.290120118,-0.634979426,0.180906879,LD
19.5333333333333,-6.855316639,-1.304549813,7.842252731,1.547266006,0.396344006,0.602137983,-1053.900024,15.30000019,-916.500061,2.282764014,-0.689141253,0.167450741,ST
19.5666666666667,-6.290071487,-0.46595338,9.124073029,0.83079797,-1.890255928,0.670735955,-1053.900024,12.90000057,-906.9000244,2.230464282,-0.627467305,0.082507988,ST
19.6,-4.888622284,-0.620872378,8.958985329,0.121951997,-2.103672028,1.798792005,-1053.900024,1.5,-916.500061,2.220915208,-0.528218132,0.070463175,ST
19.6333333333333,-3.627139091,-0.612498403,9.954893112,-0.564027965,-2.202757835,1.486289978,-1063.5,8.100000381,-918.9000244,2.214943862,-0.40037141,0.06359162,ST
19.6666666666667,-4.727123737,-0.406737208,7.707670212,0.541162014,0.320124,0.952749968,-1065.900024,13.50000095,-916.500061,2.210091942,-0.504955199,0.05486986,ST
19.7,-4.745666504,-0.772202551,8.041434288,0.678357959,1.166165948,0.076219998,-1058.700073,6.900000095,-906.9000244,2.224264785,-0.524778212,0.082468691,ST
19.7333333333333,-5.027989864,-0.365465343,7.364934444,0.907018006,-0.72408998,1.280496001,-1063.5,2.700000048,-916.500061,2.210144372,-0.575542716,0.057678083,ST
19.7666666666667,-4.567419529,-0.223705471,6.956402779,0.495429993,-0.929883957,2.49239397,-1077.900024,3.900000095,-918.9000244,2.19577876,-0.578218407,0.037224827,ST
19.8,-6.333137989,-0.379820794,8.115603447,-0.068598002,-2.522881985,3.025933981,-1068.300049,5.100000381,-921.3000488,2.193295971,-0.636016337,0.04123469,ST
19.8333333333333,-5.697909832,0.142956167,8.186782837,-0.373477995,-2.240867853,2.36281991,-1077.900024,15.30000019,-911.7000122,2.162727132,-0.612638327,-0.004045605,ST
19.8666666666667,-3.767702579,-0.455784947,6.955804825,-0.083841994,-1.608241916,1.95885396,-1070.700073,11.10000038,-921.3000488,2.186500597,-0.52600717,0.045800335,ST
19.9,-6.833783627,-0.618479848,8.195755005,-0.678357959,2.073184013,0.152439997,-1073.100098,11.10000038,-918.9000244,2.198131714,-0.654211371,0.067867098,ST
19.9333333333333,-6.377998352,0.107665733,8.822010994,-0.823175967,-0.983237982,0.0,-1068.300049,9.900000572,-921.3000488,2.162678807,-0.6328245,0.010410837,ST
19.9666666666667,-5.199058533,-0.29428634,7.741166115,0.29725799,-0.266770005,1.189031959,-1073.100098,12.90000057,-921.3000488,2.17177506,-0.603387932,0.028482856,ST
20.0,-5.767294407,-0.267369896,8.698793411,-1.082324028,-0.876529992,0.929883957,-1065.900024,10.5,-911.7000122,2.170540556,-0.589661767,0.030584385,ST
20.0333333333333,-4.224683762,-0.161498606,8.097061157,-0.663114011,-1.653973937,0.221037999,-1077.900024,12.90000057,-916.500061,2.165794757,-0.510082618,0.023395778,ST
20.0666666666667,-2.838786602,-0.817661464,7.70527792,0.175305992,0.038109999,-0.61738199,-1070.700073,6.300000191,-914.1000366,2.193639688,-0.39529146,0.084321226,ST
20.1,-4.621850967,-0.620274246,7.960684776,0.350611985,-0.266770005,-0.716467977,-1073.100098,13.50000095,-914.1000366,2.19305571,-0.488639064,0.079588899,ST
20.1333333333333,-4.381397247,-0.745884299,9.094165802,-0.365855992,-1.577754021,1.04421401,-1073.100098,8.100000381,-918.9000244,2.191567986,-0.458163169,0.080884044,ST
20.1666666666667,-4.022511482,-1.224996805,8.091079712,-0.160062,-0.739333987,-0.434453994,-1080.300049,3.900000095,-914.1000366,2.214413179,-0.456459852,0.131594593,ST
20.2,-5.90247488,-0.72016412,8.439199448,-0.907018006,0.792688012,-2.225623846,-1070.700073,11.10000038,-914.1000366,2.202875635,-0.565487556,0.102264632,ST
20.2333333333333,-4.142738342,-0.769810021,8.623427391,-0.40396598,-0.739333987,-0.525918007,-1077.900024,7.500000477,-911.7000122,2.198871104,-0.481242901,0.093559058,ST
20.2666666666667,-4.072755337,-1.466646552,7.677165031,0.785066009,0.929883957,-1.120433927,-1080.300049,15.90000057,-926.1000366,2.234646561,-0.482025818,0.16472365,ST
20.3,-5.571702003,-1.292586923,8.341701508,0.114329994,2.560992002,-1.250007987,-1082.700073,11.70000076,-921.3000488,2.234000462,-0.555708886,0.158206582,ST
20.3333333333333,-5.71405983,-1.3201015,8.32614994,-0.121951997,1.875011921,-0.007622,-1075.5,9.900000572,-918.9000244,2.234176138,-0.585910724,0.157920635,ST
20.3666666666667,-4.494446278,-1.064694524,7.537797928,0.106707998,1.051836014,1.440557957,-1073.100098,12.90000057,-906.9000244,2.224439087,-0.548126756,0.143407887,ST
20.4,-5.319285393,-1.004281998,7.212408066,0.518296003,1.379581928,0.853663981,-1068.300049,9.900000572,-906.9000244,2.221371332,-0.608909319,0.13864899,ST
20.4333333333333,-5.877951145,-0.850559294,7.611967564,0.121951997,2.149404049,0.72408998,-1053.900024,6.900000095,-916.500061,2.208730596,-0.645490594,0.118040292,ST
20.4666666666667,-6.467720032,-0.954038024,8.421255112,-0.381099999,0.716467977,0.068598002,-1046.700073,9.300000191,-914.1000366,2.206437665,-0.650823647,0.114865852,ST
20.5,-6.235640526,-1.054526091,8.686830521,0.266770005,0.167683989,-0.464941978,-1051.5,14.10000038,-916.500061,2.210233177,-0.627203323,0.119457345,ST
20.5333333333333,-6.089693546,-0.500645638,8.781934738,-0.282013983,0.022865999,0.487807989,-1058.700073,9.900000572,-902.1000366,2.184748164,-0.612974133,0.077160516,ST
20.5666666666667,-5.43652153,-0.517991841,8.430825233,-0.525918007,0.960371971,1.486289978,-1068.300049,15.90000057,-904.500061,2.175634525,-0.585545127,0.065471318,ST
20.6,-4.995689869,-0.185424328,8.518752098,-0.236281991,1.219519973,1.051836014,-1053.900024,18.30000114,-921.3000488,2.156081598,-0.546491465,0.032365596,ST
20.6333333333333,-4.255787373,-0.464757085,7.756119728,0.42683199,0.350611985,0.815553963,-1051.5,7.500000477,-902.1000366,2.164805257,-0.514087968,0.051323498,ST
20.6666666666667,-4.417883873,-0.512010396,6.666901588,1.371959925,0.464941978,0.106707998,-1051.5,9.300000191,-904.500061,2.174909273,-0.567870117,0.068444285,ST
20.7,-5.79660368,-0.261388481,6.901971817,0.792688012,0.739333987,-0.602137983,-1044.300049,14.10000038,-914.1000366,2.163802934,-0.664861733,0.045988077,ST
20.7333333333333,-5.945540905,0.087328874,7.291961193,-0.274392009,-2.057940006,1.753059983,-1049.100098,14.70000076,-914.1000366,2.133403244,-0.676552133,0.001930306,ST
20.7666666666667,-6.592731953,0.299669623,7.527629375,-0.716467977,-1.509155989,2.332331896,-1058.700073,11.70000076,-918.9000244,2.109216709,-0.705390137,-0.029545771,ST
20.8,-6.765594959,0.816465139,8.02468586,0.335367978,-2.439039946,1.539644003,-1051.5,21.90000153,-906.9000244,2.072718856,-0.697055437,-0.083642021,ST
20.8333333333333,-5.550168514,0.968991637,8.201138496,-0.396344006,-1.653973937,1.387203932,-1058.700073,6.300000191,-911.7000122,2.054366627,-0.61709547,-0.110043529,ST
20.8666666666667,-4.450781822,1.538423777,8.049209595,0.205793992,-1.760681987,-0.40396598,-1070.700073,11.70000076,-911.7000122,2.023969956,-0.528599581,-0.168320735,ST
20.9,-5.199058533,1.290792584,7.778251171,-0.868907988,-1.173787951,-1.227141976,-1063.5,12.30000019,-923.7000122,2.027851388,-0.566112828,-0.163452796,ST
20.9333333333333,-5.082420826,0.221312895,8.132949829,0.251525998,0.167683989,-1.943609953,-1065.900024,14.70000076,-918.9000244,2.082406814,-0.562144796,-0.067008356,ST
20.9666666666667,-5.134459496,-0.496458679,8.170633316,0.998481989,0.106707998,-2.797273874,-1061.100098,11.70000076,-921.3000488,2.135399406,-0.561857791,0.023101881,ST
21.0,-5.648862362,-0.281725347,8.969752312,1.067080021,0.754577994,-2.995445967,-1058.700073,9.900000572,-923.7000122,2.144651749,-0.562654214,0.030048192,ST
21.0333333333333,-5.891708374,-0.023925718,8.287869453,0.83079797,1.028970003,-0.838419974,-1061.100098,4.5,-914.1000366,2.135744243,-0.604806703,0.009860963,ST
21.0666666666667,-5.505307674,-1.296773911,9.200037003,0.518296003,0.815553963,-0.449698001,-1053.900024,14.70000076,-909.3000488,2.189245144,-0.556055264,0.105138934,ST
21.1,-5.096178055,-1.448104143,8.673670769,-0.121951997,-0.602137983,-1.455801964,-1061.100098,12.90000057,-906.9000244,2.214632802,-0.532889871,0.150262283,ST
21.1333333333333,-5.120103836,-1.11553669,8.429030418,0.274392009,0.983237982,-0.998481989,-1061.100098,14.10000038,-921.3000488,2.20994918,-0.540720164,0.137008425,ST
21.1666666666667,-3.945351124,-1.162191749,7.372112274,1.158543944,0.655492008,-0.259148002,-1049.100098,9.300000191,-911.7000122,2.21801592,-0.502049331,0.149962344,ST
21.2,-4.386780739,-0.937888205,7.219585896,0.990859985,0.099086002,-0.091463998,-1049.100098,12.30000019,-921.3000488,2.210980197,-0.531873736,0.133524999,ST
21.2333333333333,-5.118907452,-1.07785368,6.235042095,0.777444005,0.556405962,0.053353999,-1053.900024,9.300000191,-911.7000122,2.225255209,-0.636160653,0.157862585,ST
21.2666666666667,-6.412092686,-1.397261977,7.069451809,-0.29725799,1.310984015,-0.045731999,-1065.900024,8.100000381,-909.3000488,2.24147642,-0.701372749,0.183872422,ST
21.3,-6.430634975,-1.025217056,7.628117085,-0.541162014,-0.205793992,0.602137983,-1051.5,13.50000095,-914.1000366,2.215566801,-0.69735615,0.146126312,ST
21.3333333333333,-5.561533451,-1.84048593,7.182500839,-0.739333987,0.335367978,0.967993975,-1058.700073,9.900000572,-904.500061,2.261670961,-0.659640545,0.223005277,ST
21.3666666666667,-7.452861309,-1.54619956,9.381274223,-1.105189919,-0.579271972,0.632625997,-1056.300049,12.90000057,-909.3000488,2.234289889,-0.66294387,0.181985478,ST
21.4,-6.343306065,-0.915158749,8.758607864,0.945127964,-0.815553963,0.53354001,-1053.900024,18.30000114,-911.7000122,2.200095739,-0.635323072,0.125258633,ST
21.4333333333333,-4.451379776,-0.829624295,7.952908993,1.417691946,-1.349093914,1.875011921,-1051.5,9.300000191,-921.3000488,2.188039771,-0.543238145,0.106280373,ST
21.4666666666667,-5.253489494,-0.270360619,7.540788651,1.478667974,0.205793992,1.166165948,-1051.5,19.5,-926.1000366,2.160161763,-0.589255478,0.054956575,ST
21.5,-5.016624928,-0.297875196,7.87455225,1.631107926,0.983237982,1.501533985,-1063.5,10.5,-911.7000122,2.151092668,-0.57464789,0.039471285,ST
21.5333333333333,-5.581870079,-0.069384582,7.692118645,1.585376024,-0.586893976,1.8292799,-1058.700073,14.10000038,-909.3000488,2.136245561,-0.61112851,0.014926659,ST
21.5666666666667,-5.924606323,-0.82842803,7.802176952,0.251525998,1.242385983,0.373477995,-1053.900024,10.5,-906.9000244,2.175895756,-0.640368258,0.082966792,ST
21.6,-6.218294144,-0.040075578,8.747242928,-0.274392009,-0.800309956,-0.045731999,-1051.5,12.30000019,-904.500061,2.142624463,-0.623778289,0.027162712,ST
21.6333333333333,-3.77248764,-0.535936117,6.70996809,0.571649969,-0.350611985,0.091463998,-1056.300049,12.90000057,-914.1000366,2.163980831,-0.541591739,0.065164605,ST
21.6666666666667,-4.042250156,-1.002487659,7.172332287,0.266770005,-0.434453994,-0.777444005,-1049.100098,14.70000076,-914.1000366,2.19261688,-0.517661718,0.119080595,ST
21.7,-5.918026447,-0.310436189,7.416374683,1.272873998,-0.068598002,-0.259148002,-1041.900024,13.50000095,-918.9000244,2.165135403,-0.626338464,0.065574795,ST
21.7333333333333,-6.313997269,0.014953574,8.0695467,1.227141976,-0.678357959,1.653973937,-1051.5,11.70000076,-916.500061,2.13197023,-0.653939071,0.012114431,ST
21.7666666666667,-6.063375473,0.709995687,7.630509853,0.754577994,-3.086910009,2.881115913,-1053.900024,9.900000572,-909.3000488,2.082039396,-0.661434406,-0.064464297,ST
21.8,-6.494038105,0.488682806,8.320766449,-1.34147191,-1.676839948,2.835383892,-1056.300049,9.300000191,-906.9000244,2.078806796,-0.659487197,-0.061355842,ST
21.8333333333333,-5.280405998,0.230883181,8.570192337,-1.097568035,-1.951231956,0.929883957,-1051.5,8.700000763,-916.500061,2.091544444,-0.579071187,-0.035354301,ST
21.8666666666667,-5.327061176,0.10826388,8.686232567,0.541162014,-1.021348,-1.074702024,-1061.100098,12.30000019,-916.500061,2.10285883,-0.556816931,-0.018475361,ST
21.9,-4.898192883,-0.169274464,8.116202354,1.34147191,-1.974097967,-0.952749968,-1065.900024,10.5,-909.3000488,2.119428074,-0.544768056,0.008155742,ST
21.9333333333333,-5.581272125,-0.332567483,7.582658291,1.707327962,-0.312501997,0.022865999,-1068.300049,11.70000076,-906.9000244,2.133121147,-0.606840953,0.03038047,ST
21.9666666666667,-5.011839867,-0.358885795,8.480470657,1.158543944,-0.929883957,-0.091463998,-1065.900024,5.100000381,-916.500061,2.138202325,-0.554344782,0.037447382,ST
22.0,-4.746862411,-0.53653425,8.447572708,0.853663981,-0.525918007,-1.028970003,-1068.300049,5.700000286,-921.3000488,2.150365344,-0.521725679,0.056406224,ST
22.0333333333333,-4.304834843,-0.89183116,7.706473827,0.015244,0.503051996,-1.440557957,-1063.5,14.70000076,-911.7000122,2.174341042,-0.511408572,0.100187485,ST
22.0666666666667,-4.495642662,-1.043161392,8.007340431,-0.769822001,0.625003994,-1.600619912,-1065.900024,15.30000019,-909.3000488,2.187237204,-0.509602441,0.12279698,ST
22.1,-4.501025677,-1.122116208,7.797391891,-0.503051996,0.579271972,0.060975999,-1053.900024,11.10000038,-926.1000366,2.19416542,-0.517109559,0.137752508,ST
22.1333333333333,-5.081224442,-1.061105609,7.813541412,-0.175305992,1.699705958,0.762199998,-1068.300049,12.90000057,-916.500061,2.192159964,-0.55796033,0.135651773,ST
22.1666666666667,-4.962792397,-1.028207779,8.464321136,0.038109999,1.059458017,1.021348,-1046.700073,12.30000019,-918.9000244,2.185132221,-0.537839514,0.124560576,ST
22.2,-5.765500069,-0.809287429,8.138333321,1.105189919,-0.160062,1.387203932,-1058.700073,6.900000095,-921.3000488,2.173152628,-0.592141,0.104179198,ST
22.2333333333333,-5.163768291,-0.933103025,7.815336227,0.975615978,-0.221037999,1.166165948,-1056.300049,17.70000076,-918.9000244,2.176954975,-0.583836494,0.112454263,ST
22.2666666666667,-6.419868469,-0.534739792,7.445683479,0.785066009,0.929883957,1.089946032,-1056.300049,11.10000038,-914.1000366,2.158182091,-0.676827753,0.081705585,ST
22.3,-6.471907139,-0.472532958,8.971546173,-0.053353999,-1.326228023,1.211897969,-1058.700073,8.100000381,-918.9000244,2.142202787,-0.636486528,0.058785169,ST
22.3333333333333,-5.14702034,-0.796726465,7.763297558,-0.106707998,-2.370441914,0.731711984,-1058.700073,9.300000191,-909.3000488,2.158995102,-0.594189778,0.090474888,ST
22.3666666666667,-5.292368889,-0.71298641,8.320766449,-0.091463998,-0.655492008,-0.29725799,-1063.5,9.300000191,-926.1000366,2.157479789,-0.572843122,0.087256666,ST
22.4,-5.454465866,-0.934897482,8.261550903,0.358233988,0.762199998,-0.335367978,-1065.900024,15.30000019,-923.7000122,2.168222816,-0.579312302,0.105227286,ST
22.4333333333333,-4.91434288,-0.643601835,7.992386341,0.045731999,0.335367978,-0.182927996,-1063.5,6.900000095,-914.1000366,2.159204993,-0.559128275,0.087830358,ST
22.4666666666667,-5.30911684,-0.7554546,7.999564171,0.449698001,-0.083841994,1.150921941,-1046.700073,13.50000095,-921.3000488,2.159523105,-0.576465131,0.090772546,ST
22.5,-6.120198727,-0.584385693,8.237625122,1.013725996,-0.373477995,1.920743942,-1056.300049,8.100000381,-909.3000488,2.148333907,-0.619075714,0.074104733,ST
22.5333333333333,-5.639291763,-0.141759887,8.34828186,0.960371971,-1.356715918,2.522881985,-1063.5,15.90000057,-909.3000488,2.119611094,-0.599493874,0.028963142,ST
22.5666666666667,-3.780861616,0.18004103,7.381682396,1.067080021,-1.791170001,2.682943821,-1065.900024,6.900000095,-914.1000366,2.094817029,-0.509194724,-0.012572882,ST
22.6,-3.837685347,0.245238617,7.519255161,0.625003994,-0.358233988,1.539644003,-1080.300049,6.900000095,-914.1000366,2.085267086,-0.482005972,-0.028738025,ST
22.6333333333333,-4.393958092,0.761435986,8.164651871,-0.091463998,-1.913121939,0.777444005,-1058.700073,10.5,-911.7000122,2.063102149,-0.486751076,-0.073899109,ST
22.6666666666667,-4.957408905,0.522178829,8.276504517,0.083841994,0.114329994,1.501533985,-1068.300049,7.500000477,-909.3000488,2.063982181,-0.52383442,-0.067391551,ST
22.7,-4.544690132,0.406737208,7.825504303,0.167683989,0.480185986,0.891773999,-1061.100098,13.50000095,-921.3000488,2.067737509,-0.525574245,-0.057437245,ST
22.7333333333333,-6.23683691,1.580891848,7.796793461,-0.434453994,1.12805593,-1.859767914,-1065.900024,12.30000019,-914.1000366,2.018278184,-0.625450102,-0.152098022,ST
22.7666666666667,-6.117806435,1.083236933,8.343496323,-0.670735955,1.105189919,-1.714949965,-1063.5,13.50000095,-909.3000488,2.030461216,-0.629383378,-0.133847575,ST
22.8,-5.858212471,0.501841962,8.544472694,-1.242385983,-0.625003994,-1.760681987,-1058.700073,11.10000038,-916.500061,2.064215013,-0.608723359,-0.077909905,ST
22.8333333333333,-4.990904808,-0.235668331,9.081007004,-0.137196004,1.166165948,-1.905499935,-1070.700073,10.5,-904.500061,2.111384173,-0.529875802,0.004078534,ST
22.8666666666667,-5.185301304,0.212938905,8.317177773,0.503051996,-0.282013983,-1.310984015,-1073.100098,14.10000038,-911.7000122,2.103101726,-0.549489779,-0.016976695,ST
22.9,-4.565027237,-0.168078169,7.543180943,0.358233988,0.815553963,-0.998481989,-1058.700073,11.10000038,-911.7000122,2.119361448,-0.546809788,0.010802426,ST
22.9333333333333,-5.291770935,-0.453990519,7.836271286,-0.777444005,0.868907988,-2.225623846,-1053.900024,15.30000019,-911.7000122,2.142117478,-0.582125813,0.048068961,ST
22.9666666666667,-5.82710886,-1.032992959,8.19396019,-0.868907988,-0.510674,-1.265251994,-1046.700073,13.50000095,-914.1000366,2.174182168,-0.604294356,0.103762441,ST
23.0,-5.161375523,-1.178939819,8.587538719,-0.891773999,-0.792688012,-0.80793196,-1053.900024,13.50000095,-916.500061,2.18908736,-0.55196938,0.130659281,ST
23.0333333333333,-4.683459282,-2.039069414,7.196258068,-0.434453994,1.021348,-2.027451992,-1070.700073,17.70000076,-918.9000244,2.24875071,-0.559260914,0.238099195,ST
23.0666666666667,-5.377305508,-1.539620042,8.38955307,-0.419209987,-0.731711984,-1.951231956,-1056.300049,8.700000763,-916.500061,2.230897013,-0.560328544,0.200402449,ST
23.1,-3.707290173,-1.557564259,7.501909256,0.861285985,-2.698187828,-0.152439997,-1058.700073,16.5,-916.500061,2.232012282,-0.474623719,0.202274995,ST
23.1333333333333,-4.422668934,-1.811176896,7.989993572,0.876529992,-1.95885396,0.282013983,-1056.300049,18.90000153,-918.9000244,2.237822045,-0.487077238,0.215619048,ST
23.1666666666667,-5.804379463,-1.26148355,8.869862556,0.899396002,-0.632625997,0.792688012,-1070.700073,14.70000076,-916.500061,2.211033332,-0.548166848,0.162787883,ST
23.2,-5.133263111,-1.427767277,8.71972847,1.189031959,-0.586893976,0.952749968,-1082.700073,13.50000095,-916.500061,2.209214259,-0.532056572,0.160196939,ST
23.2333333333333,-6.43183136,-1.224398613,8.983509064,0.777444005,-0.228659987,1.082324028,-1056.300049,17.10000038,-906.9000244,2.197802928,-0.593596827,0.14063579,ST
23.2666666666667,-4.974755287,-1.360775232,7.605387688,1.509155989,0.625003994,1.028970003,-1073.100098,14.70000076,-911.7000122,2.21064774,-0.579575593,0.163636026,ST
23.3,-5.73738718,-1.222006083,8.468507767,1.333850026,0.72408998,-0.106707998,-1058.700073,11.70000076,-909.3000488,2.203610261,-0.588218774,0.147998063,ST
23.3333333333333,-5.468821049,-0.928317904,7.63469696,1.737815976,-0.945127964,0.754577994,-1075.5,15.30000019,-914.1000366,2.191421516,-0.608882092,0.125559429,ST
23.3666666666667,-5.647665977,-0.645396292,8.219680786,0.998481989,-1.196653962,2.164648056,-1058.700073,15.90000057,-914.1000366,2.16854835,-0.602007517,0.089349113,ST
23.4,-5.123692513,-0.035290435,7.890103817,0.868907988,-2.218001842,2.416173935,-1077.900024,9.900000572,-914.1000366,2.130681624,-0.581604328,0.026541732,ST
23.4333333333333,-4.075148106,-0.18482618,8.636586189,0.716467977,-2.736297846,1.600619912,-1068.300049,6.900000095,-916.500061,2.1255599,-0.472497687,0.020341239,ST
23.4666666666667,-4.056605816,0.21054633,8.027078629,1.387203932,-2.759163857,1.265251994,-1082.700073,5.700000286,-916.500061,2.108494502,-0.465806848,-0.015371,ST
23.5,-4.254590988,-0.369054228,7.377495289,1.074702024,0.350611985,0.541162014,-1075.5,9.300000191,-909.3000488,2.128005847,-0.50455169,0.02636807,ST
23.5333333333333,-4.761218071,-0.047253296,7.337419987,-0.060975999,0.594515979,0.815553963,-1077.900024,15.90000057,-909.3000488,2.119540612,-0.55496016,0.012090891,ST
23.5666666666667,-4.916735172,0.637022257,9.426733017,-0.640248001,0.891773999,1.166165948,-1075.5,4.5,-918.9000244,2.088678744,-0.503819012,-0.044435201,ST
23.6,-3.885536671,-0.041870009,8.924891472,1.227141976,0.40396598,2.317087889,-1075.5,6.900000095,-914.1000366,2.100586625,-0.439195436,-0.012540302,ST
23.6333333333333,-5.050121307,0.184228033,8.975733757,0.594515979,2.012207985,0.556405962,-1070.700073,17.70000076,-918.9000244,2.097158206,-0.492801161,-0.019188025,ST
23.6666666666667,-4.870079994,0.166881889,8.534901619,0.556405962,1.821658015,0.213415995,-1070.700073,9.900000572,-914.1000366,2.096710663,-0.512946185,-0.020295891,ST
23.7,-5.41020298,0.176452175,7.496525764,0.541162014,0.236281991,0.762199998,-1080.300049,6.300000191,-923.7000122,2.094003015,-0.597171126,-0.024141781,ST
23.7333333333333,-5.385679245,-0.082543731,7.933768272,1.166165948,0.022865999,0.685979962,-1073.100098,12.90000057,-906.9000244,2.106610235,-0.596691449,-0.001980034,ST
23.7666666666667,-4.960997581,0.358885795,8.251980782,1.471045971,-1.432935953,0.411587983,-1075.5,8.100000381,-916.500061,2.090315034,-0.555988748,-0.033420052,ST
23.8,-4.834789753,0.047253296,7.290166378,1.532021999,-0.708845973,0.381099999,-1058.700073,12.30000019,-911.7000122,2.1000729,-0.575849033,-0.016882456,ST
23.8333333333333,-5.135655403,-0.486888379,7.362541676,0.907018006,0.472563982,-0.655492008,-1070.700073,6.900000095,-923.7000122,2.133454058,-0.599309482,0.040052421,ST
23.8666666666667,-5.729611397,-0.752463877,8.612062454,-0.045731999,-0.663114011,-0.967993975,-1075.5,8.700000763,-909.3000488,2.15366753,-0.588761147,0.073879673,ST
23.9,-4.302442551,-1.434346795,8.743654251,-0.868907988,-2.248489857,-1.112811923,-1077.900024,3.300000191,-918.9000244,2.190228097,-0.481960159,0.144350939,ST
23.9333333333333,-5.401230812,-1.459468842,8.642567635,-0.099086002,-0.091463998,-0.045731999,-1068.300049,9.300000191,-916.500061,2.198255236,-0.532837576,0.160913149,ST
23.9666666666667,-4.056605816,-0.917551339,8.320168495,0.0,-0.495429993,0.518296003,-1075.5,4.5,-921.3000488,2.178427185,-0.471240917,0.121721426,ST
24.0,-3.589456081,-1.032394767,7.950516224,0.952749968,0.975615978,1.265251994,-1056.300049,5.100000381,-921.3000488,2.178873151,-0.43619227,0.125239573,ST
24.0333333333333,-5.375510693,-0.867307305,7.324858665,0.647870004,2.25611186,1.730193973,-1080.300049,9.300000191,-918.9000244,2.17351828,-0.581851771,0.117900082,ST
24.0666666666667,-5.61297369,-0.721360445,8.294448853,-0.312501997,1.760681987,0.83079797,-1073.100098,3.300000191,-921.3000488,2.159644354,-0.592448299,0.095190433,ST
24.1,-5.065074444,-0.933701158,7.553947449,-0.205793992,-0.335367978,1.875011921,-1065.900024,8.700000763,-918.9000244,2.167025145,-0.588491128,0.11401796,ST
24.1333333333333,-4.477100372,-0.9719823,7.27700758,0.0,2.568614006,2.08842802,-1046.700073,5.100000381,-914.1000366,2.170924061,-0.563347991,0.125873302,ST
24.1666666666667,-5.742172718,-1.411617398,8.436208725,-0.022865999,3.201239824,0.739333987,-1046.700073,3.300000191,-916.500061,2.185476834,-0.586916546,0.153434805,ST
24.2,-6.144124508,-0.651377678,9.21558857,0.571649969,-0.487807989,0.663114011,-1044.300049,12.90000057,-921.3000488,2.150305779,-0.586721644,0.090915623,ST
24.2333333333333,-5.810360909,-0.74827683,6.962982178,0.754577994,-0.990859985,3.010689974,-1061.100098,6.300000191,-904.500061,2.150920616,-0.659841272,0.098085995,ST
24.2666666666667,-6.068160534,-0.942673326,8.595912933,-1.23476398,-0.205793992,2.530503988,-1053.900024,8.100000381,-899.7000122,2.150384544,-0.626374305,0.105159039,ST
24.3,-5.565122128,-0.54131937,7.016217232,-0.647870004,-2.210379839,1.547266006,-1041.900024,11.10000038,-904.500061,2.135156437,-0.653798588,0.084871341,ST
24.3333333333333,-5.072252274,-0.736313999,8.641371727,-0.868907988,-1.051836014,0.853663981,-1058.700073,4.5,-911.7000122,2.133166357,-0.565519454,0.085137957,ST
24.3666666666667,-4.435230255,-0.28471604,7.085003376,0.053353999,-1.95885396,1.905499935,-1061.100098,9.900000572,-916.500061,2.111350201,-0.558412336,0.050206826,ST
24.4,-5.892306328,0.096899159,8.425441742,-1.105189919,-0.967993975,1.463423967,-1070.700073,5.100000381,-926.1000366,2.08279959,-0.5962565,0.004532885,ST
24.4333333333333,-5.291172504,0.389989227,8.40390873,-0.541162014,-2.118916035,2.644834042,-1056.300049,2.100000143,-930.9000244,2.055583494,-0.566945182,-0.036010412,ST
24.4666666666667,-4.905370712,0.497654945,7.823112011,-0.548784018,-2.378063917,3.544229984,-1070.700073,12.30000019,-921.3000488,2.040724669,-0.559320208,-0.055051988,ST
24.5,-3.616970539,0.278734624,8.514565468,-0.929883957,-2.423795938,2.240867853,-1070.700073,2.700000048,-921.3000488,2.044319045,-0.443796376,-0.039222714,ST
