seconds,sensor_accX_m_s_,sensor_accY_m_s_,sensor_accZ_m_s_,sensor_gyroX___s_,sensor_gyroY___s_,sensor_gyroZ___s_,sensor_magX__T_,sensor_magY__T_,sensor_magZ__T_,sensor_yaw___,sensor_pitch___,sensor_roll___,label5
0.0,-1.22320234775543,-0.538926839828491,9.54157638549805,0.137196004390717,-0.0381099991500378,0.297257989645004,-1188.30004882812,12.9000005722046,-906.900024414062,0.395192872542484,-0.127539606699214,0.0553190954705096,ST
0.0333333333333333,-1.25011885166168,-0.581993103027344,9.59182071685791,0.160062000155449,-0.0381099991500378,0.259148001670837,-1190.70007324219,2.10000014305115,-911.700012207031,0.395222952033461,-0.128788855814904,0.058776094160492,ST
0.0666666666666667,-1.30933499336243,-0.540721237659454,9.54396915435791,0.259148001670837,-0.0914639979600906,0.236281991004944,-1197.90002441406,9.30000019073486,-918.900024414062,0.394622111616581,-0.133822299599597,0.0568962063987476,ST
0.1,-1.37572884559631,-0.512608528137207,9.51944541931152,0.190549999475479,-0.114329993724823,0.297257989645004,-1183.5,1.5,-916.500061035156,0.393771601147773,-0.14058729991003,0.0543539104630347,ST
0.133333333333333,-1.3159145116806,-0.515599250793457,9.5266227722168,0.106707997620106,-0.106707997620106,0.320124000310898,-1195.5,6.90000009536743,-906.900024414062,0.393186934764785,-0.138014380296811,0.0539690529445995,ST
0.166666666666667,-1.29378318786621,-0.538328647613525,9.57028770446777,0.0838419944047928,-0.236281991004944,0.327746003866196,-1202.70007324219,8.70000076293945,-911.700012207031,0.392773452915502,-0.134892215409367,0.0554407438490202,ST
0.2,-1.24174475669861,-0.528160214424133,9.55593204498291,0.205793991684914,-0.205793991684914,0.297257989645004,-1195.5,7.50000047683716,-899.700012207031,0.392200640377613,-0.130397500728418,0.0549641354753103,ST
0.233333333333333,-1.31112945079803,-0.501841962337494,9.50449180603027,0.327746003866196,-0.114329993724823,0.274392008781433,-1193.10009765625,8.70000076293945,-911.700012207031,0.391531981418156,-0.134819323759528,0.0529714859928526,ST
0.266666666666667,-1.33445692062378,-0.472532957792282,9.54875469207764,0.167683988809586,-0.0838419944047928,0.25152599811554,-1190.70007324219,8.10000038146973,-904.500061035156,0.390765707687119,-0.137436076216225,0.0502592225507274,ST
0.3,-1.28002595901489,-0.494066089391708,9.5326042175293,0.182927995920181,-0.0304879993200302,0.228659987449646,-1181.10009765625,6.90000009536743,-904.500061035156,0.390524041426005,-0.134523409481302,0.0510632482700199,ST
0.333333333333333,-1.31232571601868,-0.457579374313354,9.54695987701416,0.160062000155449,-0.190549999475479,0.243903994560242,-1200.30004882812,8.70000076293945,-916.500061035156,0.38979733456186,-0.135652617596873,0.0486090582262068,ST
0.366666666666667,-1.28899812698364,-0.468345940113068,9.53021240234375,0.198172003030777,-0.175305992364883,0.205793991684914,-1188.30004882812,6.30000019073486,-916.500061035156,0.389476656906079,-0.134467853279045,0.0486790165759519,ST
0.4,-1.24294114112854,-0.483897656202316,9.51107120513916,0.167683988809586,-0.137196004390717,0.190549999475479,-1200.30004882812,7.50000047683716,-911.700012207031,0.389345704049456,-0.131035071019941,0.049949186808071,ST
0.433333333333333,-1.27524077892303,-0.461766362190247,9.56729698181152,0.0685980021953583,-0.106707997620106,0.198172003030777,-1205.10009765625,4.5,-911.700012207031,0.388813481708305,-0.131872304318713,0.0485795906357043,ST
0.466666666666667,-1.26447427272797,-0.529954671859741,9.56550216674805,0.0762199983000755,-0.0609759986400604,0.259148001670837,-1193.10009765625,4.5,-921.300048828125,0.388985363237483,-0.131365962096621,0.0531757584642373,ST
0.5,-1.33326065540314,-0.563450694084167,9.51166915893555,0.129574000835419,0.0304879993200302,0.213415995240211,-1188.30004882812,1.5,-918.900024414062,0.389187258273738,-0.136772135922275,0.0571714699264026,ST
0.533333333333333,-1.4941611289978,-0.656162858009338,9.44826602935791,0.175305992364883,0.114329993724823,0.236281991004944,-1185.90002441406,8.10000038146973,-923.700012207031,0.390019530579242,-0.150704560940519,0.0654135611081974,ST
0.566666666666667,-1.89970207214355,-0.616685390472412,9.59421348571777,0.167683988809586,0.0228659994900227,0.426831990480423,-1195.5,6.90000009536743,-930.900024414062,0.389153570608624,-0.181787457028608,0.0642630705288927,ST
0.6,-1.95473122596741,-0.711790144443512,9.53200626373291,0.327746003866196,0.0152439996600151,0.518296003341675,-1195.5,1.5,-914.100036621094,0.389631426379289,-0.195786841596042,0.0709135336378648,ST
0.633333333333333,-2.0911078453064,-0.370848655700684,9.54516506195068,0.663114011287689,0.0609759986400604,0.487807989120483,-1190.70007324219,3.30000019073486,-911.700012207031,0.383918762189421,-0.210709272112163,0.0458794658196917,ST
0.666666666666667,-1.51449799537659,-0.204564899206161,9.2939453125,0.975615978240967,0.0,0.708845973014832,-1193.10009765625,7.50000047683716,-916.500061035156,0.379393391987119,-0.175042916439756,0.0271106209195542,ST
0.7,-1.22619307041168,-0.247033044695854,9.48415470123291,0.282013982534409,-0.640248000621796,0.609759986400604,-1197.90002441406,2.10000014305115,-906.900024414062,0.378111609217786,-0.13991503791323,0.025832745964518,ST
0.733333333333333,-0.78476357460022,-0.520982503890991,9.63907432556152,-0.365855991840363,-1.10518991947174,0.175305992364883,-1202.70007324219,12.3000001907349,-906.900024414062,0.380079053964494,-0.0966658635855815,0.0463565045815081,ST
0.766666666666667,-0.614890992641449,-0.600535571575165,9.78442287445068,-0.495429992675781,-1.22714197635651,-0.396344006061554,-1202.70007324219,4.5,-914.100036621094,0.381598829060233,-0.0699585177131143,0.0580600909356432,ST
0.8,-0.516795516014099,-0.727940022945404,9.77844142913818,-0.0609759986400604,-0.823175966739655,-0.548784017562866,-1188.30004882812,8.70000076293945,-909.300048828125,0.383174026080741,-0.056815883238679,0.0695340304212386,ST
0.833333333333333,-0.850559294223785,-0.668723821640015,9.66718673706055,0.236281991004944,-0.381099998950958,-0.335367977619171,-1183.5,1.5,-911.700012207031,0.383692509693342,-0.0778114982819742,0.0689440254914031,ST
0.866666666666667,-0.998300611972809,-0.576011657714844,9.48774337768555,0.472563982009888,0.548784017562866,-0.228659987449646,-1195.5,4.5,-914.100036621094,0.383662802593784,-0.0972219689017305,0.0625921970582868,ST
0.9,-1.25430583953857,-0.482701390981674,9.59122276306152,0.434453994035721,0.731711983680725,0.259148001670837,-1190.70007324219,4.5,-926.100036621094,0.38234595205045,-0.121412796590777,0.0532618564660815,ST
0.933333333333333,-1.31232571601868,-0.363072782754898,9.56131553649902,0.472563982009888,0.396344006061554,0.510673999786377,-1188.30004882812,5.70000028610229,-914.100036621094,0.380170743458784,-0.132339674038,0.041910281370402,ST
0.966666666666667,-1.34821426868439,-0.412120521068573,9.42254638671875,0.3125019967556,0.266770005226135,0.571649968624115,-1193.10009765625,0.900000035762787,-911.700012207031,0.379391027573966,-0.139438946657874,0.0426922619244948,ST
1.0,-1.49356305599213,-0.555076658725739,9.47219181060791,0.259148001670837,0.548784017562866,0.320124000310898,-1193.10009765625,7.50000047683716,-921.300048828125,0.380505402864575,-0.15179916282055,0.0533897862692756,ST
1.03333333333333,-1.82493424415588,-0.38939106464386,9.55593204498291,0.449698001146317,0.457319974899292,0.3125019967556,-1178.70007324219,4.5,-918.900024414062,0.378587061630412,-0.178067329169868,0.04394275843451,ST
1.06666666666667,-2.02591013908386,-0.187816888093948,9.39682579040527,0.594515979290009,0.0609759986400604,1.12043392658234,-1188.30004882812,7.50000047683716,-909.300048828125,0.373184386675887,-0.203456051713557,0.0252476269706602,ST
1.1,-1.74298858642578,-0.304454773664474,9.28377723693848,0.533540010452271,-0.0609759986400604,1.57013201713562,-1195.5,6.30000019073486,-914.100036621094,0.371414767723418,-0.190400839423219,0.0296521928710231,ST
1.13333333333333,-1.40563595294952,-0.227294325828552,9.53380107879639,0.137196004390717,-0.46494197845459,1.54726600646973,-1190.70007324219,2.70000004768372,-909.300048828125,0.367822990957152,-0.157897766013791,0.024913991007452,ST
1.16666666666667,-1.28540921211243,-0.280529052019119,9.58942794799805,0.342989981174469,-0.594515979290009,1.19665396213531,-1195.5,0.900000035762787,-921.300048828125,0.36608902232008,-0.13926386761724,0.0274007361151366,ST
1.2,-1.33924210071564,-0.186620607972145,9.5146598815918,0.533540010452271,-0.442075997591019,0.541162014007568,-1197.90002441406,10.5,-911.700012207031,0.364331811101006,-0.139117265464305,0.020977429062926,ST
1.23333333333333,-1.5001425743103,-0.0430662930011749,9.52602481842041,0.388722002506256,-0.533540010452271,0.327746003866196,-1183.5,3.30000019073486,-916.500061035156,0.362117504979363,-0.1504149082466,0.0089453997172493,ST
1.26666666666667,-1.52586269378662,-0.0281127188354731,9.51585674285889,0.0609759986400604,-0.426831990480423,0.3125019967556,-1193.10009765625,5.70000028610229,-906.900024414062,0.360823467556423,-0.156293761070163,0.0043100305926552,ST
1.3,-1.70291304588318,0.0442625805735588,9.4847526550293,-0.0762199983000755,-0.487807989120483,0.381099998950958,-1185.90002441406,8.70000076293945,-914.100036621094,0.358974583141417,-0.171668649976491,-0.0023994264801424,ST
1.33333333333333,-2.30464482307434,0.56763768196106,9.45006084442139,-0.0228659994900227,-0.724089980125427,0.853663980960846,-1200.30004882812,3.90000009536743,-921.300048828125,0.349756637952206,-0.21771867067614,-0.0426463363110461,ST
1.36666666666667,-2.527752161026,1.17594909667969,9.39323711395264,-0.175305992364883,-0.78506600856781,1.17378795146942,-1183.5,8.10000038146973,-904.500061035156,0.334321655845742,-0.247545420496195,-0.100880739731577,ST
1.4,-1.93798327445984,1.09938681125641,9.15816688537598,-0.571649968624115,-0.922261953353882,1.55488801002502,-1183.5,12.3000001907349,-918.900024414062,0.328712953366387,-0.217933506760524,-0.113632562049816,ST
1.43333333333333,-0.150732025504112,0.56165623664856,9.43032169342041,-1.81403601169586,-2.56099200248718,-0.411587983369827,-1195.5,-0.300000011920929,-930.900024414062,0.335214036810434,-0.0738042984735375,-0.0733153287466221,ST
1.46666666666667,0.322997212409973,0.206957474350929,9.5272216796875,-1.99696397781372,-3.94819593429565,-2.4847719669342,-1209.90002441406,5.70000028610229,-916.500061035156,0.341188223442141,0.0076400190823042,-0.034017609343214,ST
1.5,0.194396466016769,0.0131591456010938,9.56430625915527,-1.50915598869324,-3.3613018989563,-3.91008591651917,-1207.5,9.30000019073486,-914.100036621094,0.347766447751878,0.0205251890852175,-0.0094347489338166,ST
1.53333333333333,0.0053832866251468,-0.259594053030014,9.75690841674805,-1.69970595836639,-2.53812599182129,-3.85673189163208,-1221.90002441406,8.70000076293945,-921.300048828125,0.354055655698984,0.0097010480803989,0.017770192555693,ST
1.56666666666667,0.0071777156554162,-0.753660142421722,9.83586311340332,-1.82927989959717,-1.48628997802734,-3.04117798805237,-1214.70007324219,10.5,-918.900024414062,0.358911840909178,0.005414346263275,0.0610110225069734,ST
1.6,-0.141161739826202,-0.899008870124817,9.92259407043457,-1.76068198680878,-0.724089980125427,-2.37044191360474,-1212.30004882812,2.10000014305115,-909.300048828125,0.362928962243918,-0.0071746264243648,0.0836812855735639,ST
1.63333333333333,-0.453392386436462,-1.33146619796753,9.41177940368652,-1.82165801525116,0.121951997280121,-0.868907988071442,-1236.30004882812,5.70000028610229,-906.900024414062,0.3652796475478,-0.0355103844652664,0.125650246965083,ST
1.66666666666667,-1.14245307445526,-1.45109486579895,8.95420074462891,-2.47714996337891,0.472563982009888,-0.320124000310898,-1226.70007324219,12.9000005722046,-911.700012207031,0.36751779142335,-0.0987549995333844,0.153113648537591,ST
1.7,-1.81715834140778,-1.49595558643341,8.81184196472168,-2.76678586006165,1.08232402801514,-0.396344006061554,-1197.90002441406,9.90000057220459,-909.300048828125,0.369747948662317,-0.171099970238406,0.167059282617985,ST
1.73333333333333,-1.6323322057724,-1.45528185367584,9.82509613037109,-3.71191382408142,0.914639949798584,0.777444005012512,-1207.5,13.5000009536743,-911.700012207031,0.365718608592476,-0.166374679394922,0.156930112428041,ST
1.76666666666667,0.12441373616457,-2.61149215698242,10.1163921356201,-3.18599581718445,-2.5076379776001,1.62348592281342,-1195.5,17.7000007629395,-909.300048828125,0.368764167357378,-0.0370767230009466,0.2289216604487,ST
1.8,0.791343152523041,-3.6534571647644,9.96865081787109,-1.76830399036407,-3.20886182785034,-0.0533539988100529,-1224.30004882812,17.7000007629395,-909.300048828125,0.366930885579143,0.0459774232997691,0.318028551159378,ST
1.83333333333333,-0.0454588644206524,-3.65046644210815,9.4315185546875,-0.236281991004944,-1.16616594791412,-1.21189796924591,-1219.5,17.7000007629395,-923.700012207031,0.367273994538044,0.011301130695594,0.355470356839579,ST
1.86666666666667,-1.38948607444763,-3.51169729232788,9.08100700378418,1.05183601379395,2.13416004180908,-0.663114011287689,-1217.10009765625,19.5,-923.700012207031,0.370056544613831,-0.0977246363747528,0.36369926368129,ST
1.9,-1.66762256622314,-3.70250487327576,8.76937389373779,1.05183601379395,2.10367202758789,0.746955990791321,-1205.10009765625,12.3000001907349,-923.700012207031,0.373373455213192,-0.153350490405299,0.387354493940923,ST
1.93333333333333,-1.42358028888702,-4.30004978179932,8.88182544708252,1.07470202445984,1.37195992469788,1.21951997280121,-1209.90002441406,20.1000003814697,-916.500061035156,0.379124139350925,-0.148515485788575,0.430335651031527,ST
1.96666666666667,-0.910971760749817,-4.71217012405396,8.97214412689209,1.89025592803955,-0.160062000155449,0.899396002292633,-1197.90002441406,10.5,-926.100036621094,0.3824877868247,-0.107745337252883,0.465192423401436,ST
2.0,-1.13826608657837,-4.37900447845459,9.47458457946777,2.78965187072754,-0.708845973014832,1.2500079870224,-1209.90002441406,14.7000007629395,-918.900024414062,0.377720897779473,-0.108253085277333,0.439031189115488,ST
2.03333333333333,-1.18731379508972,-4.07514810562134,9.54516506195068,4.16161203384399,-0.914639949798584,2.01982998847961,-1212.30004882812,8.70000076293945,-923.700012207031,0.37137031341893,-0.112203199780361,0.408795703681764,ST
2.06666666666667,-0.598741114139557,-3.48418283462524,8.74425220489502,5.02289772033691,-0.411587983369827,2.23324584960938,-1205.10009765625,9.90000057220459,-923.700012207031,0.365824263574862,-0.0787297213734104,0.381670622886984,ST
2.1,-0.288304924964905,-3.22817754745483,8.78133678436279,4.88570165634155,0.0304879993200302,0.800309956073761,-1212.30004882812,-0.300000011920929,-911.700012207031,0.363362331217422,-0.0443558175382548,0.354091664887741,ST
2.13333333333333,-0.45937380194664,-2.96200394630432,7.98461055755615,4.75612783432007,0.952749967575073,-0.320124000310898,-1214.70007324219,6.90000009536743,-906.900024414062,0.364680234973552,-0.0522650810287375,0.348933002671329,ST
2.16666666666667,-2.00676965713501,-2.74966335296631,9.60856914520264,3.72715783119202,1.53202199935913,-0.830797970294952,-1207.5,8.10000038146973,-926.100036621094,0.361749830612666,-0.161452059879135,0.292828005315142,ST
2.2,-2.92671346664429,-1.71607220172882,9.25626277923584,3.02593398094177,0.990859985351562,0.830797970294952,-1212.30004882812,2.10000014305115,-906.900024414062,0.344759994560636,-0.262754790995691,0.21171922006632,ST
2.23333333333333,-1.71068894863129,-0.565843224525452,9.13483905792236,2.29422187805176,2.9192259311676,2.16464805603027,-1185.90002441406,6.30000019073486,-916.500061035156,0.315847726250559,-0.209773228611046,0.0971098243686839,ST
2.26666666666667,-0.861325860023499,-0.477318078279495,11.2947340011597,2.11129403114319,1.31860601902008,1.15854394435883,-1190.70007324219,2.70000004768372,-930.900024414062,0.307927115577758,-0.11803686997565,0.0557602129377312,ST
2.3,-1.00787091255188,1.1597992181778,11.4113712310791,3.02593398094177,-1.32622802257538,0.823175966739655,-1202.70007324219,2.70000004768372,-930.900024414062,0.294276830940129,-0.0941292897683444,-0.064085531781896,ST
2.33333333333333,0.397765070199966,2.15032386779785,10.063157081604,5.03814172744751,-0.640248000621796,1.57775402069092,-1200.30004882812,2.10000014305115,-918.900024414062,0.28702898195385,-0.0005245301865563,-0.172506185943248,ST
2.36666666666667,0.925925314426422,2.61508107185364,9.07083797454834,4.77899408340454,0.0914639979600906,1.47866797447205,-1212.30004882812,2.10000014305115,-911.700012207031,0.287078219100554,0.0722480781142801,-0.258112151568594,ST
2.4,-0.586778283119202,3.61158728599548,9.20123291015625,3.66618180274963,0.907018005847931,0.830797970294952,-1207.5,0.300000011920929,-904.500061035156,0.287147553207564,-0.0219258016673623,-0.345008067073718,ST
2.43333333333333,-0.729136288166046,3.81675028800964,8.76339244842529,2.22562384605408,2.21037983894348,2.38568592071533,-1197.90002441406,1.5,-897.300048828125,0.279428864506043,-0.0633813829674534,-0.396489815522481,ST
2.46666666666667,-0.647190690040588,2.84716057777405,10.1857767105103,-0.228659987449646,3.72715783119202,1.98934197425842,-1195.5,-2.10000014305115,-916.500061035156,0.279513046312367,-0.0653690868970419,-0.309732935048285,ST
2.5,-0.1722651720047,2.90876936912537,10.7181234359741,-0.914639949798584,4.27594184875488,1.79117000102997,-1202.70007324219,-2.10000014305115,-897.300048828125,0.275927460185331,-0.0348813216628648,-0.277472275210756,ST
2.53333333333333,-0.334960073232651,2.20595121383667,9.91661262512207,-0.846041977405548,6.82169008255005,3.97868394851685,-1169.10009765625,-5.10000038146973,-916.500061035156,0.26725328026944,-0.0406364431203344,-0.2341499937575,ST
2.56666666666667,-1.13946235179901,1.89312255382538,9.91003227233887,-1.55488801002502,10.4040298461914,1.76068198680878,-1154.70007324219,2.10000014305115,-902.100036621094,0.262574036218545,-0.102827328752017,-0.200954121841223,ST
2.6,-2.02710652351379,1.20525813102722,8.45235824584961,-1.06708002090454,10.2592115402222,1.2423859834671,-1154.70007324219,1.5,-928.500061035156,0.263443765540955,-0.213404628914184,-0.156075714132272,ST
2.63333333333333,-3.88134980201721,0.806894838809967,9.13065242767334,-0.289635986089706,9.28359603881836,-0.0152439996600151,-1135.5,0.900000035762787,-909.300048828125,0.274981484622334,-0.362955963816185,-0.107057632943408,ST
2.66666666666667,-4.2444224357605,1.27703523635864,8.86089038848877,-0.510673999786377,6.83693361282349,-0.266770005226135,-1106.70007324219,2.10000014305115,-921.300048828125,0.264313398119192,-0.426987318122245,-0.131698305749513,ST
2.7,-4.18460845947266,1.73222208023071,8.64914703369141,0.0304879993200302,3.68904781341553,0.807931959629059,-1111.5,-0.900000035762787,-911.700012207031,0.242481819267802,-0.44259285131999,-0.17855184351843,ST
2.73333333333333,-3.90108847618103,2.07196736335754,8.34947776794434,0.403965979814529,2.080806016922,1.14329993724823,-1099.5,-2.70000004768372,-921.300048828125,0.219713517049078,-0.432790829002,-0.227005907191161,ST
2.76666666666667,-3.58048391342163,2.00078821182251,7.77645683288574,-0.0304879993200302,1.59299790859222,0.693601965904236,-1101.90002441406,3.30000019073486,-921.300048828125,0.210397749713622,-0.42502260166957,-0.245282643197154,ST
2.8,-3.92262148857117,1.68795943260193,8.07373428344727,-0.297257989645004,2.12653803825378,-0.228659987449646,-1106.70007324219,0.300000011920929,-914.100036621094,0.221916321728278,-0.441748280187028,-0.216200824879206,ST
2.83333333333333,-4.42326736450195,1.16099548339844,8.55942630767822,-0.282013982534409,1.83690190315247,-1.16616594791412,-1106.70007324219,1.5,-909.300048828125,0.249194637023095,-0.467403808297206,-0.156553636911959,ST
2.86666666666667,-5.17573118209839,0.974973022937775,8.85371208190918,0.693601965904236,0.182927995920181,-0.160062000155449,-1085.10009765625,-0.300000011920929,-909.300048828125,0.273522290784715,-0.526751312799972,-0.110734028142016,ST
2.9,-4.71037578582764,0.816465139389038,8.0533971786499,-0.182927995920181,-3.21648383140564,-0.891773998737335,-1089.90002441406,5.70000028610229,-914.100036621094,0.284344103241723,-0.521580864968477,-0.0995013069737009,ST
2.93333333333333,-4.77377891540527,0.763828575611115,7.3852710723877,-0.236281991004944,-3.81862187385559,-1.6768399477005,-1106.70007324219,0.900000035762787,-911.700012207031,0.28692201691792,-0.552537699100682,-0.100169871224224,ST
2.96666666666667,-4.95082950592041,1.08503139019012,7.92958116531372,-0.205793991684914,-3.02593398094177,-2.60672402381897,-1113.90002441406,3.30000019073486,-909.300048828125,0.279116487284683,-0.550265482282397,-0.123161536228384,ST
3.0,-5.39943647384644,1.65924859046936,7.70886659622192,0.411587983369827,-2.89635992050171,-1.78354799747467,-1111.5,2.70000004768372,-918.900024414062,0.250451752887965,-0.582526888337225,-0.183272436748488,ST
3.03333333333333,-5.428147315979,1.46485209465027,7.67118358612061,0.503051996231079,-1.79879200458527,-1.12805593013763,-1116.30004882812,-0.900000035762787,-902.100036621094,0.251225076337545,-0.598002617939533,-0.18646156550255,ST
3.06666666666667,-4.87307071685791,1.88415038585663,6.90556049346924,-0.0457319989800453,-1.86738991737366,-1.91312193870544,-1123.5,1.5,-926.100036621094,0.224111359150133,-0.596422718799288,-0.240337900079709,ST
3.1,-5.37670707702637,1.36556041240692,7.72082948684692,0.0457319989800453,-1.95885396003723,-0.525918006896973,-1118.70007324219,-2.10000014305115,-918.900024414062,0.251537521767286,-0.597687540734038,-0.194044316132947,ST
3.13333333333333,-3.9238178730011,0.61249840259552,8.10423946380615,-1.05183601379395,-3.48325395584106,-2.77440786361694,-1116.30004882812,-0.900000035762787,-909.300048828125,0.303144700196975,-0.48682144645125,-0.102451203874923,ST
3.16666666666667,-4.17982292175293,0.611302137374878,8.33512210845947,-0.335367977619171,-4.41313791275024,-3.14788603782654,-1118.70007324219,-6.30000019073486,-914.100036621094,0.319948673720348,-0.464498140930333,-0.0780850629911801,ST
3.2,-4.24382448196411,0.159106031060219,8.09347248077393,0.0685980021953583,-3.62045001983643,-3.52136397361755,-1121.10009765625,-3.90000009536743,-916.500061035156,0.346221121238407,-0.473574695731956,-0.0335665538576733,ST
3.23333333333333,-3.57749319076538,0.319408357143402,7.18788385391235,0.228659987449646,-2.99544596672058,-3.66618180274963,-1130.70007324219,5.70000028610229,-909.300048828125,0.349709943928203,-0.461596058425738,-0.039124550653827,ST
3.26666666666667,-3.78504872322083,0.0825437307357788,7.37629890441895,0.746955990791321,-1.86738991737366,-2.67532205581665,-1135.5,1.5,-911.700012207031,0.363578830439574,-0.468157624951337,-0.018881821969694,ST
3.3,-3.77009510993958,0.0484495796263218,9.1091194152832,-0.320124000310898,-3.58234000205994,-3.37654590606689,-1133.10009765625,-0.300000011920929,-916.500061035156,0.374233042704982,-0.408673875609599,-0.0066044301142048,ST
3.33333333333333,-3.92800498008728,1.46066510677338,8.03844356536865,-0.0533539988100529,-3.89484190940857,-2.79727387428284,-1130.70007324219,-0.300000011920929,-921.300048828125,0.330587908162516,-0.433005698721093,-0.124888541078462,ST
3.36666666666667,-3.54638957977295,1.61498606204987,10.7354698181152,-0.983237981796265,-3.31556987762451,1.51677799224854,-1140.30004882812,1.5,-916.500061035156,0.321358207855192,-0.341910595341036,-0.142425179498254,ST
3.4,-3.13247466087341,2.4577693939209,11.2761917114258,-3.24697184562683,-5.76223182678223,0.419209986925125,-1161.90002441406,-1.5,-918.900024414062,0.305380494250152,-0.277936406722388,-0.191594640478834,ST
3.43333333333333,-3.4913604259491,-0.608909547328949,11.7541074752808,-5.8689398765564,-2.0579400062561,-0.365855991840363,-1171.5,4.5,-906.900024414062,0.369992572719981,-0.284716172750139,0.0551578168631822,ST
3.46666666666667,-4.9275016784668,-1.30754053592682,11.8163146972656,-4.38264989852905,-1.82927989959717,-1.80641400814056,-1161.90002441406,4.5,-921.300048828125,0.384890299886371,-0.360620553741034,0.100863896118492,ST
3.5,-3.80717992782593,-2.52535963058472,11.3354072570801,-2.86587190628052,-2.82776188850403,-0.106707997620106,-1166.70007324219,15.3000001907349,-923.700012207031,0.411872095077262,-0.327010705283558,0.187215043632245,ST
3.53333333333333,-1.99839568138123,-2.63481974601746,9.79937648773193,-1.82165801525116,-2.62196803092957,0.137196004390717,-1166.70007324219,11.7000007629395,-933.300048828125,0.425102399120222,-0.231442113185157,0.242418406932417,ST
3.56666666666667,-0.939682602882385,-2.95123744010925,9.95130443572998,-1.69970595836639,-1.20427596569061,1.95123195648193,-1178.70007324219,13.5000009536743,-926.100036621094,0.426874550968851,-0.12835338965581,0.277551663788653,ST
3.6,-1.18731379508972,-3.53741765022278,7.81055068969727,-3.65855979919434,0.952749967575073,-1.30336201190948,-1173.90002441406,17.7000007629395,-914.100036621094,0.443506683956015,-0.135908980146641,0.389222031498192,ST
3.63333333333333,-2.64917516708374,-2.92790985107422,9.43570518493652,-4.06252574920654,2.44666194915771,-0.724089980125427,-1181.10009765625,11.7000007629395,-921.300048828125,0.434401266893175,-0.23009186334873,0.331230100445416,ST
3.66666666666667,-2.09948182106018,-4.37721014022827,9.88670539855957,-2.67532205581665,-0.693601965904236,1.79117000102997,-1164.30004882812,9.30000019073486,-928.500061035156,0.443740803430117,-0.203004744119173,0.395063337718418,ST
3.7,-2.37761831283569,-3.26047730445862,9.93694877624512,-0.746955990791321,-1.32622802257538,1.05183601379395,-1171.5,12.9000005722046,-928.500061035156,0.429744470180444,-0.216457614344122,0.341086963545716,ST
3.73333333333333,-1.73102581501007,-3.18212056159973,9.13663387298584,0.198172003030777,-2.55336999893188,2.96495795249939,-1185.90002441406,15.3000001907349,-923.700012207031,0.422584386505746,-0.187148192792379,0.335791084119909,ST
3.76666666666667,-2.03428435325623,-2.8782639503479,8.44637680053711,-0.510673999786377,-1.61586391925812,2.37044191360474,-1188.30004882812,19.5,-928.500061035156,0.416685854371964,-0.212095837644426,0.330579890803775,ST
3.8,-2.00796604156494,-2.9781539440155,8.18977355957031,-0.396344006061554,-0.137196004390717,3.33081388473511,-1190.70007324219,15.9000005722046,-930.900024414062,0.41381998968563,-0.223342520284115,0.342904444032593,ST
3.83333333333333,-1.22021162509918,-2.900395154953,8.65273666381836,0.175305992364883,0.152439996600151,3.26221585273743,-1188.30004882812,17.7000007629395,-926.100036621094,0.405569923191484,-0.159273666097081,0.32778616560629,ST
3.86666666666667,-0.422288924455643,-3.62175559997559,8.66888618469238,0.899396002292633,-0.815553963184357,1.43293595314026,-1173.90002441406,17.1000003814697,-923.700012207031,0.408466467581547,-0.0776550950012751,0.374962825747438,ST
3.9,-0.963010191917419,-3.21142959594727,9.39383506774902,1.51677799224854,0.0762199983000755,-0.975615978240967,-1188.30004882812,22.5,-916.500061035156,0.407476087014112,-0.090676349190604,0.341360968329786,ST
3.93333333333333,-1.38290655612946,-2.8142626285553,8.87823581695557,2.89635992050171,0.282013982534409,0.0457319989800453,-1181.10009765625,17.7000007629395,-928.500061035156,0.405047953013203,-0.13070736436725,0.313824951030882,ST
3.96666666666667,-1.99181604385376,-2.39556264877319,8.73886871337891,2.28659987449646,1.32622802257538,1.44817996025085,-1171.5,15.3000001907349,-933.300048828125,0.397815636516509,-0.196107403058356,0.276642242473541,ST
4.0,-2.39137554168701,-1.39486944675446,9.04272556304932,1.47104597091675,0.6250039935112,2.73629784584045,-1178.70007324219,10.5,-921.300048828125,0.374414115427534,-0.240360538519655,0.186372233209463,ST
4.03333333333333,-1.74298858642578,-0.535936117172241,8.36562728881836,0.975615978240967,-0.167683988809586,4.33691787719727,-1183.5,15.3000001907349,-923.700012207031,0.347526058759538,-0.216438082826104,0.0981565005758376,ST
4.06666666666667,-1.00308573246002,-0.473131090402603,8.16285705566406,0.67835795879364,0.0228659994900227,5.0838737487793,-1190.70007324219,9.90000057220459,-921.300048828125,0.333280595877798,-0.149722966402024,0.0673953399646992,ST
4.1,-0.600535571575165,-0.892429292201996,9.0792121887207,-0.236281991004944,0.0152439996600151,4.34454011917114,-1181.10009765625,9.90000057220459,-930.900024414062,0.328346350276906,-0.0914595149468964,0.088532278445987,ST
4.13333333333333,-0.467149674892426,-1.05213344097137,8.74724292755127,-1.02897000312805,-0.67835795879364,1.09756803512573,-1183.5,9.90000057220459,-926.100036621094,0.327990551944574,-0.0638747571438524,0.111496094841518,ST
4.16666666666667,-1.92123520374298,-1.12450873851776,8.39732933044434,-0.381099998950958,-0.739333987236023,1.32622802257538,-1195.5,12.9000005722046,-926.100036621094,0.327320750926583,-0.174213590897077,0.126690330584499,ST
4.2,-1.85603761672974,-1.46545028686523,9.10553073883057,-0.274392008781433,0.472563982009888,1.42531394958496,-1178.70007324219,20.7000007629395,-914.100036621094,0.329130572945482,-0.192093530874342,0.149667605175976,ST
4.23333333333333,-1.01923561096191,-1.21482837200165,9.0552864074707,1.14329993724823,0.274392008781433,1.50153398513794,-1176.30004882812,18.9000015258789,-923.700012207031,0.324856249478346,-0.136042969993969,0.136549923999983,ST
4.26666666666667,-2.0970892906189,-1.4361412525177,10.5093717575073,0.891773998737335,-1.6692179441452,1.80641400814056,-1185.90002441406,9.90000057220459,-923.700012207031,0.321338035404351,-0.17566281203967,0.134539437132463,ST
4.3,-0.614890992641449,-1.63592100143433,9.35734844207764,1.2576299905777,-1.82927989959717,1.50153398513794,-1178.70007324219,12.3000001907349,-933.300048828125,0.322077477144395,-0.0961565249885817,0.159774563457571,ST
4.33333333333333,0.178844749927521,-0.964804589748383,8.98171520233154,1.87501192092896,0.205793991684914,2.01982998847961,-1195.5,9.90000057220459,-935.700012207031,0.316573224173726,-0.0141707237855704,0.119716570289719,ST
4.36666666666667,-1.67180955410004,-1.27344644069672,9.04631423950195,2.78965187072754,0.724089980125427,2.88873791694641,-1188.30004882812,12.9000005722046,-914.100036621094,0.312839916084042,-0.131927716057813,0.129950346462342,ST
4.4,-2.96798539161682,-1.23157632350922,10.2976293563843,1.92074394226074,1.98934197425842,-0.807931959629059,-1176.30004882812,15.3000001907349,-928.500061035156,0.313511239089103,-0.24057643146325,0.11993380196202,ST
4.43333333333333,-3.51588439941406,-0.52935653924942,11.0572710037231,2.27897787094116,0.0076219998300075,-1.05945801734924,-1183.5,11.1000003814697,-914.100036621094,0.302580533461109,-0.287387824428091,0.067420255306048,ST
4.46666666666667,-4.24741315841675,-0.763828575611115,10.0888776779175,2.89635992050171,-0.975615978240967,0.83841997385025,-1178.70007324219,14.1000003814697,-921.300048828125,0.303279946481096,-0.368591246402723,0.0691893722371401,ST
4.5,-2.37941265106201,-0.0879270136356354,10.4393892288208,1.90549993515015,-1.05183601379395,0.693601965904236,-1190.70007324219,9.90000057220459,-916.500061035156,0.288831719212937,-0.266358412833952,0.0235290475871301,ST
4.53333333333333,-2.64857697486877,0.115441590547562,10.6648893356323,1.98171997070312,-1.84452390670776,1.36433792114258,-1195.5,14.7000007629395,-926.100036621094,0.280540450502991,-0.248089662442976,-0.0033886158551106,ST
4.56666666666667,-1.9828439950943,0.0077758585102856,9.03973484039307,2.33233189582825,0.259148001670837,2.11891603469849,-1190.70007324219,9.30000019073486,-916.500061035156,0.277537682473786,-0.225901063147509,-0.0050730737787621,ST
4.6,-2.34711313247681,0.956430613994598,8.61325836181641,1.6920839548111,1.15092194080353,2.01220798492432,-1197.90002441406,3.90000009536743,-926.100036621094,0.256650567035581,-0.254382162372493,-0.0812738667556035,ST
4.63333333333333,-3.16238188743591,1.03658175468445,8.03724670410156,0.975615978240967,3.56709599494934,3.71953582763672,-1181.10009765625,8.70000076293945,-921.300048828125,0.238880781921349,-0.345124206386921,-0.118543955717327,ST
4.66666666666667,-3.26944947242737,0.531749129295349,7.9816198348999,0.304879993200302,4.47411394119263,3.58996200561523,-1195.5,4.5,-914.100036621094,0.244673103898803,-0.381512206657981,-0.0833422483314555,ST
4.7,-3.40881681442261,0.357689499855042,7.90505743026733,-0.327746003866196,3.75764584541321,2.71343183517456,-1171.5,11.7000007629395,-923.700012207031,0.249439481989906,-0.403569078299907,-0.0578777400989263,ST
4.73333333333333,-3.87417197227478,0.174059599637985,8.33930969238281,-0.564027965068817,3.61282801628113,1.37958192825317,-1164.30004882812,6.30000019073486,-918.900024414062,0.256966420420821,-0.429796625865156,-0.0322575968674952,ST
4.76666666666667,-4.50700712203979,0.344530344009399,8.78552436828613,-0.0609759986400604,2.69818782806396,1.21189796924591,-1164.30004882812,6.30000019073486,-930.900024414062,0.2525020701012,-0.463695185481354,-0.037784326931017,ST
4.8,-4.64517831802368,0.18482618033886,9.17850399017334,0.228659987449646,1.63110792636871,1.48628997802734,-1166.70007324219,10.5,-926.100036621094,0.255298508075649,-0.468954436915418,-0.0266735142694581,ST
4.83333333333333,-4.52973651885986,-0.138171032071114,9.05229568481445,0.182927995920181,2.27897787094116,0.708845973014832,-1154.70007324219,10.5,-923.700012207031,0.267469897087639,-0.468269355118681,0.0025556236204004,ST
4.86666666666667,-4.70200204849243,0.0370848625898361,8.76817798614502,0.3125019967556,2.28659987449646,1.08994603157043,-1161.90002441406,8.10000038146973,-918.900024414062,0.263374697580563,-0.487802724983827,-0.0032526415807316,ST
4.9,-4.81804180145264,-0.234472051262856,8.34648704528809,0.0990860015153885,2.31708788871765,1.31098401546478,-1164.30004882812,8.70000076293945,-923.700012207031,0.271476963597586,-0.515533333279558,0.0175233940529547,ST
4.93333333333333,-4.9454460144043,-0.212340757250786,7.96247911453247,-0.762199997901917,2.04269599914551,1.6844619512558,-1164.30004882812,6.30000019073486,-935.700012207031,0.271335250563608,-0.547770555116816,0.0239376037784911,ST
4.96666666666667,-4.47769832611084,-0.159106031060219,7.33562517166138,-1.18140995502472,1.75305998325348,1.18140995502472,-1149.90002441406,11.1000003814697,-928.500061035156,0.268076133681571,-0.550054918774638,0.0229522913142768,ST
5.0,-4.69781494140625,-0.0233275759965181,7.18429517745972,-0.762199997901917,1.89025592803955,2.14178204536438,-1137.90002441406,5.70000028610229,-926.100036621094,0.256621479940652,-0.572716156476867,0.0085387429708901,ST
5.03333333333333,-4.37362146377563,-0.134582161903381,7.28179264068604,-0.777444005012512,2.46952795982361,1.89025592803955,-1145.10009765625,8.70000076293945,-940.500061035156,0.256668987843738,-0.553440271964965,0.0150678584406416,ST
5.06666666666667,-5.01782131195068,1.01863753795624,7.61376190185547,-0.6250039935112,2.080806016922,2.82013988494873,-1133.10009765625,10.5,-921.300048828125,0.196015781944406,-0.574409921361388,-0.0894149523705013,ST
5.1,-4.44779109954834,0.267369896173477,8.01691055297852,-1.44055795669556,0.724089980125427,3.20123982429504,-1140.30004882812,4.5,-926.100036621094,0.210422824539082,-0.527507246063454,-0.050315467548197,ST
5.13333333333333,-3.84964823722839,-0.24882747232914,8.14132404327393,-2.34757590293884,0.815553963184357,1.72257196903229,-1118.70007324219,12.3000001907349,-935.700012207031,0.234449145393114,-0.467435359251961,0.0098471866239415,ST
5.16666666666667,-3.96628594398499,-0.535936117172241,8.45176029205322,-2.53812599182129,0.0076219998300075,0.388722002506256,-1142.70007324219,7.50000047683716,-928.500061035156,0.249754598027718,-0.446982075052738,0.0502659433232414,ST
5.2,-5.3001446723938,-1.41640257835388,9.96685600280762,-2.04269599914551,-2.10367202758789,0.762199997901917,-1130.70007324219,9.30000019073486,-926.100036621094,0.277356755083474,-0.472831512531213,0.120038201433047,ST
5.23333333333333,-5.28638744354248,-1.30754053592682,10.8096399307251,-2.35519790649414,-5.95278167724609,-0.647870004177094,-1130.70007324219,11.1000003814697,-921.300048828125,0.276781145719209,-0.450937275821688,0.123096756224403,ST
5.26666666666667,-2.27533578872681,-0.661546111106873,11.8414363861084,-2.11129403114319,-8.03358745574951,1.6844619512558,-1154.70007324219,12.3000001907349,-928.500061035156,0.254104737650038,-0.248047727178706,0.0740526445791191,ST
5.3,-0.479710668325424,-1.06409633159637,11.4269237518311,-1.19665396213531,-3.60520601272583,2.54574799537659,-1171.5,15.3000001907349,-918.900024414062,0.251386951908229,-0.0998492258173667,0.0882012728939614,ST
5.33333333333333,-1.26327800750732,-0.36725977063179,10.9609699249268,-0.0152439996600151,-0.87652999162674,1.33385002613068,-1166.70007324219,19.5,-923.700012207031,0.244979938620317,-0.109288826823918,0.0498072014246342,ST
5.36666666666667,-1.37453258037567,-0.110058307647705,9.61694240570068,0.800309956073761,1.48628997802734,1.57775402069092,-1164.30004882812,18.3000011444092,-928.500061035156,0.239138813452915,-0.134018668132716,0.0218043663128185,ST
5.4,-0.888840436935425,-0.0221312902867794,8.96735954284668,0.388722002506256,1.61586391925812,1.11281192302704,-1166.70007324219,14.7000007629395,-926.100036621094,0.235622862975322,-0.111381190890334,0.0076313543669045,ST
5.43333333333333,-2.05402302742004,0.241051614284515,8.52413558959961,0.564027965068817,1.6768399477005,-0.724089980125427,-1159.5,17.7000007629395,-933.300048828125,0.233040293465743,-0.200704776156471,-0.0178075592084402,ST
5.46666666666667,-2.54509830474854,-0.0927121639251709,8.85969352722168,0.617381989955902,2.18751406669617,-1.73019397258759,-1171.5,13.5000009536743,-928.500061035156,0.240757761521376,-0.259689954379633,0.0019540334183895,ST
5.5,-3.49255681037903,-1.14544379711151,9.96207141876221,1.56251001358032,2.24848985671997,-2.17989206314087,-1157.10009765625,13.5000009536743,-923.700012207031,0.26883195001483,-0.318354635489857,0.0832117395662602,ST
5.53333333333333,-5.12010383605957,-0.226696193218231,10.5937099456787,2.11891603469849,2.28659987449646,-3.43752193450928,-1149.90002441406,5.10000038146973,-930.900024414062,0.260308643060217,-0.414719540156095,0.0390948365640262,ST
5.56666666666667,-3.90826606750488,0.613096535205841,8.44876956939697,3.42227792739868,1.35671591758728,-1.00610399246216,-1133.10009765625,12.9000005722046,-921.300048828125,0.229448660455674,-0.429849143770455,-0.0468375808346816,ST
5.6,-3.47162175178528,0.235668331384659,7.81354141235352,2.43903994560242,3.13264203071594,-0.213415995240211,-1149.90002441406,3.90000009536743,-933.300048828125,0.235206198755679,-0.425200902044549,-0.0377422092788819,ST
5.63333333333333,-3.86998510360718,-0.535936117172241,7.37988805770874,1.34147191047668,4.31405210494995,-1.2423859834671,-1135.5,11.7000007629395,-933.300048828125,0.27076877242048,-0.470533821631194,0.0377322983800721,ST
5.66666666666667,-4.40951013565063,-1.02402079105377,7.8057656288147,-0.152439996600151,3.01068997383118,-2.66770005226135,-1123.5,10.5,-916.500061035156,0.30604956952173,-0.502242581331837,0.104158795601999,ST
5.7,-4.73190927505493,-1.19508969783783,7.73877382278442,-0.891773998737335,1.11281192302704,-2.40092992782593,-1125.90002441406,9.30000019073486,-923.700012207031,0.327303818899053,-0.532173679712632,0.141046590196494,ST
5.73333333333333,-4.91374444961548,-1.62216377258301,7.23752975463867,-1.12043392658234,0.853663980960846,-2.01982998847961,-1118.70007324219,8.10000038146973,-933.300048828125,0.360405287474486,-0.570685512638014,0.200061206694219,ST
5.76666666666667,-5.20085334777832,-1.70171678066254,7.59043407440186,-1.20427596569061,0.685979962348938,-1.39482593536377,-1128.30004882812,5.70000028610229,-904.500061035156,0.370909587711824,-0.584448110795209,0.217328079888257,ST
5.8,-5.58964586257935,-1.47202980518341,7.93556261062622,-2.09605002403259,-0.556405961513519,-0.0381099991500378,-1137.90002441406,11.7000007629395,-926.100036621094,0.357015420439664,-0.598710042818491,0.19622844091563,ST
5.83333333333333,-5.63869380950928,-1.71607220172882,7.02937602996826,-1.94360995292664,-1.70732796192169,1.34909391403198,-1128.30004882812,14.1000003814697,-926.100036621094,0.370949271214087,-0.642873175683548,0.228004698093173,ST
5.86666666666667,-5.7744722366333,-1.39905643463135,7.42175817489624,-2.02745199203491,-1.17378795146942,1.41769194602966,-1130.70007324219,11.1000003814697,-928.500061035156,0.349661646511823,-0.648843718319095,0.19990017951711,ST
5.9,-5.3719220161438,-1.39845824241638,8.17003440856934,-2.15702605247498,-1.41769194602966,1.34909391403198,-1128.30004882812,12.3000001907349,-938.100036621094,0.33337756174917,-0.595810133825751,0.179555623056033,ST
5.93333333333333,-5.41797924041748,-0.590965270996094,8.63000679016113,-0.975615978240967,-1.63110792636871,0.754577994346619,-1123.5,21.3000011444092,-928.500061035156,0.288099780049974,-0.569187545677396,0.101640783353895,ST
5.96666666666667,-4.82402324676514,-0.298473328351974,8.96436882019043,-0.609759986400604,-1.63110792636871,1.44817996025085,-1145.10009765625,15.9000005722046,-930.900024414062,0.25998605528796,-0.514514665546763,0.0527843777909147,ST
6.0,-2.96080780029297,-0.416905641555786,9.48894023895264,-0.274392008781433,-2.01982998847961,1.16616594791412,-1142.70007324219,10.5,-933.300048828125,0.254844034922918,-0.360650569009003,0.0458911577179282,ST
6.03333333333333,-2.8902268409729,-0.657957255840302,9.54755783081055,-0.160062000155449,-2.64483404159546,0.769822001457214,-1142.70007324219,10.5,-921.300048828125,0.258528878792384,-0.310370567896405,0.0618350468929153,ST
6.06666666666667,-2.99609804153442,-0.519188106060028,9.53200626373291,0.297257989645004,-2.13416004180908,0.868907988071442,-1140.30004882812,8.10000038146973,-926.100036621094,0.255253559151953,-0.30346036454624,0.0558990237040533,ST
6.1,-2.73052263259888,-1.22738933563232,9.37648963928223,0.556405961513519,-0.647870004177094,2.00458598136902,-1149.90002441406,11.7000007629395,-918.900024414062,0.266879539922074,-0.287428889725662,0.106476925739569,ST
6.13333333333333,-2.52894854545593,-1.59165847301483,9.44766807556152,0.945127964019775,0.236281991004944,1.15854394435883,-1166.70007324219,15.3000001907349,-930.900024414062,0.276648886314877,-0.267487765383427,0.14728920249512,ST
6.16666666666667,-3.02600526809692,-1.20824885368347,9.80117034912109,2.01220798492432,0.0152439996600151,-0.381099998950958,-1169.10009765625,17.7000007629395,-930.900024414062,0.272667729466615,-0.289833347969131,0.126366182237317,ST
6.2,-2.87527322769165,-0.828428030014038,9.42015361785889,2.9268479347229,0.106707997620106,0.282013982534409,-1159.5,9.30000019073486,-918.900024414062,0.264847665027896,-0.293766982216878,0.0956784516332868,ST
6.23333333333333,-2.74727058410645,-1.06230187416077,9.22575759887695,3.17837381362915,0.388722002506256,0.609759986400604,-1161.90002441406,9.90000057220459,-928.500061035156,0.268131936300125,-0.290036034560001,0.104860420705486,ST
6.26666666666667,-2.48707842826843,-0.883457183837891,9.341796875,2.4923939704895,0.396344006061554,0.777444005012512,-1149.90002441406,7.50000047683716,-921.300048828125,0.265100115540114,-0.268567755028245,0.0939542426609672,ST
6.3,-2.63900685310364,-1.18073427677155,9.41297626495361,2.40092992782593,0.342989981174469,0.739333987236023,-1161.90002441406,5.10000038146973,-914.100036621094,0.270204838242482,-0.271168920837912,0.113353659169944,ST
6.33333333333333,-3.71147704124451,-0.888840436935425,9.39024639129639,2.46952795982361,1.35671591758728,-0.266770005226135,-1161.90002441406,3.90000009536743,-926.100036621094,0.267307849437009,-0.345187548100903,0.0973651573210306,ST
6.36666666666667,-4.07754039764404,-0.270958751440048,9.281982421875,3.11739802360535,0.716467976570129,0.746955990791321,-1149.90002441406,1.5,-914.100036621094,0.248516658093428,-0.39684106480731,0.0430659904787375,ST
6.4,-4.50102567672729,-0.82065212726593,8.9536018371582,1.28811800479889,0.282013982534409,1.70732796192169,-1147.5,-0.300000011920929,-921.300048828125,0.259571381802129,-0.445309155024089,0.0745582244667807,ST
6.43333333333333,-3.88134980201721,-0.494066089391708,9.12945652008057,-0.228659987449646,0.106707997620106,1.19665396213531,-1149.90002441406,2.10000014305115,-916.500061035156,0.251368275996977,-0.414875783018207,0.0597571669202178,ST
6.46666666666667,-3.41240572929382,-0.282323479652405,8.06476211547852,0.190549999475479,0.0762199983000755,2.04269599914551,-1159.5,-0.900000035762787,-923.700012207031,0.240835365634756,-0.404746510556583,0.0410962332406769,ST
6.5,-4.39754724502563,-0.387596637010574,7.62811708450317,1.46342396736145,2.0655620098114,1.85214591026306,-1140.30004882812,-6.90000009536743,-909.300048828125,0.240754506688707,-0.492582265920288,0.0449520360412406,ST
6.53333333333333,-6.03346824645996,0.607115089893341,8.44996547698975,0.967993974685669,1.76068198680878,1.46342396736145,-1145.10009765625,0.900000035762787,-911.700012207031,0.197615846744559,-0.583304827703423,-0.036743252252149,ST
6.56666666666667,-6.34689521789551,0.735715866088867,7.81713056564331,1.08994603157043,0.121951997280121,3.07166600227356,-1147.5,-3.30000019073486,-930.900024414062,0.169455161716126,-0.650645027390615,-0.0798244811571204,ST
6.6,-5.94793367385864,1.27464270591736,8.15687561035156,-0.121951997280121,-1.48628997802734,3.50611996650696,-1145.10009765625,-3.90000009536743,-904.500061035156,0.13140534835983,-0.630189183473492,-0.135524824353565,ST
6.63333333333333,-5.60699224472046,1.68197798728943,7.78423261642456,-0.823175966739655,-2.52288198471069,4.48173570632935,-1149.90002441406,-1.5,-904.500061035156,0.0902953182553224,-0.614162896517594,-0.194255994068236,ST
6.66666666666667,-3.94056582450867,1.10835897922516,7.61196756362915,-1.98171997070312,-1.37958192825317,3.83386588096619,-1137.90002441406,-6.90000009536743,-906.900024414062,0.102421208406413,-0.509426068353293,-0.157582440565429,ST
6.7,-3.98841738700867,0.931906759738922,7.25009107589722,-2.08842802047729,-0.282013982534409,2.23324584960938,-1140.30004882812,1.5,-899.700012207031,0.108015548584945,-0.501777926970254,-0.135658584451787,ST
6.73333333333333,-4.03866147994995,0.591563403606415,7.36792516708374,-2.11129403114319,0.823175966739655,1.01372599601746,-1149.90002441406,-3.90000009536743,-911.700012207031,0.124689192325299,-0.50155143057133,-0.093438776920464,ST
6.76666666666667,-4.32158279418945,0.455784946680069,8.35844993591309,-2.59910202026367,-0.442075997591019,0.0990860015153885,-1137.90002441406,2.10000014305115,-882.900024414062,0.137275392349488,-0.48290832914684,-0.0618267352461185,ST
6.8,-3.8478536605835,0.597544848918915,7.71125936508179,-1.82165801525116,-1.82165801525116,1.05183601379395,-1137.90002441406,6.90000009536743,-897.300048828125,0.129698787777415,-0.464791586448833,-0.0715649106111404,ST
6.83333333333333,-3.74856209754944,-0.234472051262856,8.26274681091309,-1.30336201190948,-1.14329993724823,0.78506600856781,-1137.90002441406,6.90000009536743,-890.100036621094,0.15869714553479,-0.436461474077943,-0.000159120193228,ST
6.86666666666667,-3.97705268859863,-0.102880589663982,8.80765533447266,-1.40244793891907,-0.990859985351562,-0.0685980021953583,-1121.10009765625,8.70000076293945,-894.900024414062,0.162032867707171,-0.426431687090885,0.0100678601329992,ST
6.9,-3.58766150474548,-0.0011962859425693,8.76339244842529,-0.381099998950958,-0.762199997901917,-0.25152599811554,-1135.5,10.5,-880.500061035156,0.159592963328867,-0.399020616900022,0.0036793768437308,ST
6.93333333333333,-3.36036729812622,-0.750669419765472,9.33402061462402,-0.121951997280121,0.137196004390717,-0.975615978240967,-1130.70007324219,6.90000009536743,-899.700012207031,0.181325384818935,-0.361241741756538,0.058178418704958,ST
6.96666666666667,-3.58766150474548,-0.594554126262665,9.84124660491943,-0.0076219998300075,-0.327746003866196,-2.0579400062561,-1130.70007324219,-0.300000011920929,-880.500061035156,0.185468784188913,-0.352127981386082,0.0606220201778765,ST
7.0,-2.539715051651,-0.507823407649994,10.7773399353027,0.297257989645004,0.289635986089706,-0.769822001457214,-1133.10009765625,0.900000035762787,-882.900024414062,0.183979392960851,-0.267825099623037,0.0509691139548525,ST
7.03333333333333,-2.52835035324097,-0.554478526115417,11.7164249420166,0.106707997620106,-0.236281991004944,1.99696397781372,-1130.70007324219,13.5000009536743,-882.900024414062,0.179621407199617,-0.227362012275581,0.0475323335434762,ST
7.06666666666667,-1.22798752784729,-1.24234294891357,10.1845808029175,-0.846041977405548,2.62959003448486,0.350611984729767,-1130.70007324219,11.7000007629395,-887.700012207031,0.189122806230956,-0.1550389059949,0.100431780117714,ST
7.1,-2.71556901931763,-1.25071692466736,10.4992036819458,-1.13567793369293,5.7698540687561,-1.60061991214752,-1125.90002441406,16.5,-892.500061035156,0.195938667408424,-0.234483827908201,0.116062387472326,ST
7.13333333333333,-3.08163261413574,-0.947458446025848,9.34478759765625,-0.205793991684914,7.62962198257446,-2.38568592071533,-1101.90002441406,14.1000003814697,-914.100036621094,0.198835530461749,-0.301061726107371,0.107014767241357,ST
7.16666666666667,-3.45607018470764,-0.790146887302399,8.60667896270752,0.952749967575073,8.56712818145752,-2.37044191360474,-1092.30004882812,12.3000001907349,-899.700012207031,0.201226405844316,-0.366570231721211,0.0965389715621633,ST
7.2,-4.34491062164307,-0.79672646522522,7.84225273132324,1.47104597091675,7.82017183303833,-1.76830399036407,-1092.30004882812,18.3000011444092,-890.100036621094,0.207404498581325,-0.471457043579455,0.0993799835322124,ST
7.23333333333333,-5.75234079360962,-0.724351167678833,7.09576988220215,1.17378795146942,5.70887804031372,-1.44055795669556,-1089.90002441406,12.3000001907349,-894.900024414062,0.212333302254744,-0.622147880961114,0.101032786542415,ST
7.26666666666667,-6.51078605651855,-0.580796837806702,6.7799506187439,1.41006994247437,4.44362592697144,-1.04421401023865,-1085.10009765625,15.3000001907349,-902.100036621094,0.209096301629772,-0.729576052721841,0.0898571853711736,ST
7.3,-7.28119421005249,-0.395970642566681,6.16446161270142,1.72257196903229,1.60824191570282,-0.350611984729767,-1070.70007324219,11.1000003814697,-890.100036621094,0.198104228944853,-0.832750235586854,0.0700227439491434,ST
7.33333333333333,-7.94632959365845,-0.843381583690643,6.74525833129883,0.868907988071442,0.503051996231079,-1.34909391403198,-1070.70007324219,3.30000019073486,-904.500061035156,0.2295239710039,-0.854580476917718,0.108467729606746,ST
7.36666666666667,-7.08859252929688,-0.750071287155151,7.14721059799194,-0.746955990791321,-2.53050398826599,-1.17378795146942,-1068.30004882812,14.7000007629395,-916.500061035156,0.229066988979579,-0.798085633194493,0.107697350536621,ST
7.4,-4.94963312149048,-2.00138640403748,8.37280559539795,-1.2500079870224,-2.21800184249878,0.846041977405548,-1070.70007324219,11.7000007629395,-911.700012207031,0.287753867225787,-0.602999057917233,0.20206241461081,ST
7.43333333333333,-4.56502723693848,-2.1772403717041,7.81653213500977,-0.518296003341675,-1.63872992992401,-1.78354799747467,-1089.90002441406,14.7000007629395,-909.300048828125,0.317433063830313,-0.536164236128463,0.25409508318647,ST
7.46666666666667,-4.95501613616943,-1.74897003173828,7.16096782684326,0.274392008781433,0.533540010452271,-1.86738991737366,-1085.10009765625,17.7000007629395,-911.700012207031,0.315855744290185,-0.575118486473936,0.245204969188393,ST
7.5,-6.02090692520142,-1.51330173015594,7.05210542678833,0.46494197845459,1.60824191570282,0.533540010452271,-1056.30004882812,15.3000001907349,-909.300048828125,0.302446137155129,-0.661209733266875,0.221523087784057,ST
7.53333333333333,-5.83608102798462,-1.03658175468445,6.8242130279541,0.137196004390717,0.274392008781433,1.6692179441452,-1065.90002441406,18.3000011444092,-911.700012207031,0.268726912609913,-0.690583422628977,0.170795340446088,ST
7.56666666666667,-5.87077331542969,-0.470140367746353,7.06945180892944,0.602137982845306,-1.02897000312805,3.07166600227356,-1068.30004882812,9.90000057220459,-909.300048828125,0.214040524256256,-0.691218757952618,0.0909986847040942,ST
7.6,-5.49155044555664,-0.358287632465363,8.09287452697754,0.0914639979600906,-1.57013201713562,2.9268479347229,-1082.70007324219,20.7000007629395,-911.700012207031,0.186310021331938,-0.61894932344245,0.0528214078132291,ST
7.63333333333333,-4.57699012756348,-0.729136288166046,10.0123147964478,-0.442075997591019,-0.617381989955902,2.24848985671997,-1075.5,12.9000005722046,-914.100036621094,0.189566864794188,-0.479457410624584,0.0665417738226686,ST
7.66666666666667,-4.04524087905884,-0.628648281097412,9.89208889007568,-0.0457319989800453,1.12043392658234,0.655492007732391,-1068.30004882812,10.5,-906.900024414062,0.187475647471886,-0.414147780474664,0.0639916009738878,ST
7.7,-4.85093927383423,-0.866111040115356,9.93036937713623,1.64635193347931,2.9420919418335,0.160062000155449,-1070.70007324219,11.7000007629395,-923.700012207031,0.194557435738532,-0.444847145220644,0.0780011181226029,ST
7.73333333333333,-5.14283323287964,-1.03119850158691,9.56191349029541,3.07166600227356,4.34454011917114,1.37195992469788,-1065.90002441406,12.9000005722046,-914.100036621094,0.203215338777599,-0.4853318257061,0.0952421650794855,ST
7.76666666666667,-5.67757320404053,-0.690257012844086,7.5108814239502,3.58996200561523,2.11129403114319,2.13416004180908,-1049.10009765625,16.5,-909.300048828125,0.199095153834451,-0.601619550421544,0.0866162009414648,ST
7.8,-4.4262580871582,-0.202770471572876,6.44439220428467,0.807931959629059,1.95123195648193,2.11129403114319,-1051.5,13.5000009536743,-914.100036621094,0.172195259439645,-0.604395341598928,0.043076750848706,ST
7.83333333333333,-4.81684541702271,-0.482103228569031,7.35955095291138,-0.937505960464478,2.81251788139343,2.75154185295105,-1049.10009765625,12.3000001907349,-923.700012207031,0.175835218422041,-0.589952645280524,0.0577977515111645,ST
7.86666666666667,-5.59323501586914,-0.258995920419693,7.04911470413208,-1.51677799224854,2.16464805603027,1.50915598869324,-1063.5,12.9000005722046,-906.900024414062,0.16434070574226,-0.648845051830773,0.0439496380646689,ST
7.9,-6.22726631164551,-0.177050322294235,6.53231954574585,-1.05945801734924,2.45428395271301,1.36433792114258,-1041.90002441406,17.1000003814697,-930.900024414062,0.153754061910898,-0.733325801267104,0.0320262125553504,ST
7.93333333333333,-8.17003440856934,0.607713282108307,7.13046216964722,-1.34909391403198,1.91312193870544,2.56099200248718,-1051.5,11.7000007629395,-906.900024414062,0.0929056957264251,-0.81855024964341,-0.0481150185474186,ST
7.96666666666667,-8.05878067016602,0.646592557430267,7.55095672607422,-1.98171997070312,-0.967993974685669,4.16161203384399,-1034.70007324219,8.70000076293945,-914.100036621094,0.0638094626852208,-0.815307615178621,-0.0776471875603898,ST
8.0,-7.09397554397583,0.897812604904175,6.39953184127808,-1.95123195648193,-4.46649169921875,3.99392795562744,-1037.10009765625,11.1000003814697,-918.900024414062,0.0243069225029949,-0.821196039600242,-0.122665427726306,ST
8.03333333333333,-5.32347249984741,0.814670741558075,7.68374443054199,-3.26221585273743,-3.3613018989563,2.98782396316528,-1065.90002441406,11.7000007629395,-911.700012207031,0.0263395098456706,-0.66086738584298,-0.108675186784764,ST
8.06666666666667,-5.00645685195923,1.21303391456604,6.92769193649292,-2.08842802047729,-3.30032587051392,1.60061991214752,-1051.5,14.1000003814697,-914.100036621094,-0.0039624420871286,-0.627273118670236,-0.152780233006761,ST
8.1,-5.50470972061157,1.70470750331879,6.76499700546265,-0.92988395690918,-1.31098401546478,1.92074394226074,-1053.90002441406,12.9000005722046,-923.700012207031,-0.0462731458536562,-0.654140244068414,-0.218162517151606,ST
8.13333333333333,-5.93178367614746,2.01693820953369,7.31588649749756,-0.533540010452271,-1.28049600124359,1.83690190315247,-1061.10009765625,11.1000003814697,-914.100036621094,-0.0709491092031123,-0.658719373741691,-0.254341859109441,ST
8.16666666666667,-5.37012767791748,2.10067820549011,7.53959226608276,-0.99848198890686,-3.44514393806458,0.0914639979600906,-1063.5,7.50000047683716,-918.900024414062,-0.0774866024884826,-0.611276542566771,-0.265462899952232,ST
8.2,-5.46702671051025,1.76212918758392,8.04920959472656,-1.31098401546478,-3.92532992362976,-0.952749967575073,-1068.30004882812,14.1000003814697,-926.100036621094,-0.0544619880474132,-0.589167706496442,-0.227228139755838,ST
8.23333333333333,-5.46882104873657,0.961813926696777,9.14859676361084,-0.815553963184357,-3.19361782073975,-2.53812599182129,-1085.10009765625,12.9000005722046,-926.100036621094,0.0006586867439378,-0.547222763551731,-0.132559993973668,ST
8.26666666666667,-5.59981441497803,0.546702682971954,9.73836612701416,0.0152439996600151,-3.03355598449707,-3.30794787406921,-1068.30004882812,8.10000038146973,-918.900024414062,0.03483716643506,-0.52593978227061,-0.0762881861794255,ST
8.3,-5.05969142913818,0.0035888578277081,9.77664661407471,0.693601965904236,-3.65855979919434,-3.07166600227356,-1085.10009765625,12.3000001907349,-914.100036621094,0.0669856157438746,-0.488018686630628,-0.0214956929693267,ST
8.33333333333333,-4.21272087097168,-0.177648469805717,8.89917087554932,0.701223969459534,-4.61893177032471,-3.86435389518738,-1087.5,15.3000001907349,-928.500061035156,0.0874333004752721,-0.450281856307725,0.0091748563281692,ST
8.36666666666667,-3.23714971542358,-0.233275756239891,9.4853515625,0.609759986400604,-4.32929611206055,-3.64331603050232,-1097.10009765625,17.7000007629395,-926.100036621094,0.0982760675317497,-0.359881645061998,0.0211373719217423,ST
8.4,-3.09897875785828,-0.819455862045288,8.90156364440918,0.167683988809586,-3.76526784896851,-2.84300589561462,-1109.10009765625,22.5,-928.500061035156,0.120846609039588,-0.33608316305982,0.0734708745080897,ST
8.43333333333333,-2.71138215065002,-1.1155366897583,8.64137172698975,0.25152599811554,-0.327746003866196,-3.71953582763672,-1113.90002441406,16.5,-916.500061035156,0.13963239410774,-0.311270278776618,0.113162224683065,ST
8.46666666666667,-3.33703970909119,-0.739902853965759,8.48166751861572,0.87652999162674,0.228659987449646,-4.02441596984863,-1101.90002441406,12.9000005722046,-923.700012207031,0.140993686045653,-0.354582185587925,0.0956934489628374,ST
8.5,-4.45377254486084,-0.32538977265358,8.24181175231934,1.98171997070312,0.853663980960846,-3.15550804138184,-1111.5,16.5,-923.700012207031,0.131669607363786,-0.458889355003303,0.0543503465780818,ST
8.53333333333333,-4.52315711975098,0.0735715851187706,8.66410064697266,2.03507399559021,0.350611984729767,-2.71343183517456,-1104.30004882812,9.30000019073486,-926.100036621094,0.116973146403865,-0.475528600997115,0.008100404579753,ST
8.56666666666667,-3.94355654716492,-0.405540943145752,7.79440116882324,1.92836594581604,-0.739333987236023,-1.52439999580383,-1104.30004882812,17.7000007629395,-928.500061035156,0.13522147025983,-0.468934829842243,0.0390093380806083,ST
8.6,-4.23006725311279,-0.501243829727173,7.71903514862061,0.67835795879364,0.0304879993200302,-1.79117000102997,-1109.10009765625,18.3000011444092,-926.100036621094,0.146943091060516,-0.490891809514999,0.057291377914333,ST
8.63333333333333,-4.66730976104736,-1.18671560287476,7.28179264068604,-0.0914639979600906,1.76068198680878,-1.60061991214752,-1094.70007324219,14.1000003814697,-921.300048828125,0.18568148297994,-0.54434505762136,0.130460625802842,ST
8.66666666666667,-5.62912368774414,-1.76930689811707,8.79210376739502,-1.76068198680878,2.5000159740448,-2.46952795982361,-1099.5,16.5,-914.100036621094,0.217112423128588,-0.559077224504941,0.185117502952912,ST
8.7,-5.5178689956665,-1.66881883144379,8.65811920166016,-1.05945801734924,0.632625997066498,-2.39330792427063,-1094.70007324219,22.5,-930.900024414062,0.223557048882209,-0.559351225127446,0.19212838588436,ST
8.73333333333333,-5.01841974258423,-1.7525589466095,8.90814304351807,-0.411587983369827,0.297257989645004,-0.152439996600151,-1085.10009765625,15.3000001907349,-921.300048828125,0.224627187048681,-0.52089126421308,0.194315060506358,ST
8.76666666666667,-4.98253107070923,-1.78485858440399,9.22695350646973,-0.243903994560242,-0.266770005226135,0.777444005012512,-1099.5,6.90000009536743,-930.900024414062,0.221767569487904,-0.496087554158264,0.191650982291531,ST
8.8,-4.3006477355957,-1.54201257228851,8.95300388336182,0.518296003341675,-0.182927995920181,1.16616594791412,-1111.5,15.3000001907349,-923.700012207031,0.21291123961318,-0.458381067432065,0.175409470728463,ST
8.83333333333333,-4.20135641098022,-1.27464270591736,8.74425220489502,1.12043392658234,0.320124000310898,1.05183601379395,-1094.70007324219,8.70000076293945,-921.300048828125,0.201741714857456,-0.448630475371513,0.151522375873711,ST
8.86666666666667,-4.71456289291382,-0.634629666805267,8.86806774139404,1.2423859834671,0.685979962348938,0.594515979290009,-1094.70007324219,13.5000009536743,-928.500061035156,0.17625174186706,-0.477019587571989,0.0940440814480685,ST
8.9,-5.06387853622437,-0.268566191196442,8.4116849899292,1.55488801002502,0.579271972179413,1.08994603157043,-1094.70007324219,11.1000003814697,-933.300048828125,0.154118712300112,-0.523111150443266,0.0484979491822384,ST
8.93333333333333,-4.43403387069702,-0.587376415729523,7.79918622970581,1.14329993724823,0.769822001457214,1.15854394435883,-1094.70007324219,15.3000001907349,-930.900024414062,0.161651741498876,-0.519017590679033,0.0650062134508954,ST
8.96666666666667,-4.42266893386841,-0.547898948192596,8.0593786239624,0.388722002506256,-0.137196004390717,0.975615978240967,-1089.90002441406,15.3000001907349,-921.300048828125,0.160930427510696,-0.506270388771305,0.0658773761212523,ST
9.0,-4.45496892929077,-0.854148149490356,8.50260257720947,-0.0685980021953583,0.198172003030777,1.41006994247437,-1085.10009765625,15.9000005722046,-928.500061035156,0.169848902809943,-0.488726811246029,0.089100051454552,ST
9.03333333333333,-4.06856870651245,-0.571824669837952,9.33222675323486,-0.525918006896973,-0.129574000835419,0.449698001146317,-1094.70007324219,15.3000001907349,-918.900024414062,0.159734053590923,-0.431793088773525,0.0690118365316024,ST
9.06666666666667,-2.8722825050354,-0.78177285194397,8.37938499450684,0.365855991840363,-0.503051996231079,1.265251994133,-1068.30004882812,18.3000011444092,-911.700012207031,0.164065313058423,-0.359324727333432,0.0849327234740384,ST
9.1,-3.22518682479858,-0.705808699131012,8.10483741760254,1.02897000312805,-0.37347799539566,1.96647596359253,-1082.70007324219,12.9000005722046,-916.500061035156,0.161183508343547,-0.371729058384991,0.0840860649633408,ST
9.13333333333333,-3.24851441383362,-0.865512907505035,7.95709609985352,1.6692179441452,0.586893975734711,1.14329993724823,-1101.90002441406,18.3000011444092,-923.700012207031,0.165786144680448,-0.382258900878098,0.0984522852235862,ST
9.16666666666667,-5.15539407730103,0.0173461455851793,7.36912155151367,2.64483404159546,1.18903195858002,-0.693601965904236,-1082.70007324219,13.5000009536743,-935.700012207031,0.137713582923081,-0.542559543374239,0.028375357242005,ST
9.2,-7.1346492767334,1.24712812900543,7.95470333099365,1.2500079870224,2.52288198471069,1.06708002090454,-1070.70007324219,11.1000003814697,-923.700012207031,0.0642431050733526,-0.6764032695636,-0.0992549373445157,ST
9.23333333333333,-6.39893341064453,1.20525813102722,8.15807151794434,-0.442075997591019,1.31860601902008,1.85214591026306,-1073.10009765625,16.5,-921.300048828125,0.0389897743460621,-0.666092657753281,-0.134600064053074,ST
9.26666666666667,-5.46224164962769,1.03060030937195,7.83268213272095,-0.83841997385025,1.92074394226074,0.198172003030777,-1073.10009765625,15.3000001907349,-933.300048828125,0.0394446485634668,-0.624062740432859,-0.131192414180731,ST
9.3,-5.84146404266357,1.31053125858307,8.39613246917725,-0.846041977405548,0.640248000621796,-0.556405961513519,-1087.5,9.90000057220459,-921.300048828125,0.0304566714300034,-0.60968983566166,-0.146386811044165,ST
9.33333333333333,-4.99269914627075,0.474925518035889,8.43800258636475,0.167683988809586,0.358233988285065,-0.533540010452271,-1073.10009765625,20.1000003814697,-928.500061035156,0.0680446773121005,-0.55530343218563,-0.0798546781841342,ST
9.36666666666667,-4.62783193588257,0.482701390981674,8.09048175811768,0.777444005012512,0.487807989120483,-1.54726600646973,-1082.70007324219,20.7000007629395,-921.300048828125,0.0784253621468859,-0.530521178737504,-0.0654343923489828,ST
9.4,-5.23554563522339,0.106469452381134,8.1305570602417,0.99848198890686,2.63721203804016,-0.754577994346619,-1080.30004882812,15.3000001907349,-918.900024414062,0.0995497125195593,-0.564121361240693,-0.028514088459117,ST
9.43333333333333,-5.70748043060303,0.226696193218231,8.42723655700684,0.914639949798584,1.08232402801514,-0.243903994560242,-1065.90002441406,15.9000005722046,-918.900024414062,0.10081078857283,-0.587121117650304,-0.0283389829547225,ST
9.46666666666667,-5.0255970954895,0.409129798412323,8.75741100311279,0.152439996600151,-0.762199997901917,-0.243903994560242,-1068.30004882812,8.10000038146973,-926.100036621094,0.0940960276185564,-0.536964889570238,-0.0420151720758903,ST
9.5,-4.08112955093384,-0.682481110095978,7.9218053817749,0.0076219998300075,-0.945127964019775,0.167683988809586,-1070.70007324219,13.5000009536743,-918.900024414062,0.13836799512131,-0.492647221399226,0.048236535746249,ST
9.53333333333333,-4.48427772521973,-0.614890992641449,8.9536018371582,-0.510673999786377,-0.708845973014832,-0.213415995240211,-1061.10009765625,9.90000057220459,-914.100036621094,0.145187353756487,-0.471307026006861,0.0632497590554933,ST
9.56666666666667,-3.5152862071991,-0.680686712265015,8.31657981872559,-0.3125019967556,-0.769822001457214,0.647870004177094,-1065.90002441406,12.3000001907349,-926.100036621094,0.14968702284751,-0.415885944758075,0.0771640750493134,ST
9.6,-3.76231932640076,-0.848166704177856,8.05997657775879,-1.08994603157043,2.03507399559021,-1.16616594791412,-1058.70007324219,11.7000007629395,-923.700012207031,0.160428519553142,-0.432196596834423,0.0997373143469534,ST
9.63333333333333,-4.7247314453125,-0.78775429725647,7.35117721557617,-0.815553963184357,1.15854394435883,-1.62348592281342,-1061.10009765625,8.10000038146973,-930.900024414062,0.165677338884499,-0.528479540847728,0.106673248696691,ST
9.66666666666667,-6.50001955032349,-0.776987731456757,7.91044092178345,-0.617381989955902,1.55488801002502,-1.03659200668335,-1063.5,12.3000001907349,-914.100036621094,0.164542077298045,-0.647590933258158,0.102232184287738,ST
9.7,-5.53162622451782,-0.941477060317993,8.25915813446045,-0.609759986400604,-0.236281991004944,-1.15092194080353,-1056.30004882812,15.9000005722046,-923.700012207031,0.171177210853134,-0.604855015498866,0.111917100111083,ST
9.73333333333333,-5.34679985046387,-1.1095552444458,7.83208417892456,-0.198172003030777,-1.00610399246216,-0.160062000155449,-1075.5,14.7000007629395,-916.500061035156,0.183408984539988,-0.595706990064417,0.13384753569652,ST
9.76666666666667,-5.67099332809448,-1.7244461774826,8.11799621582031,-0.0533539988100529,1.2423859834671,-1.43293595314026,-1065.90002441406,21.3000011444092,-921.300048828125,0.216100448824384,-0.599786550718341,0.187962169432902,ST
9.8,-6.21829414367676,-1.51868498325348,9.28078651428223,0.518296003341675,3.7957558631897,-1.92074394226074,-1058.70007324219,11.1000003814697,-914.100036621094,0.210947539989403,-0.593088432249991,0.171347118917629,ST
9.83333333333333,-5.40661430358887,-1.38529908657074,7.83387851715088,1.54726600646973,2.98782396316528,0.807931959629059,-1056.30004882812,19.5,-921.300048828125,0.212289474662052,-0.599524193203756,0.171793914981926,ST
9.86666666666667,-5.16556262969971,-1.11852741241455,6.87505531311035,0.602137982845306,3.3613018989563,1.14329993724823,-1053.90002441406,9.30000019073486,-918.900024414062,0.206970150475399,-0.631917949849023,0.162934821618005,ST
9.9,-5.48018598556519,-1.04196500778198,7.24111890792847,-0.510673999786377,2.38568592071533,2.40092992782593,-1044.30004882812,17.1000003814697,-914.100036621094,0.193828827321839,-0.643557481356635,0.146912398470036,ST
9.93333333333333,-5.56691646575928,-0.980954468250275,7.30631637573242,-0.746955990791321,1.95885396003723,2.5152599811554,-1046.70007324219,12.9000005722046,-911.700012207031,0.183657141188255,-0.64862223756609,0.136376201412953,ST
9.96666666666667,-5.31928539276123,-1.19090270996094,7.26982975006104,-0.853663980960846,1.57013201713562,1.79879200458527,-1041.90002441406,20.7000007629395,-923.700012207031,0.191352851974941,-0.634624281771944,0.154301506936527,ST
10.0,-6.64477014541626,-1.18432307243347,7.74236249923706,-0.503051996231079,1.56251001358032,0.83841997385025,-1032.30004882812,15.9000005722046,-914.100036621094,0.189000503725251,-0.684766980246556,0.152615103587352,ST
10.0333333333333,-6.86309242248535,-1.41700065135956,7.92300176620483,0.327746003866196,1.72257196903229,0.457319974899292,-1041.90002441406,15.3000001907349,-921.300048828125,0.199989055166509,-0.702474270195416,0.169598951408994,ST
10.0666666666667,-6.5257396697998,-0.811081886291504,8.08689308166504,0.807931959629059,0.891773998737335,0.114329993724823,-1022.70001220703,17.1000003814697,-914.100036621094,0.168881963715745,-0.685655637323411,0.119567429275511,ST
10.1,-5.27023792266846,-0.312828779220581,7.30033493041992,1.60824191570282,-1.265251994133,2.15702605247498,-1027.5,17.7000007629395,-928.500061035156,0.131419680384329,-0.642016584280183,0.0610597023619212,ST
10.1333333333333,-4.98611974716187,-0.477916240692139,7.20941734313965,1.46342396736145,0.0762199983000755,1.95885396003723,-1032.30004882812,14.1000003814697,-906.900024414062,0.130271991984368,-0.615692130724776,0.0611984953864441,ST
10.1666666666667,-5.52743911743164,-0.430064797401428,7.24590396881104,1.65397393703461,1.10518991947174,1.93598794937134,-1025.10009765625,12.9000005722046,-914.100036621094,0.126374640904794,-0.641715116917805,0.0561583431843563,ST
10.2,-6.26794004440308,-0.458775669336319,7.16694927215576,0.647870004177094,0.952749967575073,0.655492007732391,-1034.70007324219,11.7000007629395,-906.900024414062,0.128865621623784,-0.699782995612931,0.0603722918655529,ST
10.2333333333333,-6.30921220779419,-0.341539651155472,7.93616104125977,-0.0914639979600906,-0.419209986925125,1.04421401023865,-1037.10009765625,18.3000011444092,-911.700012207031,0.118754453429421,-0.678985025851392,0.0469464868372052,ST
10.2666666666667,-5.30253744125366,-0.519188106060028,7.33263444900513,-0.266770005226135,-1.48628997802734,0.92988395690918,-1022.70001220703,6.90000009536743,-916.500061035156,0.127028752443707,-0.639410940071152,0.0631423379655429,ST
10.3,-4.80368614196777,-0.40853163599968,6.98690795898438,-0.190549999475479,-1.31860601902008,0.670735955238342,-1025.10009765625,9.90000057220459,-911.700012207031,0.123582536045096,-0.611330184386273,0.0593810578267287,ST
10.3333333333333,-5.71525621414185,-0.29009935259819,7.04074096679688,0.121951997280121,-0.472563982009888,1.00610399246216,-1037.10009765625,9.90000057220459,-909.300048828125,0.114209187303263,-0.65977117359152,0.0457760519059537,ST
10.3666666666667,-6.53590822219849,-0.263182908296585,6.79729652404785,0.548784017562866,0.320124000310898,1.76830399036407,-1032.30004882812,14.1000003814697,-904.500061035156,0.107778451517886,-0.733893836278094,0.0384137792136759,ST
10.4,-7.03954458236694,0.19798532128334,6.62024641036987,0.78506600856781,-0.0076219998300075,1.46342396736145,-1027.5,13.5000009536743,-902.100036621094,0.0729157382660974,-0.791291937177476,-0.0108017326937265,ST
10.4333333333333,-7.51147937774658,0.497654944658279,7.5407886505127,0.0762199983000755,-1.36433792114258,1.63872992992401,-1032.30004882812,9.90000057220459,-921.300048828125,0.042253170859736,-0.783454735067871,-0.0514467315483708,ST
10.4666666666667,-6.7620062828064,0.910373628139496,8.03006935119629,-0.716467976570129,-2.9268479347229,1.57775402069092,-1041.90002441406,8.10000038146973,-916.500061035156,0.0079714514198974,-0.716754964320557,-0.0976047157497794,ST
10.5,-5.21102142333984,0.345726639032364,7.34220504760742,-0.365855991840363,-1.84452390670776,1.06708002090454,-1032.30004882812,11.1000003814697,-911.700012207031,0.028897035751212,-0.644450340200937,-0.0618419843693417,ST
10.5333333333333,-5.42096996307373,0.585581958293915,7.82909345626831,0.0838419944047928,-1.48628997802734,-0.586893975734711,-1027.5,10.5,-918.900024414062,0.0249002507054889,-0.61460679339955,-0.0703860455304438,ST
10.5666666666667,-5.48257827758789,0.611900269985199,8.26394367218018,0.221037998795509,-1.15092194080353,-0.792688012123108,-1034.70007324219,10.5,-914.100036621094,0.0252092031799429,-0.592211963050336,-0.0724097230908729,ST
10.6,-5.36235189437866,0.24224790930748,8.59292221069336,0.556405961513519,-1.10518991947174,-1.79117000102997,-1029.90002441406,14.1000003814697,-926.100036621094,0.0459105862995795,-0.566939078009734,-0.0404909136704831,ST
10.6333333333333,-6.11541366577148,0.455186814069748,10.139121055603,0.282013982534409,-1.37958192825317,-1.99696397781372,-1039.5,14.1000003814697,-911.700012207031,0.048187955334325,-0.548113743954107,-0.0423605745978867,ST
10.6666666666667,-5.99040174484253,0.461766362190247,9.70785999298096,0.670735955238342,-3.05642199516296,-1.19665396213531,-1041.90002441406,10.5,-930.900024414062,0.0489627560752557,-0.547429796213956,-0.0457970008398341,ST
10.7,-5.10634660720825,-0.416307508945465,7.22855758666992,0.602137982845306,-2.15702605247498,-0.739333987236023,-1053.90002441406,17.1000003814697,-916.500061035156,0.0888967552716519,-0.591948966055559,0.0251469113484343,ST
10.7333333333333,-6.0789270401001,0.0628050118684769,7.63828563690186,-0.868907988071442,-4.07014799118042,-1.85214591026306,-1056.30004882812,7.50000047683716,-918.900024414062,0.0783512433704465,-0.645843681901048,0.0038424380342658,ST
10.7666666666667,-6.22188329696655,-1.11852741241455,6.84395170211792,-1.20427596569061,-4.07776975631714,-1.05945801734924,-1068.30004882812,15.3000001907349,-921.300048828125,0.146762482392942,-0.701608725620948,0.113745630268516,ST
10.8,-4.70020723342896,-1.32727921009064,6.44738292694092,-1.74543797969818,-1.90549993515015,-2.74391984939575,-1063.5,11.7000007629395,-916.500061035156,0.190558794269287,-0.642080314986973,0.181704117683592,ST
10.8333333333333,-4.46334266662598,-1.87278568744659,6.63280725479126,-0.830797970294952,-0.945127964019775,-3.30794787406921,-1065.90002441406,16.5,-923.700012207031,0.235282159983876,-0.592349074454014,0.252773583909793,ST
10.8666666666667,-3.13905429840088,-1.50552582740784,7.01143169403076,-0.304879993200302,-1.38720393180847,-4.16161203384399,-1063.5,20.1000003814697,-928.500061035156,0.226999174691907,-0.461274653761798,0.225375842042911,ST
10.9,-4.13316774368286,-1.39128053188324,7.69211864471436,0.586893975734711,-1.2423859834671,-3.28508186340332,-1077.90002441406,20.7000007629395,-923.700012207031,0.217905374716796,-0.476624490371592,0.194180376309706,ST
10.9333333333333,-5.54897212982178,-1.69992232322693,8.61565113067627,0.0076219998300075,-1.32622802257538,-1.46342396736145,-1087.5,17.7000007629395,-921.300048828125,0.220513090079799,-0.538590244795845,0.195492711274052,ST
10.9666666666667,-4.9275016784668,-2.01693820953369,8.67008209228516,-0.434453994035721,0.198172003030777,-0.487807989120483,-1075.5,19.5,-928.500061035156,0.233527009511026,-0.514789289647271,0.22053665285663,ST
11.0,-4.11761617660522,-1.88056147098541,8.36861801147461,-0.381099998950958,0.282013982534409,0.388722002506256,-1065.90002441406,16.5,-928.500061035156,0.233032346729053,-0.468187306747684,0.22115038745445,ST
11.0333333333333,-4.07096099853516,-1.70410931110382,8.73767280578613,-0.259148001670837,-0.495429992675781,0.365855991840363,-1068.30004882812,12.3000001907349,-930.900024414062,0.223324121414033,-0.440232577889595,0.201113345788498,ST
11.0666666666667,-4.73908662796021,-1.2297819852829,8.71255016326904,-0.0152439996600151,-1.03659200668335,0.396344006061554,-1070.70007324219,11.7000007629395,-916.500061035156,0.203596714944618,-0.476828996492425,0.158594792798959,ST
11.1,-4.88383722305298,-1.0276095867157,8.60907173156738,0.388722002506256,0.304879993200302,2.0731840133667,-1077.90002441406,11.7000007629395,-918.900024414062,0.185948194348528,-0.504308954563659,0.127484202495485,ST
11.1333333333333,-4.98611974716187,-0.593955993652344,7.85840225219727,-0.37347799539566,-1.6615959405899,3.86435389518738,-1077.90002441406,15.9000005722046,-926.100036621094,0.159237667427318,-0.546147215577954,0.0876084749994708,ST
11.1666666666667,-4.86409854888916,0.170470744371414,7.32067203521729,-0.861285984516144,-0.693601965904236,3.07166600227356,-1075.5,11.7000007629395,-926.100036621094,0.109472038825946,-0.575524810604349,0.004996479016638,ST
11.2,-5.487961769104,-0.370848655700684,7.72501659393311,-2.04269599914551,0.945127964019775,1.18903195858002,-1073.10009765625,12.9000005722046,-918.900024414062,0.123257708619591,-0.605865272904548,0.0362960989686805,ST
11.2333333333333,-6.28947353363037,-0.880466461181641,8.83816051483154,-2.37044191360474,-0.0152439996600151,1.50915598869324,-1085.10009765625,23.1000003814697,-923.700012207031,0.145213104143573,-0.61348321873004,0.0827033298242707,ST
11.2666666666667,-6.77337121963501,-1.1418548822403,9.4195556640625,0.0838419944047928,-1.15092194080353,0.25152599811554,-1075.5,23.1000003814697,-918.900024414062,0.159821807251561,-0.616718201427115,0.108754086735684,ST
11.3,-5.21221780776978,-0.239855334162712,8.3399076461792,0.472563982009888,-2.01982998847961,1.15854394435883,-1068.30004882812,20.7000007629395,-921.300048828125,0.125682453440646,-0.573822266825513,0.0505093654041323,ST
11.3333333333333,-3.61637234687805,-0.0927121639251709,7.61974334716797,-0.442075997591019,-1.53964400291443,3.16313004493713,-1082.70007324219,16.5,-921.300048828125,0.105829835692728,-0.480569776602758,0.0214491377300899,ST
11.3666666666667,-3.16716694831848,-0.185424327850342,6.92888832092285,-3.43752193450928,0.381099998950958,0.861285984516144,-1087.5,16.5,-935.700012207031,0.105094580386999,-0.44402078730107,0.0289960629480181,ST
11.4,-2.29328012466431,-0.672312676906586,7.2124080657959,-3.17075204849243,1.10518991947174,-1.28049600124359,-1063.5,25.5000019073486,-930.900024414062,0.124411822364433,-0.349259286869583,0.0789178280848317,ST
11.4333333333333,-2.46733975410461,-1.83510267734528,7.12926626205444,-1.2347639799118,1.92074394226074,-0.967993974685669,-1075.5,21.3000011444092,-923.700012207031,0.166953728721323,-0.334296421206859,0.20203562125145,ST
11.4666666666667,-5.32167816162109,-1.95712375640869,8.62103462219238,-0.533540010452271,2.56099200248718,-1.83690190315247,-1065.90002441406,26.1000003814697,-923.700012207031,0.17709634362308,-0.484019283227581,0.218641730634384,ST
11.5,-7.41697263717651,-1.60661196708679,9.55473613739014,0.365855991840363,3.59758400917053,0.914639949798584,-1058.70007324219,20.1000003814697,-930.900024414062,0.157932551179846,-0.611105607326662,0.181532301906633,ST
11.5333333333333,-6.69381809234619,-1.10417187213898,9.42792987823486,1.83690190315247,2.73629784584045,1.19665396213531,-1049.10009765625,20.7000007629395,-916.500061035156,0.129847367517812,-0.617173019184423,0.131382570370486,ST
11.5666666666667,-4.97056818008423,-0.787156164646149,8.68503570556641,1.51677799224854,2.37044191360474,1.2347639799118,-1058.70007324219,20.1000003814697,-921.300048828125,0.111480650987946,-0.547202996718563,0.0978561235880871,ST
11.6,-4.96219396591187,-0.294286340475082,7.65622997283936,0.731711983680725,1.82927989959717,1.79879200458527,-1039.5,23.1000003814697,-911.700012207031,0.0866881419868519,-0.568964001720347,0.0543332892710262,ST
11.6333333333333,-4.48726844787598,-0.771604418754578,7.59821033477783,0.335367977619171,2.85824990272522,2.17227005958557,-1046.70007324219,24.9000015258789,-921.300048828125,0.100603844694299,-0.546348874281605,0.0854971235326417,ST
11.6666666666667,-4.66611337661743,-0.699827253818512,7.04851675033569,1.6920839548111,3.91770792007446,2.04269599914551,-1051.5,18.9000015258789,-904.500061035156,0.102856443393424,-0.576604559706979,0.0914625141304263,ST
11.7,-5.6225438117981,-0.538328647613525,8.28487873077393,2.43141794204712,4.08539199829102,1.51677799224854,-1020.30004882812,18.3000011444092,-914.100036621094,0.0906166471764276,-0.595463809895406,0.0681350181660629,ST
11.7333333333333,-6.33014726638794,-0.902597725391388,8.08390235900879,2.68294382095337,2.47714996337891,0.807931959629059,-1032.30004882812,16.5,-911.700012207031,0.107412667646906,-0.644628962449392,0.0939289500428808,ST
11.7666666666667,-7.03894662857056,-0.881662726402283,8.64914703369141,2.26373386383057,2.85062789916992,-1.04421401023865,-1034.70007324219,20.1000003814697,-918.900024414062,0.113911993629574,-0.673089116541012,0.0977209459950051,ST
11.8,-5.86180114746094,-1.42358028888702,6.7201361656189,2.72105383872986,2.02745199203491,-1.08232402801514,-1025.10009765625,16.5,-911.700012207031,0.168262769369012,-0.700196691962403,0.175543186150641,ST
11.8333333333333,-6.31698799133301,-1.02701151371002,7.57428455352783,1.6920839548111,3.46800994873047,-2.29422187805176,-1010.70001220703,12.9000005722046,-914.100036621094,0.155520167684079,-0.697196314643931,0.146204617725845,ST
11.8666666666667,-5.84684753417969,-1.10895705223083,6.08191776275635,1.44817996025085,1.33385002613068,-0.358233988285065,-1020.30004882812,7.50000047683716,-906.900024414062,0.173298481687022,-0.742531930418535,0.169361206579408,ST
11.9,-6.17343378067017,-0.879270195960999,5.93537282943726,1.08232402801514,1.98171997070312,-0.426831990480423,-1015.50006103516,18.9000015258789,-911.700012207031,0.164629518890847,-0.784721406160134,0.153595834823399,ST
11.9333333333333,-6.6842474937439,-0.693845868110657,6.19855546951294,2.21800184249878,2.88111591339111,-1.82927989959717,-1008.30004882812,8.10000038146973,-902.100036621094,0.149239831741622,-0.812624617001485,0.124541260181682,ST
11.9666666666667,-6.98810434341431,-0.60651695728302,5.39764213562012,3.49849796295166,2.81251788139343,-2.98782396316528,-1013.10003662109,6.90000009536743,-890.100036621094,0.151899816925828,-0.887431721780673,0.116005667640724,ST
12.0,-6.42943859100342,-0.75545459985733,5.52325201034546,3.98630595207214,3.44514393806458,-3.69666981697083,-993.900024414062,13.5000009536743,-911.700012207031,0.174468809645584,-0.868724829631058,0.131785875315427,ST
12.0333333333333,-6.54667472839355,0.0364867225289345,7.00963735580444,3.96343994140625,1.73781597614288,-1.61586391925812,-986.700012207031,16.5,-899.700012207031,0.104037882560904,-0.786278494714368,0.0261737764847155,ST
12.0666666666667,-6.32536172866821,-0.378026366233826,6.39295196533203,4.00154972076416,0.152439996600151,1.60824191570282,-998.700012207031,8.70000076293945,-887.700012207031,0.118424687923223,-0.781681642075313,0.0424048132762826,ST
12.1,-6.28648281097412,-0.583189368247986,6.86129808425903,2.88873791694641,1.41769194602966,1.6920839548111,-989.100036621094,12.9000005722046,-890.100036621094,0.138422097392063,-0.752436243853162,0.0688155372429315,ST
12.1333333333333,-8.1126127243042,-0.369652360677719,7.74056816101074,4.10063600540161,2.85062789916992,0.739333987236023,-984.300048828125,9.30000019073486,-894.900024414062,0.128068875605316,-0.797302545057185,0.047395690132819,ST
12.1666666666667,-7.92001104354858,0.0705808699131012,7.18369722366333,4.15398979187012,2.72867584228516,-0.899396002292633,-977.100036621094,9.90000057220459,-894.900024414062,0.102956140047461,-0.826445595234751,0.0040014235724701,ST
12.2,-7.55933094024658,-0.175854027271271,6.30741786956787,3.46038794517517,-0.754577994346619,0.403965979814529,-984.300048828125,3.30000019073486,-885.300048828125,0.11552946556584,-0.859648076173868,0.0155263931908087,ST
12.2333333333333,-6.61007785797119,-0.0328978635370731,6.30861377716064,1.92836594581604,-0.655492007732391,0.342989981174469,-967.500061035156,2.70000004768372,-906.900024414062,0.110059498632664,-0.823199183128674,0.005390215332764,ST
12.2666666666667,-6.27631425857544,-0.467149674892426,6.84275579452515,0.792688012123108,-1.57013201713562,0.548784017562866,-977.100036621094,2.10000014305115,-897.300048828125,0.142856598902448,-0.760710223054534,0.0509435080774421,ST
12.3,-7.29973697662354,-0.74050098657608,7.34878444671631,-0.442075997591019,-1.29574000835419,0.602137982845306,-974.700012207031,-0.300000011920929,-892.500061035156,0.165526343802293,-0.772684993010419,0.08568366114549,ST
12.3333333333333,-7.26085758209229,-0.541917502880096,7.26624059677124,-1.09756803512573,-1.05945801734924,1.88263392448425,-981.900024414062,9.30000019073486,-890.100036621094,0.154894392666568,-0.779604312127095,0.0763421769921145,ST
12.3666666666667,-7.44747829437256,-0.311632484197617,7.71365165710449,-1.15854394435883,-0.685979962348938,3.11739802360535,-993.900024414062,3.30000019073486,-921.300048828125,0.130290601080978,-0.77053487138127,0.048762543878932,ST
12.4,-6.96358060836792,0.0161498598754406,7.80337333679199,-0.602137982845306,-0.320124000310898,2.18751406669617,-986.700012207031,8.10000038146973,-899.700012207031,0.100904501901474,-0.740971492791503,0.0110228220859479,ST
12.4333333333333,-6.09746932983398,-0.133385881781578,7.23812818527222,-0.670735955238342,0.0381099991500378,1.41769194602966,-993.900024414062,9.90000057220459,-892.500061035156,0.101320739833882,-0.712362016003569,0.0155606327422327,ST
12.4666666666667,-5.61596441268921,0.111852735280991,7.03535747528076,-0.556405961513519,0.945127964019775,0.952749967575073,-1001.10003662109,1.5,-897.300048828125,0.0836997854755182,-0.684558057784298,-0.0085523217415552,ST
12.5,-6.05081415176392,-0.0963010191917419,6.07653427124023,-0.525918006896973,1.18140995502472,1.39482593536377,-979.500061035156,3.90000009536743,-882.900024414062,0.0915853198971977,-0.754810355739737,0.0070798486064057,ST
12.5333333333333,-6.23922920227051,-0.305052906274796,6.09806776046753,-1.47104597091675,1.14329993724823,0.914639949798584,-977.100036621094,7.50000047683716,-892.500061035156,0.109827863205049,-0.78524289604471,0.0374238416429403,ST
12.5666666666667,-7.26324987411499,0.001794428913854,6.03227186203003,-1.34147191047668,0.190549999475479,1.89787793159485,-991.500061035156,3.90000009536743,-892.500061035156,0.0866886646424995,-0.850065018080358,0.0110332726868224,ST
12.6,-7.90505743026733,0.211144462227821,6.34091377258301,-1.28049600124359,0.342989981174469,1.44817996025085,-991.500061035156,8.10000038146973,-904.500061035156,0.0597888823148474,-0.881582780026694,-0.0199719575386078,ST
12.6333333333333,-7.83208417892456,0.614292860031128,4.98911046981812,-0.99848198890686,0.518296003341675,1.64635193347931,-989.100036621094,2.70000004768372,-890.100036621094,0.0001040983735325,-0.966722325458505,-0.0908240757292346,ST
12.6666666666667,-8.73169136047363,1.37572884559631,6.02748680114746,-1.73781597614288,0.945127964019775,2.31708788871765,-986.700012207031,6.90000009536743,-887.700012207031,-0.0883556695556161,-0.959343377295821,-0.192102822626938,ST
12.7,-7.94393682479858,1.44092643260956,6.28409004211426,-1.2423859834671,-1.60061991214752,1.95885396003723,-977.100036621094,-1.5,-887.700012207031,-0.111845411158847,-0.907735268127364,-0.217062405285664,ST
12.7333333333333,-6.49822521209717,1.02103006839752,5.62792730331421,-1.02897000312805,-1.74543797969818,-0.0685980021953583,-979.500061035156,6.90000009536743,-894.900024414062,-0.0905253994641288,-0.864600239130656,-0.188367125815653,ST
12.7666666666667,-6.44678497314453,1.16936945915222,5.92640066146851,-0.967993974685669,-0.381099998950958,-1.22714197635651,-979.500061035156,8.10000038146973,-885.300048828125,-0.0916000335193626,-0.831744745795268,-0.190050622369815,ST
12.8,-7.32007360458374,1.15262150764465,6.5317211151123,-0.0685980021953583,-0.777444005012512,-0.746955990791321,-977.100036621094,10.5,-899.700012207031,-0.0817903859180167,-0.833002435235928,-0.17804759144114,ST
12.8333333333333,-6.93905639648438,0.712986409664154,6.57598400115967,-0.419209986925125,-2.18751406669617,0.0609759986400604,-986.700012207031,6.30000019073486,-902.100036621094,-0.0451484074219507,-0.814034851711875,-0.127857466529854,ST
12.8666666666667,-7.00425434112549,0.685471832752228,7.01561880111694,-1.08232402801514,-2.5152599811554,0.381099998950958,-998.700012207031,8.10000038146973,-909.300048828125,-0.0293176803284239,-0.786854144593535,-0.103553692621119,ST
12.9,-6.48387002944946,0.141759887337685,7.29554986953735,-1.62348592281342,-2.08842802047729,0.884151995182037,-1005.90002441406,6.30000019073486,-902.100036621094,0.0113988202056432,-0.740612158111063,-0.0404112189327313,ST
12.9333333333333,-5.79600524902344,-0.637620389461517,8.31957054138184,-3.23172783851624,-2.43141794204712,-0.868907988071442,-1003.50006103516,9.90000057220459,-897.300048828125,0.0677331747805892,-0.641061412661403,0.0516869202869639,ST
12.9666666666667,-5.81454801559448,-0.600535571575165,7.81713056564331,-3.12502002716064,-2.52288198471069,-1.58537602424622,-991.500061035156,13.5000009536743,-897.300048828125,0.0799421683507441,-0.635827088899473,0.0742504328919507,ST
13.0,-5.83069753646851,-0.26437920331955,8.09107971191406,-2.33995389938354,-0.967993974685669,-1.44817996025085,-996.300048828125,9.30000019073486,-911.700012207031,0.0635762774879823,-0.625822546086882,0.0473793109488266,ST
13.0333333333333,-5.89230632781982,0.0203368607908487,7.00066518783569,-0.670735955238342,0.274392008781433,-0.602137982845306,-996.300048828125,16.5,-906.900024414062,0.0436830862103149,-0.677789456730445,0.0143187262201224,ST
13.0666666666667,-5.62792730331421,-0.545506417751312,6.11302137374878,0.304879993200302,-0.708845973014832,-0.663114011287689,-1013.10003662109,15.3000001907349,-897.300048828125,0.078016175732772,-0.722078528452363,0.0658211581959568,ST
13.1,-6.62862062454224,-0.956430613994598,5.96827077865601,0.304879993200302,-0.647870004177094,-2.08842802047729,-1010.70001220703,12.9000005722046,-892.500061035156,0.125436073646426,-0.797653893123504,0.130505453241933,ST
13.1333333333333,-8.1311559677124,-0.688462555408478,7.14421987533569,0.579271972179413,-1.02134799957275,-1.85976791381836,-998.700012207031,13.5000009536743,-899.700012207031,0.112174821561111,-0.831118861778403,0.108442072028281,ST
13.1666666666667,-8.05997657775879,-0.812278151512146,7.09756469726562,1.41006994247437,-2.62959003448486,-0.6250039935112,-1008.30004882812,9.30000019073486,-926.100036621094,0.116458451179318,-0.838211964540971,0.111086665112078,ST
13.2,-7.18549156188965,-0.795530140399933,7.42594480514526,1.2423859834671,-3.15550804138184,0.342989981174469,-1005.90002441406,13.5000009536743,-892.500061035156,0.113165000664731,-0.781870287392844,0.105423765533975,ST
13.2333333333333,-6.42106485366821,-0.863120317459106,6.62802219390869,1.38720393180847,-1.70732796192169,0.647870004177094,-1017.90002441406,15.3000001907349,-904.500061035156,0.124176397417292,-0.767857364016684,0.120170685916811,ST
13.2666666666667,-6.69501447677612,-1.13587355613708,6.79968929290771,0.937505960464478,-0.510673999786377,-0.297257989645004,-1020.30004882812,6.90000009536743,-916.500061035156,0.146980439844782,-0.769333483738566,0.150955833288987,ST
13.3,-6.31638956069946,-1.77528834342957,7.38586950302124,0.670735955238342,-0.92988395690918,-0.945127964019775,-1027.5,3.30000019073486,-909.300048828125,0.19056716671763,-0.714368791481746,0.212655008533171,ST
13.3333333333333,-6.35108184814453,-1.09938681125641,7.32306432723999,1.51677799224854,-1.6920839548111,-0.289635986089706,-1020.30004882812,18.9000015258789,-899.700012207031,0.160385229227414,-0.708318401306163,0.163670937856198,ST
13.3666666666667,-5.82411813735962,-0.226098045706749,7.26803541183472,1.85214591026306,-2.37806391716003,1.6920839548111,-1005.90002441406,17.7000007629395,-916.500061035156,0.0971379390371111,-0.683378371409357,0.0660164596758196,ST
13.4,-6.12558221817017,-0.653172135353088,8.18379211425781,1.85976791381836,-1.06708002090454,4.03203773498535,-1025.10009765625,14.7000007629395,-902.100036621094,0.095615181337586,-0.651647183799163,0.0696433699247809,ST
13.4333333333333,-5.60759019851685,-0.768613696098328,9.05767917633057,1.03659200668335,0.274392008781433,0.388722002506256,-1027.5,4.5,-911.700012207031,0.101682945677096,-0.580191065063856,0.0791297174730856,ST
13.4666666666667,-5.65185308456421,-0.46236452460289,8.02588272094727,1.73781597614288,1.21189796924591,-0.0076219998300075,-1034.70007324219,11.1000003814697,-904.500061035156,0.0939805771334914,-0.604441362923858,0.0620890695285168,ST
13.5,-6.19257402420044,-0.163891181349754,7.89728164672852,1.33385002613068,2.54574799537659,1.40244793891907,-1008.30004882812,20.1000003814697,-909.300048828125,0.0751804591750507,-0.649887749920299,0.0307798151952852,ST
13.5333333333333,-5.93417644500732,-0.30325847864151,7.26504468917847,0.335367977619171,3.97106194496155,2.11129403114319,-1025.10009765625,6.90000009536743,-911.700012207031,0.0760857331541014,-0.6789895334466,0.0360399097120108,ST
13.5666666666667,-5.19606781005859,-0.656760990619659,7.80995273590088,0.579271972179413,2.94971394538879,1.52439999580383,-1017.90002441406,4.5,-906.900024414062,0.0952251722309382,-0.613903211531998,0.0700485714658508,ST
13.6,-5.56093502044678,-0.130395174026489,6.47310304641724,1.34909391403198,3.41465592384338,0.739333987236023,-1020.30004882812,9.90000057220459,-904.500061035156,0.0730913234188004,-0.687623254521295,0.0323413237967997,ST
13.6333333333333,-5.87137126922607,0.32838049530983,6.14771366119385,1.19665396213531,3.98630595207214,0.815553963184357,-993.900024414062,6.90000009536743,-897.300048828125,0.0333574719555918,-0.744505876834376,-0.0287321659897309,ST
13.6666666666667,-7.78004550933838,0.715977132320404,5.16974973678589,1.04421401023865,3.87197589874268,2.03507399559021,-998.700012207031,8.70000076293945,-904.500061035156,-0.0275270263738595,-0.924674422108483,-0.108846099406084,ST
13.7,-8.83038425445557,0.531749129295349,5.61895513534546,-0.381099998950958,3.83386588096619,1.87501192092896,-989.100036621094,11.7000007629395,-909.300048828125,-0.0253227998977683,-0.98306357798203,-0.102672940892551,ST
13.7333333333333,-9.04392147064209,1.1538177728653,5.85163259506226,-1.31860601902008,2.11891603469849,2.69056582450867,-984.300048828125,3.30000019073486,-897.300048828125,-0.0868150774647902,-0.988807537681398,-0.170791311340934,ST
13.7666666666667,-7.51626443862915,0.899607002735138,6.76320266723633,-1.16616594791412,-0.190549999475479,2.21800184249878,-989.100036621094,7.50000047683716,-892.500061035156,-0.0687873682676079,-0.875348657624723,-0.143251420732804,ST
13.8,-6.11661005020142,0.907382905483246,7.05270385742188,-1.13567793369293,-1.40244793891907,-0.129574000835419,-986.700012207031,9.30000019073486,-885.300048828125,-0.0602114324081852,-0.753578485513527,-0.129852128438849,ST
13.8333333333333,-6.33971738815308,1.09400343894958,6.66450881958008,-1.39482593536377,0.304879993200302,-0.708845973014832,-986.700012207031,4.5,-894.900024414062,-0.0756449745674936,-0.754307312581239,-0.151132405479197,ST
13.8666666666667,-6.99468374252319,0.766819298267365,6.73449182510376,-0.990859985351562,0.78506600856781,-0.0228659994900227,-989.100036621094,7.50000047683716,-902.100036621094,-0.0573882793349161,-0.789283490583129,-0.122958546443548,ST
13.9,-7.86139297485352,0.587376415729523,7.09935903549194,-0.640248000621796,-0.594515979290009,-0.121951997280121,-984.300048828125,14.7000007629395,-892.500061035156,-0.0371971909931925,-0.820303256152625,-0.0941294854804926,ST
13.9333333333333,-7.75133466720581,0.600535571575165,6.38756895065308,-0.594515979290009,-2.20275783538818,-0.0990860015153885,-981.900024414062,11.1000003814697,-899.700012207031,-0.0365510012841218,-0.858889875703331,-0.0927031144518853,ST
13.9666666666667,-7.0927791595459,0.146545022726059,6.11900281906128,-0.823175966739655,-0.846041977405548,0.533540010452271,-986.700012207031,8.10000038146973,-892.500061035156,-0.0015311706660522,-0.85802035374323,-0.0443149694111149,ST
14.0,-6.61905002593994,0.111254595220089,6.0789270401001,-0.975615978240967,-0.87652999162674,-0.647870004177094,-986.700012207031,11.1000003814697,-902.100036621094,0.0136029985950937,-0.835450081216511,-0.0234520887801881,ST
14.0333333333333,-5.76609802246094,-0.356493204832077,5.63390874862671,-1.6768399477005,-0.510673999786377,-2.14178204536438,-981.900024414062,7.50000047683716,-892.500061035156,0.062470276613013,-0.807504052375479,0.042698247370122,ST
14.0666666666667,-6.42824268341064,-0.472532957792282,5.98262596130371,-1.91312193870544,-1.11281192302704,-2.60672402381897,-991.500061035156,10.5,-897.300048828125,0.085387919940276,-0.814546861261382,0.0734464104384946,ST
14.1,-6.33852100372314,-0.651975810527802,6.40611124038696,-1.45580196380615,-1.78354799747467,-1.34909391403198,-977.100036621094,6.30000019073486,-897.300048828125,0.101548206624752,-0.786346795293634,0.0964623920387287,ST
14.1333333333333,-6.2667441368103,-0.693845868110657,6.88283109664917,-0.975615978240967,-2.98782396316528,0.87652999162674,-989.100036621094,19.5,-897.300048828125,0.100703902206555,-0.746166535911541,0.0992432669583563,ST
14.1666666666667,-6.5735912322998,-1.1095552444458,6.64716291427612,-0.746955990791321,-3.71191382408142,1.35671591758728,-1008.30004882812,17.1000003814697,-909.300048828125,0.129050006212437,-0.761385116980989,0.145533014766896,ST
14.2,-6.58615207672119,-1.27045571804047,6.52155303955078,-1.31860601902008,-1.44817996025085,0.46494197845459,-1003.50006103516,12.3000001907349,-902.100036621094,0.149743605972303,-0.773566494970714,0.178856027589127,ST
14.2333333333333,-5.27023792266846,-1.59943425655365,6.25358486175537,-1.70732796192169,-0.0609759986400604,-0.0609759986400604,-1003.50006103516,17.1000003814697,-906.900024414062,0.18395004624723,-0.711518028010682,0.232195270686199,ST
14.2666666666667,-7.71903514862061,-1.36735486984253,6.85112953186035,-0.266770005226135,1.02897000312805,1.16616594791412,-1008.30004882812,14.7000007629395,-899.700012207031,0.165834656728916,-0.79926056416532,0.207790105348283,ST
14.3,-8.66589546203613,-1.4600670337677,8.30880355834961,-0.586893975734711,0.419209986925125,1.46342396736145,-998.700012207031,13.5000009536743,-909.300048828125,0.145789460573324,-0.799860134849545,0.183126111572114,ST
14.3333333333333,-8.31538391113281,-1.8685986995697,7.60538768768311,-0.449698001146317,-1.09756803512573,-0.0762199983000755,-1003.50006103516,5.10000038146973,-897.300048828125,0.176304642783752,-0.81020095958925,0.226614875249042,ST
14.3666666666667,-7.24650192260742,-1.54261076450348,7.42654323577881,0.769822001457214,1.28811800479889,-1.02897000312805,-996.300048828125,17.1000003814697,-902.100036621094,0.168092791419217,-0.777546713511159,0.211473991493785,ST
14.4,-6.83079290390015,-0.874485015869141,7.13524770736694,1.30336201190948,0.388722002506256,0.846041977405548,-991.500061035156,12.3000001907349,-911.700012207031,0.123023096723898,-0.766220344565638,0.146002934509319,ST
14.4333333333333,-5.65603971481323,-0.579002380371094,7.08141469955444,0.914639949798584,-2.12653803825378,2.09605002403259,-1008.30004882812,18.3000011444092,-906.900024414062,0.0877574224675957,-0.698327275601527,0.0962533724426259,ST
14.4666666666667,-6.8122501373291,-0.453990519046783,7.5671067237854,1.60061991214752,-2.81251788139343,2.31708788871765,-1010.70001220703,10.5,-897.300048828125,0.0664155376492045,-0.719125785720788,0.0658940090969639,ST
14.5,-5.65783452987671,0.337352633476257,8.12038898468018,0.846041977405548,-1.79117000102997,0.564027965068817,-1005.90002441406,15.3000001907349,-909.300048828125,0.0144943594846137,-0.635285219526826,-0.0168559540769061,ST
14.5333333333333,-5.31928539276123,-0.0963010191917419,7.50310564041138,1.53202199935913,-2.53050398826599,2.03507399559021,-1013.10003662109,5.70000028610229,-906.900024414062,0.0237638668022109,-0.618322073764501,0.0012804414743321,ST
14.5666666666667,-5.83249187469482,-0.0257201474159956,7.14122915267944,0.830797970294952,-1.43293595314026,1.92074394226074,-1008.30004882812,17.7000007629395,-902.100036621094,0.0211503029841383,-0.663874100002518,2.65488679324943e-05,ST
14.6,-6.36125040054321,-0.0855344459414482,6.97913217544556,0.396344006061554,-0.213415995240211,1.15854394435883,-996.300048828125,9.90000057220459,-892.500061035156,0.0242779499538499,-0.716105462562469,0.0066943077309763,ST
14.6333333333333,-6.30861377716064,0.542515695095062,6.74525833129883,-0.205793991684914,-2.00458598136902,1.44055795669556,-1022.70001220703,11.1000003814697,-902.100036621094,-0.0185492766142594,-0.737909436781998,-0.0546838638013817,ST
14.6666666666667,-6.49044942855835,0.596348524093628,6.24700498580933,-0.137196004390717,-1.81403601169586,2.09605002403259,-1022.70001220703,9.30000019073486,-914.100036621094,-0.042696400770171,-0.782072417597634,-0.0857084421947158,ST
14.7,-6.83856868743896,1.25610029697418,6.79610061645508,-0.213415995240211,-1.40244793891907,2.21037983894348,-1008.30004882812,10.5,-911.700012207031,-0.0947103605357847,-0.779123599490365,-0.155702875063442,ST
14.7333333333333,-5.89170837402344,1.55218100547791,6.23803281784058,-0.259148001670837,-1.95885396003723,1.16616594791412,-1032.30004882812,12.3000001907349,-911.700012207031,-0.139550146399499,-0.750845264394683,-0.218532461333089,ST
14.7666666666667,-7.27581119537354,1.77409207820892,6.80567073822021,-0.655492007732391,-1.07470202445984,0.381099998950958,-1029.90002441406,9.90000057220459,-921.300048828125,-0.158162070050582,-0.786787460796708,-0.243867832925832,ST
14.8,-6.60230207443237,1.40324342250824,7.80217695236206,-1.05945801734924,-2.64483404159546,-1.34147191047668,-1034.70007324219,8.70000076293945,-914.100036621094,-0.121742865636244,-0.718164469984644,-0.192340342880049,ST
14.8333333333333,-6.23922920227051,1.25370764732361,8.14491271972656,-0.609759986400604,-2.88111591339111,-0.693601965904236,-1041.90002441406,12.9000005722046,-914.100036621094,-0.101618099611359,-0.665793914946425,-0.162257035894134,ST
14.8666666666667,-5.0411491394043,1.40324342250824,8.21130657196045,-0.83841997385025,-2.12653803825378,-0.472563982009888,-1046.70007324219,9.90000057220459,-918.900024414062,-0.103317846955323,-0.57815135067705,-0.165583525321384,ST
14.9,-5.02260637283325,0.436046212911606,8.30102825164795,-0.487807989120483,-0.3125019967556,-0.0457319989800453,-1044.30004882812,10.5,-911.700012207031,-0.0575388435552763,-0.552290743405544,-0.0795504983565971,ST
14.9333333333333,-4.99030685424805,-0.120226740837097,8.37400150299072,-0.663114011287689,-0.0228659994900227,-0.99848198890686,-1037.10009765625,11.7000007629395,-909.300048828125,-0.0215696184573163,-0.542269860111774,-0.0121552843197285,ST
14.9666666666667,-4.77856397628784,-0.815867006778717,7.77825117111206,0.121951997280121,-0.46494197845459,-1.63872992992401,-1032.30004882812,11.7000007629395,-916.500061035156,0.0270886614864244,-0.54675558051473,0.0763114014608535,ST
15.0,-5.5866551399231,-0.629844546318054,8.29086017608643,0.503051996231079,-0.396344006061554,-1.58537602424622,-1046.70007324219,12.3000001907349,-911.700012207031,0.0299561723555444,-0.577462382126251,0.0765692984845359,ST
15.0333333333333,-5.20025491714478,-0.629844546318054,7.25846481323242,1.31860601902008,-1.21189796924591,-0.708845973014832,-1034.70007324219,15.3000001907349,-909.300048828125,0.0353327469415464,-0.60557146658848,0.0823714297230604,ST
15.0666666666667,-5.39943647384644,-0.601133704185486,7.5048999786377,0.449698001146317,0.586893975734711,-1.62348592281342,-1039.5,11.7000007629395,-916.500061035156,0.0376671035270373,-0.617710764771008,0.0815553208196879,ST
15.1,-5.94554090499878,-0.1214230209589,7.54138660430908,0.952749967575073,-0.541162014007568,-0.731711983680725,-1046.70007324219,13.5000009536743,-916.500061035156,0.0125127277362352,-0.652032050813661,0.0358452331128067,ST
15.1333333333333,-5.007652759552,-0.590965270996094,6.8301944732666,0.83841997385025,0.3125019967556,-1.46342396736145,-1034.70007324219,13.5000009536743,-909.300048828125,0.0369460185682436,-0.637624728986745,0.0716356111055832,ST
15.1666666666667,-5.65903043746948,-0.792539417743683,6.34270811080933,1.19665396213531,0.304879993200302,-2.14178204536438,-1049.10009765625,14.1000003814697,-911.700012207031,0.063815205678801,-0.698574735672007,0.108246769134604,ST
15.2,-6.74107122421265,-0.851157426834106,7.18608951568604,1.35671591758728,0.228659987449646,-1.49391198158264,-1046.70007324219,12.3000001907349,-914.100036621094,0.0718562688677379,-0.73522744981579,0.114993231330881,ST
15.2333333333333,-6.37500762939453,-1.25669836997986,7.19506168365479,0.937505960464478,-1.41006994247437,-1.6768399477005,-1044.30004882812,14.1000003814697,-921.300048828125,0.103385059200268,-0.720521451722508,0.157618501835581,ST
15.2666666666667,-6.9199161529541,-1.4660484790802,7.36134576797485,0.708845973014832,-1.2347639799118,-1.39482593536377,-1041.90002441406,14.1000003814697,-914.100036621094,0.123952605047287,-0.73578152881407,0.185050375277714,ST
15.3,-6.39295196533203,-1.59943425655365,7.67776298522949,-0.327746003866196,-1.2423859834671,-1.43293595314026,-1037.10009765625,12.9000005722046,-923.700012207031,0.135867942247037,-0.696942075648602,0.201360888503978,ST
15.3333333333333,-6.2129111289978,-1.48160016536713,7.73398876190186,-0.0838419944047928,-1.42531394958496,0.160062000155449,-1046.70007324219,6.90000009536743,-918.900024414062,0.129233772404693,-0.673803838416943,0.192044308852939,ST
15.3666666666667,-6.53590822219849,-1.64668762683868,7.93675899505615,0.266770005226135,-0.701223969459534,1.43293595314026,-1051.5,11.7000007629395,-911.700012207031,0.131762936926469,-0.676661191421266,0.19895651283015,ST
15.4,-5.59682369232178,-1.28301668167114,7.93556261062622,0.685979962348938,0.663114011287689,1.12805593013763,-1051.5,11.7000007629395,-923.700012207031,0.113363061638513,-0.629835450844695,0.169733926902703,ST
15.4333333333333,-5.23016214370728,-0.498851239681244,7.99418067932129,0.967993974685669,-0.594515979290009,2.5076379776001,-1046.70007324219,8.70000076293945,-918.900024414062,0.0650762737274624,-0.594037397702691,0.0904371722640486,ST
15.4666666666667,-4.71815156936646,-0.250023752450943,7.8057656288147,0.99848198890686,-1.02897000312805,3.44514393806458,-1046.70007324219,17.7000007629395,-914.100036621094,0.0346244696177902,-0.555733562220982,0.0428070305849705,ST
15.5,-5.02739191055298,0.123815596103668,8.03605079650879,0.396344006061554,-0.37347799539566,2.9268479347229,-1032.30004882812,18.3000011444092,-916.500061035156,0.0077513698484013,-0.557741384021174,-0.0005790819580994,ST
15.5333333333333,-5.37012767791748,0.05742172524333,8.09167766571045,-0.114329993724823,0.693601965904236,3.41465592384338,-1041.90002441406,10.5,-918.900024414062,-0.0011412313005077,-0.57824808925383,-0.0076621409275458,ST
15.5666666666667,-5.47360610961914,-0.0197387188673019,8.00853633880615,-1.10518991947174,0.548784017562866,2.78965187072754,-1034.70007324219,12.3000001907349,-911.700012207031,-0.0028319892343377,-0.593796010574181,-0.0015430748222922,ST
15.6,-4.4083137512207,0.0197387188673019,7.94274044036865,-1.85214591026306,-0.327746003866196,1.49391198158264,-1051.5,14.1000003814697,-909.300048828125,-0.0064957613674997,-0.532400421682975,-0.0010855025533709,ST
15.6333333333333,-4.7366943359375,-0.167480036616325,8.20891380310059,-1.2500079870224,-1.49391198158264,1.42531394958496,-1032.30004882812,14.7000007629395,-916.500061035156,-0.001752441474544,-0.523767514997998,0.0153185262734562,ST
15.6666666666667,-4.94843673706055,0.0436644367873669,8.31897258758545,-0.350611984729767,-0.693601965904236,0.861285984516144,-1053.90002441406,15.3000001907349,-909.300048828125,-0.0106711469724754,-0.531923143402312,0.0007854980613834,ST
15.7,-5.86838054656982,0.77878212928772,7.61017322540283,-0.175305992364883,1.36433792114258,-0.0304879993200302,-1041.90002441406,15.9000005722046,-928.500061035156,-0.0486944365257189,-0.619401569764795,-0.0687799506276482,ST
15.7333333333333,-7.08320903778076,1.35240125656128,7.85840225219727,0.952749967575073,2.27897787094116,0.144817993044853,-1046.70007324219,12.3000001907349,-911.700012207031,-0.0931147575205949,-0.699997848470122,-0.142149806043744,ST
15.7666666666667,-6.55863761901855,1.11792922019958,7.87036514282227,1.17378795146942,2.28659987449646,-0.182927995920181,-1034.70007324219,7.50000047683716,-916.500061035156,-0.0924926568349868,-0.695521217629796,-0.143019636165884,ST
15.8,-6.02808475494385,1.20645439624786,7.90505743026733,0.724089980125427,1.28049600124359,-0.205793991684914,-1049.10009765625,14.1000003814697,-911.700012207031,-0.0959794941339893,-0.662414587779431,-0.149851631929179,ST
15.8333333333333,-5.3719220161438,1.18731379508972,7.39364528656006,0.46494197845459,-0.655492007732391,-1.05945801734924,-1044.30004882812,10.5,-921.300048828125,-0.0976256656866134,-0.633746923830144,-0.155990086368576,ST
15.8666666666667,-4.73549795150757,0.221312895417213,8.10962200164795,0.137196004390717,1.92074394226074,-2.01982998847961,-1041.90002441406,13.5000009536743,-928.500061035156,-0.0422269336505344,-0.563297804432239,-0.062690045943547,ST
15.9,-5.75951862335205,-0.37324121594429,7.85242080688477,0.891773998737335,3.17075204849243,-3.7805118560791,-1034.70007324219,7.50000047683716,-921.300048828125,0.00720859551109,-0.615937788102268,0.0152057655407891,ST
15.9333333333333,-5.74635934829712,-0.406737208366394,7.97743272781372,1.2576299905777,3.22410583496094,-3.92532992362976,-1013.10003662109,11.1000003814697,-911.700012207031,0.0297762224321671,-0.625137697870064,0.0421593205287899,ST
15.9666666666667,-5.90247488021851,-0.656760990619659,7.41039323806763,1.77592599391937,2.33233189582825,-2.32470989227295,-1013.10003662109,18.3000011444092,-921.300048828125,0.0552852976153981,-0.661002821453712,0.075484180360841,ST
16.0,-5.85103464126587,-0.966000914573669,8.07792091369629,1.79879200458527,2.10367202758789,-1.99696397781372,-1027.5,18.9000015258789,-899.700012207031,0.0796007036603981,-0.636280677391001,0.107144191120551,NLR
16.0333333333333,-6.0609827041626,-0.723752975463867,8.40032005310059,3.58234000205994,2.24848985671997,-2.43903994560242,-1020.30004882812,3.90000009536743,-902.100036621094,0.0769706711012601,-0.62964558192231,0.0902599221687116,NLR
16.0666666666667,-5.52863550186157,-0.561058104038239,6.84694242477417,4.67990779876709,1.86738991737366,-2.33995389938354,-1008.30004882812,11.7000007629395,-904.500061035156,0.0796687938828433,-0.665192265126443,0.0809806955326689,NLR
16.1,-5.93776512145996,-0.355296939611435,6.48267364501953,4.95429992675781,2.28659987449646,-2.30184388160706,-1001.10003662109,12.3000001907349,-909.300048828125,0.0746352054893274,-0.722640202507548,0.0586448065990323,NLR
16.1333333333333,-6.19377040863037,-0.504234552383423,6.66151809692383,4.93905591964722,0.541162014007568,-1.95123195648193,-1001.10003662109,6.90000009536743,-899.700012207031,0.0881293591133645,-0.740613660963738,0.0665206104194581,NLR
16.1666666666667,-6.76619338989258,-1.06589078903198,6.05201053619385,4.43600368499756,0.198172003030777,-2.35519790649414,-1005.90002441406,12.3000001907349,-890.100036621094,0.145470696356805,-0.805884629694774,0.136885068719261,NLR
16.2,-7.33682155609131,-0.628050148487091,6.64776086807251,2.9116039276123,0.243903994560242,-1.85976791381836,-1003.50006103516,11.1000003814697,-887.700012207031,0.128289502928536,-0.825571689357562,0.104473341675263,NLR
16.2333333333333,-6.47788858413696,-0.772800743579865,6.95401000976562,1.47866797447205,-0.518296003341675,-0.594515979290009,-1005.90002441406,8.10000038146973,-892.500061035156,0.133279839665089,-0.768707885132145,0.107834708417717,NLR
16.2666666666667,-6.33134317398071,-1.31112945079803,6.38338184356689,2.08842802047729,0.426831990480423,-0.640248000621796,-1008.30004882812,5.10000038146973,-892.500061035156,0.181499837414505,-0.77118300603776,0.172279943163253,NLR
16.3,-7.99537706375122,-1.04914271831512,6.37680244445801,1.44817996025085,1.69970595836639,-0.716467976570129,-1010.70001220703,6.30000019073486,-899.700012207031,0.179718518171138,-0.856542469279099,0.165644087699152,NLR
16.3333333333333,-7.52164793014526,-0.837998330593109,6.88582181930542,-0.0533539988100529,1.80641400814056,0.548784017562866,-998.700012207031,3.30000019073486,-894.900024414062,0.155471794053642,-0.837437331465592,0.133805846921211,NLR
16.3666666666667,-7.81234550476074,-0.483897656202316,7.02339458465576,1.2347639799118,-0.0152439996600151,3.3460578918457,-989.100036621094,4.5,-887.700012207031,0.114929255001444,-0.837941929977886,0.0823046260597745,NLR
16.4,-7.02219867706299,-0.129797026515007,7.66221141815186,1.91312193870544,-1.00610399246216,2.18751406669617,-1008.30004882812,7.50000047683716,-882.900024414062,0.0751527547331238,-0.765820679079776,0.0275357634999243,NLR
16.4333333333333,-6.16984462738037,0.997104346752167,8.28487873077393,2.27897787094116,-1.6920839548111,1.86738991737366,-1005.90002441406,1.5,-897.300048828125,-0.0004335340031067,-0.670670668532851,-0.0872313490377515,NLR
16.4666666666667,-4.42147302627563,1.22499680519104,7.08261108398438,2.56099200248718,-3.06404399871826,2.17989206314087,-991.500061035156,3.90000009536743,-894.900024414062,-0.0384906940247338,-0.583448933785278,-0.152018689520034,NLR
16.5,-4.64039325714111,0.953439891338348,6.27033281326294,1.79117000102997,-0.137196004390717,1.70732796192169,-1001.10003662109,0.900000035762787,-894.900024414062,-0.0407904591958847,-0.617261593756403,-0.154920416037218,NLR
16.5333333333333,-5.95630788803101,1.26208162307739,6.60290002822876,1.38720393180847,-0.228659987449646,0.945127964019775,-998.700012207031,-6.90000009536743,-902.100036621094,-0.0565060769010979,-0.693377575836999,-0.181056681028718,NLR
16.5666666666667,-6.21410751342773,1.16398620605469,7.30153131484985,1.87501192092896,0.137196004390717,0.175305992364883,-1013.10003662109,-2.10000014305115,-882.900024414062,-0.0460121881695636,-0.69742068420564,-0.167508679365034,NLR
16.6,-4.96996974945068,0.114245310425758,7.53361082077026,3.72715783119202,-1.15854394435883,0.0304879993200302,-989.100036621094,-2.10000014305115,-887.700012207031,0.0224414003625652,-0.617170812447731,-0.0626089240773788,NLR
16.6333333333333,-6.08730125427246,0.164489313960075,8.05519104003906,8.10218620300293,-2.00458598136902,-7.61437797546387,-1001.10003662109,-3.30000019073486,-899.700012207031,0.0567868402342655,-0.636122102059772,-0.036388741893062,NLR
16.6666666666667,-7.04133892059326,1.59106028079987,7.29913854598999,13.4604520797729,-4.10825777053833,-11.4101333618164,-1008.30004882812,-2.70000004768372,-887.700012207031,0.0064024595265887,-0.723476669081031,-0.170504350781787,NLR
16.7,-7.03236675262451,2.4057309627533,5.50052261352539,14.6723499298096,-2.09605002403259,-10.122015953064,-998.700012207031,-8.70000076293945,-880.500061035156,-0.083612076593792,-0.830418363235173,-0.34594526038546,NLR
16.7333333333333,-7.24949264526367,2.71915793418884,5.10873889923096,12.408616065979,-1.20427596569061,-7.53053569793701,-1005.90002441406,-14.7000007629395,-868.500061035156,-0.136104606765076,-0.880215492429022,-0.447975074613898,NLR
16.7666666666667,-8.73946666717529,3.3107213973999,7.32545709609985,7.1418137550354,1.50153398513794,-4.67990779876709,-1001.10003662109,-17.7000007629395,-866.100036621094,-0.110366601093139,-0.844772763992845,-0.433921135915251,NLR
16.8,-7.69331502914429,3.50990295410156,8.17123126983643,4.45886993408203,-1.6768399477005,-1.88263392448425,-1003.50006103516,-13.5000009536743,-866.100036621094,-0.0890697434035165,-0.751641251917338,-0.415908254969721,NLR
16.8333333333333,-5.56392574310303,2.38539409637451,7.28179264068604,3.88721990585327,-1.37958192825317,-2.80489587783813,-1003.50006103516,-16.5,-868.500061035156,-0.0319006200901523,-0.660278779316099,-0.342238684190096,NLR
16.8666666666667,-6.04004764556885,2.36505722999573,8.21489524841309,3.15550804138184,-1.02897000312805,-3.16313004493713,-984.300048828125,-21.3000011444092,-875.700012207031,0.003211895944723,-0.627646224530473,-0.29773467736622,NLR
16.9,-5.03337287902832,1.58208811283112,8.09227657318115,3.39941191673279,-0.853663980960846,-4.1997218132019,-984.300048828125,-15.3000001907349,-856.500061035156,0.054423503938219,-0.572677421459176,-0.223939199131435,NLR
16.9333333333333,-4.26356315612793,0.394176214933395,7.31887722015381,4.47411394119263,-0.0762199983000755,-5.11436176300049,-993.900024414062,-13.5000009536743,-866.100036621094,0.128742389732654,-0.542799215432413,-0.10556695235638,NLR
16.9666666666667,-6.08670282363892,0.520982503890991,8.48106956481934,8.14029598236084,0.533540010452271,-7.38571786880493,-991.500061035156,-16.5,-863.700012207031,0.162760913155263,-0.601442254966634,-0.0782648196609146,NLR
17.0,-5.80318307876587,1.6024249792099,7.18190288543701,10.5717134475708,-1.37958192825317,-5.88418388366699,-967.500061035156,-21.3000011444092,-849.300048828125,0.120651258194635,-0.647976603181984,-0.182842066442413,NLR
17.0333333333333,-6.0992636680603,1.81955087184906,5.56930923461914,10.975679397583,-2.16464805603027,-5.0152759552002,-965.100036621094,-24.9000015258789,-832.500061035156,0.0777260814604155,-0.757149708623862,-0.278899847379762,NLR
17.0666666666667,-7.75312900543213,2.4655454158783,6.46472930908203,8.33846759796143,-1.75305998325348,-3.97868394851685,-977.100036621094,-16.5,-834.900024414062,0.0486891883531647,-0.816249193028294,-0.341673474398957,NLR
17.1,-6.41448545455933,2.63840866088867,6.11062860488892,3.59758400917053,-2.14940404891968,-1.87501192092896,-972.300048828125,-20.1000003814697,-834.900024414062,0.020626152227053,-0.778352250586293,-0.392272916092455,NLR
17.1333333333333,-6.77695989608765,2.32079482078552,6.94683265686035,1.04421401023865,-2.37806391716003,-0.282013982534409,-979.500061035156,-21.9000015258789,-827.700012207031,0.0574989814544169,-0.753775780879792,-0.342968165554256,NLR
17.1666666666667,-6.18061113357544,1.48758161067963,6.93905639648438,-0.487807989120483,-0.960371971130371,0.46494197845459,-957.900024414062,-15.3000001907349,-820.500061035156,0.119944364175852,-0.727283499575665,-0.249424037687371,NLR
17.2,-7.38706588745117,2.29148578643799,7.84643936157227,-1.37195992469788,-1.38720393180847,1.99696397781372,-962.700012207031,-24.9000015258789,-832.500061035156,0.100202115782438,-0.730368190851471,-0.273656340072029,NLR
17.2333333333333,-7.32725143432617,2.34830927848816,7.09218120574951,-3.63569402694702,-3.10977602005005,3.803377866745,-967.500061035156,-21.3000011444092,-844.500061035156,0.0718782401490064,-0.757164782574646,-0.304040026945291,NLR
17.2666666666667,-8.20532512664795,2.62345504760742,6.78892278671265,-7.88876962661743,-3.7728898525238,6.21192979812622,-974.700012207031,-19.5,-849.300048828125,0.0284053016516058,-0.811995239630922,-0.343888540822227,NLR
17.3,-6.69561243057251,1.04914271831512,5.84804391860962,-15.0229616165161,-5.84607410430908,16.9818153381348,-1010.70001220703,-20.7000007629395,-858.900024414062,0.0751651640572263,-0.824185123246825,-0.230396746587975,NLR
17.3333333333333,-6.77935266494751,1.4080286026001,6.6094799041748,-18.4528617858887,-4.28356409072876,20.9147682189941,-1022.70001220703,-15.9000005722046,-866.100036621094,0.0354395162166661,-0.786063545456851,-0.217257897269832,NLR
17.3666666666667,-4.80248975753784,-0.782370984554291,6.94204711914062,-21.5931262969971,-2.34757590293884,31.4255046844482,-1046.70007324219,-17.1000003814697,-894.900024414062,0.126593525380853,-0.658076741833908,0.0175496711669549,NLR
17.4,-2.2472231388092,-1.52945160865784,9.19704627990723,-23.0946598052979,-0.891773998737335,24.6647911071777,-1053.90002441406,-2.70000004768372,-902.100036621094,0.128465708063573,-0.361477093492348,0.140853810195419,NLR
17.4333333333333,-2.44520854949951,-0.644199967384338,9.14560604095459,-19.146463394165,-1.47104597091675,19.8629322052002,-1089.90002441406,-3.30000019073486,-916.500061035156,0.0739908003649322,-0.292201216169766,0.106399041037231,NLR
17.4666666666667,-2.98892045021057,-1.0276095867157,10.4710912704468,-13.1327056884766,0.0381099991500378,11.882698059082,-1092.30004882812,0.300000011920929,-926.100036621094,0.0473394026791917,-0.282580903882769,0.112499539978255,NLR
