seconds,sensor_accX_m_s_,sensor_accY_m_s_,sensor_accZ_m_s_,sensor_gyroX___s_,sensor_gyroY___s_,sensor_gyroZ___s_,sensor_magX__T_,sensor_magY__T_,sensor_magZ__T_,sensor_yaw___,sensor_pitch___,sensor_roll___,label3
0.0,4.0595965385437,-1.15920102596283,8.75083160400391,0.480185985565186,-0.175305992364883,0.37347799539566,-1277.10009765625,11.7000007629395,-822.900024414062,-3.12990617252057,0.431252804738861,0.131190441186406,ST
0.0333333333333333,4.28270387649536,-1.17415463924408,8.71673774719238,0.579271972179413,-0.0914639979600906,0.297257989645004,-1274.70007324219,18.9000015258789,-818.100036621094,-3.13437974412251,0.453040306933839,0.133127792127974,ST
0.0666666666666667,4.05600738525391,-1.16338813304901,8.76339244842529,0.243903994560242,-0.297257989645004,0.0609759986400604,-1262.70007324219,12.9000005722046,-822.900024414062,-3.13508307572523,0.430839593625266,0.13165036119635,ST
0.1,4.22528171539307,-1.16518247127533,8.88840484619141,0.411587983369827,-0.198172003030777,0.114329993724823,-1265.10009765625,11.1000003814697,-827.700012207031,-3.13636221716207,0.440691680658806,0.129758505394297,ST
0.133333333333333,4.3185920715332,-1.1735565662384,8.87823581695557,0.541162014007568,0.0685980021953583,-0.0381099991500378,-1279.5,9.90000057220459,-808.500061035156,-3.13797815666722,0.449151111692419,0.130432057788525,ST
0.166666666666667,4.13615846633911,-1.13288283348083,8.78372955322266,0.449698001146317,0.0685980021953583,-0.350611984729767,-1274.70007324219,17.7000007629395,-822.900024414062,-3.13569463353114,0.436977098338332,0.127217840505881,ST
0.2,3.90527534484863,-1.02701151371002,8.77954292297363,0.403965979814529,0.205793991684914,-0.0304879993200302,-1267.5,11.7000007629395,-818.100036621094,-3.1317667557735,0.415840275587537,0.115795283920716,ST
0.233333333333333,3.91125679016113,-1.02581524848938,8.79629039764404,0.365855991840363,0.0838419944047928,0.121951997280121,-1262.70007324219,8.70000076293945,-818.100036621094,-3.13339130763798,0.415723970570378,0.115544054273346,ST
0.266666666666667,4.00995063781738,-1.12630319595337,8.76399040222168,0.243903994560242,-0.0457319989800453,0.190549999475479,-1262.70007324219,2.10000014305115,-813.300048828125,-3.14017354055334,0.425975758653134,0.127443982140928,ST
0.3,4.01473569869995,-1.18791198730469,8.90634918212891,0.205793991684914,-0.114329993724823,0.160062000155449,-1265.10009765625,11.1000003814697,-813.300048828125,3.13922081006175,0.42039547927786,0.132344061664615,ST
0.333333333333333,3.60560584068298,-1.12570512294769,8.53849124908447,-0.198172003030777,2.12653803825378,0.434453994035721,-1260.30004882812,5.70000028610229,-825.300048828125,3.13814283781674,0.39270435682099,0.131539221083669,ST
0.366666666666667,3.55895066261292,-1.28540921211243,8.71673774719238,-0.78506600856781,3.55185198783875,1.6615959405899,-1267.5,7.50000047683716,-822.900024414062,3.12654911568015,0.377450047111981,0.148420896169227,ST
0.4,3.42257404327393,-1.50552582740784,9.01162242889404,-1.03659200668335,3.07928800582886,2.11891603469849,-1253.10009765625,10.5,-827.700012207031,3.11099018625064,0.352625700798073,0.16826993568662,ST
0.433333333333333,3.26526236534119,-1.53603112697601,9.32026386260986,-0.800309956073761,2.4847719669342,2.14940404891968,-1245.90002441406,6.90000009536743,-830.100036621094,3.10163381943296,0.328039431307965,0.165767204152505,ST
0.466666666666667,3.35917091369629,-1.50552582740784,9.258056640625,-0.243903994560242,1.98171997070312,1.79117000102997,-1250.70007324219,8.10000038146973,-839.700012207031,3.09381853880574,0.339884988415385,0.162552785499047,ST
0.5,3.66960716247559,-1.32548487186432,9.33701133728027,0.533540010452271,1.48628997802734,1.42531394958496,-1243.5,11.1000003814697,-830.100036621094,3.09117880728743,0.368059249984677,0.140980095025888,ST
0.533333333333333,3.50212717056274,-1.1675751209259,9.35076904296875,1.19665396213531,-0.121951997280121,0.792688012123108,-1243.5,14.1000003814697,-832.500061035156,3.08928735843542,0.35594823863485,0.122778333595024,ST
0.566666666666667,3.28559923171997,-1.22559499740601,9.14859676361084,1.50153398513794,0.419209986925125,0.602137982845306,-1236.30004882812,7.50000047683716,-851.700012207031,3.07906754715799,0.341195005426451,0.130842221281915,ST
0.6,3.40044283866882,-1.32428848743439,8.94821929931641,1.21951997280121,0.884151995182037,0.396344006061554,-1260.30004882812,11.7000007629395,-842.100036621094,3.06961202184536,0.357813665505528,0.144853741542787,ST
0.633333333333333,3.08940839767456,-1.24353921413422,8.94582653045654,0.685979962348938,1.2576299905777,0.160062000155449,-1245.90002441406,11.7000007629395,-832.500061035156,3.07076150675023,0.327577093732136,0.136970909257628,ST
0.666666666666667,3.02421092987061,-1.23636150360107,8.93326568603516,0.533540010452271,0.746955990791321,0.358233988285065,-1238.70007324219,6.90000009536743,-834.900024414062,3.06783256787747,0.322207053257921,0.136743402239128,ST
0.7,2.64857697486877,-1.32369041442871,9.03973484039307,0.861285984516144,0.937505960464478,0.975615978240967,-1224.30004882812,8.70000076293945,-834.900024414062,3.05838600207835,0.280645964245094,0.144253438581069,ST
0.733333333333333,2.56065011024475,-1.59285473823547,8.73348522186279,0.693601965904236,1.21189796924591,1.2347639799118,-1236.30004882812,12.9000005722046,-842.100036621094,3.03989317158188,0.278366440638617,0.179521626980405,ST
0.766666666666667,2.99131298065186,-2.19458651542664,8.90455436706543,0.121951997280121,1.21189796924591,0.830797970294952,-1226.70007324219,5.10000038146973,-837.300048828125,3.01797684450345,0.31266020039042,0.241288379365679,ST
0.8,2.84536600112915,-2.60192203521729,9.85919094085693,-0.350611984729767,0.990859985351562,0.0914639979600906,-1231.5,10.5,-851.700012207031,3.01479091082845,0.270757593906506,0.258417889034975,ST
0.833333333333333,3.60201692581177,-2.35130000114441,9.31368446350098,-0.0533539988100529,0.190549999475479,-1.12805593013763,-1229.10009765625,9.90000057220459,-842.100036621094,3.02598622501578,0.358190116308958,0.246746155239889,ST
0.866666666666667,3.12230634689331,-1.52526462078094,8.34050559997559,1.21951997280121,0.213415995240211,-1.44817996025085,-1226.70007324219,14.7000007629395,-858.900024414062,3.05634175026769,0.352975370681518,0.178369329739873,ST
0.9,3.09658622741699,-1.41640257835388,9.16115760803223,1.63872992992401,0.823175966739655,-0.396344006061554,-1236.30004882812,12.3000001907349,-846.900024414062,3.06531722711717,0.321336258852205,0.150462252891175,ST
0.933333333333333,2.27473783493042,-1.45588004589081,9.41417217254639,1.02897000312805,0.990859985351562,-0.129574000835419,-1231.5,9.30000019073486,-849.300048828125,3.06509828229923,0.233451913386801,0.151513401706558,ST
0.966666666666667,1.93738508224487,-1.12630319595337,10.1355323791504,0.205793991684914,0.724089980125427,0.0304879993200302,-1233.90002441406,12.9000005722046,-846.900024414062,3.07373502008415,0.186865249420098,0.110628757271304,ST
1.0,2.57141661643982,-1.04136693477631,9.47458457946777,0.236281991004944,-0.0609759986400604,0.403965979814529,-1221.90002441406,12.3000001907349,-854.100036621094,3.07091055257917,0.262904804901889,0.109261208252739,ST
1.03333333333333,3.01763129234314,-1.03717994689941,8.80945014953613,0.0990860015153885,-0.716467976570129,0.594515979290009,-1219.5,8.10000038146973,-846.900024414062,3.06362776608884,0.328657628455348,0.117374123029193,ST
1.06666666666667,2.83699202537537,-0.931308627128601,8.47987270355225,0.0381099991500378,0.442075997591019,0.899396002292633,-1231.5,11.1000003814697,-830.100036621094,3.06023208570963,0.320170176124187,0.10986226056358,ST
1.1,2.55347228050232,-1.13527536392212,9.15816688537598,0.342989981174469,1.2576299905777,1.01372599601746,-1229.10009765625,8.10000038146973,-846.900024414062,3.04987818887027,0.267912084152275,0.123057404981846,ST
1.13333333333333,2.2472231388092,-1.18611752986908,9.16474628448486,0.472563982009888,1.09756803512573,0.983237981796265,-1229.10009765625,8.70000076293945,-854.100036621094,3.04219876181729,0.236683464666257,0.128192992450087,ST
1.16666666666667,2.26277494430542,-1.11673295497894,9.59720420837402,0.640248000621796,0.289635986089706,1.18903195858002,-1229.10009765625,9.90000057220459,-854.100036621094,3.03592856451687,0.229348576549516,0.1152637380561,ST
1.2,2.02830290794373,-0.888840436935425,9.78801155090332,0.914639949798584,-0.25152599811554,1.50153398513794,-1217.10009765625,12.3000001907349,-842.100036621094,3.02983532835816,0.203926565138791,0.0897248546172571,ST
1.23333333333333,2.02710652351379,-0.992917358875275,9.79817962646484,1.36433792114258,0.282013982534409,2.00458598136902,-1214.70007324219,16.5,-834.900024414062,3.01223253826561,0.202173801795236,0.0992488994308636,ST
1.26666666666667,2.23226952552795,-1.00308573246002,9.10074520111084,1.16616594791412,0.419209986925125,1.89025592803955,-1209.90002441406,3.90000009536743,-854.100036621094,2.99604196970557,0.237765573164953,0.108435124500459,ST
1.3,2.28370976448059,-0.921140193939209,9.11091327667236,0.815553963184357,0.114329993724823,1.42531394958496,-1217.10009765625,11.1000003814697,-844.500061035156,2.98596129715652,0.243928317035806,0.0999808818920023,ST
1.33333333333333,2.37343120574951,-0.844577848911285,9.38426494598389,0.960371971130371,-0.152439996600151,1.03659200668335,-1212.30004882812,12.9000005722046,-844.500061035156,2.97931233042107,0.246854708546848,0.0885952830585643,ST
1.36666666666667,2.08213567733765,-0.943869590759277,9.75571155548096,1.11281192302704,-0.37347799539566,0.503051996231079,-1219.5,12.3000001907349,-839.700012207031,2.9726539553935,0.210192692486519,0.0946605733041795,ST
1.4,1.85424315929413,-0.742295444011688,9.71144962310791,1.02897000312805,0.350611984729767,0.472563982009888,-1224.30004882812,11.7000007629395,-846.900024414062,2.9722075366759,0.187640987763117,0.0748023032538326,ST
1.43333333333333,1.89970207214355,-0.71059387922287,9.91003227233887,1.13567793369293,0.975615978240967,0.67835795879364,-1214.70007324219,12.3000001907349,-856.500061035156,2.96754583863858,0.187146499088066,0.0698413466486837,ST
1.46666666666667,1.62874329090118,-0.634031534194946,9.14620399475098,0.83841997385025,1.10518991947174,0.46494197845459,-1212.30004882812,13.5000009536743,-837.300048828125,2.96423418734292,0.173947388151038,0.0678832409124742,ST
1.5,1.65745413303375,-0.651975810527802,9.50987529754639,0.0685980021953583,0.846041977405548,0.213415995240211,-1214.70007324219,17.1000003814697,-851.700012207031,2.96301216188065,0.17068657186373,0.0683735717007731,ST
1.53333333333333,2.2071475982666,-0.406737208366394,9.58763408660889,-2.37044191360474,0.472563982009888,-1.05183601379395,-1209.90002441406,12.9000005722046,-851.700012207031,2.97806116234642,0.224887231781046,0.0462986673879143,ST
1.56666666666667,1.79562520980835,-1.07067596912384,9.39682579040527,-0.830797970294952,0.0609759986400604,-0.548784017562866,-1209.90002441406,9.30000019073486,-846.900024414062,2.96914046324062,0.187886259947837,0.11425225298652,ST
1.6,1.81117689609528,-1.11314404010773,9.34957313537598,-0.495429992675781,0.457319974899292,-0.243903994560242,-1212.30004882812,12.3000001907349,-863.700012207031,2.97086109252163,0.189284351187636,0.119225089749628,ST
1.63333333333333,1.69154834747314,-1.09400343894958,9.27181434631348,-0.503051996231079,0.907018005847931,-0.228659987449646,-1224.30004882812,8.10000038146973,-851.700012207031,2.97393976325684,0.177808383735329,0.118230607916294,ST
1.66666666666667,1.65565979480743,-1.20525813102722,9.16355037689209,-0.236281991004944,0.815553963184357,-0.114329993724823,-1207.5,13.5000009536743,-854.100036621094,2.973662725749,0.175878343328396,0.131070591546923,ST
1.7,1.65984678268433,-1.18851006031036,9.47458457946777,-0.0533539988100529,0.434453994035721,-0.182927995920181,-1200.30004882812,6.90000009536743,-863.700012207031,2.97640696539839,0.171431607157491,0.124863118351497,ST
1.73333333333333,1.56892895698547,-1.05811488628387,9.21379470825195,0.365855991840363,0.144817993044853,-0.0838419944047928,-1207.5,14.1000003814697,-849.300048828125,2.97855702097503,0.167370801922757,0.11373503564949,ST
1.76666666666667,1.25071692466736,-0.938486337661743,9.37589073181152,0.655492007732391,0.221037998795509,0.0304879993200302,-1209.90002441406,17.1000003814697,-856.500061035156,2.98010472684205,0.131866359420173,0.0987447063534718,ST
1.8,0.764426708221436,-0.69863098859787,9.15218544006348,1.12805593013763,0.503051996231079,-0.0457319989800453,-1185.90002441406,8.10000038146973,-856.500061035156,2.98256567371337,0.0826269754955361,0.0744063025628017,ST
1.83333333333333,0.762632310390472,-0.83261501789093,9.66479396820068,0.358233988285065,0.762199997901917,0.541162014007568,-1207.5,9.90000057220459,-851.700012207031,2.97800923780567,0.0770818484747171,0.0853135112117922,ST
1.86666666666667,1.12869584560394,-1.15082705020905,9.93575286865234,-0.46494197845459,-0.571649968624115,-0.0304879993200302,-1209.90002441406,8.70000076293945,-863.700012207031,2.97522376354386,0.113119114543213,0.115920250151196,ST
1.9,1.11374223232269,-1.02641332149506,9.30710506439209,-1.05945801734924,-0.647870004177094,-0.0457319989800453,-1209.90002441406,9.90000057220459,-861.300048828125,2.97642623208476,0.119484870179099,0.111717479093415,ST
1.93333333333333,0.931906759738922,-1.00846910476685,9.34299278259277,-0.922261953353882,-0.205793991684914,0.282013982534409,-1207.5,12.9000005722046,-844.500061035156,2.97528199222414,0.0993146376826859,0.109205519038119,ST
1.96666666666667,1.13348090648651,-1.29737210273743,9.65043830871582,-0.731711983680725,-0.0838419944047928,0.693601965904236,-1200.30004882812,15.9000005722046,-868.500061035156,2.9682953707484,0.115733353211692,0.134841580785184,ST
2.0,1.19568777084351,-1.35957896709442,9.36811542510986,-0.434453994035721,0.114329993724823,0.769822001457214,-1197.90002441406,8.10000038146973,-854.100036621094,2.9623315379869,0.125176255063428,0.144960044628619,ST
2.03333333333333,1.08263874053955,-1.3458217382431,9.63249397277832,-0.327746003866196,0.25152599811554,0.67835795879364,-1202.70007324219,12.3000001907349,-844.500061035156,2.95873057118188,0.110359188972949,0.139551145923805,ST
2.06666666666667,0.897214472293854,-1.21602463722229,9.46022891998291,-0.144817993044853,0.274392008781433,0.182927995920181,-1197.90002441406,8.70000076293945,-866.100036621094,2.9589014154674,0.0933555976364759,0.128170425721996,ST
2.1,0.667527556419373,-1.16637873649597,9.97283744812012,-0.228659987449646,0.327746003866196,0.213415995240211,-1212.30004882812,13.5000009536743,-863.700012207031,2.95871961224119,0.0659977791826386,0.116938630147248,ST
2.13333333333333,1.82912123203278,-1.47502052783966,10.2557592391968,-0.548784017562866,-1.28811800479889,-0.335367977619171,-1197.90002441406,10.5,-870.900024414062,2.9572785028463,0.176516887820919,0.143629021854397,ST
2.16666666666667,1.86560797691345,-1.55935871601105,10.6349821090698,-0.960371971130371,-1.6615959405899,-0.990859985351562,-1200.30004882812,13.5000009536743,-856.500061035156,2.96324230656151,0.174984776667769,0.147016560866634,ST
2.2,1.98404026031494,-1.29438138008118,9.93993949890137,-0.83841997385025,-0.731711983680725,-0.884151995182037,-1197.90002441406,13.5000009536743,-870.900024414062,2.97261574913308,0.196695801136523,0.130818671767301,ST
2.23333333333333,1.47083353996277,-1.12989211082458,9.94053840637207,-0.259148001670837,1.12805593013763,0.144817993044853,-1205.10009765625,5.10000038146973,-873.300048828125,2.97571513811368,0.144417682565957,0.113775387854917,ST
2.26666666666667,1.23097825050354,-1.08921837806702,10.4292211532593,0.304879993200302,2.11129403114319,1.08232402801514,-1202.70007324219,15.9000005722046,-858.900024414062,2.97089736481331,0.113253998317182,0.103784023793392,ST
2.3,0.709397554397583,-0.87388688325882,10.2563571929932,0.518296003341675,1.83690190315247,1.71494996547699,-1207.5,21.9000015258789,-854.100036621094,2.9613776382143,0.0656864682942397,0.0844103479017742,ST
2.33333333333333,0.631639003753662,-0.946262180805206,9.99317455291748,0.388722002506256,2.27135586738586,1.89787793159485,-1197.90002441406,14.7000007629395,-854.100036621094,2.94902365206704,0.0586447536682207,0.0938257424980417,ST
2.36666666666667,0.83261501789093,-1.26806306838989,10.3951263427734,-0.259148001670837,1.6844619512558,0.792688012123108,-1190.70007324219,14.7000007629395,-875.700012207031,2.94317829065979,0.076111465398426,0.121685583639387,ST
2.4,0.958225011825562,-1.80878436565399,9.67137336730957,-0.243903994560242,0.899396002292633,0.243903994560242,-1183.5,14.7000007629395,-866.100036621094,2.93731360204469,0.0953058045469091,0.184804627737698,ST
2.43333333333333,1.58866775035858,-2.38539409637451,9.79219818115234,-1.28049600124359,-0.259148001670837,-0.175305992364883,-1193.10009765625,17.1000003814697,-880.500061035156,2.93231804072526,0.156350484906694,0.240688919555697,ST
2.46666666666667,2.05282664299011,-2.40931987762451,8.63598823547363,-1.22714197635651,-0.945127964019775,-0.419209986925125,-1193.10009765625,17.7000007629395,-854.100036621094,2.92883077704798,0.226291016015366,0.273875027867809,ST
2.5,1.84586918354034,-2.56543517112732,7.27102613449097,-0.480185985565186,0.670735955238342,0.175305992364883,-1188.30004882812,19.5,-866.100036621094,2.91499713268525,0.233740570467624,0.339694662644885,ST
2.53333333333333,-0.0269164331257343,-2.89501190185547,8.75561714172363,0.327746003866196,2.4847719669342,2.57623600959778,-1183.5,15.9000005722046,-868.500061035156,2.9054910770751,-0.0067840262362087,0.318921452618238,ST
2.56666666666667,-0.835007607936859,-3.24851441383362,9.40041446685791,0.221037998795509,3.44514393806458,3.89484190940857,-1188.30004882812,20.7000007629395,-870.900024414062,2.88740747253962,-0.0911735994071715,0.3318687273547,ST
2.6,-1.4881796836853,-4.51298856735229,10.3670139312744,-2.78202986717224,2.94971394538879,3.44514393806458,-1185.90002441406,14.1000003814697,-868.500061035156,2.87938534310616,-0.137726644270799,0.414487391652436,ST
2.63333333333333,-1.64070618152618,-3.53083801269531,10.0021467208862,0.121951997280121,1.61586391925812,4.08539199829102,-1176.30004882812,18.3000011444092,-875.700012207031,2.84608443733262,-0.15834598754736,0.338845219908925,ST
2.66666666666667,-1.41700065135956,-3.02720165252686,9.41656494140625,1.34147191047668,0.861285984516144,4.48935794830322,-1173.90002441406,21.3000011444092,-878.100036621094,2.81542945597925,-0.14620679885909,0.30791948908437,ST
2.7,-0.769810020923615,-2.70061540603638,8.89737701416016,1.63110792636871,0.0609759986400604,4.42838191986084,-1171.5,20.7000007629395,-882.900024414062,2.78562474666245,-0.085430442748,0.291332430694228,ST
2.73333333333333,-0.837400138378143,-2.34412240982056,8.73827075958252,1.56251001358032,0.510673999786377,3.85673189163208,-1171.5,15.9000005722046,-868.500061035156,2.75831668927763,-0.09482416039128,0.258988829114987,ST
2.76666666666667,-0.730332553386688,-2.37582397460938,8.9954719543457,1.54726600646973,1.18140995502472,2.88111591339111,-1171.5,12.3000001907349,-868.500061035156,2.74175453324501,-0.0817100572753171,0.255190358549972,ST
2.8,-0.837998330593109,-1.95473122596741,9.16594314575195,2.04269599914551,0.983237981796265,2.15702605247498,-1169.10009765625,19.5,-887.700012207031,2.72578379284037,-0.0915557471327121,0.206644005447563,ST
2.83333333333333,-0.74349170923233,-1.98104953765869,9.31368446350098,2.62959003448486,0.594515979290009,1.53964400291443,-1157.10009765625,17.1000003814697,-882.900024414062,2.71757695691315,-0.0795852309166666,0.204811878701311,ST
2.86666666666667,-1.02880585193634,-1.48399269580841,9.72042179107666,2.12653803825378,0.167683988809586,0.46494197845459,-1169.10009765625,14.1000003814697,-870.900024414062,2.71084607341923,-0.104455439604377,0.14817576725749,ST
2.9,-0.343932211399078,-1.39187872409821,9.4674072265625,1.89787793159485,-0.518296003341675,0.586893975734711,-1152.30004882812,15.9000005722046,-882.900024414062,2.70662540744211,-0.0357441249245643,0.142662056580158,ST
2.93333333333333,-0.1214230209589,-1.18312680721283,8.88840484619141,2.17989206314087,-0.670735955238342,0.617381989955902,-1161.90002441406,15.9000005722046,-873.300048828125,2.70172211143694,-0.01270855988611,0.128625648000106,ST
2.96666666666667,0.360082060098648,-1.28002595901489,8.51456546783447,1.87501192092896,-0.228659987449646,1.28049600124359,-1166.70007324219,12.9000005722046,-870.900024414062,2.69212683180796,0.0414208924854119,0.145890219785034,ST
3.0,0.384605944156647,-1.28540921211243,8.25078392028809,1.02897000312805,0.259148001670837,1.44055795669556,-1159.5,17.7000007629395,-873.300048828125,2.68194786274826,0.0451664962035497,0.152805743029971,ST
3.03333333333333,0.142956167459488,-1.63173401355743,8.90515232086182,0.297257989645004,0.952749967575073,0.975615978240967,-1173.90002441406,20.1000003814697,-878.100036621094,2.67557881207814,0.0141054502115064,0.180498679035491,ST
3.06666666666667,-0.154320880770683,-1.87458002567291,8.93147087097168,0.25152599811554,0.846041977405548,0.975615978240967,-1161.90002441406,18.9000015258789,-878.100036621094,2.6702034229467,-0.0184323425650977,0.206207544492197,ST
3.1,-0.497654944658279,-2.1090521812439,9.88790130615234,0.37347799539566,0.426831990480423,1.21951997280121,-1152.30004882812,16.5,-870.900024414062,2.66256418907458,-0.05013564504765,0.209379006087294,ST
3.13333333333333,-1.01863753795624,-2.06837844848633,10.3915376663208,0.868907988071442,-0.152439996600151,1.28049600124359,-1166.70007324219,19.5,-885.300048828125,2.65240143592669,-0.0958012604030102,0.194816588413043,ST
3.16666666666667,-0.502440094947815,-1.78964376449585,10.1726179122925,1.65397393703461,-0.830797970294952,1.91312193870544,-1142.70007324219,15.3000001907349,-875.700012207031,2.63657117027479,-0.0480219535245794,0.17121823854066,ST
3.2,-0.24882747232914,-1.4821982383728,9.66898155212402,1.61586391925812,-0.960371971130371,1.95885396003723,-1166.70007324219,14.7000007629395,-882.900024414062,2.62129516107327,-0.0244479902620159,0.149348097088954,ST
3.23333333333333,-0.104675017297268,-1.35180306434631,9.39024639129639,1.27287399768829,-0.152439996600151,1.99696397781372,-1157.10009765625,16.5,-875.700012207031,2.6066270208691,-0.0113344107893846,0.140762344933552,ST
3.26666666666667,-0.318810194730759,-1.44989860057831,9.40041446685791,0.731711983680725,-0.213415995240211,1.69970595836639,-1157.10009765625,14.1000003814697,-885.300048828125,2.59446996727693,-0.0334579231504922,0.151594724077842,ST
3.3,-0.528160214424133,-1.16877138614655,9.41716289520264,-0.0228659994900227,-0.358233988285065,1.48628997802734,-1169.10009765625,17.7000007629395,-880.500061035156,2.58272712672423,-0.0551244253698862,0.123606302674795,ST
3.33333333333333,-0.382213354110718,-2.44700288772583,9.5206413269043,-2.59148001670837,-0.396344006061554,0.426831990480423,-1152.30004882812,21.3000011444092,-875.700012207031,2.58464883675639,-0.0385179699023283,0.254977606151309,ST
3.36666666666667,-0.256603330373764,-1.82493424415588,9.55234336853027,-0.304879993200302,-1.08994603157043,1.45580196380615,-1164.30004882812,20.7000007629395,-899.700012207031,2.57113189821334,-0.0251094944759181,0.189767436406314,ST
3.4,-0.265575468540192,-1.61259341239929,10.2754983901978,0.381099998950958,-1.15854394435883,2.20275783538818,-1171.5,13.5000009536743,-880.500061035156,2.55402254281774,-0.0241377483249518,0.155186307106924,ST
3.43333333333333,-0.0215331465005875,-1.13946235179901,9.46860313415527,1.30336201190948,-0.342989981174469,2.04269599914551,-1166.70007324219,12.9000005722046,-878.100036621094,2.53929198477482,-0.0022680247954775,0.117787173072969,ST
3.46666666666667,0.219518467783928,-0.797922730445862,8.88541412353516,1.50153398513794,0.129574000835419,1.99696397781372,-1178.70007324219,15.9000005722046,-887.700012207031,2.5257850989702,0.0238529906174285,0.0872707831769628,ST
3.5,-0.080151155591011,-1.04256319999695,9.96566009521484,0.78506600856781,0.381099998950958,1.85976791381836,-1161.90002441406,23.1000003814697,-875.700012207031,2.51313847036631,-0.008722834759329,0.102715481155417,ST
3.53333333333333,0.17525589466095,-1.29198884963989,9.46381855010986,0.3125019967556,0.289635986089706,0.83841997385025,-1152.30004882812,16.5,-873.300048828125,2.50747989266473,0.0174344633281043,0.134891765651888,ST
3.56666666666667,0.0119628589600325,-1.34821426868439,9.99556732177734,0.342989981174469,0.0304879993200302,0.137196004390717,-1154.70007324219,21.9000015258789,-882.900024414062,2.50656902691783,0.001235086788374,0.13348550497365,ST
3.6,-0.179442897439003,-1.4421226978302,10.030858039856,0.807931959629059,-0.274392008781433,-0.381099998950958,-1152.30004882812,13.5000009536743,-875.700012207031,2.50904545363106,-0.0169871885439482,0.141324992107828,ST
3.63333333333333,-0.404942780733109,-1.20107114315033,9.27540302276611,1.15854394435883,-0.243903994560242,-0.754577994346619,-1161.90002441406,17.7000007629395,-885.300048828125,2.51385575272615,-0.0424692982036255,0.126922179973681,ST
3.66666666666667,-0.356493204832077,-1.07306849956512,9.1031379699707,0.830797970294952,-0.0152439996600151,-0.884151995182037,-1164.30004882812,20.7000007629395,-878.100036621094,2.51969151271298,-0.0386980923816419,0.116036731503403,ST
3.7,-0.657957255840302,-1.10477006435394,9.64266300201416,0.602137982845306,-0.228659987449646,-0.6250039935112,-1145.10009765625,14.7000007629395,-875.700012207031,2.52389175480179,-0.0669341490425913,0.113115286809342,ST
3.73333333333333,-0.955234348773956,-0.957028746604919,9.6103630065918,0.67835795879364,-0.160062000155449,0.0609759986400604,-1159.5,19.5,-868.500061035156,2.52254352167749,-0.0981707807450824,0.098130027270418,ST
3.76666666666667,-0.861325860023499,-1.04675018787384,9.7359733581543,0.685979962348938,0.198172003030777,0.602137982845306,-1152.30004882812,19.5,-868.500061035156,2.5193802633483,-0.0882375825894845,0.105779344190545,ST
3.8,-0.742893576622009,-0.968991637229919,9.97283744812012,0.419209986925125,-0.129574000835419,0.716467976570129,-1166.70007324219,15.3000001907349,-885.300048828125,2.51382016922555,-0.0740197939009137,0.0961124132212344,ST
3.83333333333333,-0.668125689029694,-1.08921837806702,9.47219181060791,0.266770005226135,-0.396344006061554,0.0990860015153885,-1152.30004882812,14.1000003814697,-878.100036621094,2.51424325073051,-0.0693304180411078,0.113858883037101,ST
3.86666666666667,-0.757847130298615,-1.15082705020905,9.75331974029541,0.282013982534409,-0.0076219998300075,-0.137196004390717,-1164.30004882812,22.5,-882.900024414062,2.5156145952972,-0.0769289312154646,0.116958507643833,ST
3.9,-0.509617805480957,-1.11314404010773,9.86457347869873,0.274392008781433,0.182927995920181,-0.586893975734711,-1159.5,15.9000005722046,-866.100036621094,2.51995692359694,-0.0516134351202713,0.111967202719758,ST
3.93333333333333,-0.552684128284454,-1.12749946117401,9.92558479309082,0.693601965904236,-0.121951997280121,-1.10518991947174,-1154.70007324219,13.5000009536743,-875.700012207031,2.527702607205,-0.0548170652149631,0.112003117815313,ST
3.96666666666667,-0.534141659736633,-1.10237753391266,9.36871337890625,1.05183601379395,-0.0914639979600906,-1.75305998325348,-1159.5,18.3000011444092,-878.100036621094,2.5402418630614,-0.0560416753632746,0.115432351234995,ST
4.0,-1.04914271831512,-0.997702479362488,9.36273193359375,0.83841997385025,-0.0076219998300075,-1.78354799747467,-1154.70007324219,17.7000007629395,-878.100036621094,2.55252528399144,-0.110252359443282,0.105105033306186,ST
4.03333333333333,-0.863718450069427,-0.822446584701538,9.84124660491943,0.518296003341675,-0.6250039935112,-0.731711983680725,-1161.90002441406,15.9000005722046,-894.900024414062,2.5555961113166,-0.0861827194291706,0.0827039721249912,ST
4.06666666666667,-0.718369722366333,-0.998300611972809,9.66658878326416,0.487807989120483,-0.495429992675781,-0.571649968624115,-1161.90002441406,18.3000011444092,-870.900024414062,2.56144145370995,-0.0728783027875699,0.102047517356909,ST
4.1,-0.877475738525391,-0.878672003746033,9.86277961730957,0.259148001670837,-0.983237981796265,-0.327746003866196,-1149.90002441406,15.3000001907349,-880.500061035156,2.56214240057195,-0.0865139352994942,0.0885502894594895,ST
4.13333333333333,-0.472532957792282,-0.879270195960999,9.44587421417236,0.152439996600151,-1.44055795669556,-0.663114011287689,-1166.70007324219,16.5,-885.300048828125,2.56611796902732,-0.0474807670602644,0.0925637928578642,ST
4.16666666666667,-0.279930919408798,-1.22439861297607,9.5984001159668,0.594515979290009,-0.937505960464478,-0.724089980125427,-1169.10009765625,15.9000005722046,-875.700012207031,2.57169384424805,-0.0273084413461881,0.125596939514744,ST
4.2,-0.351708054542542,-1.26806306838989,9.31846904754639,0.586893975734711,-0.564027965068817,-0.945127964019775,-1173.90002441406,5.70000028610229,-868.500061035156,2.57806284305093,-0.0361126084196087,0.134208126646279,ST
4.23333333333333,-0.226696193218231,-1.04854464530945,10.0499982833862,-3.15550804138184,0.182927995920181,-1.82927989959717,-1171.5,3.90000009536743,-880.500061035156,2.58984984004898,-0.0224906187378854,0.109706366115109,ST
4.26666666666667,-0.420494496822357,-1.23995041847229,9.89448070526123,-0.0076219998300075,-0.0685980021953583,-0.0533539988100529,-1166.70007324219,8.70000076293945,-897.300048828125,2.59063433664236,-0.0418530318738659,0.124561339432255,ST
4.3,-0.201574176549911,-1.0395724773407,9.78561878204346,0.975615978240967,0.137196004390717,0.236281991004944,-1171.5,18.9000015258789,-868.500061035156,2.58861177407541,-0.0209063570967639,0.104266232959745,ST
4.33333333333333,-0.111852735280991,-0.887644171714783,9.48176193237305,1.01372599601746,0.137196004390717,0.144817993044853,-1166.70007324219,16.5,-875.700012207031,2.58759725218264,-0.0120792621845312,0.0916756323025436,ST
4.36666666666667,-0.321202784776688,-0.695042133331299,9.37888145446777,0.78506600856781,0.396344006061554,0.114329993724823,-1164.30004882812,16.5,-870.900024414062,2.58672427633688,-0.0346895888056701,0.072727142183784,ST
4.4,-0.324791640043259,-0.626853823661804,9.16594314575195,1.2500079870224,0.442075997591019,0.228659987449646,-1164.30004882812,14.1000003814697,-882.900024414062,2.58536620188619,-0.0361255042347154,0.0661267297928402,ST
4.43333333333333,-0.0293090064078569,-0.623264968395233,9.09416580200195,1.31860601902008,-0.0685980021953583,0.175305992364883,-1161.90002441406,13.5000009536743,-868.500061035156,2.58422964865671,-0.0033861976727174,0.0661248169741629,ST
4.46666666666667,-0.0592161528766155,-0.444420218467712,9.65522384643555,1.46342396736145,-0.335367977619171,0.0304879993200302,-1157.10009765625,18.9000015258789,-870.900024414062,2.58385574305259,-0.0055264960149488,0.0436275433448291,ST
4.5,-0.111254595220089,-0.840988993644714,9.64505577087402,-0.0990860015153885,0.746955990791321,-0.830797970294952,-1152.30004882812,10.5,-873.300048828125,2.59726865243969,-0.0126632632801031,0.0871664335038266,ST
4.53333333333333,-0.264977335929871,-1.00069320201874,9.92139720916748,-0.533540010452271,0.685979962348938,-0.937505960464478,-1169.10009765625,12.3000001907349,-866.100036621094,2.60582514451428,-0.0275597962577289,0.101469919585959,ST
4.56666666666667,0.0155517170205712,-1.15501403808594,9.75511360168457,-0.853663980960846,0.160062000155449,-0.731711983680725,-1152.30004882812,12.3000001907349,-880.500061035156,2.611174839403,0.0012190655676257,0.119195848683576,ST
4.6,0.061608724296093,-1.08742392063141,9.19405555725098,-1.02134799957275,-0.411587983369827,-0.419209986925125,-1161.90002441406,11.7000007629395,-882.900024414062,2.61375278489691,0.0074038783525146,0.119503209281942,ST
4.63333333333333,-0.158507883548737,-0.914560616016388,9.05708122253418,-0.716467976570129,-0.46494197845459,0.0457319989800453,-1157.10009765625,11.1000003814697,-892.500061035156,2.61294410542938,-0.0164476629770634,0.102004733001258,ST
4.66666666666667,0.0628050118684769,-0.887046039104462,9.06186580657959,-0.403965979814529,-0.701223969459534,0.647870004177094,-1157.10009765625,23.7000007629395,-873.300048828125,2.60799744256148,0.00780435206623,0.0983209048079583,ST
4.7,0.146545022726059,-1.50672209262848,9.47757530212402,-0.442075997591019,-0.0990860015153885,0.381099998950958,-1149.90002441406,17.1000003814697,-880.500061035156,2.60464553301405,0.0152755083599014,0.157947839840794,ST
4.73333333333333,-0.428868502378464,-1.40922486782074,9.93156623840332,-0.762199997901917,0.823175966739655,0.282013982534409,-1149.90002441406,20.7000007629395,-875.700012207031,2.60316996112241,-0.0437336043313278,0.142400193726534,ST
4.76666666666667,-0.843381583690643,-1.49595558643341,10.6176357269287,-0.525918006896973,0.335367977619171,0.602137982845306,-1152.30004882812,17.1000003814697,-870.900024414062,2.59866192402844,-0.0790532582039108,0.140822643973068,ST
4.8,-0.163293033838272,-1.56294763088226,10.2270488739014,-0.525918006896973,-0.716467976570129,0.518296003341675,-1142.70007324219,18.9000015258789,-875.700012207031,2.59481954102102,-0.015210286763566,0.152454856359884,ST
4.83333333333333,0.0945065915584564,-1.62754702568054,9.38845252990723,-0.503051996231079,-1.34147191047668,0.0685980021953583,-1154.70007324219,12.3000001907349,-880.500061035156,2.59261193850417,0.012097038280715,0.172455821902469,ST
4.86666666666667,-0.0167480036616325,-1.57849931716919,9.1091194152832,-0.78506600856781,-1.16616594791412,0.0609759986400604,-1152.30004882812,12.3000001907349,-868.500061035156,2.59082468640517,0.0002726228474955,0.17295035039106,ST
4.9,-0.199181616306305,-1.5121054649353,9.30471229553223,-0.617381989955902,-0.586893975734711,0.0762199983000755,-1159.5,12.3000001907349,-875.700012207031,2.58939309699047,-0.0200208892000394,0.162234482918822,ST
4.93333333333333,-0.0909177288413048,-1.73282015323639,9.86696624755859,-0.114329993724823,-0.0685980021953583,-0.221037998795509,-1164.30004882812,21.3000011444092,-878.100036621094,2.59106449765082,-0.0089539958440913,0.173981258067254,ST
4.96666666666667,-0.0562254376709461,-1.72624063491821,9.26463603973389,0.0228659994900227,-0.0685980021953583,-0.769822001457214,-1152.30004882812,15.3000001907349,-880.500061035156,2.59628654835169,-0.0056303781658245,0.184097447452915,ST
5.0,-0.240453481674194,-1.64908015727997,9.57268047332764,-0.190549999475479,-0.419209986925125,-0.907018005847931,-1157.10009765625,19.5,-885.300048828125,2.60174113345776,-0.0236094974137027,0.17106806164366,ST
5.03333333333333,-0.413316786289215,-1.68317437171936,9.57148361206055,-0.182927995920181,-0.67835795879364,-0.861285984516144,-1147.5,9.30000019073486,-885.300048828125,2.60685277896939,-0.0409342226629173,0.174416230949816,ST
5.06666666666667,-0.171667039394379,-1.76571810245514,9.79160022735596,-0.0990860015153885,-0.693601965904236,-0.777444005012512,-1152.30004882812,23.1000003814697,-882.900024414062,2.61153064287508,-0.0159915657275012,0.17857575743534,ST
5.1,-0.0759641602635384,-1.88415038585663,9.75930118560791,-0.0,-0.792688012123108,-0.967993974685669,-1164.30004882812,18.9000015258789,-880.500061035156,2.61721369591433,-0.0060467305854586,0.190625166430051,ST
5.13333333333333,-0.144152462482452,-1.79502701759338,9.28018856048584,0.205793991684914,-0.480185985565186,-1.08994603157043,-1166.70007324219,12.3000001907349,-885.300048828125,2.62399856720831,-0.0140003349078327,0.190729506993149,ST
5.16666666666667,-0.385802209377289,-1.77409207820892,9.55353927612305,0.419209986925125,0.121951997280121,-0.846041977405548,-1159.5,14.7000007629395,-873.300048828125,2.62978758214071,-0.0394139514340523,0.182998016831159,ST
5.2,-0.594554126262665,-1.76811063289642,9.62053108215332,0.525918006896973,0.282013982534409,-0.655492007732391,-1154.70007324219,19.5,-882.900024414062,2.63483801721733,-0.0608386852813962,0.180926262300131,ST
5.23333333333333,-0.620274245738983,-1.99181604385376,9.5864372253418,0.152439996600151,0.46494197845459,-0.960371971130371,-1157.10009765625,12.3000001907349,-875.700012207031,2.64394024199544,-0.0637048683434918,0.204573188799243,ST
5.26666666666667,-0.355895072221756,-2.11622977256775,9.61514854431152,-0.243903994560242,0.480185985565186,-1.12043392658234,-1164.30004882812,13.5000009536743,-887.700012207031,2.65350447517382,-0.0366594766763505,0.217083846415194,ST
5.3,-0.0634031519293785,-1.91944074630737,9.05468845367432,-0.282013982534409,0.335367977619171,-1.22714197635651,-1159.5,17.1000003814697,-885.300048828125,2.66261617473418,-0.0071455508523191,0.209444572906214,ST
5.33333333333333,0.288903057575226,-1.90987050533295,10.1241683959961,0.449698001146317,1.21189796924591,-0.586893975734711,-1164.30004882812,10.5,-873.300048828125,2.66868862443145,0.0259561015050789,0.185769478235424,ST
5.36666666666667,0.500645637512207,-2.05222845077515,9.31667518615723,0.320124000310898,1.78354799747467,-0.586893975734711,-1149.90002441406,20.1000003814697,-894.900024414062,2.67397155767734,0.0494135652274208,0.215923445281313,ST
5.4,-0.404344648122787,-2.03368616104126,9.17611122131348,-0.365855991840363,2.88873791694641,-0.297257989645004,-1157.10009765625,15.3000001907349,-875.700012207031,2.68079470872226,-0.0473440017471284,0.218800610330534,ST
5.43333333333333,-1.1837249994278,-2.07794857025146,9.13723182678223,-0.350611984729767,3.30794787406921,0.411587983369827,-1130.70007324219,12.3000001907349,-878.100036621094,2.6832742341497,-0.130758798911644,0.224254839398607,ST
5.46666666666667,-1.69334280490875,-2.18561434745789,9.30172157287598,-0.503051996231079,2.88873791694641,0.922261953353882,-1123.5,12.9000005722046,-875.700012207031,2.68217911155011,-0.180266695269104,0.231526090733464,ST
5.5,-1.7065018415451,-2.13596844673157,9.21379470825195,0.198172003030777,0.990859985351562,1.71494996547699,-1135.5,15.9000005722046,-882.900024414062,2.67178257090267,-0.180860553167355,0.227028408697444,ST
5.53333333333333,-1.32069969177246,-2.23047518730164,8.98530387878418,0.731711983680725,-0.396344006061554,2.14940404891968,-1135.5,18.3000011444092,-885.300048828125,2.6599432794588,-0.142240666151356,0.241372384723574,ST
5.56666666666667,-1.287801861763,-2.15989422798157,9.12885761260986,0.830797970294952,-0.891773998737335,2.47714996337891,-1133.10009765625,20.1000003814697,-882.900024414062,2.64128853235445,-0.135952012653445,0.230343200808158,ST
5.6,-0.955832481384277,-2.01813435554504,8.70836353302002,0.945127964019775,-1.08994603157043,3.06404399871826,-1145.10009765625,17.1000003814697,-902.100036621094,2.61925639501307,-0.106110210389989,0.225509395068884,ST
5.63333333333333,-0.912168025970459,-2.17365145683289,9.41835880279541,0.503051996231079,-1.18140995502472,3.61282801628113,-1137.90002441406,18.3000011444092,-885.300048828125,2.5935256530911,-0.0935923937352127,0.225316874964485,ST
5.66666666666667,-0.667527556419373,-2.13297772407532,9.80296516418457,0.304879993200302,-1.74543797969818,4.20734405517578,-1142.70007324219,12.3000001907349,-878.100036621094,2.5618069532644,-0.0652531707530223,0.213291427046694,ST
5.7,-0.184228032827377,-2.08273386955261,9.53499698638916,0.640248000621796,-1.72257196903229,4.41313791275024,-1137.90002441406,26.1000003814697,-894.900024414062,2.52962982089358,-0.017958709270786,0.213768707801831,ST
5.73333333333333,-0.144750595092773,-2.08153748512268,9.97164154052734,0.419209986925125,-1.92836594581604,4.77899408340454,-1145.10009765625,20.1000003814697,-885.300048828125,2.49127516161781,-0.0126383333552842,0.204986012625487,ST
5.76666666666667,-0.450999796390533,-1.92362785339355,9.68273830413818,0.365855991840363,-1.30336201190948,4.73326206207275,-1137.90002441406,19.5,-887.700012207031,2.45417848326987,-0.0448727751837642,0.19514291778208,ST
5.8,-0.102282449603081,-2.01155471801758,8.67785835266113,0.167683988809586,-0.3125019967556,3.7881338596344,-1147.5,19.5,-890.100036621094,2.42752045535045,-0.0126172739754555,0.227214845090825,ST
5.83333333333333,-0.45638307929039,-1.92721664905548,9.23891639709473,-0.106707997620106,-0.0990860015153885,2.76678586006165,-1145.10009765625,18.3000011444092,-894.900024414062,2.40799881859311,-0.0488426365387279,0.205785735862755,ST
5.86666666666667,-0.535936117172241,-1.83629894256592,10.1492900848389,0.411587983369827,-0.289635986089706,1.93598794937134,-1152.30004882812,18.3000011444092,-875.700012207031,2.3916302289973,-0.0520061930752988,0.178204510446777,ST
5.9,-0.364269077777863,-1.61678040027618,9.23712158203125,0.830797970294952,-0.762199997901917,1.05183601379395,-1152.30004882812,22.5,-890.100036621094,2.38280304398276,-0.0378956293896186,0.17177791491477,ST
5.93333333333333,-0.581993103027344,-1.36615860462189,9.55772686004639,1.27287399768829,-0.541162014007568,0.37347799539566,-1152.30004882812,17.1000003814697,-890.100036621094,2.37839636855433,-0.0592620595478406,0.13986009471473,ST
5.96666666666667,-0.32538977265358,-1.17654716968536,9.4793701171875,1.56251001358032,-0.746955990791321,-0.396344006061554,-1137.90002441406,17.7000007629395,-887.700012207031,2.38001841284319,-0.0328912621086912,0.120932037067307,ST
6.0,-0.534739792346954,-1.06768524646759,9.71085071563721,1.59299790859222,-0.990859985351562,-0.975615978240967,-1145.10009765625,17.7000007629395,-878.100036621094,2.38628092610694,-0.0526669549226491,0.106886238065283,ST
6.03333333333333,-0.638218522071838,-0.863718450069427,9.55114650726318,1.81403601169586,-0.754577994346619,-1.51677799224854,-1142.70007324219,16.5,-885.300048828125,2.39584705751696,-0.0648067129722708,0.0873430198856652,ST
6.06666666666667,-0.82962429523468,-0.92771977186203,9.45723819732666,1.93598794937134,-0.480185985565186,-1.92074394226074,-1157.10009765625,19.5,-887.700012207031,2.41033904179314,-0.0857610896059133,0.0946210036002242,ST
6.1,-0.895420014858246,-0.819455862045288,9.19046688079834,1.6768399477005,-0.708845973014832,-2.14940404891968,-1140.30004882812,21.9000015258789,-873.300048828125,2.42637022911156,-0.0951398343989788,0.0863860783590757,ST
6.13333333333333,-1.06110560894012,-0.953439891338348,10.1756086349487,1.46342396736145,-0.602137982845306,-2.12653803825378,-1159.5,15.3000001907349,-878.100036621094,2.44204647204068,-0.102013396071303,0.0911989674956881,ST
6.16666666666667,-0.778183996677399,-0.968393445014954,9.90165901184082,1.08232402801514,-1.04421401023865,-2.53812599182129,-1152.30004882812,14.7000007629395,-887.700012207031,2.46032200988302,-0.0760007282884843,0.0958959679388074,ST
6.2,-0.468944102525711,-0.840988993644714,9.62292385101318,0.731711983680725,-1.47104597091675,-3.09453201293945,-1159.5,13.5000009536743,-873.300048828125,2.48099505729154,-0.0456928158800363,0.0862036790191486,ST
6.23333333333333,-0.461766362190247,-0.907981038093567,9.96326732635498,0.754577994346619,-1.58537602424622,-3.23172783851624,-1140.30004882812,7.50000047683716,-882.900024414062,2.50262901846341,-0.0428852087864274,0.0897661096577445,ST
6.26666666666667,-0.333763778209686,-1.14065861701965,9.55593204498291,0.388722002506256,-1.87501192092896,-3.39178991317749,-1157.10009765625,14.1000003814697,-882.900024414062,2.52560521499493,-0.0308262287909932,0.118064003906222,ST
6.3,-0.0454588644206524,-0.949252903461456,8.98111629486084,-0.0457319989800453,-2.01220798492432,-3.3613018989563,-1159.5,7.50000047683716,-882.900024414062,2.54698158508807,-0.0011654971358108,0.10549964739511,ST
6.33333333333333,0.14056359231472,-1.05811488628387,9.49013614654541,-0.190549999475479,-1.98171997070312,-2.90398192405701,-1166.70007324219,9.30000019073486,-880.500061035156,2.56595102126059,0.0185823994905974,0.111247259668522,ST
6.36666666666667,0.0921140164136887,-1.24234294891357,9.4787712097168,-0.205793991684914,-1.07470202445984,-2.33995389938354,-1157.10009765625,18.3000011444092,-866.100036621094,2.58169908773271,0.0120616452434704,0.130524936476948,ST
6.4,0.444420218467712,-1.24712812900543,9.46262168884277,0.0533539988100529,-0.0685980021953583,-1.73781597614288,-1157.10009765625,13.5000009536743,-868.500061035156,2.59351299742318,0.0467573464269142,0.130808756205734,ST
6.43333333333333,0.358885794878006,-1.51629245281219,9.70427131652832,0.137196004390717,1.14329993724823,-0.716467976570129,-1157.10009765625,20.1000003814697,-878.100036621094,2.59912332233692,0.0347994323936715,0.154590207396844,ST
6.46666666666667,0.247631192207336,-1.19688403606415,9.52542686462402,-0.121951997280121,1.2576299905777,0.0533539988100529,-1157.10009765625,10.5,-880.500061035156,2.60082780110666,0.0236628422378048,0.125372029041058,ST
6.5,-0.0352904349565506,-2.17006278038025,9.29454326629639,-2.78202986717224,1.39482593536377,0.121951997280121,-1145.10009765625,11.7000007629395,-885.300048828125,2.60104779664057,-0.005872112202928,0.233333437085489,ST
6.53333333333333,-0.213537037372589,-1.62575256824493,9.2939453125,-0.67835795879364,0.411587983369827,1.6920839548111,-1137.90002441406,14.1000003814697,-868.500061035156,2.58880289907358,-0.0237327049810417,0.174696751008243,ST
6.56666666666667,0.756052732467651,-1.66463184356689,9.533203125,-0.617381989955902,-0.78506600856781,2.16464805603027,-1149.90002441406,17.1000003814697,-878.100036621094,2.57292123163247,0.0779610677396234,0.174248404663155,ST
6.6,1.20346367359161,-1.72803509235382,9.1091194152832,-0.327746003866196,-1.6692179441452,2.58385801315308,-1166.70007324219,14.1000003814697,-882.900024414062,2.55215117875762,0.130664220967913,0.188572747890281,ST
6.63333333333333,0.824241042137146,-1.66941702365875,8.94462966918945,-0.0914639979600906,-1.2347639799118,2.78965187072754,-1159.5,15.3000001907349,-878.100036621094,2.53216475655246,0.0918788810956658,0.185188787097367,ST
6.66666666666667,0.463560789823532,-1.83390629291534,9.8197135925293,0.243903994560242,0.282013982534409,2.39330792427063,-1164.30004882812,20.7000007629395,-856.500061035156,2.51430618537885,0.0453042110547176,0.18439448608054,ST
6.7,-0.0550291538238525,-1.83211195468903,9.66120529174805,1.04421401023865,0.724089980125427,2.5000159740448,-1159.5,11.7000007629395,-878.100036621094,2.49769074990091,-0.0072817521091148,0.185558247518783,ST
6.73333333333333,0.0173461455851793,-1.68556690216064,10.130747795105,1.83690190315247,0.121951997280121,2.34757590293884,-1159.5,21.3000011444092,-882.900024414062,2.48176978650466,0.0007487365900017,0.161861765436088,ST
6.76666666666667,-0.511412262916565,-1.07725548744202,9.5146598815918,1.93598794937134,-0.647870004177094,2.40092992782593,-1152.30004882812,14.1000003814697,-897.300048828125,2.46344292509366,-0.0523357893366569,0.109505129881489,ST
6.8,-0.837998330593109,-1.20406174659729,9.5391845703125,1.72257196903229,-0.419209986925125,2.65245604515076,-1161.90002441406,14.7000007629395,-873.300048828125,2.44674551519386,-0.0864909219119771,0.12204834092869,ST
6.83333333333333,-0.536534249782562,-1.04136693477631,9.26284217834473,1.54726600646973,0.205793991684914,2.05031800270081,-1159.5,14.7000007629395,-885.300048828125,2.43180834837892,-0.0584059390144066,0.109118782657092,ST
6.86666666666667,-0.453392386436462,-1.11972367763519,9.52423095703125,1.46342396736145,0.129574000835419,1.13567793369293,-1159.5,16.5,-870.900024414062,2.42490568748283,-0.0477815100810517,0.114337765988526,ST
6.9,-0.248229339718819,-1.51689052581787,9.57686710357666,0.632625997066498,-0.655492007732391,-0.236281991004944,-1164.30004882812,12.9000005722046,-870.900024414062,2.4274917113361,-0.0245931748611576,0.155647186377232,ST
6.93333333333333,0.652574002742767,-1.85185062885284,10.5530366897583,-0.731711983680725,-1.78354799747467,-1.81403601169586,-1161.90002441406,17.7000007629395,-878.100036621094,2.43759374990029,0.0637149370049045,0.174676840952973,ST
6.96666666666667,-0.0705808699131012,-1.84287846088409,9.26164531707764,-1.32622802257538,-3.24697184562683,-2.41617393493652,-1157.10009765625,11.7000007629395,-875.700012207031,2.44907031655376,-0.0005580943701635,0.198526579662247,ST
7.0,-0.0047851437702775,-1.734614610672,9.83825588226318,-1.21951997280121,-1.52439999580383,-1.11281192302704,-1159.5,14.1000003814697,-870.900024414062,2.45476052506635,0.0024581024857666,0.176823786093178,ST
7.03333333333333,-0.335558205842972,-1.87637448310852,8.96496677398682,0.0381099991500378,0.419209986925125,-0.37347799539566,-1166.70007324219,11.7000007629395,-878.100036621094,2.4584681355204,-0.0369321964976362,0.206082521227995,ST
7.06666666666667,-0.903794050216675,-1.62694883346558,9.70307540893555,0.807931959629059,1.265251994133,0.792688012123108,-1181.10009765625,12.3000001907349,-882.900024414062,2.4522602858335,-0.0936234218573727,0.164910888396338,ST
7.1,-0.66633129119873,-1.66343557834625,10.2168798446655,1.57013201713562,0.472563982009888,1.08994603157043,-1166.70007324219,16.5,-875.700012207031,2.44526867037201,-0.0655582539944455,0.158576233255884,ST
7.13333333333333,-0.410326063632965,-1.41819703578949,9.68931770324707,1.34147191047668,-0.564027965068817,0.716467976570129,-1164.30004882812,17.7000007629395,-873.300048828125,2.43941494113933,-0.0412824067922995,0.143063370154805,ST
7.16666666666667,-0.0753660127520561,-1.0856294631958,8.88062858581543,1.27287399768829,-0.762199997901917,0.815553963184357,-1164.30004882812,15.3000001907349,-890.100036621094,2.43273055452193,-0.0075523749552652,0.119601254897935,ST
7.2,0.279930919408798,-0.587376415729523,9.12287616729736,-0.99848198890686,0.3125019967556,-0.3125019967556,-1164.30004882812,15.3000001907349,-873.300048828125,2.43578818215572,0.0297967889577306,0.0664618587239897,ST
7.23333333333333,0.366063505411148,-1.97746062278748,9.03674411773682,-1.06708002090454,0.548784017562866,-0.480185985565186,-1161.90002441406,4.5,-882.900024414062,2.43487044200809,0.0387179910646844,0.216012882455009,ST
7.26666666666667,-0.0861325860023499,-1.61558413505554,9.93336009979248,-0.0,0.564027965068817,0.0990860015153885,-1157.10009765625,18.9000015258789,-870.900024414062,2.43567737073615,-0.0092283518788414,0.161605108701866,ST
7.3,0.0526365824043751,-1.73820352554321,10.198935508728,-0.121951997280121,0.564027965068817,0.175305992364883,-1149.90002441406,11.7000007629395,-887.700012207031,2.43515128724182,0.0039569653819063,0.168960603068945,ST
7.33333333333333,0.751267552375793,-1.56294763088226,9.45604228973389,-0.274392008781433,-0.564027965068817,0.0533539988100529,-1166.70007324219,18.9000015258789,-873.300048828125,2.43445234147941,0.07856457848662,0.164341980860348,ST
7.36666666666667,1.12690138816833,-1.58986401557922,9.37529277801514,-0.0,-1.73781597614288,0.0152439996600151,-1161.90002441406,23.1000003814697,-882.900024414062,2.43199851610715,0.120596076877849,0.168015716596724,ST
7.4,1.13647162914276,-1.67480027675629,8.9655647277832,0.67835795879364,-0.952749967575073,0.0990860015153885,-1152.30004882812,16.5,-878.100036621094,2.42746006525334,0.125545590249439,0.183477716508904,ST
7.43333333333333,1.00428199768066,-1.54021811485291,9.17312049865723,1.73019397258759,0.160062000155449,-0.3125019967556,-1149.90002441406,17.1000003814697,-885.300048828125,2.43075523849116,0.107515592370407,0.163435982431938,ST
7.46666666666667,0.36725977063179,-1.44511342048645,9.53380107879639,0.571649968624115,0.655492007732391,0.221037998795509,-1154.70007324219,13.5000009536743,-890.100036621094,2.43063961341076,0.0372131105585591,0.149509677890779,ST
7.5,-0.394774347543716,-1.54201257228851,9.46022891998291,0.548784017562866,1.02134799957275,0.480185985565186,-1154.70007324219,16.5,-873.300048828125,2.42858435641232,-0.0423993710437826,0.160509336063182,ST
7.53333333333333,-0.759641587734222,-1.41939330101013,10.0595684051514,0.83841997385025,1.38720393180847,0.967993974685669,-1164.30004882812,18.3000011444092,-875.700012207031,2.42245239136618,-0.0769825568480879,0.138788589019618,ST
7.56666666666667,-0.74349170923233,-1.52646088600159,11.107515335083,1.12805593013763,0.571649968624115,1.2576299905777,-1152.30004882812,16.5,-878.100036621094,2.41462754198917,-0.0675767470893925,0.134498301003437,ST
7.6,-0.209948182106018,-1.48578715324402,10.2880592346191,1.18140995502472,-1.03659200668335,0.335367977619171,-1161.90002441406,17.1000003814697,-897.300048828125,2.41169086299714,-0.0187652094546401,0.141309412940408,ST
7.63333333333333,-0.13099330663681,-1.27165198326111,8.95838737487793,0.83841997385025,-1.74543797969818,-0.381099998950958,-1161.90002441406,16.5,-890.100036621094,2.41266590906717,-0.0114275375797708,0.139562712520285,ST
7.66666666666667,-0.0448607243597507,-1.1556122303009,9.28617000579834,0.769822001457214,-0.99848198890686,-0.594515979290009,-1149.90002441406,6.30000019073486,-885.300048828125,2.41577381844031,-0.0030063521224527,0.122606991759907,ST
7.7,0.125610023736954,-1.04914271831512,8.83337497711182,0.746955990791321,-1.50915598869324,-0.350611984729767,-1154.70007324219,14.1000003814697,-878.100036621094,2.41695945497528,0.0166718255757621,0.116947051243431,ST
7.73333333333333,-0.344530344009399,-1.03239476680756,8.75202751159668,0.228659987449646,-1.21189796924591,0.121951997280121,-1176.30004882812,10.5,-875.700012207031,2.41496897793074,-0.0367891338991274,0.117002541728298,ST
7.76666666666667,-0.0119628589600325,-1.03119850158691,9.90524768829346,-3.24697184562683,-0.449698001146317,-0.594515979290009,-1157.10009765625,14.7000007629395,-875.700012207031,2.41835370929797,-0.0006061548957576,0.109463877559942,ST
7.8,-0.156713455915451,-1.30813872814178,9.59600734710693,-0.495429992675781,-1.48628997802734,0.769822001457214,-1164.30004882812,14.1000003814697,-882.900024414062,2.41190369181161,-0.0136826547460732,0.136108771937346,ST
7.83333333333333,-0.0831418707966805,-1.51988124847412,10.4603242874146,0.243903994560242,-1.33385002613068,1.92074394226074,-1178.70007324219,17.1000003814697,-882.900024414062,2.39754491953425,-0.006103187241484,0.143777477353211,ST
7.86666666666667,0.341539651155472,-1.3900842666626,10.0601663589478,0.304879993200302,-1.52439999580383,1.97409796714783,-1169.10009765625,9.90000057220459,-875.700012207031,2.38262505306862,0.0354393717227211,0.136959441561233,ST
7.9,0.68965882062912,-1.32907366752625,9.40041446685791,0.25152599811554,-1.10518991947174,2.01982998847961,-1157.10009765625,14.1000003814697,-882.900024414062,2.36565752966102,0.0737819774671554,0.140276161623433,ST
7.93333333333333,0.834409415721893,-1.38529908657074,9.31547832489014,0.228659987449646,-0.236281991004944,1.30336201190948,-1164.30004882812,14.7000007629395,-887.700012207031,2.35526822481045,0.0883583642361984,0.147391302570953,ST
7.96666666666667,0.549693405628204,-1.17953789234161,8.90156364440918,0.403965979814529,0.0838419944047928,1.50915598869324,-1166.70007324219,14.1000003814697,-866.100036621094,2.34604216155879,0.0608758960656169,0.131329531616668,ST
8.0,0.245836764574051,-1.20824885368347,9.49791240692139,0.739333987236023,1.02897000312805,1.2423859834671,-1171.5,14.1000003814697,-882.900024414062,2.33851212899082,0.0239219700204546,0.125340399424522,ST
8.03333333333333,0.186022460460663,-1.20465993881226,9.76109504699707,1.04421401023865,0.975615978240967,1.08232402801514,-1164.30004882812,6.30000019073486,-887.700012207031,2.33186202752079,0.0170497935124474,0.121035353956283,ST
8.06666666666667,0.439036935567856,-1.05213344097137,9.68692588806152,0.274392008781433,0.647870004177094,0.144817993044853,-1159.5,15.9000005722046,-868.500061035156,2.33169427743807,0.0436562218437354,0.107825418726117,ST
8.1,0.537132382392883,-1.28540921211243,9.68094444274902,0.0914639979600906,0.259148001670837,-0.335367977619171,-1161.90002441406,23.7000007629395,-873.300048828125,2.33301568603398,0.0544839603375584,0.131614425122858,ST
8.13333333333333,0.236266478896141,-1.25490391254425,10.1301488876343,-0.0076219998300075,0.0762199983000755,-0.884151995182037,-1159.5,17.7000007629395,-880.500061035156,2.34002478357925,0.0233479128159064,0.123265765812898,ST
8.16666666666667,0.888242304325104,-1.07904994487762,9.82031154632568,0.304879993200302,-0.221037998795509,-0.967993974685669,-1157.10009765625,16.5,-880.500061035156,2.34752491488027,0.0898540213118008,0.108847331932259,ST
8.2,0.814670741558075,-1.04076874256134,9.32265663146973,0.449698001146317,-0.6250039935112,-1.07470202445984,-1147.5,9.30000019073486,-873.300048828125,2.35400959143029,0.0879355721868693,0.110228189913092,ST
8.23333333333333,0.438438802957535,-1.2058562040329,9.52363204956055,0.327746003866196,0.0152439996600151,-1.20427596569061,-1176.30004882812,18.9000015258789,-875.700012207031,2.3611425689943,0.0462198835893387,0.125152316165567,ST
8.26666666666667,0.908579170703888,-1.20346367359161,9.28975868225098,-0.228659987449646,-0.342989981174469,-1.6768399477005,-1173.90002441406,12.3000001907349,-887.700012207031,2.37249797520596,0.0973089295714276,0.128932289463449,ST
8.3,0.37324121594429,-1.29976463317871,9.82689094543457,0.0914639979600906,-0.327746003866196,-1.51677799224854,-1161.90002441406,18.9000015258789,-899.700012207031,2.38239260890134,0.03903047254978,0.131219318894353,ST
8.33333333333333,-0.32538977265358,-1.39427125453949,9.87414455413818,0.152439996600151,0.137196004390717,-1.03659200668335,-1164.30004882812,15.3000001907349,-875.700012207031,2.38960287222338,-0.0320169157727044,0.139992133421979,ST
8.36666666666667,0.17525589466095,-1.40743041038513,9.66718673706055,0.0609759986400604,0.243903994560242,-0.274392008781433,-1154.70007324219,14.7000007629395,-890.100036621094,2.39175102948877,0.0171791986876147,0.144421821665178,ST
8.4,-0.16269488632679,-1.64070618152618,9.75571155548096,0.236281991004944,-0.221037998795509,0.144817993044853,-1171.5,11.7000007629395,-873.300048828125,2.39044318454675,-0.0159161823870045,0.16607892160627,ST
8.43333333333333,0.0149535741657019,-1.31531643867493,9.5744743347168,-0.396344006061554,-0.213415995240211,-0.541162014007568,-1169.10009765625,13.5000009536743,-873.300048828125,2.39372427334434,0.0018996194030188,0.137449838712082,ST
8.46666666666667,0.0077758585102856,-2.08572459220886,8.79928112030029,-1.00610399246216,0.243903994560242,-1.20427596569061,-1157.10009765625,16.5,-878.100036621094,2.40286561877718,0.0009319887999967,0.23403257583386,ST
8.5,0.0334960073232651,-2.14852952957153,9.38785362243652,-0.236281991004944,0.693601965904236,-0.777444005012512,-1154.70007324219,21.3000011444092,-892.500061035156,2.40977366941926,0.0025939434985223,0.225437053880722,ST
8.53333333333333,-0.672910869121552,-2.19458651542664,9.84064769744873,-0.3125019967556,0.701223969459534,-0.0076219998300075,-1164.30004882812,12.9000005722046,-887.700012207031,2.41065875988859,-0.0674332158599488,0.22001742374637,ST
8.56666666666667,-0.205761179327965,-2.1533145904541,9.53140830993652,-0.289635986089706,0.327746003866196,-0.0609759986400604,-1161.90002441406,15.3000001907349,-878.100036621094,2.41161987937213,-0.0219637979894699,0.222677229792571,ST
8.6,0.0897214487195015,-2.16049242019653,9.73776721954346,0.259148001670837,-0.769822001457214,0.777444005012512,-1169.10009765625,14.7000007629395,-887.700012207031,2.40460264980834,0.0098621048267639,0.217915657336456,ST
8.63333333333333,0.0412718653678894,-2.21432518959045,9.38067626953125,0.830797970294952,-0.632625997066498,1.45580196380615,-1171.5,17.7000007629395,-887.700012207031,2.39368684409723,0.0048199912561525,0.230270168471892,ST
8.66666666666667,0.505430817604065,-1.7124832868576,9.10852146148682,1.41006994247437,-0.37347799539566,1.48628997802734,-1164.30004882812,10.5,-880.500061035156,2.38407563259483,0.0542349028203908,0.183901453613098,ST
8.7,0.353502482175827,-1.67659473419189,8.85909557342529,1.76068198680878,-0.335367977619171,1.82927989959717,-1152.30004882812,12.9000005722046,-878.100036621094,2.36948758645409,0.0392489639717003,0.184093941839709,ST
8.73333333333333,-0.145946890115738,-1.41819703578949,9.401611328125,1.81403601169586,0.586893975734711,1.53202199935913,-1154.70007324219,13.5000009536743,-878.100036621094,2.36011762822571,-0.0162993554918234,0.14682378904759,ST
8.76666666666667,0.0789548754692078,-1.32249414920807,9.78860950469971,1.37958192825317,0.0457319989800453,2.0655620098114,-1142.70007324219,10.5,-878.100036621094,2.34421315598705,0.0073459179584817,0.131966750874223,ST
8.8,0.0759641602635384,-1.30933499336243,9.425537109375,1.36433792114258,-0.342989981174469,1.27287399768829,-1169.10009765625,13.5000009536743,-892.500061035156,2.3350714592302,0.0082680752679689,0.135637493916244,ST
8.83333333333333,-0.0771604403853416,-1.287801861763,10.3747901916504,1.21189796924591,0.182927995920181,1.59299790859222,-1159.5,13.5000009536743,-882.900024414062,2.32303980463324,-0.007971440955323,0.12141615992458,ST
8.86666666666667,0.583787560462952,-1.3781213760376,9.43690204620361,0.807931959629059,-0.411587983369827,0.922261953353882,-1161.90002441406,20.1000003814697,-890.100036621094,2.31507706241458,0.0612223716439875,0.143573706968887,ST
8.9,0.816465139389038,-1.30215728282928,9.04093074798584,0.46494197845459,-0.907018005847931,0.228659987449646,-1157.10009765625,14.7000007629395,-873.300048828125,2.31229402663768,0.0904913623228538,0.14229703211248,ST
8.93333333333333,0.885251581668854,-1.35240125656128,8.53310775756836,0.495429992675781,-0.0076219998300075,0.137196004390717,-1173.90002441406,18.3000011444092,-890.100036621094,2.30967595038329,0.101989217109879,0.156225888928282,ST
8.96666666666667,0.598741114139557,-1.47143173217773,9.38306903839111,0.503051996231079,-0.190549999475479,-0.0838419944047928,-1161.90002441406,9.90000057220459,-870.900024414062,2.30991844354458,0.063624711132518,0.154679916208567,ST
9.0,0.099889874458313,-1.59823799133301,10.1445045471191,0.37347799539566,-0.236281991004944,0.160062000155449,-1152.30004882812,24.3000011444092,-902.100036621094,2.3084771643566,0.0105285726622561,0.155607996995109,ST
9.03333333333333,-0.363670915365219,-1.60122871398926,10.6164398193359,0.746955990791321,0.114329993724823,0.3125019967556,-1135.5,14.1000003814697,-890.100036621094,2.30649464802307,-0.0337721997669709,0.148436467160602,ST
9.06666666666667,0.0023925718851387,-1.22918379306793,10.039231300354,1.02134799957275,-1.08994603157043,0.358233988285065,-1157.10009765625,12.9000005722046,-885.300048828125,2.30268148636385,0.001756053009202,0.120281642716915,ST
9.1,-0.318212062120438,-1.1155366897583,9.45604228973389,1.52439999580383,-1.47866797447205,0.663114011287689,-1159.5,9.90000057220459,-890.100036621094,2.29710568269353,-0.0307089800058801,0.11477016775617,ST
9.13333333333333,0.436644375324249,-1.09220910072327,9.36811542510986,1.2576299905777,-1.60061991214752,0.46494197845459,-1161.90002441406,17.7000007629395,-873.300048828125,2.29241028960506,0.04829399550963,0.113927274670474,ST
9.16666666666667,0.665733098983765,-0.129797026515007,9.30770301818848,-1.48628997802734,-1.40244793891907,-0.114329993724823,-1159.5,14.1000003814697,-866.100036621094,2.29938552142086,0.0736422111532839,0.0173265259128233,ST
9.2,0.101086162030697,-1.04076874256134,8.05818176269531,-0.236281991004944,-1.04421401023865,0.335367977619171,-1169.10009765625,15.9000005722046,-868.500061035156,2.29150554780556,0.0146668032718502,0.127959549650794,ST
9.23333333333333,-0.0992917343974113,-0.992917358875275,9.54516506195068,0.0457319989800453,-0.0304879993200302,1.61586391925812,-1164.30004882812,16.5,-873.300048828125,2.28043265875058,-0.0103815615929532,0.103743666505899,ST
9.26666666666667,0.113647162914276,-1.08742392063141,9.2999267578125,0.160062000155449,-0.228659987449646,1.98171997070312,-1173.90002441406,12.3000001907349,-887.700012207031,2.26620711722969,0.0119806334040211,0.116074550586376,ST
9.3,0.290697485208511,-1.47083353996277,10.1181869506836,0.0609759986400604,-0.282013982534409,1.37958192825317,-1164.30004882812,15.9000005722046,-875.700012207031,2.25562412060349,0.0284541517943063,0.144123322058999,ST
9.33333333333333,0.465953379869461,-1.40443968772888,10.9860916137695,0.236281991004944,-0.914639949798584,1.17378795146942,-1166.70007324219,16.5,-887.700012207031,2.2470414690793,0.0432669016907875,0.12694959214496,ST
9.36666666666667,1.03000223636627,-1.01923561096191,9.01461315155029,0.37347799539566,-1.82927989959717,0.495429992675781,-1166.70007324219,14.7000007629395,-885.300048828125,2.2428174359989,0.115712374572205,0.112159299238597,ST
9.4,0.190807610750198,-1.20286548137665,9.70307540893555,1.05945801734924,0.724089980125427,0.579271972179413,-1171.5,12.3000001907349,-880.500061035156,2.23839433853747,0.0188031080428656,0.121445569809742,ST
9.43333333333333,0.824241042137146,-1.16877138614655,9.31787109375,1.14329993724823,0.899396002292633,0.167683988809586,-1166.70007324219,19.5,-880.500061035156,2.2373891619185,0.0854022571924775,0.122782991173698,ST
9.46666666666667,0.750669419765472,-1.00846910476685,9.65462589263916,0.914639949798584,0.160062000155449,-0.37347799539566,-1166.70007324219,13.5000009536743,-880.500061035156,2.24120429205512,0.0770365181773026,0.102594753900863,ST
9.5,0.348717361688614,-0.901401460170746,9.14799880981445,0.602137982845306,-0.0838419944047928,-1.2347639799118,-1171.5,9.90000057220459,-882.900024414062,2.25049849014037,0.0384557568442764,0.0971093775621664,ST
9.53333333333333,0.546104550361633,-1.07785367965698,9.36572265625,0.274392008781433,-0.0838419944047928,-0.945127964019775,-1169.10009765625,13.5000009536743,-870.900024414062,2.25619887502044,0.0580588493731349,0.113893101291134,ST
9.56666666666667,-0.320006489753723,-1.11194777488708,9.70486927032471,0.266770005226135,1.29574000835419,-1.04421401023865,-1166.70007324219,11.1000003814697,-870.900024414062,2.26440845806078,-0.0340270738577686,0.113678672898986,ST
9.6,0.0311034340411425,-1.25849282741547,10.4423799514771,0.304879993200302,1.55488801002502,-0.701223969459534,-1171.5,11.1000003814697,-882.900024414062,2.27059883298807,0.0001260046507671,0.119362296725967,ST
9.63333333333333,1.1418548822403,-1.35539197921753,9.77724456787109,0.0762199983000755,-1.15092194080353,-1.09756803512573,-1173.90002441406,14.7000007629395,-870.900024414062,2.27594998909643,0.116456461422125,0.137285874536881,ST
9.66666666666667,0.506627082824707,-1.22320234775543,9.44766807556152,-0.0609759986400604,-3.14026403427124,-1.31098401546478,-1152.30004882812,18.9000015258789,-873.300048828125,2.2836124260359,0.0590856481868524,0.128800298912394,ST
9.7,0.282323479652405,-1.24652993679047,9.64505577087402,-0.495429992675781,-0.830797970294952,-0.564027965068817,-1173.90002441406,12.9000005722046,-875.700012207031,2.28703550393404,0.0307487718008706,0.129364377357757,ST
9.73333333333333,0.903794050216675,-1.54859220981598,9.94831371307373,-0.46494197845459,0.167683988809586,-0.205793991684914,-1171.5,13.5000009536743,-875.700012207031,2.2874258497886,0.0889604076594454,0.155053705239012,ST
9.76666666666667,0.430662930011749,-1.42058956623077,8.97274303436279,0.137196004390717,-0.0076219998300075,0.0076219998300075,-1164.30004882812,9.90000057220459,-885.300048828125,2.2871870838774,0.0476184091363559,0.156771192942437,ST
9.8,0.52636581659317,-1.73341834545135,9.26164531707764,0.0685980021953583,0.46494197845459,-0.205793991684914,-1178.70007324219,11.1000003814697,-868.500061035156,2.28769808598895,0.0550116863146786,0.184643024694209,ST
9.83333333333333,0.222509190440178,-1.48040390014648,8.37041282653809,-0.167683988809586,-0.114329993724823,-0.472563982009888,-1171.5,10.5,-878.100036621094,2.29118829905498,0.0267445052127821,0.175398622498399,ST
9.86666666666667,-0.205163031816483,-1.95712375640869,9.80954456329346,-0.213415995240211,0.807931959629059,-0.190549999475479,-1181.10009765625,6.30000019073486,-878.100036621094,2.29354447375755,-0.0214936031675879,0.197161384515627,ST
9.9,0.193200185894966,-2.23047518730164,9.74673938751221,-0.426831990480423,0.282013982534409,0.175305992364883,-1171.5,15.9000005722046,-875.700012207031,2.29285388963899,0.0184421797460526,0.225484065526656,ST
9.93333333333333,0.164489313960075,-1.6383136510849,10.158860206604,-3.20886182785034,-0.0762199983000755,-0.571649968624115,-1169.10009765625,12.9000005722046,-875.700012207031,2.29805352149456,0.0163003211477006,0.165969028785088,ST
9.96666666666667,-0.16269488632679,-2.20894193649292,10.2503757476807,-0.137196004390717,-0.274392008781433,0.78506600856781,-1173.90002441406,20.7000007629395,-873.300048828125,2.29232035855588,-0.0150734302719718,0.212091742996933,ST
10.0,0.0442625805735588,-2.17544603347778,9.98121166229248,0.533540010452271,-0.472563982009888,1.46342396736145,-1173.90002441406,15.3000001907349,-882.900024414062,2.28046756715467,0.0045205915571474,0.213671427871134,ST
10.0333333333333,1.16697692871094,-1.77708280086517,8.40091800689697,0.731711983680725,-0.403965979814529,0.914639949798584,-1171.5,11.1000003814697,-880.500061035156,2.27320954525447,0.134689454245623,0.207446831522297,ST
10.0666666666667,0.745286166667938,-1.66283750534058,8.49781703948975,0.983237981796265,-0.388722002506256,1.08994603157043,-1166.70007324219,14.1000003814697,-878.100036621094,2.26639315672298,0.0865580463511531,0.191826421285021,ST
10.1,0.229088753461838,-1.59046220779419,9.1569709777832,1.33385002613068,0.198172003030777,1.18903195858002,-1164.30004882812,15.9000005722046,-882.900024414062,2.25939694482906,0.0244621993893033,0.169879723029864,ST
10.1333333333333,0.204564899206161,-1.68018364906311,9.44707012176514,1.82165801525116,0.823175966739655,2.01220798492432,-1171.5,18.3000011444092,-887.700012207031,2.24595156816841,0.0193323184437252,0.172874382183905,ST
10.1666666666667,-0.192602038383484,-1.59405100345612,10.1283550262451,1.98171997070312,0.777444005012512,2.09605002403259,-1157.10009765625,15.3000001907349,-882.900024414062,2.23262054263233,-0.0203563179630051,0.152747637672755,ST
10.2,0.487486511468887,-1.67180955410004,10.4956150054932,0.861285984516144,-0.99848198890686,1.82927989959717,-1169.10009765625,14.7000007629395,-880.500061035156,2.21883454961675,0.0465088580726183,0.156575403261421,ST
10.2333333333333,0.889438569545746,-1.57790112495422,9.89627552032471,0.769822001457214,-1.82927989959717,1.40244793891907,-1166.70007324219,17.1000003814697,-878.100036621094,2.20686362779293,0.0909275198460394,0.157026804548502,ST
10.2666666666667,0.874485015869141,-1.40264523029327,8.86866569519043,0.884151995182037,-1.01372599601746,1.36433792114258,-1166.70007324219,13.5000009536743,-887.700012207031,2.19605393654589,0.0984043584901252,0.15558547092041,ST
10.3,0.480906963348389,-1.5001425743103,8.84593677520752,1.49391198158264,1.08994603157043,1.265251994133,-1164.30004882812,15.3000001907349,-873.300048828125,2.18727224799662,0.0516943160416226,0.165399491182795,ST
10.3333333333333,0.219518467783928,-1.41400992870331,9.67675685882568,1.48628997802734,0.594515979290009,0.983237981796265,-1161.90002441406,14.7000007629395,-875.700012207031,2.18169295272636,0.021419966165438,0.14272533493104,ST
10.3666666666667,-0.438438802957535,-1.21542656421661,9.63488674163818,0.92988395690918,-1.02897000312805,1.31860601902008,-1157.10009765625,18.3000011444092,-870.900024414062,2.17083389394674,-0.0433135719086103,0.123848035378539,ST
10.4,-0.43724250793457,-1.22918379306793,10.2760963439941,0.442075997591019,-0.983237981796265,1.69970595836639,-1164.30004882812,11.1000003814697,-880.500061035156,2.15825665196176,-0.0408895275241221,0.118195981630346,ST
10.4333333333333,0.422288924455643,-0.847568571567535,9.94173431396484,0.320124000310898,-1.6692179441452,2.22562384605408,-1173.90002441406,9.90000057220459,-878.100036621094,2.14187161291848,0.0441643159767311,0.084932447198089,ST
10.4666666666667,0.642405569553375,-1.1418548822403,10.042820930481,0.952749967575073,-1.81403601169586,1.6768399477005,-1173.90002441406,12.3000001907349,-878.100036621094,2.12718505854143,0.0661152085575698,0.111543272425413,ST
10.5,0.517991840839386,-0.680088579654694,8.57437992095947,1.14329993724823,-1.2500079870224,1.34909391403198,-1173.90002441406,16.5,-858.900024414062,2.11885057949997,0.0621717691388543,0.0775921864650422,ST
10.5333333333333,0.946860313415527,-0.77878212928772,9.43032169342041,-1.31860601902008,-0.221037998795509,-0.647870004177094,-1173.90002441406,17.1000003814697,-873.300048828125,2.12343208545046,0.0999014607082028,0.0845320471263153,ST
10.5666666666667,0.904990315437317,-1.29079258441925,9.2042236328125,-1.95123195648193,-1.14329993724823,-1.06708002090454,-1169.10009765625,14.7000007629395,-861.300048828125,2.12531960898931,0.0993061316961067,0.142104339328109,ST
10.6,0.307445496320724,-1.21363210678101,9.58703517913818,-0.556405961513519,-0.434453994035721,0.3125019967556,-1171.5,14.1000003814697,-882.900024414062,2.1237592484927,0.0328025464030345,0.126986055754973,ST
10.6333333333333,0.650181412696838,-1.21662282943726,10.438193321228,-0.685979962348938,-0.495429992675781,0.106707997620106,-1171.5,18.3000011444092,-885.300048828125,2.12334080474043,0.0623839394033008,0.117326160784411,ST
10.6666666666667,0.756052732467651,-1.4941611289978,9.88072395324707,-0.46494197845459,0.320124000310898,0.777444005012512,-1173.90002441406,16.5,-870.900024414062,2.11629258088448,0.0746583987130271,0.150712088256824,ST
10.7,0.291893780231476,-1.45348739624023,9.92199516296387,-0.152439996600151,0.952749967575073,0.510673999786377,-1164.30004882812,19.5,-875.700012207031,2.11406033334869,0.0277122825873783,0.145782689621805,ST
10.7333333333333,0.714780867099762,-1.57610678672791,9.4315185546875,-0.160062000155449,1.21189796924591,0.198172003030777,-1161.90002441406,12.9000005722046,-870.900024414062,2.11312423646162,0.0721012423303763,0.165694897415764,ST
10.7666666666667,0.822446584701538,-1.25490391254425,9.21259784698486,-0.289635986089706,-0.449698001146317,-0.586893975734711,-1178.70007324219,17.1000003814697,-882.900024414062,2.11935402740397,0.0890288731879308,0.136012411551414,ST
10.8,-0.763230443000793,-1.23755776882172,10.018895149231,0.556405961513519,1.15092194080353,0.137196004390717,-1171.5,15.9000005722046,-882.900024414062,2.11964900688081,-0.0766953745292954,0.121998070202562,ST
10.8333333333333,0.584983825683594,-1.40503787994385,8.41527366638184,0.472563982009888,2.34757590293884,-0.3125019967556,-1173.90002441406,7.50000047683716,-894.900024414062,2.12445835592773,0.0633410269631436,0.164192828178914,ST
10.8666666666667,-0.293688207864761,-1.49595558643341,10.6062707901001,0.221037998795509,1.33385002613068,0.0152439996600151,-1161.90002441406,19.5,-880.500061035156,2.12619170386191,-0.0291911724102644,0.139882293029588,ST
10.9,1.12151801586151,-1.38948607444763,9.64864444732666,-0.0381099991500378,-1.2423859834671,-1.19665396213531,-1164.30004882812,11.7000007629395,-890.100036621094,2.13345368764225,0.116152895313077,0.142878743586224,ST
10.9333333333333,1.09220910072327,-1.24054849147797,9.56131553649902,0.602137982845306,-2.33995389938354,-0.617381989955902,-1171.5,12.3000001907349,-887.700012207031,2.136787811804,0.116983392970947,0.128033607377189,ST
10.9666666666667,0.949252903461456,-1.26208162307739,9.05767917633057,0.617381989955902,-0.815553963184357,-0.564027965068817,-1176.30004882812,16.5,-875.700012207031,2.13855395970031,0.105040698819151,0.137234490065238,ST
11.0,-0.416307508945465,-1.23755776882172,10.2994241714478,0.914639949798584,1.63110792636871,-0.0914639979600906,-1169.10009765625,18.9000015258789,-875.700012207031,2.14133136700844,-0.0420749137663147,0.118118365396469,ST
11.0333333333333,-0.0346922911703587,-1.314120054245,9.2939453125,0.830797970294952,1.6615959405899,0.0838419944047928,-1178.70007324219,17.1000003814697,-887.700012207031,2.14288502317645,-0.0068793447502273,0.138845414909219,ST
11.0666666666667,0.0400755777955055,-1.23935222625732,9.42792987823486,0.137196004390717,-0.457319974899292,-0.381099998950958,-1169.10009765625,20.1000003814697,-882.900024414062,2.14506808604298,0.0049946025153584,0.130532582933165,ST
11.1,0.363670915365219,-1.62694883346558,9.73178577423096,-0.556405961513519,-1.64635193347931,-0.685979962348938,-1176.30004882812,26.7000007629395,-870.900024414062,2.14728675024621,0.0395863873799353,0.166295676876925,ST
11.1333333333333,0.744089841842651,-1.8506543636322,9.08579158782959,-1.22714197635651,-2.15702605247498,-1.09756803512573,-1173.90002441406,18.9000015258789,-892.500061035156,2.15067853348179,0.0839381767214754,0.2028126226992,ST
11.1666666666667,0.497056812047958,-2.27294325828552,9.35017108917236,-1.21951997280121,-0.236281991004944,-1.2500079870224,-1171.5,23.7000007629395,-880.500061035156,2.15665525521383,0.0527842549481321,0.240176792712814,ST
11.2,0.334361910820007,-2.21970868110657,9.62531661987305,-1.07470202445984,0.609759986400604,-1.265251994133,-1171.5,18.9000015258789,-878.100036621094,2.16691073143575,0.0334608653846141,0.228538907543045,ST
11.2333333333333,-0.306847333908081,-2.20595121383667,10.0129137039185,-0.647870004177094,0.259148001670837,-0.190549999475479,-1169.10009765625,14.1000003814697,-873.300048828125,2.16854109257087,-0.0297665163542054,0.218076066344916,ST
11.2666666666667,-0.24882747232914,-2.05103230476379,7.96247911453247,-0.0914639979600906,-0.556405961513519,0.358233988285065,-1161.90002441406,14.1000003814697,-870.900024414062,2.16619707928789,-0.0294699496489435,0.251961701197517,ST
11.3,-0.0299071483314037,-2.12879085540771,9.329833984375,0.274392008781433,0.823175966739655,-0.114329993724823,-1157.10009765625,16.5,-887.700012207031,2.16793527420279,-0.0046234787310292,0.224013707839412,ST
11.3333333333333,-1.23815596103668,-2.29447650909424,10.2252540588379,0.327746003866196,0.891773998737335,0.777444005012512,-1171.5,13.5000009536743,-878.100036621094,2.16400807876375,-0.118480453074414,0.220086475657968,ST
11.3666666666667,-1.05213344097137,-2.02052688598633,11.3581371307373,0.586893975734711,1.31098401546478,1.15092194080353,-1154.70007324219,24.3000011444092,-870.900024414062,2.15318863706872,-0.0936966523123286,0.17513343664762,ST
11.4,1.51270353794098,-2.64080119132996,10.4363985061646,-2.88873791694641,-1.36433792114258,-0.807931959629059,-1166.70007324219,16.5,-863.700012207031,2.15662871607168,0.140896972190079,0.252330703137393,ST
11.4333333333333,1.11134958267212,-1.78007352352142,8.56540775299072,0.449698001146317,-3.12502002716064,0.571649968624115,-1166.70007324219,15.9000005722046,-878.100036621094,2.15425260814115,0.131568855993899,0.204788049502535,ST
11.4666666666667,1.10477006435394,-1.79383075237274,9.6881217956543,0.716467976570129,-0.891773998737335,1.02134799957275,-1164.30004882812,20.7000007629395,-868.500061035156,2.14839125656458,0.113019970610527,0.182251836632544,ST
11.5,2.47272300720215,-1.49954438209534,8.03126525878906,0.78506600856781,-0.739333987236023,0.472563982009888,-1169.10009765625,18.9000015258789,-873.300048828125,2.14280955190344,0.293510986737089,0.183520269334967,ST
11.5333333333333,1.51928317546844,-1.4881796836853,7.89847803115845,1.05945801734924,0.144817993044853,0.983237981796265,-1171.5,14.1000003814697,-878.100036621094,2.13463397122234,0.187134826207313,0.184693552031354,ST
11.5666666666667,0.518589973449707,-1.52107763290405,8.88900279998779,1.33385002613068,0.945127964019775,1.05183601379395,-1173.90002441406,18.9000015258789,-890.100036621094,2.12989863172689,0.0565851017118123,0.167389248588259,ST
11.6,-0.980954468250275,-1.66403377056122,10.6307954788208,2.05031800270081,1.52439999580383,2.28659987449646,-1152.30004882812,9.30000019073486,-878.100036621094,2.11564745215103,-0.0932905062692002,0.15146894897669,ST
11.6333333333333,-1.17295837402344,-1.86321532726288,11.9640560150146,2.46952795982361,1.83690190315247,2.88111591339111,-1166.70007324219,17.7000007629395,-878.100036621094,2.09945488800726,-0.100433871341386,0.149747421538309,ST
11.6666666666667,-0.18482618033886,-1.263876080513,10.0661478042603,2.70580983161926,-0.358233988285065,1.96647596359253,-1161.90002441406,21.3000011444092,-897.300048828125,2.08463854366887,-0.0186857979249627,0.120347038699919,ST
11.7,0.626853823661804,-1.15800476074219,9.36751747131348,1.93598794937134,-1.95123195648193,1.22714197635651,-1161.90002441406,15.9000005722046,-885.300048828125,2.07399484073618,0.0687189616264594,0.11978719111388,ST
11.7333333333333,-0.0047851437702775,-0.870298027992249,8.83457183837891,1.44817996025085,-2.66007804870605,0.327746003866196,-1169.10009765625,14.7000007629395,-870.900024414062,2.0705480235277,0.0045559229725323,0.095870840598369,ST
11.7666666666667,0.471934795379639,-0.672312676906586,8.40211391448975,0.967993974685669,-0.434453994035721,0.3125019967556,-1173.90002441406,7.50000047683716,-880.500061035156,2.0681437149704,0.056398266689222,0.0782744722017137,ST
11.8,0.0723752975463867,-0.805698573589325,9.36512470245361,0.792688012123108,0.457319974899292,0.655492007732391,-1161.90002441406,15.9000005722046,-875.700012207031,2.06346013884317,0.0071466990487881,0.0844045296422609,ST
11.8333333333333,0.283519774675369,-0.887046039104462,9.86756420135498,0.358233988285065,0.297257989645004,0.594515979290009,-1173.90002441406,10.5,-878.100036621094,2.0591696288213,0.0278818372705706,0.0890293809898841,ST
11.8666666666667,0.552684128284454,-0.991721034049988,10.3759860992432,-0.0228659994900227,-0.647870004177094,0.396344006061554,-1164.30004882812,12.9000005722046,-880.500061035156,2.05558588802713,0.0538856122186521,0.0953351968715704,ST
11.9,1.68736135959625,-1.11673295497894,9.91601371765137,-0.3125019967556,-2.39330792427063,-0.556405961513519,-1181.10009765625,14.1000003814697,-868.500061035156,2.05598862654269,0.170803354899958,0.112466591358895,ST
11.9333333333333,0.893625617027283,-0.694444000720978,9.04451942443848,-0.762199997901917,-1.90549993515015,-0.487807989120483,-1173.90002441406,14.7000007629395,-873.300048828125,2.06348888849672,0.102146657223697,0.0781788836520352,ST
11.9666666666667,0.765622973442078,-0.875083148479462,9.51884746551514,-0.815553963184357,0.480185985565186,0.548784017562866,-1164.30004882812,16.5,-870.900024414062,2.05915078307132,0.0791904470631807,0.0930453264420373,ST
12.0,0.626853823661804,-1.26507234573364,8.99427604675293,0.144817993044853,2.62959003448486,0.198172003030777,-1157.10009765625,15.3000001907349,-890.100036621094,2.05676391381421,0.064414900751872,0.139147472393412,ST
12.0333333333333,-0.0699827298521996,-1.06947958469391,9.05169773101807,0.0914639979600906,2.64483404159546,-0.0533539988100529,-1173.90002441406,15.3000001907349,-880.500061035156,2.05993396627215,-0.0116232322742282,0.11763106820201,ST
12.0666666666667,-1.46724474430084,-0.674705266952515,9.82988166809082,-0.144817993044853,2.57623600959778,-0.0076219998300075,-1166.70007324219,15.9000005722046,-892.500061035156,2.05745423648458,-0.151760818399876,0.0690265963867971,ST
12.1,-0.279930919408798,-1.89431881904602,9.89148998260498,-3.41465592384338,2.27897787094116,-1.51677799224854,-1149.90002441406,11.1000003814697,-878.100036621094,2.08119803596982,-0.0318866215932346,0.194580419576211,ST
12.1333333333333,-0.421690791845322,-1.758540391922,10.11878490448,-0.914639949798584,0.670735955238342,-0.853663980960846,-1169.10009765625,18.9000015258789,-878.100036621094,2.08681242903222,-0.0418474464499331,0.173907389080152,ST
12.1666666666667,0.653172135353088,-1.68795943260193,9.72281360626221,-0.823175966739655,-1.19665396213531,-1.63110792636871,-1161.90002441406,18.3000011444092,-885.300048828125,2.09671987558304,0.0677334437273749,0.17318386948799,ST
12.2,1.42956173419952,-1.63173401355743,8.64854907989502,-0.754577994346619,-2.76678586006165,-1.69970595836639,-1149.90002441406,16.5,-878.100036621094,2.10378041381737,0.165509321621033,0.187350442404521,ST
12.2333333333333,1.12271440029144,-1.90388906002045,8.62103462219238,-0.152439996600151,-1.63110792636871,-1.20427596569061,-1149.90002441406,21.9000015258789,-878.100036621094,2.10526777341919,0.130011607398774,0.217184765372552,ST
12.2666666666667,1.1735565662384,-1.98523652553558,8.65333461761475,0.411587983369827,0.685979962348938,-1.05945801734924,-1145.10009765625,19.5,-882.900024414062,2.1120696190156,0.130661590699588,0.224465674404053,ST
12.3,0.343334078788757,-1.95353496074677,9.26224422454834,0.975615978240967,1.57775402069092,-0.503051996231079,-1161.90002441406,15.3000001907349,-878.100036621094,2.11934571306002,0.0341971367317033,0.206199685969358,ST
12.3333333333333,-0.214733332395554,-2.01574182510376,9.57088565826416,0.960371971130371,1.58537602424622,-0.297257989645004,-1152.30004882812,18.3000011444092,-885.300048828125,2.12366331959149,-0.0240725506278442,0.205928175001949,ST
12.3666666666667,-0.257799625396729,-2.27952289581299,10.006932258606,-0.282013982534409,-0.868907988071442,-0.503051996231079,-1149.90002441406,19.5,-890.100036621094,2.126137605081,-0.0234451309780023,0.224325128143071,ST
12.4,-0.0352904349565506,-2.13895916938782,8.96078014373779,-0.381099998950958,-1.57775402069092,-0.510673999786377,-1154.70007324219,10.5,-887.700012207031,2.127174124808,-0.0011295045607873,0.234896104359338,DLL
12.4333333333333,-0.0346922911703587,-2.29746723175049,8.87225437164307,-0.365855991840363,-0.586893975734711,0.144817993044853,-1154.70007324219,22.5,-887.700012207031,2.12517481145714,-0.0028452292185076,0.253890458124219,DLL
12.4666666666667,-0.308043628931046,-2.29387831687927,9.79160022735596,0.137196004390717,0.342989981174469,0.861285984516144,-1147.5,18.9000015258789,-885.300048828125,2.11955718549201,-0.0313135016840641,0.230037437251009,DLL
12.5,-0.600535571575165,-2.36984252929688,9.90345287322998,0.891773998737335,0.92988395690918,1.82927989959717,-1149.90002441406,12.3000001907349,-880.500061035156,2.10921924066325,-0.0609777241498871,0.233132427014645,DLL
12.5333333333333,-1.12091994285583,-2.05282664299011,10.3670139312744,1.28811800479889,-0.129574000835419,1.78354799747467,-1147.5,11.7000007629395,-880.500061035156,2.09384100986742,-0.105793242408661,0.193142631458242,DLL
12.5666666666667,-1.57909739017487,-1.36376595497131,9.86816310882568,1.40244793891907,-1.07470202445984,2.82776188850403,-1145.10009765625,21.9000015258789,-887.700012207031,2.06735235215746,-0.155611870231743,0.134568782999889,DLL
12.6,-1.746577501297,-1.32548487186432,9.53619384765625,-0.190549999475479,-3.31556987762451,7.1418137550354,-1159.5,15.3000001907349,-875.700012207031,2.016075155734,-0.175251152454811,0.136112618638942,DLL
12.6333333333333,-1.0335910320282,-1.40503787994385,9.33102989196777,-0.830797970294952,-5.60979175567627,11.1128759384155,-1161.90002441406,15.9000005722046,-882.900024414062,1.93598574558566,-0.102863814837555,0.14861412095992,DLL
12.6666666666667,-0.960019469261169,-1.58089184761047,8.33213138580322,-0.967993974685669,-8.34608936309814,14.8476552963257,-1171.5,20.1000003814697,-868.500061035156,1.81474174236677,-0.103165382064786,0.186129904657291,DLL
12.7,-1.10776078701019,-1.722651720047,8.92608737945557,-1.28049600124359,-6.95126390457153,18.026029586792,-1178.70007324219,24.3000011444092,-873.300048828125,1.6831542331188,-0.11513910803045,0.189030048465874,DLL
12.7333333333333,0.201574176549911,-2.59833312034607,8.63658618927002,-1.41769194602966,-6.47107791900635,20.5260448455811,-1181.10009765625,28.5000019073486,-861.300048828125,1.53891588344182,0.0218070249400534,0.294482609383213,DLL
12.7666666666667,0.311034351587296,-3.15640044212341,9.28078651428223,-1.60061991214752,-6.12808799743652,21.0900726318359,-1193.10009765625,27.9000015258789,-851.700012207031,1.37697681427344,0.0298633011883415,0.331534086133192,DLL
12.8,1.64549136161804,-3.75155282020569,8.72152233123779,-2.29422187805176,-6.28052806854248,20.2592754364014,-1185.90002441406,30.3000011444092,-851.700012207031,1.22586912375902,0.166387312917627,0.415527931210038,DLL
12.8333333333333,2.20415687561035,-3.76889896392822,8.66649341583252,-2.10367202758789,-5.54119396209717,17.4086475372314,-1195.5,32.1000022888184,-849.300048828125,1.10491793332031,0.225094968304719,0.421023176217809,DLL
12.8666666666667,2.35369253158569,-3.99918389320374,9.29334735870361,-1.08232402801514,-4.33691787719727,14.0930776596069,-1197.90002441406,40.5,-842.100036621094,1.00635643490738,0.225609880205013,0.414171931091911,DLL
12.9,2.07196736335754,-3.36993741989136,8.91891002655029,-0.0838419944047928,-3.67380380630493,10.9451913833618,-1193.10009765625,48.9000015258789,-849.300048828125,0.936648185724659,0.213202004191181,0.366093035997529,DLL
12.9333333333333,1.24712812900543,-2.78973889350891,9.63189601898193,1.55488801002502,-2.04269599914551,8.81865406036377,-1181.10009765625,43.5,-842.100036621094,0.883546742004344,0.123355644864429,0.281670325242063,DLL
12.9666666666667,1.75794219970703,-3.00865912437439,9.78203010559082,1.47104597091675,-1.42531394958496,7.53053569793701,-1169.10009765625,51.9000015258789,-844.500061035156,0.824279651786564,0.168380456201826,0.297968571518896,DLL
13.0,1.21482837200165,-2.22389554977417,9.51765060424805,1.87501192092896,-1.29574000835419,4.74088382720947,-1169.10009765625,52.5000038146973,-851.700012207031,0.799073712809112,0.12433399081869,0.227925245053058,DLL
13.0333333333333,1.9086742401123,-2.65874552726746,9.04691219329834,1.70732796192169,-0.716467976570129,3.94057393074036,-1164.30004882812,39.9000015258789,-839.700012207031,0.760853665794182,0.198395862625286,0.283768035310639,DLL
13.0666666666667,2.14015555381775,-2.66113805770874,9.05708122253418,0.823175966739655,-0.967993974685669,1.59299790859222,-1181.10009765625,50.1000022888184,-844.500061035156,0.746392654456678,0.223639600060514,0.285044745382258,DLL
13.1,0.858335137367249,-2.14135193824768,9.66060733795166,1.37958192825317,0.510673999786377,-0.0228659994900227,-1171.5,45.9000015258789,-832.500061035156,0.756856427159841,0.0867935921024895,0.216262182537815,DLL
13.1333333333333,1.38709354400635,-2.27533578872681,8.92190074920654,1.28049600124359,1.09756803512573,-0.632625997066498,-1161.90002441406,47.1000022888184,-849.300048828125,0.758084668821466,0.147434525642026,0.246987714312028,DLL
13.1666666666667,0.896616339683533,-1.9989937543869,9.36990928649902,1.17378795146942,1.39482593536377,-1.07470202445984,-1181.10009765625,46.5,-851.700012207031,0.771402301041464,0.0917050540488788,0.208188553075167,DLL
13.2,0.776987731456757,-2.07077097892761,9.58703517913818,0.960371971130371,1.2423859834671,-1.15092194080353,-1159.5,44.1000022888184,-863.700012207031,0.780180419866116,0.0774711825044752,0.210841826293189,DLL
13.2333333333333,0.99590802192688,-2.30045795440674,8.79090690612793,0.335367977619171,0.83841997385025,-1.53202199935913,-1178.70007324219,48.9000015258789,-837.300048828125,0.787495805174323,0.108162273513209,0.254679537571573,DLL
13.2666666666667,0.0645994395017624,-2.14194989204407,10.1385231018066,0.129574000835419,1.17378795146942,-1.21951997280121,-1181.10009765625,43.5,-839.700012207031,0.80069069439106,0.0052611511922075,0.208226092238047,DLL
13.3,1.00966536998749,-2.54868721961975,8.56540775299072,0.320124000310898,0.78506600856781,-0.190549999475479,-1169.10009765625,45.9000015258789,-844.500061035156,0.798713077577079,0.110677271682835,0.288114103183053,DLL
13.3333333333333,0.0945065915584564,-2.41709566116333,10.1092147827148,-0.243903994560242,0.899396002292633,-1.40244793891907,-1166.70007324219,44.7000007629395,-839.700012207031,0.813492478461419,0.0087231630359637,0.235387694892691,DLL
13.3666666666667,0.369652360677719,-2.5217707157135,8.91053581237793,0.327746003866196,0.800309956073761,-0.868907988071442,-1161.90002441406,41.7000007629395,-837.300048828125,0.819724803163331,0.0387126525545504,0.274829900703901,DLL
13.4,-1.44331896305084,-1.64728569984436,10.7659749984741,1.75305998325348,1.63872992992401,-0.434453994035721,-1171.5,41.7000007629395,-851.700012207031,0.820345974025827,-0.133648119370969,0.149529761109165,DLL
13.4333333333333,0.228490620851517,-2.3877866268158,9.1922607421875,2.01982998847961,1.2500079870224,1.22714197635651,-1159.5,45.9000015258789,-861.300048828125,0.819956926276049,0.020134852080415,0.249812145770322,DLL
13.4666666666667,-0.297277063131332,-2.28490614891052,9.40280723571777,0.121951997280121,0.282013982534409,0.0457319989800453,-1161.90002441406,49.5000038146973,-849.300048828125,0.820067124812163,-0.0307892705630508,0.238265772202361,DLL
13.5,0.800913453102112,-2.68386745452881,8.40809535980225,-1.6844619512558,-1.20427596569061,-0.213415995240211,-1164.30004882812,41.7000007629395,-842.100036621094,0.817531352264859,0.0919048491492351,0.311520203636112,DLL
13.5333333333333,-0.512608528137207,-2.48887300491333,10.1935529708862,-0.533540010452271,-0.510673999786377,-1.2576299905777,-1169.10009765625,44.7000007629395,-839.700012207031,0.826577302223242,-0.0462800301736166,0.241071115976537,DLL
13.5666666666667,0.23925718665123,-2.63422155380249,8.28128910064697,0.0457319989800453,-0.564027965068817,-1.49391198158264,-1183.5,45.9000015258789,-851.700012207031,0.835920197332187,0.0286254676451567,0.307287043558422,DLL
13.6,-0.211742609739304,-2.43683457374573,9.11569881439209,0.480185985565186,-0.853663980960846,-1.18903195858002,-1166.70007324219,52.5000038146973,-856.500061035156,0.842474600384543,-0.0200583927627922,0.260790405276446,DLL
13.6333333333333,-0.443822085857391,-2.36146855354309,9.29693603515625,0.640248000621796,-1.2347639799118,-0.564027965068817,-1178.70007324219,39.9000015258789,-844.500061035156,0.843882205477007,-0.0437103751303891,0.247752910016565,DLL
13.6666666666667,0.146545022726059,-2.15989422798157,9.42015361785889,-0.518296003341675,-0.960371971130371,0.426831990480423,-1173.90002441406,44.1000022888184,-858.900024414062,0.838939056835511,0.0162841974286743,0.226431404660908,DLL
13.7,0.28710862994194,-3.29038453102112,10.3897438049316,-1.43293595314026,-0.899396002292633,-0.594515979290009,-1173.90002441406,43.5,-846.900024414062,0.839542088892083,0.0280498646064627,0.308509615017918,DLL
13.7333333333333,0.644798099994659,-2.74368190765381,8.57796859741211,-0.0381099991500378,-1.63872992992401,-0.533540010452271,-1169.10009765625,45.3000030517578,-861.300048828125,0.839563702341243,0.0741014507587334,0.309625148951058,DLL
13.7666666666667,0.401353925466537,-2.56124830245972,8.78073883056641,0.907018005847931,-0.708845973014832,-0.259148001670837,-1176.30004882812,46.5,-842.100036621094,0.841177156361085,0.0454025229158391,0.282451753543614,DLL
13.8,0.325987905263901,-2.77957034111023,9.73178577423096,1.07470202445984,-0.0076219998300075,0.480185985565186,-1159.5,44.1000022888184,-849.300048828125,0.837944084604315,0.0320917833228912,0.27641084270609,DLL
13.8333333333333,0.665134966373444,-2.71198034286499,8.88661003112793,1.17378795146942,-0.495429992675781,0.327746003866196,-1178.70007324219,36.9000015258789,-854.100036621094,0.833379992389609,0.0718001161492218,0.294060240796446,DLL
13.8666666666667,0.753062009811401,-2.80947756767273,8.88900279998779,1.60824191570282,0.0381099991500378,0.78506600856781,-1176.30004882812,42.9000015258789,-851.700012207031,0.826720499118448,0.0800644971263185,0.303346034650259,DLL
13.9,0.448009073734283,-2.4416196346283,9.4315185546875,2.39330792427063,0.297257989645004,-0.0685980021953583,-1185.90002441406,46.5,-842.100036621094,0.83019755709493,0.0457630127190387,0.2495714925271,DLL
13.9333333333333,0.939084470272064,-2.42606782913208,8.90335845947266,3.7881338596344,1.75305998325348,-0.144817993044853,-1181.10009765625,41.7000007629395,-854.100036621094,0.831344962960673,0.0981640313384292,0.25924906450951,DLL
13.9666666666667,0.989926636219025,-2.14972591400146,9.26702880859375,3.3689239025116,2.41617393493652,-0.899396002292633,-1169.10009765625,39.9000015258789,-854.100036621094,0.842532520585463,0.099908618669686,0.222121764183782,DLL
14.0,-0.620872378349304,-1.37692511081696,9.37469482421875,2.67532205581665,2.05031800270081,-1.05945801734924,-1166.70007324219,44.7000007629395,-839.700012207031,0.855064127671179,-0.0680500603192254,0.141634643064141,DLL
14.0333333333333,0.738706588745117,-2.2250919342041,9.41477012634277,1.2576299905777,1.44055795669556,0.78506600856781,-1164.30004882812,49.5000038146973,-863.700012207031,0.851289735451275,0.0722880767605506,0.229208105481164,DLL
14.0666666666667,-0.0759641602635384,-1.70291304588318,9.78203010559082,-0.282013982534409,-0.990859985351562,-0.381099998950958,-1164.30004882812,39.9000015258789,-856.500061035156,0.854504588650915,-0.0051928507094947,0.173312550953143,DLL
14.1,-0.298473328351974,-1.61917304992676,9.83586311340332,-0.137196004390717,-1.37958192825317,0.266770005226135,-1149.90002441406,42.3000030517578,-866.100036621094,0.850930137035005,-0.0274502685654972,0.163454112125621,DLL
14.1333333333333,0.916953146457672,-2.05282664299011,8.73707485198975,-1.40244793891907,-2.24086785316467,0.160062000155449,-1166.70007324219,39.9000015258789,-858.900024414062,0.844566252389471,0.104463895215701,0.232758005850617,DLL
14.1666666666667,-0.0568235814571381,-1.65027642250061,9.55413722991943,-1.28811800479889,-1.95885396003723,0.266770005226135,-1171.5,38.1000022888184,-851.700012207031,0.843207722212035,-0.0019669274160227,0.173628042733724,DLL
14.2,0.194994613528252,-1.84826183319092,10.0673446655273,-0.609759986400604,-0.37347799539566,2.05031800270081,-1171.5,49.5000038146973,-851.700012207031,0.828784876150881,0.018868886653235,0.182624023503785,DLL
14.2333333333333,0.535936117172241,-2.21611976623535,9.7838249206543,-0.396344006061554,0.190549999475479,1.95885396003723,-1173.90002441406,39.9000015258789,-863.700012207031,0.814523358316502,0.0520233445046922,0.223271880292778,DLL
14.2666666666667,0.69264954328537,-1.75076448917389,9.61574649810791,-2.36281991004944,0.777444005012512,0.670735955238342,-1164.30004882812,39.9000015258789,-851.700012207031,0.814417861347943,0.069060446670514,0.184605531011383,DLL
14.3,0.341539651155472,-2.40094590187073,8.57138919830322,-0.640248000621796,1.22714197635651,0.121951997280121,-1169.10009765625,44.1000022888184,-839.700012207031,0.811407983691835,0.0363598495083393,0.273864894897803,DLL
14.3333333333333,-0.375633776187897,-2.24303603172302,9.97642707824707,0.0152439996600151,1.60824191570282,0.304879993200302,-1171.5,45.9000015258789,-854.100036621094,0.811866751923592,-0.0389534582026437,0.221565033601353,DLL
14.3666666666667,-0.0394774377346039,-2.17424964904785,9.18807411193848,0.46494197845459,1.27287399768829,0.457319974899292,-1159.5,35.1000022888184,-854.100036621094,0.811059224854634,-0.0067919958029007,0.231468666629668,DLL
14.4,-0.418700069189072,-2.23167133331299,10.222861289978,1.56251001358032,1.46342396736145,0.365855991840363,-1169.10009765625,45.3000030517578,-851.700012207031,0.81066082044188,-0.0423320529388979,0.212357475930653,DLL
14.4333333333333,0.668125689029694,-2.42666602134705,8.46073246002197,0.78506600856781,0.160062000155449,0.0304879993200302,-1164.30004882812,42.9000015258789,-866.100036621094,0.809437089598351,0.0745094097733041,0.277403776780204,DLL
14.4666666666667,-0.592161536216736,-2.07196736335754,10.3646211624146,0.663114011287689,-0.342989981174469,-0.419209986925125,-1154.70007324219,38.7000007629395,-856.500061035156,0.81266322394534,-0.0541734716749367,0.19684658520099,DLL
14.5,0.542515695095062,-2.40872168540955,8.42723655700684,0.221037998795509,-1.50153398513794,-0.0457319989800453,-1157.10009765625,44.7000007629395,-856.500061035156,0.809893804559982,0.0633870638012188,0.27738617134663,DLL
14.5333333333333,0.461168229579926,-2.55706119537354,9.48056602478027,-0.716467976570129,-1.37958192825317,-0.632625997066498,-1157.10009765625,43.5,-861.300048828125,0.812558925223982,0.0496571269640584,0.264779544600453,DLL
14.5666666666667,-0.144152462482452,-2.55107975006104,9.46321964263916,-0.335367977619171,-0.99848198890686,-0.167683988809586,-1152.30004882812,36.9000015258789,-861.300048828125,0.811851722738237,-0.0125921359542421,0.263907452307836,DLL
14.6,0.704014301300049,-2.46315264701843,8.21908283233643,0.152439996600151,-1.03659200668335,-0.342989981174469,-1166.70007324219,42.9000015258789,-846.900024414062,0.811105044777024,0.0829807299419092,0.290677197909744,DLL
14.6333333333333,-1.04615211486816,-2.06419134140015,9.3597412109375,1.2347639799118,0.670735955238342,-0.297257989645004,-1181.10009765625,39.3000030517578,-856.500061035156,0.813698971364195,-0.108169673437284,0.215614682651463,DLL
14.6666666666667,0.208751901984215,-2.9141526222229,9.38486289978027,0.259148001670837,0.960371971130371,0.213415995240211,-1154.70007324219,38.1000022888184,-851.700012207031,0.817910395421161,0.0184741864486871,0.299925214160361,DLL
14.7,-0.825437307357788,-2.39077734947205,9.78741359710693,-0.0457319989800453,0.274392008781433,-0.518296003341675,-1154.70007324219,49.5000038146973,-875.700012207031,0.819943942585238,-0.0811725538980989,0.24023199038278,DLL
14.7333333333333,-0.929514169692993,-2.38539409637451,9.71444034576416,0.571649968624115,1.2576299905777,-0.83841997385025,-1152.30004882812,47.1000022888184,-854.100036621094,0.827943313912727,-0.0943328659598429,0.23997481584596,DLL
14.7666666666667,-0.357689499855042,-2.62644577026367,9.22755146026611,0.922261953353882,1.29574000835419,-0.0533539988100529,-1164.30004882812,41.7000007629395,-866.100036621094,0.833650173472771,-0.0396769584840717,0.275548604702571,DLL
14.8,0.0628050118684769,-2.5857720375061,9.00504207611084,0.518296003341675,-0.0990860015153885,-0.426831990480423,-1166.70007324219,42.9000015258789,-851.700012207031,0.836365646545435,0.0066915758903712,0.278690010587712,DLL
14.8333333333333,-0.412120521068573,-2.30344867706299,8.61266040802002,0.388722002506256,-1.41006994247437,-0.0838419944047928,-1166.70007324219,46.5,-870.900024414062,0.834123410556859,-0.0433651091164531,0.260781707212651,DLL
14.8666666666667,-0.527562081813812,-2.58517384529114,10.5632047653198,0.670735955238342,-1.57013201713562,1.05945801734924,-1171.5,41.1000022888184,-849.300048828125,0.823633382660961,-0.0462270434572363,0.238912715520969,DLL
14.9,0.188415035605431,-2.22030663490295,8.94702243804932,0.815553963184357,-1.78354799747467,2.26373386383057,-1157.10009765625,43.5,-866.100036621094,0.805499474309111,0.0219503917631392,0.241889657084259,DLL
14.9333333333333,0.846372306346893,-2.43444180488586,9.66838264465332,0.792688012123108,-1.44055795669556,2.0655620098114,-1161.90002441406,38.7000007629395,-868.500061035156,0.788690275348171,0.0857242346797935,0.245596449581667,DLL
14.9666666666667,0.574217259883881,-2.155109167099,9.15816688537598,1.21951997280121,-0.746955990791321,1.40244793891907,-1171.5,40.5,-851.700012207031,0.778718955809281,0.0618656675208651,0.229290191106655,DLL
15.0,0.34811919927597,-2.04026556015015,8.99606990814209,1.16616594791412,-0.221037998795509,0.815553963184357,-1169.10009765625,37.5,-846.900024414062,0.772757285515897,0.0379488041935078,0.221100446022149,DLL
15.0333333333333,0.962412059307098,-2.36326289176941,8.53729438781738,0.907018005847931,-0.282013982534409,0.609759986400604,-1171.5,41.7000007629395,-858.900024414062,0.764037162604517,0.107932103366907,0.268266671190207,DLL
15.0666666666667,-1.01445043087006,-1.72683870792389,10.8724451065063,1.73019397258759,-0.167683988809586,0.510673999786377,-1159.5,38.1000022888184,-858.900024414062,0.761812963539324,-0.0901064778718679,0.15535457414563,DLL
15.1,0.20755560696125,-1.74418485164642,8.91651725769043,1.81403601169586,-0.579271972179413,1.53964400291443,-1169.10009765625,35.7000007629395,-846.900024414062,0.751852083577375,0.0223996963983444,0.189776099757739,DLL
15.1333333333333,0.891233026981354,-1.67061328887939,9.15457820892334,-1.84452390670776,-0.777444005012512,-0.358233988285065,-1169.10009765625,40.5,-870.900024414062,0.754644333457558,0.0963188551618974,0.183738760811312,DLL
15.1666666666667,1.03538548946381,-1.92003893852234,8.06655597686768,-1.06708002090454,-2.23324584960938,0.167683988809586,-1169.10009765625,47.1000022888184,-868.500061035156,0.744899622378212,0.127798060300254,0.235444113366435,DLL
15.2,0.620872378349304,-1.80220472812653,8.70178413391113,-0.548784017562866,-1.62348592281342,0.693601965904236,-1171.5,47.1000022888184,-858.900024414062,0.740984592546463,0.0726582200318089,0.205513677724384,DLL
15.2333333333333,0.748875021934509,-2.12400579452515,9.18568134307861,0.0381099991500378,-0.3125019967556,1.05183601379395,-1171.5,41.7000007629395,-849.300048828125,0.731546274555155,0.0793374356341744,0.227172370781245,DLL
15.2666666666667,0.123815596103668,-1.94815170764923,10.3448829650879,0.716467976570129,-0.0304879993200302,1.17378795146942,-1161.90002441406,41.7000007629395,-856.500061035156,0.725316079755309,0.0119883442511114,0.185263534808919,DLL
15.3,1.0634982585907,-2.27055072784424,9.49551963806152,1.29574000835419,-1.31860601902008,1.53202199935913,-1161.90002441406,38.7000007629395,-839.700012207031,0.709405387081324,0.109325646434349,0.232390182759631,DLL
15.3333333333333,1.08383500576019,-1.89970207214355,10.0440168380737,1.08232402801514,-1.92074394226074,0.663114011287689,-1171.5,37.5,-854.100036621094,0.706631014497271,0.108718063497272,0.185618054881063,DLL
15.3666666666667,0.409727931022644,-1.41042113304138,9.99197864532471,1.2423859834671,-0.548784017562866,0.0990860015153885,-1181.10009765625,47.1000022888184,-844.500061035156,0.708259461560546,0.0417680208971859,0.138258886141525,DLL
15.4,1.17893981933594,-1.8626172542572,8.93805027008057,1.16616594791412,0.655492007732391,-0.335367977619171,-1173.90002441406,44.7000007629395,-856.500061035156,0.705238678150478,0.127007932783797,0.203003196315078,DLL
15.4333333333333,0.622666835784912,-1.52885341644287,8.91651725769043,0.853663980960846,1.31860601902008,-1.04421401023865,-1176.30004882812,41.1000022888184,-858.900024414062,0.71678778396785,0.0672524038746473,0.168454262928306,DLL
15.4666666666667,0.558067381381989,-1.90987050533295,9.521240234375,0.0381099991500378,1.52439999580383,-1.85976791381836,-1164.30004882812,38.1000022888184,-856.500061035156,0.730905120554389,0.0554869367886546,0.197551690429066,DLL
15.5,0.461766362190247,-1.90927231311798,8.96795749664307,-0.426831990480423,1.31860601902008,-1.82165801525116,-1185.90002441406,41.1000022888184,-858.900024414062,0.74456764946479,0.0487861408319211,0.210231605278795,DLL
15.5333333333333,-0.0083740018308162,-2.11682796478271,9.39742469787598,-0.0609759986400604,1.55488801002502,-1.53964400291443,-1169.10009765625,37.5,-856.500061035156,0.757027751800504,-0.0025037916905894,0.221573590816083,DLL
15.5666666666667,0.400755792856216,-2.60192203521729,9.18269062042236,-0.823175966739655,0.922261953353882,-1.21951997280121,-1154.70007324219,41.7000007629395,-851.700012207031,0.765929932291134,0.040636703518838,0.276993349589679,DLL
15.6,-0.547898948192596,-2.28849506378174,9.98958587646484,-0.533540010452271,0.586893975734711,-1.01372599601746,-1171.5,39.9000015258789,-851.700012207031,0.77325780593613,-0.0532346824581942,0.226648333370305,DLL
15.6333333333333,0.324791640043259,-2.72334504127502,8.46372318267822,-0.533540010452271,0.0838419944047928,-0.708845973014832,-1166.70007324219,37.5,-844.500061035156,0.778891065704449,0.0360086999816418,0.311492142963406,DLL
15.6666666666667,-0.672910869121552,-2.49664878845215,9.90405178070068,-0.304879993200302,0.503051996231079,-0.777444005012512,-1159.5,44.1000022888184,-863.700012207031,0.783946123314671,-0.0654658719372181,0.248091686390108,DLL
15.7,-0.0556272976100445,-2.8680956363678,9.07622146606445,-0.106707997620106,0.114329993724823,0.0533539988100529,-1176.30004882812,46.5,-856.500061035156,0.785878428207902,-0.0065506893225196,0.305780922259554,DLL
15.7333333333333,-0.45937380194664,-2.74248552322388,10.054783821106,0.769822001457214,0.457319974899292,-0.190549999475479,-1178.70007324219,36.9000015258789,-861.300048828125,0.787156404961382,-0.0444190450867862,0.265290769879185,DLL
15.7666666666667,-0.508421540260315,-2.41530132293701,9.75331974029541,1.06708002090454,0.0990860015153885,-0.106707997620106,-1169.10009765625,38.7000007629395,-846.900024414062,0.787250972146568,-0.0506287560148203,0.241103519339351,DLL
15.8,-0.115441590547562,-2.63900685310364,8.99846267700195,1.07470202445984,-0.205793991684914,0.449698001146317,-1173.90002441406,34.5,-863.700012207031,0.78536009560342,-0.0124986323215947,0.28304041269259,DLL
15.8333333333333,-0.79074501991272,-2.26217675209045,10.3365087509155,0.335367977619171,-0.83841997385025,-0.457319974899292,-1169.10009765625,39.9000015258789,-856.500061035156,0.784355568009844,-0.0724984547957175,0.215462949785923,DLL
15.8666666666667,0.541319370269775,-2.65336227416992,7.93077754974365,0.152439996600151,-1.18903195858002,0.0762199983000755,-1159.5,42.9000015258789,-861.300048828125,0.781788834290337,0.0654198285043183,0.321755523303715,DLL
15.9,-0.720762252807617,-2.23226952552795,9.94352912902832,0.762199997901917,-0.670735955238342,-0.205793991684914,-1173.90002441406,34.5,-851.700012207031,0.782052544346279,-0.0682859805722185,0.220350186783402,DLL
15.9333333333333,-0.107067592442036,-2.50263023376465,9.70307540893555,1.2500079870224,-0.632625997066498,0.472563982009888,-1161.90002441406,38.1000022888184,-854.100036621094,0.779206471178992,-0.0102968616520363,0.249981091539952,DLL
15.9666666666667,0.308641761541367,-2.22808265686035,8.92190074920654,1.42531394958496,-1.27287399768829,0.647870004177094,-1161.90002441406,39.3000030517578,-851.700012207031,0.772593968120379,0.035061122974548,0.242356314355758,DLL
16.0,-0.439036935567856,-1.6084064245224,9.85500335693359,1.61586391925812,-1.17378795146942,0.830797970294952,-1161.90002441406,44.7000007629395,-858.900024414062,0.764867289529657,-0.0417867872864775,0.159284197701368,DLL
16.0333333333333,0.243444189429283,-2.79392576217651,9.95130443572998,-1.12043392658234,-0.579271972179413,0.0076219998300075,-1173.90002441406,36.9000015258789,-849.300048828125,0.764833099276054,0.0242027913337731,0.275122501618539,DLL
16.0666666666667,0.47851437330246,-2.27892470359802,9.33043193817139,0.266770005226135,-0.92988395690918,1.35671591758728,-1183.5,43.5,-846.900024414062,0.754779160924227,0.0506413852310643,0.239428961516674,DLL
16.1,1.29497957229614,-2.25679349899292,7.95589971542358,-0.647870004177094,-1.41006994247437,0.754577994346619,-1176.30004882812,35.1000022888184,-861.300048828125,0.743006158092474,0.156918343453531,0.277683732787724,DLL
16.1333333333333,0.507225215435028,-2.45657324790955,9.48594951629639,0.442075997591019,-0.114329993724823,1.82165801525116,-1178.70007324219,43.5,-856.500061035156,0.732984090095493,0.0519760262206424,0.253007391176091,DLL
16.1666666666667,0.468345940113068,-2.35309433937073,9.95489311218262,0.525918006896973,-0.449698001146317,1.13567793369293,-1173.90002441406,36.9000015258789,-846.900024414062,0.725002160806026,0.0460949595762196,0.231418228256115,DLL
16.2,1.25011885166168,-2.57859444618225,9.13603591918945,0.320124000310898,-0.800309956073761,0.83841997385025,-1181.10009765625,47.7000007629395,-849.300048828125,0.71395301496165,0.131182411970121,0.274402149848193,DLL
16.2333333333333,0.613694667816162,-2.04026556015015,9.26044940948486,0.830797970294952,-0.853663980960846,0.541162014007568,-1173.90002441406,38.7000007629395,-846.900024414062,0.714117469683656,0.0663247880355831,0.215890850605124,DLL
16.2666666666667,0.865512907505035,-2.01394748687744,9.28078651428223,1.07470202445984,-0.0152439996600151,1.07470202445984,-1181.10009765625,37.5,-846.900024414062,0.706058230186392,0.0903800729117497,0.212000691337057,DLL
16.3,0.274547636508942,-1.65984678268433,8.54507064819336,1.54726600646973,1.56251001358032,1.49391198158264,-1173.90002441406,46.5,-851.700012207031,0.698899613758189,0.0288653899161912,0.189405565727244,DLL
16.3333333333333,0.518589973449707,-1.89132809638977,9.55892276763916,0.480185985565186,1.27287399768829,0.434453994035721,-1173.90002441406,33.3000030517578,-870.900024414062,0.697291444686705,0.0506639428272556,0.194472647195455,DLL
16.3666666666667,0.153722748160362,-1.96549785137177,9.77305793762207,1.31860601902008,0.266770005226135,0.396344006061554,-1164.30004882812,38.7000007629395,-846.900024414062,0.694391229570308,0.0149678339415339,0.196167584913789,DLL
16.4,0.284716039896011,-2.12938904762268,10.1929540634155,0.480185985565186,-0.37347799539566,-0.388722002506256,-1169.10009765625,40.5,-870.900024414062,0.696229250498359,0.028004115295502,0.205020216065591,DLL
16.4333333333333,0.409727931022644,-1.6263507604599,9.45963096618652,0.114329993724823,-1.29574000835419,-0.0762199983000755,-1173.90002441406,35.1000022888184,-866.100036621094,0.696385192822013,0.0447739602038926,0.170358498401844,DLL
16.4666666666667,0.65735912322998,-1.87757074832916,9.88491058349609,0.129574000835419,-0.533540010452271,-0.388722002506256,-1161.90002441406,40.5,-854.100036621094,0.697469115944073,0.0661590895865286,0.187351118879359,DLL
16.5,0.235668331384659,-1.82971930503845,9.2999267578125,0.891773998737335,0.381099998950958,-0.3125019967556,-1176.30004882812,35.1000022888184,-861.300048828125,0.699708237541645,0.0245965346136021,0.192654456228338,DLL
16.5333333333333,0.626255691051483,-1.98762905597687,9.18927001953125,0.381099998950958,0.92988395690918,-0.975615978240967,-1166.70007324219,38.7000007629395,-856.500061035156,0.70660097644394,0.0649491777194191,0.212063624661177,DLL
16.5666666666667,0.453990519046783,-1.99121797084808,9.1091194152832,0.525918006896973,0.899396002292633,-0.92988395690918,-1157.10009765625,36.9000015258789,-863.700012207031,0.714555626779848,0.0475446593397795,0.214190712806767,DLL
16.6,-0.761435985565186,-1.75495147705078,10.500997543335,0.983237981796265,1.13567793369293,-0.533540010452271,-1166.70007324219,33.3000030517578,-868.500061035156,0.719228436264884,-0.0722098984701945,0.164374157838054,DLL
16.6333333333333,0.318212062120438,-1.98822724819183,8.81184196472168,1.29574000835419,0.609759986400604,0.769822001457214,-1164.30004882812,39.3000030517578,-856.500061035156,0.715748414439326,0.0331548565334384,0.219307041885308,DLL
16.6666666666667,-0.78775429725647,-1.95712375640869,10.72829246521,1.02897000312805,0.83841997385025,0.0152439996600151,-1169.10009765625,45.3000030517578,-868.500061035156,0.716258994072503,-0.0726816068225678,0.178996721292734,DLL
16.7,0.659153580665588,-2.57799625396729,9.42134952545166,-1.73781597614288,-1.22714197635651,-0.182927995920181,-1173.90002441406,46.5,-854.100036621094,0.716001929201158,0.0683585828759583,0.269393677706073,DLL
16.7333333333333,-0.20755560696125,-2.23226952552795,9.38067626953125,-1.32622802257538,-1.6692179441452,0.152439996600151,-1159.5,42.3000030517578,-861.300048828125,0.713042184670877,-0.0180403059548849,0.236194355150286,DLL
16.7666666666667,0.951645493507385,-2.83699202537537,7.88412237167358,-0.731711983680725,-0.541162014007568,0.457319974899292,-1178.70007324219,36.3000030517578,-851.700012207031,0.703700581621909,0.113082483354098,0.346275354771689,DLL
16.8,-0.16568560898304,-2.87288069725037,9.82808685302734,0.525918006896973,0.92988395690918,-0.350611984729767,-1173.90002441406,45.3000030517578,-863.700012207031,0.710965741968092,-0.0166732946030962,0.283913974365174,DLL
16.8333333333333,0.245238617062569,-2.7801685333252,8.9177131652832,0.617381989955902,-0.0228659994900227,0.0304879993200302,-1169.10009765625,42.3000030517578,-861.300048828125,0.710570933091912,0.0259183689763894,0.300991684934654,DLL
16.8666666666667,-0.871494293212891,-2.08991146087646,9.95668792724609,0.602137982845306,-0.701223969459534,0.0685980021953583,-1161.90002441406,42.3000030517578,-856.500061035156,0.706502522311031,-0.0833823099124059,0.20659971719865,DLL
16.9,-1.30036282539368,-1.96310520172119,10.1295509338379,1.01372599601746,0.0228659994900227,0.769822001457214,-1166.70007324219,42.3000030517578,-851.700012207031,0.700381545402368,-0.125314937739736,0.189634399056979,DLL
16.9333333333333,-0.532945394515991,-2.25858783721924,9.89507961273193,0.213415995240211,0.137196004390717,1.21189796924591,-1159.5,32.1000022888184,-861.300048828125,0.695568415182661,-0.0537528092222751,0.223644582540535,DLL
16.9666666666667,0.0322997197508812,-2.19219398498535,9.05050086975098,-1.50153398513794,-0.937505960464478,-0.617381989955902,-1171.5,37.5,-866.100036621094,0.698583958068122,0.0049096220501483,0.240146197549451,DLL
17.0,0.428270369768143,-3.16656899452209,8.58095932006836,-4.45124769210815,-1.28811800479889,-2.82013988494873,-1166.70007324219,41.7000007629395,-858.900024414062,0.711999655320018,0.0502352119908878,0.360104392906354,DLL
17.0333333333333,0.0819455906748772,-2.2651674747467,8.63060474395752,0.846041977405548,0.350611984729767,-1.04421401023865,-1166.70007324219,39.3000030517578,-854.100036621094,0.723292241937776,0.009250573880664,0.255666984947497,DLL
17.0666666666667,1.37453258037567,-3.2048499584198,9.7419548034668,0.411587983369827,1.08994603157043,-2.30946588516235,-1164.30004882812,40.5,-868.500061035156,0.737622028579303,0.132086047532651,0.316235379475549,DLL
17.1,1.3039516210556,-3.09658622741699,9.2227668762207,0.0152439996600151,0.777444005012512,-8.49090766906738,-1185.90002441406,35.1000022888184,-863.700012207031,0.795386528064053,0.136606090020311,0.321872239976469,DLL
17.1333333333333,2.04624700546265,-3.23894429206848,9.18328857421875,0.815553963184357,1.53202199935913,-10.8156175613403,-1176.30004882812,43.5,-861.300048828125,0.864937290564773,0.210164231676477,0.333611122666217,DLL
17.1666666666667,1.40743041038513,-2.82144045829773,8.71913051605225,1.16616594791412,3.24697184562683,-14.5961294174194,-1181.10009765625,34.5,-870.900024414062,0.969725969501761,0.155170012124216,0.307021601277727,DLL
17.2,0.954038023948669,-2.51997637748718,9.60557842254639,3.70429182052612,4.25307607650757,-11.9512958526611,-1183.5,29.7000007629395,-875.700012207031,1.06102317316631,0.0942644577694481,0.248445847070433,DLL
17.2333333333333,0.77878212928772,-2.04206013679504,8.04382705688477,3.68142580986023,3.3460578918457,-12.5839214324951,-1166.70007324219,33.9000015258789,-866.100036621094,1.15678282195379,0.093133642775549,0.240100953262243,DLL
17.2666666666667,-1.24652993679047,-1.68197798728943,11.0255689620972,3.63569402694702,3.29270386695862,-9.94670963287354,-1176.30004882812,27.3000011444092,-882.900024414062,1.22888368550734,-0.112659398771661,0.147722980478151,DLL
17.3,-0.396568775177002,-1.65506160259247,9.82689094543457,3.58996200561523,2.11891603469849,-8.49090766906738,-1161.90002441406,14.7000007629395,-873.300048828125,1.29145496907073,-0.0416425611895387,0.16115262778843,DLL
17.3333333333333,-0.0053832866251468,-1.15441596508026,9.12885761260986,2.17227005958557,0.632625997066498,-9.07017993927002,-1173.90002441406,23.1000003814697,-875.700012207031,1.35912329488149,6.55532957180027e-05,0.122198533476233,DLL
17.3666666666667,-0.543711960315704,-0.840988993644714,9.16833591461182,2.47714996337891,1.04421401023865,-6.25766181945801,-1169.10009765625,15.3000001907349,-873.300048828125,1.40254632933189,-0.0593355182989203,0.0880634598427509,DLL
17.4,-0.353502482175827,-1.01325416564941,9.00444412231445,1.76068198680878,1.6768399477005,-5.51070594787598,-1161.90002441406,15.3000001907349,-882.900024414062,1.44676763469414,-0.0409452135324452,0.1092919006288,DLL
17.4333333333333,-0.114245310425758,-0.721360445022583,8.73587799072266,1.19665396213531,2.04269599914551,-4.65704202651978,-1171.5,24.3000011444092,-882.900024414062,1.47940339010844,-0.0161276933185446,0.0806786151761294,DLL
17.4666666666667,0.221312895417213,-1.05572235584259,9.35435771942139,0.304879993200302,1.20427596569061,-4.45886993408203,-1169.10009765625,17.7000007629395,-878.100036621094,1.51077805685622,0.0219574918446128,0.1114322391469,DLL
17.5,-0.809885561466217,-0.920542061328888,10.0942611694336,0.586893975734711,1.20427596569061,-3.04879999160767,-1164.30004882812,13.5000009536743,-894.900024414062,1.53278681561422,-0.0806317523682568,0.0904896797228981,DLL
17.5333333333333,-0.70162171125412,-1.10177934169769,11.1099071502686,0.594515979290009,1.18140995502472,-1.76068198680878,-1154.70007324219,15.9000005722046,-880.500061035156,1.54687162457468,-0.0646245377118059,0.0979713349327071,DLL
17.5666666666667,0.723752975463867,-1.09220910072327,9.3118896484375,-0.213415995240211,-0.655492007732391,-1.32622802257538,-1166.70007324219,15.3000001907349,-894.900024414062,1.55540692575429,0.0772692707172642,0.116818846756998,DLL
