seconds,sensor_accX_m_s_,sensor_accY_m_s_,sensor_accZ_m_s_,sensor_gyroX___s_,sensor_gyroY___s_,sensor_gyroZ___s_,sensor_magX__T_,sensor_magY__T_,sensor_magZ__T_,sensor_yaw___,sensor_pitch___,sensor_roll___,label2
0.0,3.44769597053528,-1.2238005399704,8.96855545043945,0.221037998795509,0.0457319989800453,0.403965979814529,-1245.90002441406,13.5000009536743,-844.500061035156,-2.94396727817874,0.364032863115207,0.135176742686855,ST
0.0333333333333333,3.38907814025879,-1.24712812900543,9.1450080871582,0.121951997280121,0.0762199983000755,0.236281991004944,-1255.5,12.3000001907349,-834.900024414062,-2.94537398823494,0.352057462399048,0.135459860879854,ST
0.0666666666666667,3.35019874572754,-1.2818204164505,9.1808967590332,0.282013982534409,0.0381099991500378,0.167683988809586,-1250.70007324219,14.1000003814697,-834.900024414062,-2.94761316592691,0.346838144679373,0.138253023821775,ST
0.1,3.25748658180237,-1.28062415122986,9.1802978515625,0.548784017562866,0.396344006061554,0.137196004390717,-1253.10009765625,14.1000003814697,-832.500061035156,-2.94877833381133,0.337493071232725,0.13771014880638,ST
0.133333333333333,3.2646644115448,-1.17714536190033,8.97692966461182,0.655492007732391,0.495429992675781,0.0838419944047928,-1250.70007324219,12.9000005722046,-842.100036621094,-2.94731104999124,0.345038309996329,0.129429179691577,ST
0.166666666666667,3.31131958961487,-1.09101283550262,9.03853797912598,0.594515979290009,0.259148001670837,0.274392008781433,-1257.90002441406,11.7000007629395,-830.100036621094,-2.94616558555161,0.348245001777771,0.119518202343078,ST
0.2,3.04574394226074,-1.0975923538208,9.03435134887695,0.663114011287689,0.0,0.426831990480423,-1248.30004882812,9.30000019073486,-832.500061035156,-2.94980105688504,0.32331996294392,0.119982902154602,ST
0.233333333333333,3.24612188339233,-0.914560616016388,8.87943267822266,0.327746003866196,0.548784017562866,0.556405961513519,-1243.5,12.3000001907349,-844.500061035156,-2.94714679887921,0.347069723179359,0.102858814907518,ST
0.266666666666667,3.33584332466125,-0.82364284992218,8.49781703948975,-0.243903994560242,2.56099200248718,0.289635986089706,-1241.10009765625,12.3000001907349,-832.500061035156,-2.94490300065338,0.367416036114452,0.0972347252024472,ST
0.3,3.70250487327576,-0.485692083835602,9.02717399597168,-2.69056582450867,5.20582580566406,0.922261953353882,-1236.30004882812,7.50000047683716,-846.900024414062,-2.92882491626637,0.379239975433584,0.0599442619965151,ST
0.333333333333333,2.75684094429016,-1.73102581501007,9.20362567901611,-3.49849796295166,5.67076778411865,1.75305998325348,-1231.5,13.5000009536743,-846.900024414062,-2.96940684977413,0.278894652499109,0.188861638384311,ST
0.366666666666667,2.35010361671448,-1.5061240196228,9.45963096618652,-1.35671591758728,5.8536958694458,3.10215401649475,-1224.30004882812,12.9000005722046,-851.700012207031,-2.97127726317079,0.230973909221139,0.161897114678517,ST
0.4,2.36685180664062,-1.84766364097595,9.64505577087402,-0.670735955238342,4.76375007629395,3.04879999160767,-1214.70007324219,11.7000007629395,-858.900024414062,-2.9877823119997,0.227442093660575,0.190492722122251,ST
0.433333333333333,2.15630531311035,-1.98882532119751,9.48714542388916,-0.518296003341675,3.33843588829041,2.34757590293884,-1200.30004882812,15.9000005722046,-858.900024414062,-2.99919846736845,0.212757509857305,0.207678730607898,ST
0.466666666666667,1.93618881702423,-2.14374446868896,9.85859203338623,0.0152439996600151,2.17227005958557,1.92836594581604,-1209.90002441406,13.5000009536743,-861.300048828125,-3.00779796551728,0.185937465971357,0.214377310483058,ST
0.5,1.52406823635101,-2.03488230705261,9.61335372924805,0.670735955238342,1.21951997280121,1.6615959405899,-1185.90002441406,20.7000007629395,-868.500061035156,-3.01429399947945,0.152136474247192,0.207977552192297,ST
0.533333333333333,1.16996765136719,-1.76093292236328,9.65582180023193,1.57013201713562,0.701223969459534,1.72257196903229,-1202.70007324219,15.3000001907349,-870.900024414062,-3.02048640947756,0.117448996943272,0.178445007158495,ST
0.566666666666667,1.07067596912384,-1.64130425453186,9.28975868225098,1.91312193870544,0.282013982534409,1.85214591026306,-1200.30004882812,15.3000001907349,-858.900024414062,-3.03002365586676,0.112120811298011,0.172064040789688,ST
0.6,1.07486295700073,-1.36675667762756,9.0672492980957,2.17989206314087,0.0609759986400604,2.0731840133667,-1195.5,15.3000001907349,-861.300048828125,-3.03895566148982,0.115936761770421,0.146921344681314,ST
0.633333333333333,0.920542061328888,-1.30215728282928,9.31428241729736,0.990859985351562,0.0076219998300075,2.24086785316467,-1195.5,20.7000007629395,-870.900024414062,-3.05102461212984,0.0973565066089161,0.137724730165311,ST
0.666666666666667,1.1478363275528,-1.43434679508209,9.42015361785889,0.396344006061554,0.0838419944047928,2.26373386383057,-1183.5,11.7000007629395,-854.100036621094,-3.06446550397863,0.118632347742927,0.150553347876325,ST
0.7,1.47083353996277,-1.73880159854889,9.72700119018555,0.266770005226135,-0.243903994560242,1.83690190315247,-1197.90002441406,18.3000011444092,-866.100036621094,-3.07755726490707,0.146844116285231,0.176175212084906,ST
0.733333333333333,1.58089184761047,-1.62694883346558,9.69230842590332,0.388722002506256,-0.579271972179413,1.18140995502472,-1188.30004882812,19.5,-854.100036621094,-3.08281895856776,0.159783136242571,0.166260571272558,ST
0.766666666666667,1.62993955612183,-1.63352847099304,9.43032169342041,0.556405961513519,-0.167683988809586,0.87652999162674,-1193.10009765625,20.7000007629395,-875.700012207031,-3.08889080995381,0.16852990999845,0.170717038446121,ST
0.8,1.58448076248169,-1.64369690418243,9.25506591796875,0.434453994035721,0.0838419944047928,0.685979962348938,-1197.90002441406,15.3000001907349,-854.100036621094,-3.09337317375246,0.166693214901526,0.175080973938953,ST
0.833333333333333,1.30873680114746,-1.65147268772125,9.45424747467041,0.419209986925125,0.266770005226135,0.396344006061554,-1195.5,20.1000003814697,-868.500061035156,-3.09504431068817,0.135813928919868,0.172364542642796,ST
0.866666666666667,1.20705246925354,-1.64010798931122,9.3956298828125,0.701223969459534,0.419209986925125,0.137196004390717,-1207.5,16.5,-863.700012207031,-3.09574119916926,0.125415703777354,0.171630311482749,ST
0.9,1.13228464126587,-1.54919028282166,9.31727313995361,0.670735955238342,0.0990860015153885,0.0762199983000755,-1195.5,14.7000007629395,-866.100036621094,-3.09551107037146,0.119289158062467,0.16382348519466,ST
0.933333333333333,1.21064138412476,-1.50074076652527,9.401611328125,0.701223969459534,-0.0304879993200302,0.160062000155449,-1193.10009765625,15.9000005722046,-858.900024414062,-3.09599808163341,0.12629370472241,0.157285444151621,ST
0.966666666666667,1.25490391254425,-1.46485209465027,9.45963096618652,0.564027965068817,-0.434453994035721,0.3125019967556,-1195.5,13.5000009536743,-861.300048828125,-3.09773811997716,0.130890561463779,0.152858087561145,ST
1.0,1.28062415122986,-1.25849282741547,9.37050819396973,0.579271972179413,-0.487807989120483,0.701223969459534,-1209.90002441406,14.7000007629395,-861.300048828125,-3.09944958630812,0.135189093045874,0.133222993169267,ST
1.03333333333333,1.54978847503662,-1.32069969177246,9.2347297668457,0.564027965068817,-0.358233988285065,0.960371971130371,-1197.90002441406,17.7000007629395,-854.100036621094,-3.10620612534507,0.164201099400978,0.141128870849937,ST
1.06666666666667,1.70590376853943,-1.33505511283875,9.32744121551514,0.3125019967556,-0.579271972179413,0.945127964019775,-1195.5,21.9000015258789,-863.700012207031,-3.11181676575363,0.179446910849287,0.141918237603564,ST
1.1,1.78126978874207,-1.53543305397034,9.51765060424805,0.0381099991500378,-0.480185985565186,0.67835795879364,-1190.70007324219,13.5000009536743,-866.100036621094,-3.11883982592127,0.183241261209649,0.159625397827919,ST
1.13333333333333,1.63592100143433,-1.69154834747314,9.61694240570068,-0.0381099991500378,-0.0152439996600151,0.304879993200302,-1195.5,17.7000007629395,-863.700012207031,-3.12283187074873,0.166401325371455,0.173870766209592,ST
1.16666666666667,1.50971281528473,-1.84228038787842,9.65641975402832,-0.0609759986400604,0.754577994346619,-0.0762199983000755,-1202.70007324219,12.9000005722046,-875.700012207031,-3.12395615398571,0.151529730683512,0.188167090503246,ST
1.2,1.1556122303009,-1.80340111255646,9.98659515380859,0.0762199983000755,0.670735955238342,-0.327746003866196,-1197.90002441406,18.3000011444092,-873.300048828125,-3.12033069546704,0.113148220131353,0.178635042104621,ST
1.23333333333333,1.06110560894012,-1.6903520822525,9.37050819396973,0.297257989645004,0.396344006061554,-0.350611984729767,-1209.90002441406,15.3000001907349,-856.500061035156,-3.11827964266307,0.110484294741038,0.177892643153629,ST
1.26666666666667,1.22798752784729,-1.63293027877808,9.08878231048584,0.160062000155449,-0.0990860015153885,-0.175305992364883,-1193.10009765625,15.3000001907349,-870.900024414062,-3.11753390801405,0.131832517609189,0.177465320717977,ST
1.3,1.23157632350922,-1.7423905134201,9.14979267120361,-0.205793991684914,0.0914639979600906,0.327746003866196,-1190.70007324219,17.7000007629395,-851.700012207031,-3.12038468499315,0.131216933899187,0.188302803802542,ST
1.33333333333333,1.15202331542969,-1.83330821990967,9.30291748046875,-0.259148001670837,0.472563982009888,0.396344006061554,-1190.70007324219,19.5,-861.300048828125,-3.12271409465638,0.1201651807116,0.194968180584922,ST
1.36666666666667,1.03000223636627,-1.87517821788788,9.63369083404541,-0.198172003030777,0.190549999475479,0.579271972179413,-1188.30004882812,23.1000003814697,-868.500061035156,-3.12509356101512,0.104482624173454,0.192750796982539,ST
1.4,1.20226740837097,-1.78844749927521,9.48894023895264,0.0533539988100529,-0.350611984729767,0.6250039935112,-1195.5,21.9000015258789,-873.300048828125,-3.12791492668817,0.123732314790741,0.186518657689798,ST
1.43333333333333,1.37034559249878,-1.72743690013885,9.42314434051514,0.259148001670837,-0.556405961513519,0.602137982845306,-1197.90002441406,10.5,-875.700012207031,-3.13105988251335,0.142387295194866,0.181155383220766,ST
1.46666666666667,1.46245956420898,-1.6544634103775,9.3238525390625,0.365855991840363,-0.327746003866196,0.503051996231079,-1205.10009765625,15.3000001907349,-861.300048828125,-3.13331309106941,0.153331885461357,0.175289983473761,ST
1.5,1.49535739421844,-1.69513714313507,9.20242977142334,0.442075997591019,-0.106707997620106,0.434453994035721,-1190.70007324219,22.5,-851.700012207031,-3.13714713553504,0.158420878122868,0.181403677366,ST
1.53333333333333,1.41042113304138,-1.80818617343903,9.6043815612793,0.396344006061554,0.121951997280121,0.160062000155449,-1185.90002441406,11.1000003814697,-861.300048828125,-3.13879514729989,0.143384495859773,0.185348160748305,ST
1.56666666666667,1.27225005626678,-1.78964376449585,9.56071758270264,0.449698001146317,0.228659987449646,-0.0685980021953583,-1197.90002441406,14.7000007629395,-873.300048828125,-3.13839738181608,0.130062644450481,0.184266109588769,ST
1.6,1.10058307647705,-1.85603761672974,9.53081035614014,0.236281991004944,0.190549999475479,-0.205793991684914,-1193.10009765625,16.5,-858.900024414062,-3.13821447880771,0.11308217077966,0.191666994434351,ST
1.63333333333333,1.27165198326111,-1.87039303779602,9.67316818237305,0.0076219998300075,-0.388722002506256,-0.137196004390717,-1183.5,20.7000007629395,-873.300048828125,-3.13782517339409,0.128637942828087,0.190993932169978,ST
1.66666666666667,0.806894838809967,-1.83390629291534,9.55593204498291,0.282013982534409,-0.853663980960846,-0.137196004390717,-1193.10009765625,20.1000003814697,-870.900024414062,-3.1379385318803,0.0849392125429661,0.189149504762684,ST
1.7,1.06888151168823,-1.87278568744659,9.23293495178223,0.495429992675781,-0.335367977619171,0.221037998795509,-1195.5,21.9000015258789,-866.100036621094,-3.14080423853681,0.112958579153984,0.19912923258839,ST
1.73333333333333,1.05811488628387,-1.83809340000153,9.36093711853027,0.762199997901917,-0.6250039935112,-0.0152439996600151,-1173.90002441406,21.9000015258789,-866.100036621094,-3.1411604947089,0.111566800189708,0.192699347332015,ST
1.76666666666667,0.720762252807617,-1.71427774429321,9.58524131774902,0.830797970294952,-0.449698001146317,-0.266770005226135,-1195.5,18.9000015258789,-863.700012207031,-3.13896268590032,0.075403897509882,0.175809234218547,ST
1.8,0.724949300289154,-1.672407746315,9.16833591461182,0.510673999786377,-0.0990860015153885,-0.243903994560242,-1197.90002441406,9.30000019073486,-846.900024414062,-3.1382919445804,0.0778098718718997,0.179405490480205,ST
1.83333333333333,0.557469248771667,-1.54320883750916,9.49551963806152,0.3125019967556,-0.0304879993200302,-0.221037998795509,-1188.30004882812,18.3000011444092,-856.500061035156,-3.13594295096324,0.0583554665197849,0.160882926917489,ST
1.86666666666667,-0.193200185894966,-1.39666378498077,9.30830097198486,0.266770005226135,0.37347799539566,0.647870004177094,-1193.10009765625,11.7000007629395,-875.700012207031,-3.13873779501928,-0.0191667612320961,0.148797928422033,ST
1.9,-0.146545022726059,-1.42657101154327,9.75930118560791,0.0762199983000755,0.891773998737335,1.15092194080353,-1197.90002441406,9.90000057220459,-861.300048828125,3.13915997059018,-0.0167555317792073,0.145088276878219,ST
1.93333333333333,0.201574176549911,-1.39486944675446,9.78621673583984,0.381099998950958,0.335367977619171,0.78506600856781,-1181.10009765625,20.1000003814697,-873.300048828125,3.13536671461362,0.0186264898270759,0.141048173128542,ST
1.96666666666667,0.222509190440178,-1.40683221817017,9.58105373382568,0.67835795879364,0.160062000155449,0.769822001457214,-1183.5,20.1000003814697,-875.700012207031,3.1310344417844,0.0224339497642721,0.144572872576635,ST
2.0,0.200377896428108,-1.28122222423553,8.94522857666016,0.602137982845306,0.37347799539566,0.731711983680725,-1183.5,18.9000015258789,-873.300048828125,3.12745143528822,0.0213709197674857,0.141315618883042,ST
2.03333333333333,0.0460570082068443,-1.20884692668915,9.39742469787598,0.304879993200302,0.525918006896973,0.754577994346619,-1188.30004882812,14.7000007629395,-868.500061035156,3.12409141726864,0.0042595860285885,0.127786824633901,ST
2.06666666666667,-0.080151155591011,-1.23277270793915,9.62770938873291,0.419209986925125,0.304879993200302,0.67835795879364,-1188.30004882812,14.7000007629395,-868.500061035156,3.12061287376558,-0.0086616573313952,0.126635603263456,ST
2.1,0.0837400183081627,-1.17295837402344,9.39682579040527,0.266770005226135,0.487807989120483,0.846041977405548,-1188.30004882812,15.3000001907349,-875.700012207031,3.11657060485257,0.0073667941940757,0.123804175066628,ST
2.13333333333333,0.349913626909256,-1.40324342250824,9.77664661407471,-0.0,0.0304879993200302,0.579271972179413,-1183.5,14.1000003814697,-863.700012207031,3.11323604936779,0.0344608827571758,0.142076895759109,ST
2.16666666666667,0.375633776187897,-1.37393438816071,9.82509613037109,0.0838419944047928,-0.320124000310898,0.0,-1188.30004882812,21.3000011444092,-880.500061035156,3.11309074202758,0.0383173400144915,0.138862909834256,ST
2.2,0.221312895417213,-1.38051402568817,9.82868576049805,0.106707997620106,-0.129574000835419,-0.0304879993200302,-1200.30004882812,15.9000005722046,-856.500061035156,3.11312695883189,0.0228529023072631,0.139347856612893,ST
2.23333333333333,-0.0370848625898361,-1.3320643901825,10.1439065933228,-0.137196004390717,-0.411587983369827,0.266770005226135,-1195.5,9.90000057220459,-868.500061035156,3.11156174917861,-0.0022711915209931,0.131041771509507,ST
2.26666666666667,0.136376604437828,-1.35718643665314,10.2264499664307,0.0990860015153885,-0.205793991684914,0.434453994035721,-1181.10009765625,13.5000009536743,-863.700012207031,3.10889267411005,0.0132292814136103,0.131767637779158,ST
2.3,0.458775669336319,-1.58926582336426,9.53200626373291,-0.129574000835419,-0.0762199983000755,0.137196004390717,-1178.70007324219,14.7000007629395,-885.300048828125,3.10709332136538,0.0469134479236395,0.164840029816082,ST
2.33333333333333,0.373839348554611,-1.1675751209259,9.02298641204834,-1.60824191570282,-0.129574000835419,-0.510673999786377,-1173.90002441406,21.9000015258789,-863.700012207031,3.11159568052854,0.0415252470088664,0.132147412348625,ST
2.36666666666667,0.61847984790802,-2.93508744239807,8.45415306091309,-2.74391984939575,0.358233988285065,-0.99848198890686,-1178.70007324219,16.5,-870.900024414062,3.10687079312407,0.068222045531337,0.333158903946492,ST
2.4,0.420494496822357,-2.19996976852417,8.1485013961792,-0.503051996231079,-0.282013982534409,0.640248000621796,-1183.5,21.3000011444092,-882.900024414062,3.1071004982523,0.0502858007588044,0.265872035917046,ST
2.43333333333333,0.249425619840622,-2.50263023376465,9.81791877746582,-0.175305992364883,-0.46494197845459,1.76068198680878,-1173.90002441406,12.3000001907349,-878.100036621094,3.09771425288297,0.0251649891213984,0.250310793611009,ST
2.46666666666667,0.465355217456818,-2.94884490966797,9.88849925994873,0.243903994560242,-0.792688012123108,2.11129403114319,-1181.10009765625,16.5,-880.500061035156,3.08396384631983,0.0449385381887337,0.288744015083117,ST
2.5,1.01803934574127,-3.1647744178772,10.242600440979,0.594515979290009,-0.670735955238342,1.57013201713562,-1188.30004882812,12.9000005722046,-863.700012207031,3.07371130807375,0.0939564922820293,0.298695776892449,ST
2.53333333333333,1.16518247127533,-3.12589526176453,10.1169900894165,0.975615978240967,-1.34147191047668,1.81403601169586,-1181.10009765625,17.7000007629395,-875.700012207031,3.06119250145827,0.11059895316904,0.298380688009383,ST
2.56666666666667,1.28481113910675,-2.84237551689148,8.67247486114502,2.40092992782593,-0.472563982009888,1.58537602424622,-1185.90002441406,20.7000007629395,-868.500061035156,3.0493134852744,0.139006082766211,0.312520940175069,ST
2.6,0.576011657714844,-2.47691011428833,9.78681564331055,1.65397393703461,-0.205793991684914,1.65397393703461,-1193.10009765625,21.9000015258789,-875.700012207031,3.04656612760001,0.0588634437961148,0.247016110185619,ST
2.63333333333333,0.687864422798157,-2.05761170387268,8.95898532867432,1.75305998325348,-0.701223969459534,2.05031800270081,-1185.90002441406,19.5,-868.500061035156,3.03634284796655,0.0746422165927994,0.223625294990372,ST
2.66666666666667,1.09819054603577,-2.23884916305542,8.0833044052124,1.2576299905777,0.327746003866196,2.40092992782593,-1176.30004882812,21.3000011444092,-866.100036621094,3.01967373458187,0.127082962024759,0.267251300890999,ST
2.7,0.355895072221756,-1.99839568138123,8.89737701416016,0.823175966739655,1.28811800479889,2.9116039276123,-1188.30004882812,21.3000011444092,-861.300048828125,3.00933104813898,0.0375782921027436,0.220687615386589,ST
2.73333333333333,-0.455784946680069,-1.88175773620605,9.71982288360596,1.53964400291443,1.15854394435883,3.76526784896851,-1188.30004882812,21.3000011444092,-870.900024414062,2.99140626572016,-0.046884435748224,0.189199265610524,ST
2.76666666666667,-0.0526365824043751,-1.84826183319092,9.2167854309082,1.73781597614288,0.152439996600151,4.27594184875488,-1166.70007324219,21.3000011444092,-873.300048828125,2.97013870272572,-0.0083767139258253,0.194634112116705,ST
2.8,0.179442897439003,-1.76452171802521,9.36093711853027,1.07470202445984,-0.358233988285065,4.45886993408203,-1185.90002441406,15.9000005722046,-868.500061035156,2.94497250120906,0.017539733346463,0.184738178657126,ST
2.83333333333333,0.702219843864441,-1.92183339595795,9.0792121887207,1.02134799957275,-0.830797970294952,3.10977602005005,-1176.30004882812,18.9000015258789,-870.900024414062,2.92599631761774,0.0746306231489863,0.206738869470004,ST
2.86666666666667,0.964804589748383,-2.05462121963501,9.50808048248291,0.426831990480423,-1.15854394435883,2.24848985671997,-1183.5,25.5000019073486,-885.300048828125,2.91270616372309,0.099320958362577,0.21233237341779,ST
2.9,0.898410737514496,-1.96789038181305,9.34239482879639,0.381099998950958,-0.967993974685669,1.60824191570282,-1190.70007324219,22.5,-873.300048828125,2.90384358849141,0.0950178123167873,0.207375459496468,ST
2.93333333333333,0.492271661758423,-2.07974314689636,9.00324821472168,0.716467976570129,0.327746003866196,2.02745199203491,-1185.90002441406,19.5,-858.900024414062,2.89147109416177,0.0526570249744011,0.225619825567107,ST
2.96666666666667,-0.0837400183081627,-1.94994604587555,9.6701774597168,0.609759986400604,1.2500079870224,2.65245604515076,-1190.70007324219,21.3000011444092,-875.700012207031,2.87989559194907,-0.009806128516614,0.198654101433849,ST
3.0,-0.118432305753231,-2.00916218757629,9.61215782165527,0.746955990791321,0.807931959629059,3.65093803405762,-1164.30004882812,16.5,-873.300048828125,2.86232169806518,-0.0145972086925373,0.204504494494103,ST
3.03333333333333,1.33445692062378,-2.15750169754028,9.00803279876709,0.190549999475479,-0.25152599811554,3.28508186340332,-1173.90002441406,20.7000007629395,-863.700012207031,2.84145788208274,0.139722134826443,0.235003548827953,ST
3.06666666666667,0.300267785787582,-2.70121359825134,10.7276945114136,0.0304879993200302,-0.274392008781433,3.17837381362915,-1178.70007324219,18.9000015258789,-870.900024414062,2.82267397789269,0.0282971385288613,0.246614830126379,ST
3.1,-0.0077758585102856,-1.32907366752625,9.54695987701416,2.00458598136902,0.480185985565186,2.66770005226135,-1176.30004882812,20.7000007629395,-870.900024414062,2.80964304027478,-0.0017587228522756,0.136844541235199,ST
3.13333333333333,0.0598142966628075,-1.4660484790802,9.36751747131348,2.60672402381897,-0.388722002506256,3.82624387741089,-1183.5,26.7000007629395,-885.300048828125,2.78964872230763,0.0057774181873125,0.150350325391881,ST
3.16666666666667,0.30624920129776,-1.56713461875916,8.82859039306641,2.15702605247498,-0.152439996600151,3.37654590606689,-1178.70007324219,23.7000007629395,-870.900024414062,2.77157550743106,0.0326587559487224,0.171495878136421,ST
3.2,-0.0394774377346039,-1.45049667358398,9.95549201965332,1.41769194602966,-0.350611984729767,3.20123982429504,-1173.90002441406,16.5,-866.100036621094,2.75525859371268,-0.0031305985119061,0.143004359536601,ST
3.23333333333333,0.14056359231472,-1.54560148715973,10.0912704467773,1.08994603157043,-0.586893975734711,3.15550804138184,-1173.90002441406,23.7000007629395,-885.300048828125,2.73854609487852,0.0134970876682555,0.149950831599493,ST
3.26666666666667,0.494066089391708,-1.36376595497131,9.29334735870361,0.320124000310898,-1.41769194602966,3.17075204849243,-1178.70007324219,22.5,-870.900024414062,2.71972143117543,0.0534628844224141,0.145523793873201,ST
3.3,0.683677434921265,-1.60003244876862,8.98530387878418,-0.0304879993200302,-1.21951997280121,2.78202986717224,-1169.10009765625,17.7000007629395,-875.700012207031,2.70254382550588,0.0754188366396661,0.175808599655743,ST
3.33333333333333,0.730332553386688,-1.65924859046936,9.60198879241943,0.213415995240211,-0.739333987236023,2.04269599914551,-1178.70007324219,23.1000003814697,-868.500061035156,2.69107943183561,0.0754717272275582,0.171121368325608,ST
3.36666666666667,0.256603330373764,-1.39965450763702,9.51765060424805,1.20427596569061,-0.213415995240211,1.21951997280121,-1176.30004882812,23.1000003814697,-873.300048828125,2.68517730484539,0.0276030279733798,0.144466821912295,ST
3.4,-0.0113647161051631,-1.05392789840698,9.37469482421875,1.13567793369293,0.419209986925125,0.830797970294952,-1188.30004882812,21.9000015258789,-875.700012207031,2.68119527612688,-0.0015607365854628,0.110592779077748,ST
3.43333333333333,0.483897656202316,-0.806894838809967,9.86517238616943,-2.72105383872986,0.586893975734711,-0.716467976570129,-1176.30004882812,29.1000003814697,-885.300048828125,2.68658609209902,0.0470478945926408,0.0867422219735386,ST
3.46666666666667,-0.314623206853867,-1.36855113506317,9.39144325256348,0.350611984729767,0.0152439996600151,0.342989981174469,-1176.30004882812,18.9000015258789,-875.700012207031,2.68439459444288,-0.0310585128313543,0.14251840624966,ST
3.5,0.0322997197508812,-1.36735486984253,9.54636192321777,0.533540010452271,0.243903994560242,0.320124000310898,-1183.5,27.9000015258789,-866.100036621094,2.68293640595715,0.0019263321332386,0.141366328474846,ST
3.53333333333333,0.102282449603081,-1.31950342655182,9.32265663146973,0.685979962348938,0.137196004390717,-0.0762199983000755,-1176.30004882812,24.9000015258789,-863.700012207031,2.68341094110606,0.0104068983261449,0.139457904387865,ST
3.56666666666667,0.154320880770683,-1.37513065338135,9.43929386138916,0.37347799539566,0.228659987449646,-0.769822001457214,-1173.90002441406,18.9000015258789,-894.900024414062,2.68744352324349,0.0158221715308237,0.143867410793045,ST
3.6,-0.236864611506462,-1.15740668773651,9.88491058349609,1.02897000312805,0.0304879993200302,-0.868907988071442,-1169.10009765625,21.3000011444092,-878.100036621094,2.69244492442795,-0.0230533249522687,0.115247818135967,ST
3.63333333333333,-0.213537037372589,-1.07067596912384,9.65941047668457,1.47104597091675,0.205793991684914,-0.87652999162674,-1173.90002441406,21.9000015258789,-878.100036621094,2.69737524845437,-0.0221783154469585,0.108012466887884,ST
3.66666666666667,-0.416905641555786,-0.795530140399933,10.0775127410889,2.33995389938354,0.586893975734711,-1.22714197635651,-1166.70007324219,18.3000011444092,-873.300048828125,2.70337010318263,-0.0415297442834901,0.0756865022356577,ST
3.7,-0.546104550361633,-0.572422802448273,9.67197227478027,3.04879999160767,0.381099998950958,-1.44055795669556,-1181.10009765625,19.5,-873.300048828125,2.71071577832635,-0.0564103022030946,0.0545258233283134,ST
3.73333333333333,-0.510814070701599,-0.21712589263916,9.62471866607666,1.95123195648193,0.632625997066498,-1.94360995292664,-1178.70007324219,21.3000011444092,-863.700012207031,2.71985081857956,-0.0540918368717465,0.020172155050412,ST
3.76666666666667,-0.416307508945465,-0.397166937589645,10.0135116577148,0.99848198890686,0.586893975734711,-2.44666194915771,-1171.5,21.9000015258789,-870.900024414062,2.734879968147,-0.0425974309372654,0.0377642300508796,ST
3.8,-0.451597929000854,-0.392979919910431,9.41118144989014,0.777444005012512,-0.0228659994900227,-3.09453201293945,-1183.5,14.7000007629395,-882.900024414062,2.752176922399,-0.0475443144844511,0.0405705101679968,ST
3.83333333333333,-0.607713282108307,-0.450999796390533,9.21499061584473,0.46494197845459,0.46494197845459,-2.90398192405701,-1173.90002441406,18.3000011444092,-875.700012207031,2.7692665668542,-0.0660043615137281,0.0482797426826954,ST
3.86666666666667,-0.731528878211975,-0.445616513490677,9.75511360168457,0.388722002506256,0.388722002506256,-2.46190595626831,-1176.30004882812,18.3000011444092,-868.500061035156,2.78201343290452,-0.0750012569659984,0.045372460117138,ST
3.9,-0.709397554397583,-0.461168229579926,10.1385231018066,0.129574000835419,0.0381099991500378,-2.46190595626831,-1169.10009765625,20.1000003814697,-887.700012207031,2.79479572947229,-0.0698010700318684,0.0455273930714005,ST
3.93333333333333,-0.633433401584625,-0.635227859020233,9.81074142456055,-0.411587983369827,-0.282013982534409,-2.080806016922,-1161.90002441406,19.5,-870.900024414062,2.80726199984123,-0.0637478432431253,0.0651914197745241,ST
3.96666666666667,-0.515001118183136,-0.997104346752167,9.54576396942139,-0.769822001457214,-0.221037998795509,-1.97409796714783,-1176.30004882812,11.7000007629395,-870.900024414062,2.8194020387644,-0.0531747063212554,0.104505533296219,ST
4.0,-0.495860517024994,-1.06230187416077,9.55353927612305,-0.716467976570129,-0.25152599811554,-1.6768399477005,-1166.70007324219,14.1000003814697,-878.100036621094,2.82833458836389,-0.0508353942350484,0.111954844219534,ST
4.03333333333333,-0.47851437330246,-1.09579789638519,9.5984001159668,-0.594515979290009,-0.358233988285065,-1.02897000312805,-1164.30004882812,18.9000015258789,-878.100036621094,2.83340179368404,-0.0487241997025527,0.11471674224203,ST
4.06666666666667,-0.328978627920151,-1.08204066753387,9.80057239532471,-0.129574000835419,-0.129574000835419,-0.769822001457214,-1183.5,18.3000011444092,-885.300048828125,2.83708468951836,-0.0334073240684786,0.110354451719001,ST
4.1,-0.299669623374939,-1.02222633361816,9.56669902801514,0.205793991684914,-0.0076219998300075,-0.716467976570129,-1166.70007324219,13.5000009536743,-882.900024414062,2.84078456097347,-0.0310480272607186,0.106228748762495,ST
4.13333333333333,-0.575413525104523,-1.06529259681702,9.59301662445068,0.0076219998300075,0.564027965068817,-0.602137982845306,-1178.70007324219,19.5,-894.900024414062,2.84460739627496,-0.0598002025396637,0.110557122841161,ST
4.16666666666667,-0.865512907505035,-0.823044717311859,9.56310939788818,0.114329993724823,0.594515979290009,-0.37347799539566,-1164.30004882812,9.90000057220459,-890.100036621094,2.84511542226234,-0.0901663717877383,0.0863103754467447,ST
4.2,-0.923532724380493,-0.966000914573669,9.78203010559082,0.472563982009888,0.609759986400604,-0.586893975734711,-1176.30004882812,16.5,-875.700012207031,2.84967738564605,-0.0945185034502172,0.0974042286853131,ST
4.23333333333333,-1.05632042884827,-0.862522184848785,10.063157081604,0.289635986089706,0.457319974899292,-0.67835795879364,-1154.70007324219,19.5,-873.300048828125,2.8523365285339,-0.104617269451636,0.0854606178201156,ST
4.26666666666667,-0.637022256851196,-0.979160070419312,10.2581520080566,-0.0609759986400604,-0.106707997620106,-0.983237981796265,-1164.30004882812,20.1000003814697,-878.100036621094,2.85812808184748,-0.0625696247839945,0.0951142591105461,ST
4.3,0.216527760028839,-0.345128506422043,9.37948036193848,-3.11739802360535,-0.289635986089706,-2.77440786361694,-1169.10009765625,17.1000003814697,-887.700012207031,2.87126253195061,0.0214520238150858,0.0436020024834226,ST
4.33333333333333,-0.446214646100998,-1.28481113910675,8.89199352264404,-0.221037998795509,-0.655492007732391,-2.0655620098114,-1152.30004882812,22.5,-885.300048828125,2.8827067092354,-0.0461248723583897,0.141274906745451,ST
4.36666666666667,-0.379222631454468,-1.08802211284637,9.43869590759277,0.685979962348938,-0.0609759986400604,-1.31098401546478,-1164.30004882812,15.3000001907349,-873.300048828125,2.88901425234918,-0.0396401766485201,0.114156956223125,ST
4.4,-0.357689499855042,-1.03717994689941,9.7060661315918,0.685979962348938,-0.0533539988100529,-1.19665396213531,-1164.30004882812,20.1000003814697,-873.300048828125,2.89514176657841,-0.0363919891182624,0.105543228146982,ST
4.43333333333333,-0.420494496822357,-0.897214472293854,9.86696624755859,0.701223969459534,-0.37347799539566,-1.09756803512573,-1173.90002441406,17.1000003814697,-880.500061035156,2.90015668272126,-0.041450298070812,0.0899693296573037,ST
4.46666666666667,-0.232079476118088,-1.03418922424316,9.7957878112793,0.365855991840363,-0.586893975734711,-0.67835795879364,-1154.70007324219,11.1000003814697,-882.900024414062,2.9038628203986,-0.0229342709381408,0.104176200696289,ST
4.5,0.139965459704399,-1.15142524242401,9.68273830413818,0.3125019967556,-0.37347799539566,-0.571649968624115,-1157.10009765625,15.3000001907349,-880.500061035156,2.9066427354527,0.014080293469381,0.117434073741256,ST
4.53333333333333,0.296080768108368,-1.22140789031982,9.32923603057861,0.6250039935112,-0.213415995240211,-0.3125019967556,-1169.10009765625,16.5,-880.500061035156,2.90776935065624,0.0314120525969591,0.128759814032884,ST
4.56666666666667,-0.0179442893713713,-1.04734838008881,9.72221565246582,0.983237981796265,-0.0228659994900227,0.236281991004944,-1164.30004882812,12.9000005722046,-897.300048828125,2.90683651831893,-0.0009354883118684,0.106228828945858,ST
4.6,0.194994613528252,-0.974973022937775,9.29753398895264,1.18140995502472,0.0609759986400604,0.685979962348938,-1173.90002441406,19.5,-880.500061035156,2.90328483985378,0.0200399038227733,0.102544132311992,ST
4.63333333333333,0.41451308131218,-0.893027484416962,9.4375,0.983237981796265,0.190549999475479,0.129574000835419,-1171.5,14.1000003814697,-878.100036621094,2.90276334283008,0.0429266948492863,0.0928150729730069,ST
4.66666666666667,0.30325847864151,-0.905588448047638,9.48774337768555,0.0762199983000755,-0.114329993724823,-0.0228659994900227,-1161.90002441406,12.3000001907349,-875.700012207031,2.9027356589301,0.0321809414507654,0.0949917246868104,ST
4.7,0.289501190185547,-1.06888151168823,9.62053108215332,-0.167683988809586,0.144817993044853,-0.358233988285065,-1173.90002441406,14.1000003814697,-887.700012207031,2.90432233651617,0.0297671776528628,0.110593615490812,ST
4.73333333333333,0.504832684993744,-1.16338813304901,9.59361553192139,-0.525918006896973,0.3125019967556,-0.724089980125427,-1166.70007324219,18.3000011444092,-885.300048828125,2.90829112269502,0.051404967422372,0.121332750738565,ST
4.76666666666667,0.352306216955185,-1.13826608657837,9.64385890960693,-0.457319974899292,0.0762199983000755,-0.830797970294952,-1161.90002441406,17.7000007629395,-878.100036621094,2.91284102660426,0.0367143350901459,0.118313583916135,ST
4.8,0.373839348554611,-1.2357634305954,9.53619384765625,-0.304879993200302,-0.129574000835419,-0.884151995182037,-1173.90002441406,10.5,-882.900024414062,2.91695406905935,0.0392090246963155,0.129041964622823,ST
4.83333333333333,-0.0675901547074318,-1.20406174659729,9.37469482421875,-0.137196004390717,-0.381099998950958,-1.08232402801514,-1166.70007324219,15.9000005722046,-873.300048828125,2.92228927109674,-0.0050126816217805,0.12800844679984,ST
4.86666666666667,-0.0831418707966805,-1.29378318786621,9.41297626495361,0.0381099991500378,-0.0228659994900227,-0.472563982009888,-1161.90002441406,9.90000057220459,-887.700012207031,2.92475865258434,-0.0085016683360823,0.136299129466939,ST
4.9,0.0466551519930363,-1.1998747587204,9.50449180603027,0.121951997280121,0.228659987449646,0.0609759986400604,-1161.90002441406,15.3000001907349,-878.100036621094,2.92457406557628,0.0041080869718013,0.125663450075971,ST
4.93333333333333,-0.0640012994408607,-1.10835897922516,9.65462589263916,0.121951997280121,0.0609759986400604,0.167683988809586,-1164.30004882812,14.1000003814697,-870.900024414062,2.92373704674538,-0.0064305007418178,0.114401132800087,ST
4.96666666666667,0.709995687007904,-1.1316864490509,10.5620088577271,-3.90246391296387,0.495429992675781,-1.57013201713562,-1169.10009765625,15.9000005722046,-875.700012207031,2.93299478222342,0.0642143096729628,0.113422190622499,ST
5.0,-0.0263182912021875,-1.36675667762756,9.55772686004639,-0.282013982534409,-0.388722002506256,-0.579271972179413,-1154.70007324219,15.3000001907349,-875.700012207031,2.93490536644151,-0.0003400164597292,0.141834979740325,ST
5.03333333333333,0.0011962859425693,-1.34881234169006,9.44108867645264,-0.25152599811554,-0.190549999475479,0.0990860015153885,-1169.10009765625,18.9000015258789,-873.300048828125,2.93425717335297,0.0004091732270327,0.142331111430093,ST
5.06666666666667,0.346324771642685,-1.62395811080933,9.305908203125,-0.503051996231079,-0.0914639979600906,0.121951997280121,-1166.70007324219,17.7000007629395,-882.900024414062,2.93307065994491,0.0357766048067579,0.172801702083872,ST
5.1,0.506627082824707,-1.76990509033203,9.7598991394043,-0.769822001457214,-0.541162014007568,0.304879993200302,-1161.90002441406,20.7000007629395,-880.500061035156,2.93086825002071,0.0514279966933968,0.180556414580258,ST
5.13333333333333,0.0472532957792282,-1.78306424617767,9.67376613616943,-0.0990860015153885,-1.02134799957275,0.914639949798584,-1152.30004882812,18.9000015258789,-890.100036621094,2.92452284455257,0.0069734741159985,0.18243664977525,ST
5.16666666666667,0.0879270136356354,-1.71487593650818,9.25267314910889,0.541162014007568,-0.0533539988100529,1.44817996025085,-1157.10009765625,20.1000003814697,-882.900024414062,2.91706771734466,0.008922230652368,0.182338954832041,ST
5.2,0.0777585878968239,-1.7304276227951,9.97223949432373,1.44055795669556,0.579271972179413,1.56251001358032,-1173.90002441406,17.1000003814697,-875.700012207031,2.90965221736926,0.0062958242191768,0.169670006225397,ST
5.23333333333333,0.104076877236366,-1.49535739421844,9.59540939331055,1.94360995292664,0.87652999162674,0.403965979814529,-1161.90002441406,20.1000003814697,-902.100036621094,2.90826267989942,0.0090393161590638,0.151591552812433,ST
5.26666666666667,-0.32239904999733,-1.63532292842865,9.34658241271973,0.975615978240967,1.20427596569061,-0.564027965068817,-1159.5,20.7000007629395,-882.900024414062,2.91265367165136,-0.0348027695724508,0.171075585523369,ST
5.3,-0.340343356132507,-1.85304689407349,9.5625114440918,-0.205793991684914,0.945127964019775,-1.52439999580383,-1152.30004882812,17.1000003814697,-880.500061035156,2.92199545786964,-0.0360129707758171,0.19130813744096,ST
5.33333333333333,-0.571226537227631,-2.00437712669373,9.1802978515625,-0.6250039935112,0.716467976570129,-1.58537602424622,-1142.70007324219,22.5,-878.100036621094,2.93179134679872,-0.060663460040774,0.215546608483933,ST
5.36666666666667,-0.663938701152802,-2.07017278671265,10.3161716461182,-0.457319974899292,0.792688012123108,-1.34909391403198,-1154.70007324219,15.3000001907349,-887.700012207031,2.9392044616931,-0.0638542039527906,0.199263462359397,ST
5.4,-0.678892254829407,-1.66881883144379,9.78681564331055,0.198172003030777,-0.708845973014832,-0.777444005012512,-1152.30004882812,12.3000001907349,-890.100036621094,2.94063253780547,-0.0667434183315074,0.169455920167365,ST
5.43333333333333,-0.997702479362488,-1.66283750534058,8.91292858123779,0.0838419944047928,-1.20427596569061,-0.25152599811554,-1147.5,20.7000007629395,-885.300048828125,2.94211055564327,-0.106609119913906,0.18399441670326,ST
5.46666666666667,-0.881064593791962,-1.81895279884338,9.258056640625,-0.685979962348938,-1.01372599601746,-0.518296003341675,-1145.10009765625,15.9000005722046,-890.100036621094,2.94448180082119,-0.09162107472281,0.194943838350346,ST
5.5,-0.74349170923233,-2.18142747879028,9.60019493103027,-1.14329993724823,-1.36433792114258,-0.259148001670837,-1161.90002441406,15.9000005722046,-870.900024414062,2.94626021445498,-0.0734640928641001,0.224594323695871,ST
5.53333333333333,-0.37025049328804,-2.33275747299194,9.3118896484375,-0.3125019967556,-1.20427596569061,0.457319974899292,-1161.90002441406,12.3000001907349,-897.300048828125,2.94356001360475,-0.0377038173012637,0.245375471411924,ST
5.56666666666667,-0.356493204832077,-2.2250919342041,10.2222633361816,0.861285984516144,-0.967993974685669,0.708845973014832,-1164.30004882812,14.7000007629395,-878.100036621094,2.93790372885712,-0.0328163840538042,0.213659269766397,ST
5.6,0.163293033838272,-1.89312255382538,9.42613506317139,1.09756803512573,-2.37806391716003,1.12805593013763,-1157.10009765625,16.5,-882.900024414062,2.92882174634765,0.0197017326840494,0.196641836404419,ST
5.63333333333333,-0.0645994395017624,-1.78485858440399,9.82808685302734,1.00610399246216,-1.75305998325348,1.89787793159485,-1166.70007324219,20.1000003814697,-890.100036621094,2.91659042388058,-0.0036209078319445,0.178224686390265,ST
5.66666666666667,0.476719945669174,-1.79622340202332,9.62651252746582,0.884151995182037,-1.52439999580383,2.05031800270081,-1164.30004882812,16.5,-890.100036621094,2.90408970920223,0.0493207740482893,0.182990091315067,ST
5.7,0.430064797401428,-1.87099123001099,9.66180324554443,0.609759986400604,-0.830797970294952,2.01982998847961,-1169.10009765625,21.3000011444092,-890.100036621094,2.89150307872119,0.0445195990277159,0.190250982557455,ST
5.73333333333333,-0.0005981429712846,-1.7423905134201,8.98291110992432,0.457319974899292,0.0381099991500378,2.17227005958557,-1171.5,14.7000007629395,-866.100036621094,2.87943581025111,-3.24589596746369e-05,0.190793207828924,ST
5.76666666666667,-0.0610105842351913,-1.96071267127991,9.11211013793945,0.221037998795509,0.952749967575073,2.09605002403259,-1159.5,18.3000011444092,-866.100036621094,2.86873512350005,-0.0087947582476876,0.211208428168853,ST
5.8,-0.102282449603081,-1.98344206809998,9.49432373046875,0.0228659994900227,0.701223969459534,1.76830399036407,-1171.5,14.7000007629395,-873.300048828125,2.86046186090395,-0.0122783123535478,0.206018295357601,ST
5.83333333333333,-0.172863319516182,-1.91944074630737,8.89917087554932,0.129574000835419,0.137196004390717,1.63110792636871,-1164.30004882812,15.9000005722046,-870.900024414062,2.85244826380984,-0.0196121036474926,0.211988480204467,ST
5.86666666666667,-0.402550220489502,-1.86082279682159,9.49551963806152,0.518296003341675,0.403965979814529,1.42531394958496,-1161.90002441406,17.7000007629395,-880.500061035156,2.84513362591175,-0.0421229705762084,0.193049679541924,ST
5.9,-0.144750595092773,-1.37991583347321,9.35256385803223,1.02134799957275,-0.37347799539566,1.86738991737366,-1164.30004882812,20.1000003814697,-870.900024414062,2.83403323491607,-0.0158887249978888,0.145959624732721,ST
5.93333333333333,0.360082060098648,-1.45946884155273,9.31428241729736,-3.13264203071594,0.442075997591019,-0.0228659994900227,-1164.30004882812,18.9000015258789,-868.500061035156,2.8346850058717,0.0359676368914342,0.160485847649589,ST
5.96666666666667,0.517991840839386,-1.3458217382431,10.1738138198853,0.868907988071442,-0.0152439996600151,0.922261953353882,-1154.70007324219,17.7000007629395,-892.500061035156,2.8310088415641,0.049855526580133,0.130908121435539,ST
6.0,0.786558032035828,-1.14604198932648,9.00982761383057,1.51677799224854,-0.388722002506256,0.541162014007568,-1154.70007324219,12.3000001907349,-880.500061035156,2.82763195276782,0.0861744221605957,0.124101753459363,ST
6.03333333333333,0.009570287540555,-1.27703523635864,9.45364952087402,1.2500079870224,1.18903195858002,0.0762199983000755,-1161.90002441406,17.7000007629395,-885.300048828125,2.82756591515459,0.0002939888764264,0.131966345227544,ST
6.06666666666667,-0.05742172524333,-1.23038005828857,9.35256385803223,0.92988395690918,1.75305998325348,-0.221037998795509,-1164.30004882812,17.7000007629395,-878.100036621094,2.82989823683503,-0.0088165614766436,0.129263087551157,ST
6.1,-0.455784946680069,-1.35299944877625,9.02717399597168,0.853663980960846,1.70732796192169,-0.342989981174469,-1161.90002441406,26.7000007629395,-885.300048828125,2.83370616054214,-0.0517085810648569,0.146902975622057,ST
6.13333333333333,-0.816465139389038,-1.66164112091064,9.66718673706055,0.632625997066498,1.08232402801514,-0.967993974685669,-1147.5,12.9000005722046,-863.700012207031,2.84126230569993,-0.0837326665242254,0.168667026236747,ST
6.16666666666667,-0.835007607936859,-1.84527111053467,9.71324348449707,0.884151995182037,0.0609759986400604,-0.777444005012512,-1147.5,15.9000005722046,-890.100036621094,2.84736837241842,-0.0841038959145165,0.185942921497795,ST
6.2,0.12441373616457,-1.79502701759338,8.94462966918945,1.64635193347931,-2.00458598136902,-0.975615978240967,-1154.70007324219,20.7000007629395,-890.100036621094,2.85096611951221,0.015291253003029,0.194985068957896,ST
6.23333333333333,1.03658175468445,-1.84048593044281,8.89498424530029,0.396344006061554,-2.88111591339111,-1.33385002613068,-1157.10009765625,23.1000003814697,-880.500061035156,2.85405848268674,0.116192685975552,0.202987407242729,ST
6.26666666666667,0.515599250793457,-1.80280292034149,10.178599357605,0.472563982009888,-2.59148001670837,-1.37195992469788,-1161.90002441406,11.7000007629395,-899.700012207031,2.86080204417993,0.056386795434265,0.175154598018941,ST
6.3,0.0921140164136887,-1.37154185771942,9.6283073425293,1.29574000835419,-0.78506600856781,-0.0381099991500378,-1161.90002441406,14.1000003814697,-882.900024414062,2.86140940661897,0.0120759361515964,0.14021524756233,ST
6.33333333333333,-0.0179442893713713,-1.41879510879517,9.52542686462402,1.2423859834671,0.87652999162674,0.6250039935112,-1161.90002441406,17.1000003814697,-875.700012207031,2.85882040339711,-0.0031099758028982,0.145542508326051,ST
6.36666666666667,-0.0783567279577255,-1.41640257835388,10.0799055099487,0.823175966739655,1.05183601379395,0.899396002292633,-1149.90002441406,22.5,-880.500061035156,2.85495506667901,-0.0095533046962438,0.138356066157356,ST
6.4,0.0442625805735588,-1.28421294689178,9.33761024475098,0.426831990480423,-0.121951997280121,0.731711983680725,-1157.10009765625,15.9000005722046,-885.300048828125,2.85110504728159,0.0043447957939841,0.135998678955239,ST
6.43333333333333,-0.104076877236366,-1.41281366348267,9.42194843292236,0.144817993044853,0.0228659994900227,0.289635986089706,-1157.10009765625,20.7000007629395,-873.300048828125,2.84967908156499,-0.0106186452883721,0.148240686232436,ST
6.46666666666667,-0.0442625805735588,-1.46425402164459,9.353759765625,0.0990860015153885,-0.449698001146317,0.0762199983000755,-1152.30004882812,19.5,-892.500061035156,2.84898598323065,-0.0041022613027465,0.154920612074898,ST
6.5,0.107067592442036,-1.38350474834442,8.93206882476807,0.0762199983000755,-0.990859985351562,0.0533539988100529,-1166.70007324219,14.7000007629395,-890.100036621094,2.84786344249526,0.0131744008320251,0.153570538797865,ST
6.53333333333333,0.0125610027462244,-1.38649535179138,9.09536170959473,0.289635986089706,-1.16616594791412,0.457319974899292,-1166.70007324219,14.1000003814697,-880.500061035156,2.84461955411111,0.0035270181570032,0.150850715983419,ST
6.56666666666667,-0.0137572884559631,-1.46365582942963,9.60378360748291,0.106707997620106,-1.17378795146942,0.777444005012512,-1157.10009765625,15.3000001907349,-870.900024414062,2.83957031627674,0.0004792136838922,0.151050411120004,ST
6.6,0.0484495796263218,-1.68197798728943,9.68572902679443,0.327746003866196,-0.564027965068817,0.907018005847931,-1169.10009765625,20.7000007629395,-875.700012207031,2.83438659622154,0.0054924687986989,0.170824225037938,ST
6.63333333333333,-0.138171032071114,-1.65565979480743,10.2336282730103,0.396344006061554,-0.434453994035721,0.846041977405548,-1157.10009765625,18.9000015258789,-882.900024414062,2.82967027211185,-0.0123180137617913,0.159991073065515,ST
6.66666666666667,-0.183629885315895,-1.47801125049591,9.45006084442139,0.564027965068817,-0.762199997901917,0.830797970294952,-1169.10009765625,12.3000001907349,-880.500061035156,2.82476365726452,-0.0179477336162766,0.154291850085162,ST
6.7,-0.573020994663239,-1.33326065540314,9.30650615692139,0.381099998950958,-0.975615978240967,0.350611984729767,-1164.30004882812,18.9000015258789,-892.500061035156,2.82155375836181,-0.0586300481497072,0.141780039796843,ST
6.73333333333333,-0.574815392494202,-1.67420220375061,9.85141468048096,0.396344006061554,-1.18903195858002,0.175305992364883,-1157.10009765625,18.3000011444092,-882.900024414062,2.82108192497154,-0.0555214069747228,0.167143824138179,ST
6.76666666666667,0.0418700091540813,-1.43315052986145,9.0732307434082,0.861285984516144,-2.95733594894409,0.807931959629059,-1171.5,18.3000011444092,-882.900024414062,2.81429218092029,0.0076688571609508,0.155487147200785,ST
6.8,0.061608724296093,-1.36017715930939,9.13842868804932,1.06708002090454,-2.61434602737427,0.99848198890686,-1183.5,18.3000011444092,-887.700012207031,2.80719312018325,0.0108377885461002,0.146179677862214,ST
6.83333333333333,0.580198705196381,-1.34342908859253,9.8017692565918,1.12805593013763,-0.922261953353882,1.12043392658234,-1176.30004882812,15.9000005722046,-880.500061035156,2.80093045446291,0.058572946190707,0.134681408445347,ST
6.86666666666667,0.814670741558075,-1.27464270591736,9.82210540771484,0.907018005847931,-0.594515979290009,0.815553963184357,-1178.70007324219,15.3000001907349,-880.500061035156,2.79633697682265,0.0823366624296395,0.127761413221437,ST
6.9,0.679490387439728,-0.139367312192917,9.2939453125,-0.579271972179413,-0.335367977619171,0.0990860015153885,-1171.5,19.5,-878.100036621094,2.80444938561652,0.0738083003485501,0.0190633974204589,ST
6.93333333333333,-0.0400755777955055,-1.5802937746048,9.58464336395264,-0.266770005226135,0.754577994346619,-0.25152599811554,-1183.5,15.3000001907349,-878.100036621094,2.80147336872609,-0.0041106246979263,0.161604219577448,ST
6.96666666666667,0.385204076766968,-1.56952714920044,9.58583927154541,-0.106707997620106,-0.0381099991500378,0.160062000155449,-1159.5,15.9000005722046,-880.500061035156,2.80062218075022,0.0384650947695873,0.162466809103981,ST
7.0,0.599937379360199,-1.46724474430084,10.0326519012451,0.129574000835419,-1.55488801002502,-0.0914639979600906,-1161.90002441406,14.1000003814697,-868.500061035156,2.80063370066026,0.0613878816426191,0.145320542789439,ST
7.03333333333333,0.827829897403717,-1.35957896709442,9.38426494598389,0.548784017562866,-1.47866797447205,-0.0304879993200302,-1176.30004882812,18.3000011444092,-882.900024414062,2.79953453592856,0.0891353111424524,0.142990340307353,ST
7.06666666666667,0.91874760389328,-1.4481041431427,9.47039794921875,0.564027965068817,-0.807931959629059,0.152439996600151,-1171.5,19.5,-870.900024414062,2.79716046028606,0.0967474805073718,0.150582096557571,ST
7.1,1.26626861095428,-1.41460812091827,9.50030517578125,0.586893975734711,-0.769822001457214,0.175305992364883,-1181.10009765625,20.1000003814697,-878.100036621094,2.795730394254,0.131392856425737,0.146957394119705,ST
7.13333333333333,1.14544379711151,-1.28839993476868,9.67316818237305,1.21189796924591,-0.777444005012512,0.411587983369827,-1183.5,14.7000007629395,-868.500061035156,2.79433001546622,0.118455411308588,0.130855818901966,ST
7.16666666666667,0.830820560455322,-1.22619307041168,9.26463603973389,1.48628997802734,0.175305992364883,0.777444005012512,-1176.30004882812,18.9000015258789,-873.300048828125,2.78989101924511,0.0890132508741275,0.12916192602757,ST
7.2,0.628648281097412,-1.31830716133118,9.16474628448486,0.495429992675781,0.807931959629059,0.6250039935112,-1176.30004882812,18.3000011444092,-870.900024414062,2.78609796033711,0.0668622431900919,0.141711678837395,ST
7.23333333333333,0.46236452460289,-1.38350474834442,9.40699481964111,-0.0304879993200302,0.762199997901917,0.952749967575073,-1171.5,18.3000011444092,-870.900024414062,2.78154797732908,0.0475717244328194,0.146029715695816,ST
7.26666666666667,0.83859646320343,-1.32548487186432,9.83646106719971,0.0533539988100529,0.541162014007568,0.426831990480423,-1178.70007324219,22.5,-878.100036621094,2.78049239158337,0.082282915212662,0.134232174667251,ST
7.3,1.1478363275528,-1.53842377662659,9.56909084320068,-0.0381099991500378,-0.396344006061554,0.0152439996600151,-1171.5,23.7000007629395,-875.700012207031,2.7776773941227,0.117574937884596,0.158798727916835,ST
7.33333333333333,1.45049667358398,-1.28959619998932,9.02059459686279,-0.228659987449646,-1.37195992469788,-0.358233988285065,-1181.10009765625,15.9000005722046,-866.100036621094,2.78091618095738,0.159430199997223,0.142698340245391,ST
7.36666666666667,0.757248997688293,-1.24533367156982,9.4913330078125,0.0990860015153885,-0.396344006061554,0.0228659994900227,-1178.70007324219,15.9000005722046,-875.700012207031,2.78192547885744,0.0817941352857363,0.130638715116798,ST
7.4,-0.141759887337685,-1.41580438613892,10.0894756317139,0.442075997591019,2.31708788871765,0.46494197845459,-1193.10009765625,15.9000005722046,-870.900024414062,2.78080958326435,-0.016229881638234,0.138500247992142,ST
7.43333333333333,-0.347521066665649,-1.49296486377716,9.42972373962402,0.388722002506256,2.66770005226135,0.419209986925125,-1166.70007324219,18.3000011444092,-870.900024414062,2.7812921992109,-0.0404209237862848,0.155858096086268,ST
7.46666666666667,-0.312230616807938,-1.66283750534058,10.1319437026978,0.0381099991500378,1.90549993515015,0.236281991004944,-1164.30004882812,16.5,-882.900024414062,2.781911512684,-0.0339305943757047,0.162422676601211,ST
7.5,-0.538926839828491,-1.65027642250061,10.4681005477905,-0.0228659994900227,-0.152439996600151,0.487807989120483,-1154.70007324219,20.1000003814697,-873.300048828125,2.77887789283257,-0.0503344201310186,0.156483716674809,ST
7.53333333333333,-0.105871304869652,-1.50253510475159,9.44467735290527,-0.0381099991500378,-1.04421401023865,0.0457319989800453,-1159.5,21.3000011444092,-897.300048828125,2.77773200366361,-0.0100224011159926,0.157804088271892,ST
7.56666666666667,0.199181616306305,-1.61139714717865,9.14620399475098,-0.236281991004944,-1.21951997280121,-0.213415995240211,-1171.5,14.1000003814697,-875.700012207031,2.77766756530398,0.0229077639352836,0.174453019793826,ST
7.6,0.393578082323074,-1.63950991630554,8.98889255523682,-0.556405961513519,-1.28049600124359,-0.525918006896973,-1176.30004882812,15.3000001907349,-885.300048828125,2.77904902608818,0.0447986297508981,0.181171737831919,ST
7.63333333333333,-0.167480036616325,-1.78246605396271,9.12048435211182,-0.381099998950958,-0.381099998950958,-0.480185985565186,-1181.10009765625,20.1000003814697,-880.500061035156,2.78094824242561,-0.0155189344673046,0.19333658290985,ST
7.66666666666667,-0.338548928499222,-1.95951640605927,9.36153602600098,-0.37347799539566,0.304879993200302,-0.358233988285065,-1178.70007324219,12.3000001907349,-885.300048828125,2.78336526405953,-0.035224144318739,0.206640469704876,ST
7.7,-0.560459971427917,-2.06957459449768,9.73358058929443,-0.495429992675781,0.434453994035721,0.129574000835419,-1164.30004882812,21.3000011444092,-880.500061035156,2.78318542885765,-0.0566571486046432,0.210296597276382,ST
7.73333333333333,-0.409129798412323,-2.06419134140015,9.88550853729248,-0.289635986089706,0.0685980021953583,0.297257989645004,-1176.30004882812,15.3000001907349,-870.900024414062,2.78149515136105,-0.0411483498671893,0.206444644734746,ST
7.76666666666667,-0.199181616306305,-1.93917953968048,9.36332988739014,0.182927995920181,-0.480185985565186,0.236281991004944,-1161.90002441406,19.5,-878.100036621094,2.77968785812553,-0.0205908064780461,0.203945455551432,ST
7.8,0.36725977063179,-1.75435328483582,9.14082050323486,0.472563982009888,-0.762199997901917,0.0609759986400604,-1173.90002441406,17.7000007629395,-875.700012207031,2.77870181630234,0.0390545524418229,0.189221092850663,ST
7.83333333333333,0.0311034340411425,-1.79801774024963,9.63129806518555,0.6250039935112,-0.640248000621796,-0.0304879993200302,-1169.10009765625,13.5000009536743,-880.500061035156,2.7783186181235,0.0052288017959661,0.183628010509144,ST
7.86666666666667,0.141759887337685,-1.61917304992676,9.73058986663818,0.746955990791321,-0.365855991840363,0.282013982534409,-1154.70007324219,23.1000003814697,-882.900024414062,2.77670517375796,0.0146547731866289,0.164139047805142,ST
7.9,0.128002598881721,-1.54201257228851,9.38785362243652,1.04421401023865,0.327746003866196,0.701223969459534,-1181.10009765625,17.1000003814697,-882.900024414062,2.773361915626,0.0127459512750719,0.16107984023347,ST
7.93333333333333,0.0921140164136887,-1.56653642654419,10.0147075653076,0.739333987236023,0.548784017562866,0.87652999162674,-1181.10009765625,17.7000007629395,-880.500061035156,2.76935278148878,0.0080365933964073,0.154083020073418,ST
7.96666666666667,0.471336662769318,-1.60900461673737,9.58583927154541,0.37347799539566,0.114329993724823,0.6250039935112,-1161.90002441406,16.5,-887.700012207031,2.76567775838644,0.0472485781784892,0.165455713598694,ST
8.0,0.460570096969604,-1.56534016132355,9.53499698638916,0.274392008781433,-0.282013982534409,0.335367977619171,-1159.5,16.5,-875.700012207031,2.7638066612227,0.0479989671720826,0.162355744659999,ST
8.03333333333333,0.666929423809052,-1.50672209262848,9.1569709777832,0.419209986925125,-0.243903994560242,0.0533539988100529,-1173.90002441406,23.7000007629395,-885.300048828125,2.76319056125154,0.0714911885760482,0.162361904832514,ST
8.06666666666667,-0.0053832866251468,-1.04316139221191,8.50798606872559,0.670735955238342,0.830797970294952,-0.0152439996600151,-1171.5,17.7000007629395,-880.500061035156,2.76523224621126,-0.0003148691962807,0.12181725439496,ST
8.1,0.808689296245575,-1.55218100547791,9.2879638671875,0.586893975734711,1.13567793369293,0.152439996600151,-1164.30004882812,14.1000003814697,-875.700012207031,2.76347980579914,0.0813793071466013,0.163390280889001,ST
8.13333333333333,0.882260859012604,-1.4881796836853,9.22635555267334,0.0990860015153885,-0.160062000155449,-0.457319974899292,-1166.70007324219,17.1000003814697,-878.100036621094,2.76594819080553,0.0941701816100989,0.159778235759109,ST
8.16666666666667,0.814072608947754,-1.56175124645233,9.39084434509277,-0.167683988809586,-0.708845973014832,-0.472563982009888,-1161.90002441406,20.1000003814697,-878.100036621094,2.76737550431072,0.0868657078964116,0.164893559119505,ST
8.2,0.556871116161346,-2.08213567733765,10.0404281616211,0.0152439996600151,0.221037998795509,-0.503051996231079,-1169.10009765625,17.1000003814697,-868.500061035156,2.76741850867422,0.0549455248513767,0.20332373427688,ST
8.23333333333333,0.450401663780212,-2.32019662857056,10.8658647537231,-0.0304879993200302,0.426831990480423,-0.419209986925125,-1159.5,20.1000003814697,-878.100036621094,2.76967884479314,0.0403469565657174,0.210196283008668,ST
8.26666666666667,0.176452174782753,-2.25559711456299,10.6295986175537,0.548784017562866,0.0228659994900227,-0.731711983680725,-1173.90002441406,17.7000007629395,-887.700012207031,2.77340190631256,0.0171121025298241,0.208172792993978,ST
8.3,0.529954671859741,-1.88115966320038,9.21140193939209,1.15092194080353,-0.259148001670837,-0.685979962348938,-1166.70007324219,14.1000003814697,-880.500061035156,2.77666189916267,0.0559057987493461,0.199625640704384,ST
8.33333333333333,0.0197387188673019,-1.6783891916275,9.35615253448486,1.35671591758728,-0.525918006896973,-0.457319974899292,-1157.10009765625,16.5,-878.100036621094,2.77907376674197,0.0045573135776467,0.175794923552635,ST
8.36666666666667,-0.0741697251796722,-1.53483486175537,8.77176666259766,1.38720393180847,-0.320124000310898,-0.396344006061554,-1161.90002441406,16.5,-858.900024414062,2.78083263450202,-0.0073278731332682,0.170939205922164,ST
8.4,-0.282323479652405,-1.47801125049591,8.88900279998779,1.43293595314026,0.0762199983000755,0.297257989645004,-1161.90002441406,18.3000011444092,-873.300048828125,2.77939188972174,-0.0308777804723235,0.162488388165888,ST
8.43333333333333,-0.242846041917801,-1.3960657119751,9.3717041015625,1.18140995502472,-0.259148001670837,0.685979962348938,-1157.10009765625,10.5,-885.300048828125,2.77538399595634,-0.0255035884391044,0.146238427514083,ST
8.46666666666667,-0.196190893650055,-1.42238402366638,9.34359169006348,1.05183601379395,-1.12043392658234,0.914639949798584,-1169.10009765625,11.1000003814697,-882.900024414062,2.77001785373038,-0.019233417992957,0.149117648547319,ST
8.5,-0.301464051008224,-1.21961355209351,9.43929386138916,0.846041977405548,-1.41006994247437,1.04421401023865,-1166.70007324219,17.1000003814697,-875.700012207031,2.76308122270819,-0.0292153951584627,0.127483949633588,ST
8.53333333333333,-0.110058307647705,-1.29198884963989,9.52542686462402,0.800309956073761,-1.07470202445984,1.49391198158264,-1176.30004882812,22.5,-873.300048828125,2.75460217555356,-0.0103927107543968,0.133242037071761,ST
8.56666666666667,0.358287632465363,-1.27524077892303,9.89807033538818,0.899396002292633,-0.87652999162674,1.37958192825317,-1166.70007324219,20.1000003814697,-870.900024414062,2.74643582529343,0.0361137793218897,0.126782379436792,ST
8.6,0.44023323059082,-1.3278774023056,9.79817962646484,0.952749967575073,-1.35671591758728,1.2500079870224,-1173.90002441406,14.7000007629395,-868.500061035156,2.73863069496735,0.0462691505208985,0.132978263056154,ST
8.63333333333333,0.361278355121613,-1.27165198326111,9.84722805023193,0.983237981796265,-0.78506600856781,1.2500079870224,-1181.10009765625,16.5,-873.300048828125,2.73173388650006,0.037691461505834,0.126969378931785,ST
8.66666666666667,0.117236025631428,-1.28301668167114,9.2042236328125,1.2423859834671,0.548784017562866,1.36433792114258,-1171.5,12.3000001907349,-858.900024414062,2.72474657152094,0.0120612828780963,0.136110892080593,ST
8.7,0.357689499855042,-1.3841028213501,9.36512470245361,1.02134799957275,0.861285984516144,1.21189796924591,-1176.30004882812,19.5,-863.700012207031,2.71880776323648,0.0353238411099933,0.144768195803489,ST
8.73333333333333,-0.114245310425758,-1.11792922019958,10.030858039856,0.655492007732391,0.327746003866196,0.807931959629059,-1157.10009765625,17.1000003814697,-892.500061035156,2.71514119103693,-0.0109220111701591,0.1106687299881,ST
8.76666666666667,-0.189013183116913,-0.814670741558075,9.35435771942139,1.13567793369293,0.6250039935112,0.975615978240967,-1171.5,14.1000003814697,-870.900024414062,2.71011242280103,-0.0210795076474561,0.0855587169427942,ST
8.8,0.471336662769318,-1.25729656219482,9.84483528137207,0.792688012123108,0.693601965904236,0.990859985351562,-1171.5,15.3000001907349,-897.300048828125,2.70486255019452,0.0442168589907088,0.124605478453586,ST
8.83333333333333,0.345726639032364,-1.13647162914276,9.39323711395264,0.434453994035721,-0.0228659994900227,0.243903994560242,-1166.70007324219,14.7000007629395,-880.500061035156,2.70370089014613,0.0367213471309539,0.119795339985144,ST
8.86666666666667,0.433653652667999,-0.929514169692993,9.35316181182861,0.419209986925125,-0.525918006896973,-0.365855991840363,-1169.10009765625,12.9000005722046,-875.700012207031,2.70607666716008,0.0468003584054725,0.0988830473223158,ST
8.9,0.0945065915584564,-0.986337780952454,9.60797023773193,0.198172003030777,-0.388722002506256,-0.0152439996600151,-1169.10009765625,15.3000001907349,-887.700012207031,2.70583353700058,0.0112149403578494,0.101891467680673,ST
8.93333333333333,0.515001118183136,-1.31053125858307,9.75810432434082,0.0685980021953583,-0.129574000835419,-0.0304879993200302,-1161.90002441406,14.1000003814697,-868.500061035156,2.70493194545761,0.0515092931540254,0.132632850639512,ST
8.96666666666667,0.893027484416962,-1.338045835495,10.0200910568237,0.0076219998300075,-0.205793991684914,-0.205793991684914,-1171.5,15.9000005722046,-882.900024414062,2.7058649943989,0.0876346610247412,0.132710234131182,ST
9.0,0.547300815582275,-0.830820560455322,9.08100700378418,-0.381099998950958,-0.792688012123108,0.114329993724823,-1159.5,17.7000007629395,-887.700012207031,2.70789785453903,0.0617798194384057,0.0926554983355975,ST
9.03333333333333,0.353502482175827,-1.02820777893066,9.51346397399902,-0.594515979290009,0.533540010452271,0.0914639979600906,-1164.30004882812,16.5,-868.500061035156,2.70707315840791,0.0365177836177157,0.108369358263922,ST
9.06666666666667,0.703416109085083,-2.40333843231201,9.66718673706055,-3.74240183830261,0.907018005847931,-1.37958192825317,-1161.90002441406,9.30000019073486,-873.300048828125,2.70916398973139,0.0687360382547786,0.246638192951774,ST
9.1,0.701023578643799,-1.64668762683868,9.55712795257568,-1.07470202445984,-1.01372599601746,-0.236281991004944,-1159.5,15.9000005722046,-875.700012207031,2.71487824813236,0.0738393374669802,0.174512332983675,ST
9.13333333333333,0.436644375324249,-1.80878436565399,9.521240234375,-0.403965979814529,-0.571649968624115,-0.579271972179413,-1161.90002441406,14.7000007629395,-892.500061035156,2.71665812884914,0.046849337747436,0.188072446822575,ST
9.16666666666667,0.653770267963409,-1.87458002567291,9.62651252746582,-0.533540010452271,0.0,-0.213415995240211,-1166.70007324219,22.5,-878.100036621094,2.71762531301206,0.0660957381144764,0.193091590299347,ST
9.2,-0.0185424312949181,-1.56713461875916,8.93924713134766,-0.228659987449646,-0.152439996600151,0.106707997620106,-1159.5,18.3000011444092,-875.700012207031,2.71749737952043,-0.00075198638004,0.174246823881663,ST
9.23333333333333,-0.189611315727234,-2.02471399307251,9.44288349151611,-0.121951997280121,1.15854394435883,-0.266770005226135,-1164.30004882812,15.3000001907349,-875.700012207031,2.72042489380288,-0.0209492462094065,0.210435701212394,ST
9.26666666666667,-0.209350034594536,-2.09589290618896,9.53978252410889,-0.228659987449646,0.777444005012512,-0.3125019967556,-1164.30004882812,14.7000007629395,-882.900024414062,2.72311909823783,-0.0226039085926036,0.21655259978983,ST
9.3,-0.498253107070923,-1.86201906204224,10.206711769104,0.434453994035721,-0.457319974899292,0.0838419944047928,-1159.5,29.1000003814697,-887.700012207031,2.72108979508988,-0.0465603198566478,0.180680321685417,ST
9.33333333333333,0.272753208875656,-1.7244461774826,8.68742847442627,1.12043392658234,-1.73781597614288,-0.243903994560242,-1154.70007324219,15.3000001907349,-866.100036621094,2.72068695378885,0.0316534590190815,0.193641059709216,ST
9.36666666666667,-0.0215331465005875,-1.68855762481689,8.95300388336182,1.03659200668335,-2.32470989227295,0.182927995920181,-1169.10009765625,14.7000007629395,-882.900024414062,2.71730920354467,0.0021073511836962,0.184771147336852,ST
9.4,-0.001794428913854,-2.08153748512268,9.79040431976318,0.106707997620106,-0.525918006896973,0.754577994346619,-1159.5,20.7000007629395,-870.900024414062,2.71249995888014,0.0004781347343787,0.2088633147021,ST
9.43333333333333,0.101684302091599,-2.1592960357666,10.2276468276978,-0.0304879993200302,0.236281991004944,0.487807989120483,-1166.70007324219,21.9000015258789,-870.900024414062,2.71028377463374,0.0089120281010592,0.208147269048896,ST
9.46666666666667,-0.351708054542542,-1.99660122394562,10.0176982879639,0.556405961513519,0.152439996600151,1.57013201713562,-1169.10009765625,20.7000007629395,-873.300048828125,2.70237102790222,-0.0340159423841847,0.196020204001575,ST
9.5,-0.382811486721039,-1.89790761470795,9.54875469207764,0.160062000155449,-0.129574000835419,1.6768399477005,-1152.30004882812,20.7000007629395,-892.500061035156,2.69374337437756,-0.0394952243693531,0.195815328604011,ST
9.53333333333333,0.41451308131218,-1.8446729183197,9.34538555145264,0.487807989120483,-0.609759986400604,1.07470202445984,-1181.10009765625,17.7000007629395,-878.100036621094,2.68762599539726,0.0418910579446175,0.194151987294697,ST
9.56666666666667,0.542515695095062,-1.78007352352142,8.98410701751709,0.67835795879364,0.0533539988100529,1.33385002613068,-1181.10009765625,18.9000015258789,-887.700012207031,2.68069850447974,0.0581690843078394,0.194536022304108,ST
9.6,0.339745193719864,-1.47023546695709,9.46800518035889,-0.495429992675781,0.426831990480423,1.42531394958496,-1169.10009765625,19.5,-868.500061035156,2.67568945750275,0.0349617749896758,0.156080589032876,ST
9.63333333333333,0.35410064458847,-2.19817543029785,9.48834228515625,-1.6920839548111,-0.358233988285065,1.71494996547699,-1164.30004882812,22.5,-880.500061035156,2.66433724077567,0.036258240331386,0.228687466468719,ST
9.66666666666667,0.750669419765472,-2.34412240982056,9.281982421875,-0.106707997620106,0.0381099991500378,1.57775402069092,-1181.10009765625,11.7000007629395,-880.500061035156,2.65545018921227,0.0763952058148269,0.247233047301034,ST
9.7,0.309838056564331,-2.2250919342041,9.66898155212402,0.548784017562866,1.15092194080353,1.17378795146942,-1181.10009765625,21.3000011444092,-885.300048828125,2.65191954658235,0.0300924260631517,0.225882147641992,ST
9.73333333333333,0.190807610750198,-2.12639832496643,9.75631046295166,1.43293595314026,1.31098401546478,0.457319974899292,-1152.30004882812,23.1000003814697,-878.100036621094,2.65122484083356,0.0170652568159434,0.212474583157642,ST
9.76666666666667,-0.0927121639251709,-1.95712375640869,9.76946926116943,1.98934197425842,0.480185985565186,0.663114011287689,-1161.90002441406,18.9000015258789,-880.500061035156,2.64843174453913,-0.0096073134322552,0.194731192637784,ST
9.8,0.35110992193222,-1.80698990821838,9.34299278259277,2.25611186027527,-0.78506600856781,0.579271972179413,-1159.5,23.1000003814697,-861.300048828125,2.64455412031865,0.0367402759109125,0.187356960659638,ST
9.83333333333333,0.0723752975463867,-1.47143173217773,9.13842868804932,2.43903994560242,-1.63110792636871,0.800309956073761,-1154.70007324219,20.1000003814697,-870.900024414062,2.63957106363807,0.0111239813333726,0.156282620965368,ST
9.86666666666667,0.205163031816483,-1.21423017978668,7.98042345046997,2.54574799537659,-0.670735955238342,1.70732796192169,-1157.10009765625,18.3000011444092,-880.500061035156,2.63019564594141,0.0257215380938255,0.14688819143548,ST
9.9,0.276342064142227,-1.54081630706787,9.5984001159668,1.34909391403198,0.442075997591019,2.080806016922,-1169.10009765625,12.9000005722046,-873.300048828125,2.61848963514548,0.0270679019092739,0.156728727285913,ST
9.93333333333333,-0.194396466016769,-1.75375521183014,10.16663646698,0.556405961513519,0.533540010452271,1.57775402069092,-1159.5,16.5,-875.700012207031,2.61060950200464,-0.0190964656662333,0.169500631040887,ST
9.96666666666667,0.134582161903381,-1.90807604789734,10.4112768173218,0.144817993044853,-0.83841997385025,0.922261953353882,-1157.10009765625,20.1000003814697,-880.500061035156,2.60516922613073,0.0129693229711599,0.180711081036387,ST
10.0,0.254210770130157,-1.54500329494476,9.70247745513916,0.236281991004944,-2.35519790649414,0.449698001146317,-1164.30004882812,14.1000003814697,-868.500061035156,2.60131147248451,0.029343748444047,0.15816992484636,ST
10.0333333333333,0.364867210388184,-1.0975923538208,8.94283580780029,0.83841997385025,-2.44666194915771,0.617381989955902,-1164.30004882812,12.9000005722046,-885.300048828125,2.59734134707612,0.0442623539350768,0.12150443984713,ST
10.0666666666667,0.827231705188751,-1.31292378902435,9.14321327209473,0.99848198890686,-1.37958192825317,1.15854394435883,-1161.90002441406,13.5000009536743,-885.300048828125,2.58831823118746,0.0904457753371064,0.140674663616408,ST
10.1,0.361876487731934,-1.15800476074219,9.57925987243652,0.99848198890686,-0.571649968624115,1.53964400291443,-1164.30004882812,20.1000003814697,-885.300048828125,2.58089067229719,0.0393941141354612,0.1192051705073,ST
10.1333333333333,0.226098045706749,-0.971982300281525,9.60976505279541,1.10518991947174,-0.0228659994900227,1.47866797447205,-1173.90002441406,23.7000007629395,-866.100036621094,2.57371650267538,0.0236234519029756,0.0994892489671774,ST
10.1666666666667,0.128002598881721,-0.91874760389328,9.82330226898193,1.04421401023865,-0.342989981174469,1.34147191047668,-1181.10009765625,13.5000009536743,-878.100036621094,2.56668166625254,0.013632353810014,0.091686550166187,ST
10.2,-0.0693845823407173,-0.824839174747467,9.57507228851318,1.01372599601746,-0.342989981174469,0.762199997901917,-1169.10009765625,18.3000011444092,-868.500061035156,2.56224985745905,-0.0063690115250027,0.084291964658457,ST
10.2333333333333,-0.159106031060219,-0.966000914573669,10.2671241760254,0.87652999162674,0.0381099991500378,0.205793991684914,-1161.90002441406,23.7000007629395,-878.100036621094,2.56134606446571,-0.0152771831506174,0.0920585090385946,ST
10.2666666666667,-0.248229339718819,-0.945065915584564,9.66957950592041,0.3125019967556,-0.472563982009888,-0.175305992364883,-1171.5,16.5,-870.900024414062,2.56214565891204,-0.0244372989662056,0.0967550380541916,ST
10.3,0.403148353099823,-1.06708705425262,9.5385856628418,-0.586893975734711,-1.05945801734924,-0.525918006896973,-1171.5,12.3000001907349,-882.900024414062,2.5641993175478,0.0420553537199143,0.111981514748926,ST
10.3333333333333,0.750669419765472,-0.92472904920578,8.64316558837891,-0.236281991004944,-1.13567793369293,-0.548784017562866,-1169.10009765625,13.5000009536743,-887.700012207031,2.56678946066102,0.0869615554789959,0.107073997684925,ST
10.3666666666667,0.390587359666824,-1.22320234775543,9.305908203125,-0.0152439996600151,0.335367977619171,-0.670735955238342,-1169.10009765625,12.9000005722046,-870.900024414062,2.56918402604649,0.0421090969757116,0.130177547053727,ST
10.4,0.573020994663239,-1.09340536594391,9.35435771942139,-0.0685980021953583,0.807931959629059,-0.92988395690918,-1169.10009765625,18.9000015258789,-868.500061035156,2.57516385147078,0.0590841111222854,0.116753021751793,ST
10.4333333333333,0.581993103027344,-1.23217451572418,10.4513521194458,-0.0838419944047928,0.365855991840363,-1.28049600124359,-1161.90002441406,15.9000005722046,-875.700012207031,2.58257648271013,0.054949933368049,0.11736264292886,ST
10.4666666666667,0.836802005767822,-1.03119850158691,9.71623420715332,0.0685980021953583,-0.937505960464478,-1.36433792114258,-1166.70007324219,15.9000005722046,-880.500061035156,2.58984881078411,0.0864347220719456,0.105758432028787,ST
10.5,0.626853823661804,-0.90977543592453,9.46262168884277,0.739333987236023,-0.0685980021953583,-1.40244793891907,-1169.10009765625,11.1000003814697,-875.700012207031,2.59823294681715,0.0665630088153986,0.0945986032075941,ST
10.5333333333333,0.739304721355438,-1.06708705425262,9.37948036193848,0.37347799539566,0.304879993200302,-1.32622802257538,-1166.70007324219,17.1000003814697,-880.500061035156,2.60382360525926,0.0775748854743192,0.111962058081292,ST
10.5666666666667,0.0980954468250275,-1.25310957431793,9.69709396362305,0.175305992364883,1.09756803512573,-1.56251001358032,-1173.90002441406,12.3000001907349,-878.100036621094,2.61183397162769,0.0103573476421022,0.12771903284945,ST
10.6,0.453990519046783,-1.26267981529236,9.77066516876221,-0.266770005226135,0.564027965068817,-1.6768399477005,-1169.10009765625,18.9000015258789,-856.500061035156,2.6208393443245,0.044492734430273,0.12882966950039,ST
10.6333333333333,0.791941285133362,-1.23396897315979,9.40998554229736,-0.556405961513519,-1.12805593013763,-1.71494996547699,-1171.5,14.7000007629395,-892.500061035156,2.62918458784557,0.0846173969335673,0.131086659335755,ST
10.6666666666667,0.940280735492706,-1.28899812698364,8.97573375701904,-0.769822001457214,-1.69970595836639,-1.31860601902008,-1185.90002441406,14.7000007629395,-878.100036621094,2.63392043550976,0.105989752712004,0.143438154585797,ST
10.7,0.482103228569031,-1.746577501297,9.58583927154541,-1.08994603157043,0.137196004390717,-0.541162014007568,-1178.70007324219,15.3000001907349,-873.300048828125,2.63423383815994,0.0509128976728762,0.181027951424858,ST
10.7333333333333,0.333763778209686,-1.93798327445984,10.474081993103,-0.846041977405548,1.34909391403198,-0.411587983369827,-1159.5,18.9000015258789,-880.500061035156,2.63784280274086,0.0295913042389143,0.18432882762171,ST
10.7666666666667,0.28112718462944,-1.91944074630737,10.1941509246826,-0.426831990480423,0.190549999475479,-0.472563982009888,-1169.10009765625,15.3000001907349,-885.300048828125,2.64042440351877,0.0269932789343008,0.186762610356964,ST
10.8,-0.224901750683784,-1.94396460056305,8.31179428100586,-0.160062000155449,-0.205793991684914,-0.381099998950958,-1166.70007324219,14.1000003814697,-873.300048828125,2.64206177441663,-0.0244033616470218,0.22886369971919,ST
10.8333333333333,0.126208171248436,-2.02591013908386,9.03494930267334,-0.320124000310898,0.198172003030777,-0.510673999786377,-1173.90002441406,11.1000003814697,-875.700012207031,2.64508453902748,0.012805357095452,0.221271136002787,ST
10.8666666666667,-0.175854027271271,-1.99121797084808,9.29693603515625,0.25152599811554,-0.426831990480423,-0.175305992364883,-1166.70007324219,14.7000007629395,-868.500061035156,2.64553034663614,-0.0171517210069906,0.210748992605194,ST
10.9,0.128002598881721,-2.15271663665771,9.52602481842041,0.525918006896973,-0.853663980960846,0.297257989645004,-1161.90002441406,22.5,-875.700012207031,2.64307673299967,0.0135865680627184,0.221052929812796,ST
10.9333333333333,0.372044920921326,-2.02770471572876,9.86098480224609,0.891773998737335,-1.32622802257538,1.2423859834671,-1169.10009765625,14.1000003814697,-858.900024414062,2.63571467934681,0.0380824669871293,0.201874959313315,ST
10.9666666666667,0.512608528137207,-1.9068797826767,9.36452674865723,1.07470202445984,-0.937505960464478,2.01982998847961,-1169.10009765625,25.5000019073486,-878.100036621094,2.62434590276437,0.0540462359383478,0.199276917726852,ST
11.0,0.0897214487195015,-2.131183385849,9.99496936798096,0.495429992675781,0.121951997280121,2.5076379776001,-1166.70007324219,27.9000015258789,-882.900024414062,2.61138407082499,0.0089279956687437,0.20900108850258,ST
11.0333333333333,-0.231481328606606,-2.14135193824768,10.0565776824951,-0.0533539988100529,0.6250039935112,2.61434602737427,-1173.90002441406,16.5,-878.100036621094,2.59880151262286,-0.0236167652437711,0.20978235787281,ST
11.0666666666667,0.730332553386688,-1.96370339393616,8.66170883178711,0.297257989645004,0.0914639979600906,1.63110792636871,-1171.5,10.5,-873.300048828125,2.59024434495397,0.0784061248462755,0.222267019898756,ST
11.1,0.979758203029633,-1.88534665107727,9.04451942443848,0.182927995920181,-1.12043392658234,0.952749967575073,-1171.5,17.1000003814697,-882.900024414062,2.58564932879674,0.106439613988385,0.205861294272156,ST
11.1333333333333,0.256603330373764,-1.75016629695892,8.95898532867432,0.533540010452271,-1.05945801734924,1.31098401546478,-1171.5,14.1000003814697,-873.300048828125,2.5786939622394,0.031570333598693,0.192470520864701,ST
11.1666666666667,0.771604418754578,-1.64309871196747,9.49432373046875,0.99848198890686,-0.426831990480423,0.853663980960846,-1171.5,17.1000003814697,-868.500061035156,2.57484712000503,0.0790595409704322,0.17036129055416,ST
11.2,0.580796837806702,-1.672407746315,10.4561376571655,1.17378795146942,0.0152439996600151,1.82165801525116,-1171.5,20.1000003814697,-890.100036621094,2.56577557764528,0.0548552484366797,0.157055597346813,ST
11.2333333333333,0.727341830730438,-1.64130425453186,10.3616304397583,0.990859985351562,0.236281991004944,1.79879200458527,-1166.70007324219,16.5,-882.900024414062,2.55596665673253,0.0680474289378913,0.155601705043798,ST
11.2666666666667,1.44092643260956,-1.34641981124878,9.44587421417236,1.12043392658234,-0.442075997591019,1.52439999580383,-1176.30004882812,17.1000003814697,-863.700012207031,2.54879857637683,0.148035534573827,0.140448587894525,ST
11.3,0.959421336650848,-1.50074076652527,10.7426481246948,1.04421401023865,0.205793991684914,1.55488801002502,-1169.10009765625,23.1000003814697,-873.300048828125,2.54079760587035,0.0891393752371662,0.137319456327312,ST
11.3333333333333,1.08622765541077,-1.30275535583496,8.93685436248779,0.579271972179413,0.731711983680725,0.640248000621796,-1169.10009765625,21.9000015258789,-875.700012207031,2.5368916853111,0.117671682134993,0.143713854026245,ST
11.3666666666667,0.225499898195267,-1.16518247127533,8.46252632141113,0.983237981796265,1.79117000102997,0.381099998950958,-1164.30004882812,14.7000007629395,-887.700012207031,2.53653609959339,0.0257755403129296,0.135356806208157,ST
11.4,-0.295482635498047,-1.54500329494476,8.80705738067627,1.12805593013763,2.95733594894409,0.266770005226135,-1149.90002441406,21.3000011444092,-880.500061035156,2.53789802872664,-0.0364591675303958,0.170716046274017,ST
11.4333333333333,-0.869699895381927,-1.61199533939362,9.66180324554443,0.861285984516144,2.34757590293884,0.823175966739655,-1161.90002441406,20.7000007629395,-887.700012207031,2.53560428054264,-0.0912987531562255,0.163942971371485,ST
11.4666666666667,-1.12929391860962,-1.41460812091827,9.62770938873291,0.419209986925125,1.06708002090454,0.830797970294952,-1157.10009765625,17.7000007629395,-873.300048828125,2.53052362203002,-0.116874134407396,0.14553787258305,ST
11.5,-0.840390861034393,-1.37154185771942,9.35076904296875,-0.0685980021953583,0.37347799539566,0.807931959629059,-1157.10009765625,17.1000003814697,-875.700012207031,2.52665444300404,-0.0902824785619512,0.145634540048162,ST
11.5333333333333,-0.219518467783928,-1.40324342250824,10.0212869644165,-0.442075997591019,-1.09756803512573,0.868907988071442,-1147.5,18.3000011444092,-882.900024414062,2.52098129763862,-0.0219188908038275,0.140001364770807,ST
11.5666666666667,0.0783567279577255,-1.21901535987854,9.72819709777832,-0.617381989955902,-2.60672402381897,0.449698001146317,-1166.70007324219,21.9000015258789,-882.900024414062,2.51684397226475,0.0114711717657744,0.126134453884782,ST
11.6,0.179442897439003,-1.0916109085083,8.48525619506836,-1.02134799957275,-1.50915598869324,0.0533539988100529,-1152.30004882812,16.5,-866.100036621094,2.51553897994417,0.0233210203664507,0.129662832697031,ST
11.6333333333333,0.275743901729584,-2.06957459449768,9.71743106842041,-1.65397393703461,-0.137196004390717,-0.182927995920181,-1161.90002441406,23.1000003814697,-873.300048828125,2.51454422741142,0.0279485943984316,0.210997346556595,ST
11.6666666666667,0.185424327850342,-1.42776727676392,9.28736591339111,-0.0457319989800453,-1.38720393180847,0.647870004177094,-1140.30004882812,14.7000007629395,-875.700012207031,2.51104521510289,0.0220523612422142,0.153702257220448,ST
11.7,-0.0939084440469742,-1.60003244876862,9.04093074798584,0.815553963184357,-0.0304879993200302,0.617381989955902,-1169.10009765625,18.3000011444092,-882.900024414062,2.50773825504357,-0.0094770562565744,0.173188053848908,ST
11.7333333333333,0.327782362699509,-1.75495147705078,10.0159044265747,0.434453994035721,-0.152439996600151,0.594515979290009,-1152.30004882812,21.3000011444092,-882.900024414062,2.50443167971341,0.0313144637109557,0.172738690492147,ST
11.7666666666667,-0.208153754472733,-1.85603761672974,9.70785999298096,0.724089980125427,-0.503051996231079,0.78506600856781,-1145.10009765625,23.7000007629395,-878.100036621094,2.49961142749638,-0.0193757838193155,0.187315340292047,ST
11.8,-0.0771604403853416,-1.55816245079041,8.86328220367432,1.07470202445984,-0.182927995920181,0.335367977619171,-1164.30004882812,20.7000007629395,-870.900024414062,2.49759303965542,-0.0086604497562611,0.172552510999526,ST
11.8333333333333,-0.13099330663681,-1.72923135757446,8.99906063079834,0.807931959629059,1.16616594791412,0.365855991840363,-1154.70007324219,21.9000015258789,-885.300048828125,2.49707981454351,-0.0162014690032436,0.187996974193263,ST
11.8666666666667,-0.061608724296093,-1.65924859046936,9.85141468048096,0.129574000835419,0.121951997280121,0.106707997620106,-1145.10009765625,14.7000007629395,-894.900024414062,2.4964130025905,-0.0066745347667098,0.167215296524998,ST
11.9,-0.331969350576401,-1.65087461471558,10.2049169540405,0.685979962348938,-0.37347799539566,0.541162014007568,-1154.70007324219,18.9000015258789,-897.300048828125,2.49326892236793,-0.0309308367912585,0.159375663536224,ST
11.9333333333333,-0.483299523591995,-1.68676316738129,9.63907432556152,1.34147191047668,0.228659987449646,0.495429992675781,-1157.10009765625,21.3000011444092,-892.500061035156,2.49168754452163,-0.049372814236982,0.170546734505518,ST
11.9666666666667,-0.0508421510457993,-1.6024249792099,9.2161865234375,0.716467976570129,-0.236281991004944,-0.327746003866196,-1161.90002441406,14.7000007629395,-880.500061035156,2.49323472959447,-0.0061412857284383,0.170895631240998,ST
12.0,-0.587974548339844,-1.20047295093536,10.3813695907593,1.27287399768829,-0.0381099991500378,0.594515979290009,-1169.10009765625,16.5,-880.500061035156,2.48869498583584,-0.0549005834508808,0.114435684553579,ST
12.0333333333333,0.520982503890991,-1.08981645107269,9.2939453125,0.685979962348938,-0.609759986400604,-0.106707997620106,-1157.10009765625,8.70000076293945,-875.700012207031,2.48881064657553,0.0536526049761623,0.115501566373673,ST
12.0666666666667,0.971384167671204,-1.00966536998749,8.20652198791504,0.579271972179413,-1.73781597614288,-0.0228659994900227,-1149.90002441406,11.7000007629395,-892.500061035156,2.48706943472988,0.118155769706711,0.121281234542211,ST
12.1,1.15680849552155,-1.23337078094482,8.78612232208252,0.106707997620106,-1.21189796924591,-0.213415995240211,-1176.30004882812,11.7000007629395,-873.300048828125,2.48508018340242,0.131428857405706,0.138779495850181,ST
12.1333333333333,0.0933103039860725,-1.39905643463135,9.65522384643555,-0.472563982009888,0.495429992675781,-0.815553963184357,-1157.10009765625,14.1000003814697,-878.100036621094,2.48933087622552,0.0122524551314743,0.144535235285966,ST
12.1666666666667,0.240453481674194,-1.6783891916275,9.81133937835693,-0.83841997385025,1.55488801002502,-1.40244793891907,-1137.90002441406,18.9000015258789,-887.700012207031,2.49745341428545,0.0216224110229965,0.170114046745841,ST
12.2,0.71059387922287,-1.54320883750916,9.56370830535889,-1.99696397781372,0.304879993200302,-2.46952795982361,-1159.5,10.5,-875.700012207031,2.51245599908492,0.0724651236795239,0.163296218913856,ST
12.2333333333333,0.471336662769318,-2.14793133735657,9.75870227813721,-1.05945801734924,-1.76068198680878,-1.36433792114258,-1159.5,11.1000003814697,-878.100036621094,2.51486261158672,0.0510960396637464,0.21726960457398,ST
12.2666666666667,0.413316786289215,-1.68915569782257,9.25985145568848,-0.0914639979600906,-2.44666194915771,-0.6250039935112,-1154.70007324219,17.7000007629395,-887.700012207031,2.51741185213884,0.0483579392402268,0.181576357234728,ST
12.3,0.150133892893791,-1.51330173015594,8.88421726226807,0.335367977619171,-1.14329993724823,0.685979962348938,-1152.30004882812,21.3000011444092,-870.900024414062,2.51328449635844,0.0192358830810917,0.168529782257434,ST
12.3333333333333,0.0753660127520561,-1.98104953765869,9.20781326293945,-0.37347799539566,-0.0838419944047928,1.16616594791412,-1176.30004882812,23.1000003814697,-870.900024414062,2.50670800966254,0.008039581212426,0.21139021625837,ST
12.3666666666667,0.340343356132507,-1.90747797489166,9.3118896484375,-1.06708002090454,-0.746955990791321,1.12043392658234,-1169.10009765625,24.9000015258789,-873.300048828125,2.50016262246095,0.0360768073836788,0.204138190848196,ST
12.4,0.263182908296585,-1.75016629695892,9.33282470703125,-0.6250039935112,-1.34909391403198,1.17378795146942,-1166.70007324219,27.3000011444092,-880.500061035156,2.49309207165367,0.0297723259650056,0.186904135812787,ST
12.4333333333333,0.0693845823407173,-2.2113344669342,8.29863548278809,0.426831990480423,-0.221037998795509,1.50915598869324,-1166.70007324219,20.7000007629395,-878.100036621094,2.48334529952539,0.0082511263790906,0.258192307942866,ST
12.4666666666667,0.336156338453293,-1.94815170764923,8.71195220947266,0.274392008781433,0.746955990791321,0.945127964019775,-1164.30004882812,18.3000011444092,-870.900024414062,2.48024885897775,0.0352458377640997,0.220615550326135,ST
12.5,-0.937290012836456,-2.44281578063965,10.8850059509277,0.800309956073761,1.56251001358032,1.74543797969818,-1157.10009765625,14.1000003814697,-868.500061035156,2.47333526697264,-0.083814821328359,0.219240534365935,ST
12.5333333333333,-0.366661638021469,-2.32318735122681,11.2145824432373,0.777444005012512,0.83841997385025,1.15854394435883,-1164.30004882812,23.1000003814697,-868.500061035156,2.46761673386584,-0.0352081094694878,0.203290823017909,ST
12.5666666666667,0.394176214933395,-2.10366892814636,10.6971893310547,0.99848198890686,-1.15092194080353,0.67835795879364,-1161.90002441406,17.7000007629395,-885.300048828125,2.46236202137085,0.0367406033236618,0.192655997638054,ST
12.6,0.985739588737488,-1.62455630302429,8.69699859619141,1.56251001358032,-2.72105383872986,0.525918006896973,-1171.5,20.1000003814697,-894.900024414062,2.45696244464871,0.113588342786269,0.182383199350159,ST
12.6333333333333,1.72085738182068,-1.66941702365875,8.92489147186279,1.46342396736145,-1.83690190315247,0.304879993200302,-1171.5,18.9000015258789,-880.500061035156,2.45203086726341,0.188978641615481,0.18256391793646,ST
12.6666666666667,1.85783207416534,-1.41759884357452,8.0713415145874,1.21189796924591,-0.617381989955902,0.320124000310898,-1178.70007324219,24.9000015258789,-875.700012207031,2.4504852854967,0.223180099464905,0.172131993612119,ST
12.7,1.23995041847229,-1.27344644069672,8.03126525878906,0.937505960464478,-0.0457319989800453,0.533540010452271,-1159.5,20.1000003814697,-880.500061035156,2.4497038582454,0.152742033803272,0.156103714629913,ST
12.7333333333333,0.396568775177002,-1.38709354400635,8.72451305389404,0.6250039935112,1.14329993724823,0.541162014007568,-1166.70007324219,14.1000003814697,-882.900024414062,2.44755611329832,0.0457373586662123,0.156606331036334,ST
12.7666666666667,-0.422288924455643,-1.67420220375061,10.2396097183228,0.724089980125427,1.95123195648193,0.983237981796265,-1164.30004882812,18.3000011444092,-887.700012207031,2.4438780592401,-0.0426911346933968,0.160690920018537,ST
12.8,-0.900205194950104,-1.80878436565399,11.3599309921265,0.967993974685669,1.65397393703461,1.41006994247437,-1169.10009765625,19.5,-880.500061035156,2.43758314857655,-0.0806383332443475,0.156139491362663,ST
12.8333333333333,-0.422887086868286,-1.96729218959808,11.5369815826416,0.754577994346619,0.381099998950958,0.990859985351562,-1154.70007324219,19.5,-887.700012207031,2.4337017701858,-0.0382460050703849,0.167203926946799,ST
12.8666666666667,0.625059425830841,-1.39068245887756,9.11211013793945,0.685979962348938,-2.33995389938354,0.282013982534409,-1166.70007324219,16.5,-880.500061035156,2.43049928957752,0.0686740305444409,0.15078403451673,ST
12.9,0.852951884269714,-1.35658824443817,8.23403644561768,0.693601965904236,-3.12502002716064,0.190549999475479,-1161.90002441406,21.3000011444092,-866.100036621094,2.42542764902276,0.106389558337235,0.16196515202886,DLL
12.9333333333333,0.686069965362549,-1.19628596305847,8.05758380889893,0.495429992675781,-1.82927989959717,0.213415995240211,-1169.10009765625,24.9000015258789,-882.900024414062,2.42396644647708,0.087526035787265,0.146918367976123,DLL
12.9666666666667,-0.0879270136356354,-1.09340536594391,9.94173431396484,0.533540010452271,0.617381989955902,0.823175966739655,-1178.70007324219,23.1000003814697,-878.100036621094,2.42155099102119,-0.0073692595251503,0.109656938260696,DLL
13.0,-1.4301598072052,-0.590367138385773,10.3550510406494,0.830797970294952,0.861285984516144,2.36281991004944,-1173.90002441406,20.7000007629395,-861.300048828125,2.404854543292,-0.136716013828545,0.0558492046926165,DLL
13.0333333333333,-1.04615211486816,-0.903794050216675,10.2025241851807,-0.304879993200302,-0.213415995240211,5.9222936630249,-1161.90002441406,21.9000015258789,-873.300048828125,2.37604487179217,-0.102999688357154,0.0871339077105817,DLL
13.0666666666667,-0.534141659736633,-0.990524768829346,9.81851673126221,-0.990859985351562,-2.0579400062561,7.79730606079102,-1164.30004882812,16.5,-875.700012207031,2.33558842534722,-0.0532401420941276,0.101077447223736,DLL
13.1,-0.439635097980499,-1.41400992870331,10.4657077789307,-1.63110792636871,-2.79727387428284,10.8613500595093,-1161.90002441406,15.9000005722046,-885.300048828125,2.27912799446086,-0.0396386517994307,0.135390761400978,DLL
13.1333333333333,0.458177506923676,-1.43973016738892,8.94044303894043,-1.6920839548111,-4.07776975631714,11.8674535751343,-1169.10009765625,22.5,-866.100036621094,2.21506568247404,0.0517358477280581,0.162785197999937,DLL
13.1666666666667,0.0059814294800162,-1.21542656421661,8.19336223602295,-0.960371971130371,-4.23783206939697,12.4924573898315,-1176.30004882812,28.5000019073486,-868.500061035156,2.14809039633298,0.006028005312797,0.1495418013937,DLL
13.2,1.04854464530945,-2.25798964500427,8.77176666259766,-1.10518991947174,-3.08691000938416,14.1921634674072,-1173.90002441406,27.3000011444092,-851.700012207031,2.06720448049346,0.111567173612499,0.253545766076925,DLL
13.2333333333333,0.73751026391983,-2.32199096679688,9.80416107177734,-1.14329993724823,-3.04117798805237,13.2699012756348,-1176.30004882812,38.1000022888184,-870.900024414062,1.99882569634012,0.0738059974599294,0.236839499214516,DLL
13.2666666666667,0.154320880770683,-1.86441159248352,8.62342739105225,-0.335367977619171,-2.57623600959778,12.4238595962524,-1183.5,29.1000003814697,-875.700012207031,1.93406562747091,0.0187460589429941,0.214647382450678,DLL
13.3,0.226098045706749,-2.43503999710083,10.0290632247925,-0.350611984729767,-0.983237981796265,13.2470359802246,-1178.70007324219,32.1000022888184,-863.700012207031,1.86346943944492,0.0181708830765296,0.238633333036189,DLL
13.3333333333333,0.717771589756012,-2.52476143836975,9.16953182220459,-0.548784017562866,-1.42531394958496,11.4863538742065,-1183.5,40.5,-851.700012207031,1.80279097529743,0.0709677746843276,0.270087591623471,DLL
13.3666666666667,0.253612607717514,-2.515789270401,10.2473850250244,-0.221037998795509,-1.15854394435883,10.0229301452637,-1181.10009765625,41.7000007629395,-863.700012207031,1.75069436288644,0.0229180769480821,0.242267009187156,DLL
13.4,1.18671560287476,-3.00626659393311,8.22147560119629,-0.266770005226135,-1.82165801525116,8.20889377593994,-1166.70007324219,42.9000015258789,-856.500061035156,1.6953682848788,0.130933430501907,0.350823194621659,DLL
13.4333333333333,0.688462555408478,-2.76700949668884,8.72391510009766,-1.6920839548111,-1.41006994247437,6.41010189056396,-1171.5,43.5,-861.300048828125,1.66445922043313,0.0751343570440032,0.311812303725432,DLL
13.4666666666667,0.364867210388184,-3.10496020317078,9.22157001495361,-0.495429992675781,-1.13567793369293,6.47869968414307,-1164.30004882812,45.9000015258789,-858.900024414062,1.62803392510469,0.0365639876164015,0.325800342840546,DLL
13.5,0.28112718462944,-2.87646961212158,9.50150108337402,0.99848198890686,0.0381099991500378,6.04424571990967,-1161.90002441406,45.9000015258789,-837.300048828125,1.59812643897651,0.0254410547155605,0.293276221510954,DLL
13.5333333333333,-0.479710668325424,-2.88185286521912,10.2874612808228,3.31556987762451,-1.6615959405899,5.64027976989746,-1152.30004882812,41.1000022888184,-858.900024414062,1.56503808003971,-0.0434381888750682,0.267418558758753,DLL
13.5666666666667,-0.522776961326599,-2.63601613044739,9.47458457946777,3.10215401649475,-3.24697184562683,5.13722801208496,-1161.90002441406,37.5,-861.300048828125,1.53560876973345,-0.0498155244946944,0.265494616325741,DLL
13.6,0.412120521068573,-2.515789270401,9.24190711975098,2.36281991004944,-4.01679372787476,4.50460195541382,-1157.10009765625,40.5,-849.300048828125,1.50743520431027,0.0450818367302217,0.262094424738772,DLL
13.6333333333333,0.84158718585968,-2.41470313072205,8.65692329406738,2.03507399559021,-3.7728898525238,3.03355598449707,-1161.90002441406,47.1000022888184,-866.100036621094,1.48453876849192,0.0972133753765358,0.268964336403147,DLL
13.6666666666667,1.10835897922516,-2.05641555786133,8.90515232086182,1.16616594791412,-1.81403601169586,1.6692179441452,-1164.30004882812,44.7000007629395,-861.300048828125,1.4772852468519,0.122568744953361,0.226245911984927,DLL
13.7,0.465355217456818,-1.8889354467392,8.77834606170654,1.00610399246216,-1.2576299905777,0.830797970294952,-1157.10009765625,47.1000022888184,-858.900024414062,1.4725015482964,0.0552556912820406,0.210686740279829,DLL
13.7333333333333,0.360082060098648,-1.94157207012177,9.39263916015625,1.54726600646973,-0.0990860015153885,2.31708788871765,-1154.70007324219,47.1000022888184,-851.700012207031,1.45998549816515,0.0372625423804044,0.201488908291239,DLL
13.7666666666667,0.126806303858757,-1.50971281528473,10.3257417678833,1.47104597091675,0.282013982534409,2.47714996337891,-1171.5,52.5000038146973,-861.300048828125,1.44879772359193,0.011733132429991,0.144268064822403,DLL
13.8,0.304454773664474,-1.16637873649597,10.3054056167603,1.55488801002502,0.304879993200302,2.03507399559021,-1154.70007324219,42.9000015258789,-856.500061035156,1.43899273185585,0.0279617965263173,0.111009055709494,DLL
13.8333333333333,0.343932211399078,-0.948654770851135,9.4787712097168,0.457319974899292,-0.236281991004944,0.884151995182037,-1173.90002441406,42.9000015258789,-863.700012207031,1.43460453417265,0.0361162629671215,0.0993339350302018,DLL
13.8666666666667,0.577806115150452,-1.24892246723175,9.03315544128418,-0.121951997280121,-0.419209986925125,0.891773998737335,-1161.90002441406,47.7000007629395,-830.100036621094,1.42763017894528,0.0632216309482042,0.13690664516847,DLL
13.9,-0.164489313960075,-1.14006054401398,10.2599468231201,0.182927995920181,0.167683988809586,0.182927995920181,-1166.70007324219,50.1000022888184,-851.700012207031,1.42741582344685,-0.0140976747384666,0.111066144753323,DLL
13.9333333333333,0.589768946170807,-1.50193703174591,9.23293495178223,0.0457319989800453,0.205793991684914,0.205793991684914,-1157.10009765625,46.5,-863.700012207031,1.42533717579807,0.0607280674751997,0.160000038024299,DLL
13.9666666666667,0.260192185640335,-1.61378967761993,9.40280723571777,0.213415995240211,0.152439996600151,-0.327746003866196,-1161.90002441406,42.9000015258789,-849.300048828125,1.426686298491,0.0280149707805052,0.169321175294325,DLL
14.0,0.873288750648499,-2.27593398094177,8.79449653625488,-0.762199997901917,-1.04421401023865,-0.106707997620106,-1166.70007324219,39.3000030517578,-856.500061035156,1.42109828346528,0.0962040040467703,0.252812152104622,DLL
14.0333333333333,0.952841758728027,-2.39077734947205,8.92010593414307,-0.99848198890686,-1.40244793891907,-0.0914639979600906,-1164.30004882812,41.7000007629395,-851.700012207031,1.41916306773122,0.104974120157026,0.263364191536664,DLL
14.0666666666667,0.470140367746353,-2.56304264068604,10.2635354995728,0.289635986089706,-0.571649968624115,0.449698001146317,-1164.30004882812,45.3000030517578,-858.900024414062,1.41721534999108,0.0462646566993523,0.244606901785623,DLL
14.1,0.798520863056183,-2.30464482307434,9.7658805847168,0.815553963184357,-0.213415995240211,0.388722002506256,-1159.5,47.1000022888184,-851.700012207031,1.41550377154567,0.0788271017167854,0.230721788888441,DLL
14.1333333333333,0.739304721355438,-1.79323267936707,8.88003063201904,1.08994603157043,0.297257989645004,-0.25152599811554,-1166.70007324219,45.9000015258789,-870.900024414062,1.41931927361625,0.0809611863998735,0.198006668240389,DLL
14.1666666666667,0.15312460064888,-1.5563679933548,9.58105373382568,0.922261953353882,0.914639949798584,-0.411587983369827,-1169.10009765625,45.9000015258789,-861.300048828125,1.42388157437437,0.0161283036156187,0.160454789490232,DLL
14.2,0.0759641602635384,-1.59225654602051,9.35854530334473,0.716467976570129,0.87652999162674,-0.3125019967556,-1152.30004882812,41.7000007629395,-868.500061035156,1.42611354892745,0.0068434203948657,0.167083598732914,DLL
14.2333333333333,-0.0974973067641258,-1.48160016536713,9.18807411193848,0.640248000621796,0.37347799539566,-0.243903994560242,-1166.70007324219,42.3000030517578,-861.300048828125,1.42767479890124,-0.0105646430123223,0.158990045391165,DLL
14.2666666666667,0.136974737048149,-1.68616509437561,9.30531024932861,0.228659987449646,-0.152439996600151,-0.335367977619171,-1157.10009765625,42.9000015258789,-861.300048828125,1.4293015130089,0.0143211722453678,0.178442172487399,DLL
14.3,0.553880393505096,-1.80519545078278,8.70955944061279,-0.152439996600151,-0.800309956073761,-0.663114011287689,-1164.30004882812,41.1000022888184,-858.900024414062,1.43092255286401,0.0624426711995324,0.203875768604957,DLL
14.3333333333333,0.296080768108368,-1.64967834949493,9.50150108337402,0.0990860015153885,-0.868907988071442,-0.381099998950958,-1178.70007324219,41.1000022888184,-854.100036621094,1.4335211030856,0.0331215666956649,0.172596158385749,DLL
14.3666666666667,0.307445496320724,-1.70949256420135,10.0105209350586,0.556405961513519,-0.0381099991500378,-0.182927995920181,-1169.10009765625,48.3000030517578,-856.500061035156,1.43449408594404,0.0304489432991331,0.168263092762582,DLL
14.4,1.07306849956512,-2.14852952957153,9.34718036651611,-0.449698001146317,-0.388722002506256,-0.396344006061554,-1159.5,41.1000022888184,-854.100036621094,1.43229485892085,0.110001327350431,0.225063931467309,DLL
14.4333333333333,0.532945394515991,-1.72025918960571,9.12467098236084,-0.213415995240211,-0.586893975734711,-1.31860601902008,-1173.90002441406,39.9000015258789,-851.700012207031,1.44164387062298,0.0601697194699336,0.187624497841522,DLL
14.4666666666667,0.43425178527832,-1.91824448108673,9.8316764831543,0.769822001457214,0.510673999786377,-1.05945801734924,-1176.30004882812,42.3000030517578,-866.100036621094,1.4473260868917,0.0432129035156256,0.191169633633878,DLL
14.5,0.0580198690295219,-1.69274461269379,10.4591283798218,0.221037998795509,0.0762199983000755,-1.60061991214752,-1173.90002441406,45.9000015258789,-851.700012207031,1.45630564585724,0.0068176827062095,0.160886432824615,DLL
14.5333333333333,0.766221165657043,-1.91704821586609,9.00803279876709,0.297257989645004,-0.160062000155449,-1.2347639799118,-1181.10009765625,43.5,-861.300048828125,1.46025499947965,0.0816157376825399,0.207696996938602,DLL
14.5666666666667,0.494066089391708,-1.78246605396271,9.71683216094971,0.525918006896973,-0.0609759986400604,-1.12043392658234,-1169.10009765625,49.5000038146973,-856.500061035156,1.46817131198618,0.0509173729713761,0.180831986973992,DLL
14.6,0.996506214141846,-1.97746062278748,9.20721435546875,-0.190549999475479,-0.586893975734711,-1.21189796924591,-1183.5,41.7000007629395,-863.700012207031,1.47159466131675,0.105532960822415,0.210966208468185,DLL
14.6333333333333,-0.131591454148293,-1.76870882511139,10.6427574157715,0.617381989955902,0.304879993200302,-1.01372599601746,-1161.90002441406,41.7000007629395,-854.100036621094,1.47934474982266,-0.0096206636298912,0.164735752112605,DLL
14.6666666666667,0.196789041161537,-1.89372062683105,9.41895771026611,1.39482593536377,1.41006994247437,-0.685979962348938,-1171.5,41.1000022888184,-866.100036621094,1.48400187177277,0.0175326143285802,0.195098886178347,DLL
14.7,0.763828575611115,-2.08034133911133,7.64366912841797,-0.0609759986400604,0.663114011287689,-1.30336201190948,-1164.30004882812,47.1000022888184,-854.100036621094,1.48819596428459,0.0941772184242289,0.264331243019442,DLL
14.7333333333333,-0.726145565509796,-1.91345942020416,9.69948673248291,1.10518991947174,1.04421401023865,-0.335367977619171,-1171.5,41.1000022888184,-858.900024414062,1.49197325252986,-0.0703827365558612,0.194862071142899,DLL
14.7666666666667,-0.144750595092773,-2.13237977027893,9.0493049621582,0.922261953353882,0.67835795879364,-0.0533539988100529,-1169.10009765625,35.7000007629395,-858.900024414062,1.4946724833751,-0.0181661048745984,0.228867644600806,DLL
14.8,-0.61548912525177,-1.80280292034149,9.75870227813721,0.800309956073761,0.411587983369827,-0.121951997280121,-1166.70007324219,42.3000030517578,-854.100036621094,1.49406598132325,-0.061402277342586,0.182598328870367,DLL
14.8333333333333,0.0059814294800162,-2.15271663665771,9.1802978515625,-0.0533539988100529,-0.846041977405548,0.121951997280121,-1166.70007324219,45.9000015258789,-834.900024414062,1.49393005987019,0.0002947837098892,0.229121838358773,DLL
14.8666666666667,-0.0657957270741463,-2.22389554977417,9.54277324676514,-0.396344006061554,-1.34147191047668,0.0304879993200302,-1161.90002441406,41.1000022888184,-854.100036621094,1.49218936825157,-0.0043180420359437,0.229633632896772,DLL
14.9,0.110656447708607,-2.0612006187439,8.61624908447266,-0.3125019967556,-1.49391198158264,-0.0457319989800453,-1159.5,38.1000022888184,-851.700012207031,1.49061392873797,0.0145171974279602,0.235206200610434,DLL
14.9333333333333,-0.691453278064728,-1.58866775035858,8.96137809753418,1.02134799957275,0.342989981174469,0.342989981174469,-1173.90002441406,41.1000022888184,-858.900024414062,1.48766809708906,-0.074053738435688,0.175326105467303,DLL
14.9666666666667,-0.813474416732788,-1.5802937746048,8.51635932922363,1.11281192302704,1.04421401023865,0.830797970294952,-1164.30004882812,50.1000022888184,-873.300048828125,1.48526106807974,-0.0952470137875559,0.181301081318849,DLL
15.0,0.640611112117767,-2.5337336063385,9.60198879241943,-1.03659200668335,-0.259148001670837,1.2423859834671,-1161.90002441406,34.5,-858.900024414062,1.48009846669328,0.0599417379794745,0.25776281367959,DLL
15.0333333333333,-0.571226537227631,-1.95353496074677,10.3640232086182,0.274392008781433,-2.37044191360474,2.25611186027527,-1169.10009765625,41.7000007629395,-851.700012207031,1.46652255482289,-0.0478046411639435,0.187618264552703,DLL
15.0666666666667,0.504234552383423,-2.73351335525513,9.90823841094971,-0.289635986089706,-3.39178991317749,1.55488801002502,-1176.30004882812,43.5,-854.100036621094,1.45320615505412,0.0521852979985546,0.268398397246681,DLL
15.1,0.815268874168396,-2.54509830474854,9.73896408081055,0.419209986925125,-3.30032587051392,1.88263392448425,-1166.70007324219,45.3000030517578,-861.300048828125,1.44013050233652,0.0846463513644949,0.255621087083324,DLL
15.1333333333333,0.78476357460022,-2.18621253967285,10.1768045425415,1.33385002613068,-1.63110792636871,1.76830399036407,-1185.90002441406,50.1000022888184,-851.700012207031,1.43242342605488,0.077572800018741,0.210812567988884,DLL
15.1666666666667,0.964206457138062,-1.84407472610474,9.2048225402832,2.0579400062561,-0.274392008781433,1.63872992992401,-1183.5,45.9000015258789,-846.900024414062,1.42427600143443,0.101591612179153,0.19486387347265,DLL
15.2,1.16697692871094,-1.46365582942963,7.25966119766235,2.28659987449646,0.792688012123108,0.739333987236023,-1171.5,39.3000030517578,-858.900024414062,1.41968830094865,0.153239965530916,0.19509688573615,DLL
15.2333333333333,-3.41778898239136,-0.349315494298935,15.1922330856323,2.89635992050171,3.01831197738647,1.03659200668335,-1171.5,39.9000015258789,-839.700012207031,1.41119904293329,-0.217379454689197,0.0220772185100178,DLL
15.2666666666667,0.937290012836456,-1.0335910320282,5.98442029953003,2.41617393493652,0.518296003341675,3.04117798805237,-1166.70007324219,42.9000015258789,-861.300048828125,1.4009184382302,0.141161156153246,0.163272131561143,DLL
15.3,0.530552804470062,-1.8105788230896,10.0081281661987,-0.320124000310898,-0.228659987449646,1.95885396003723,-1161.90002441406,50.7000007629395,-868.500061035156,1.38930037525793,0.0543315495715865,0.179304660303648,DLL
15.3333333333333,1.02282452583313,-2.16767001152039,9.23353290557861,-2.01220798492432,-2.34757590293884,1.12805593013763,-1166.70007324219,44.7000007629395,-858.900024414062,1.37711011646479,0.109793674432981,0.233255132061165,DLL
15.3666666666667,1.06947958469391,-2.30225229263306,8.91233062744141,-1.02134799957275,-1.2500079870224,0.0,-1171.5,48.3000030517578,-839.700012207031,1.37374238339083,0.117590248209927,0.254133891579517,DLL
15.4,0.735117733478546,-1.97566628456116,9.24429988861084,0.259148001670837,-0.236281991004944,-0.426831990480423,-1171.5,39.3000030517578,-863.700012207031,1.37978111991519,0.0791072482298617,0.21108918084862,DLL
15.4333333333333,0.69863098859787,-1.90209460258484,9.23353290557861,1.33385002613068,0.609759986400604,-0.0228659994900227,-1164.30004882812,49.5000038146973,-858.900024414062,1.38077852482987,0.0731044440765054,0.201089611114305,DLL
15.4666666666667,-0.402550220489502,-1.10536825656891,10.3765840530396,1.77592599391937,0.990859985351562,0.114329993724823,-1176.30004882812,41.7000007629395,-863.700012207031,1.38261599659167,-0.0379505425217011,0.105062167685717,DLL
15.5,-0.270360618829727,-1.24294114112854,10.8371543884277,1.60061991214752,1.03659200668335,1.13567793369293,-1173.90002441406,44.1000022888184,-849.300048828125,1.37780369928603,-0.0271005087380352,0.111179682077816,DLL
15.5333333333333,0.504234552383423,-1.09699416160583,9.64924240112305,-0.320124000310898,-0.556405961513519,0.724089980125427,-1171.5,41.7000007629395,-861.300048828125,1.37376383123415,0.0505237606314469,0.113748762542374,DLL
15.5666666666667,0.629246413707733,-1.42956173419952,8.75741100311279,-0.792688012123108,-0.663114011287689,0.304879993200302,-1157.10009765625,39.3000030517578,-851.700012207031,1.36883983324802,0.0714703069192388,0.162353258609814,DLL
15.6,0.862522184848785,-1.83330821990967,7.9277868270874,-1.97409796714783,-0.442075997591019,-0.510673999786377,-1164.30004882812,40.5,-844.500061035156,1.36611606133303,0.105721681357446,0.229000242908799,DLL
15.6333333333333,-0.160900458693504,-1.63412654399872,9.21259784698486,-1.22714197635651,0.0914639979600906,-0.472563982009888,-1169.10009765625,42.3000030517578,-846.900024414062,1.37104676514621,-0.0138574578745849,0.179097770609923,DLL
15.6666666666667,-0.531749129295349,-1.68137991428375,9.55712795257568,0.411587983369827,0.83841997385025,0.815553963184357,-1176.30004882812,41.7000007629395,-854.100036621094,1.3675409417628,-0.0552728341143612,0.173525803653395,DLL
15.7,0.158507883548737,-1.83809340000153,10.099045753479,0.37347799539566,0.327746003866196,1.65397393703461,-1164.30004882812,38.1000022888184,-861.300048828125,1.35953940973915,0.0124687087570191,0.179243218627767,DLL
15.7333333333333,0.196190893650055,-2.01035857200623,10.8078451156616,-0.289635986089706,-0.640248000621796,1.2347639799118,-1169.10009765625,50.7000007629395,-856.500061035156,1.35217161461333,0.0184231578181624,0.184346825085602,DLL
15.7666666666667,0.643003702163696,-1.79801774024963,9.95788383483887,-0.0228659994900227,-1.31860601902008,0.304879993200302,-1164.30004882812,53.7000007629395,-851.700012207031,1.34937670267719,0.0647783661166634,0.178836855525291,DLL
15.8,0.853550016880035,-2.01394748687744,9.6402702331543,1.18903195858002,0.0,-0.152439996600151,-1171.5,50.7000007629395,-854.100036621094,1.34782916086775,0.085990286562639,0.20325457018643,DLL
15.8333333333333,0.234472051262856,-1.64190244674683,10.0105209350586,0.685979962348938,0.67835795879364,-1.37958192825317,-1176.30004882812,47.7000007629395,-856.500061035156,1.35757020955939,0.0240716038418484,0.162438239967431,DLL
15.8666666666667,0.139367312192917,-1.59584546089172,8.86268424987793,1.34147191047668,0.533540010452271,-0.503051996231079,-1166.70007324219,44.7000007629395,-858.900024414062,1.36049949849951,0.0148794567563324,0.175556411271455,DLL
15.9,0.147143170237541,-1.53004968166351,9.1988410949707,0.99848198890686,0.182927995920181,-0.342989981174469,-1173.90002441406,42.9000015258789,-856.500061035156,1.36257161110441,0.015544506543906,0.16336589262086,DLL
15.9333333333333,0.208751901984215,-1.59763991832733,9.05409049987793,0.83841997385025,-0.693601965904236,0.769822001457214,-1169.10009765625,50.1000022888184,-873.300048828125,1.35775268955762,0.0234431844186956,0.172960414938158,DLL
15.9666666666667,-0.247631192207336,-1.5444051027298,10.2449932098389,0.884151995182037,-0.358233988285065,1.08232402801514,-1169.10009765625,44.1000022888184,-854.100036621094,1.35179448016283,-0.0224461713399924,0.148632967319245,DLL
16.0,0.827829897403717,-1.78784930706024,8.60309028625488,0.0533539988100529,-1.08994603157043,1.18140995502472,-1171.5,43.5,-858.900024414062,1.34234271520314,0.0929394192305004,0.203834002503826,DLL
16.0333333333333,0.668723821640015,-2.12161302566528,9.34000205993652,-0.289635986089706,-0.594515979290009,0.937505960464478,-1161.90002441406,42.3000030517578,-839.700012207031,1.33545724570154,0.0709727616370552,0.223454455763904,DLL
16.0666666666667,0.418101936578751,-1.97327363491058,9.92498588562012,-0.884151995182037,-0.640248000621796,0.121951997280121,-1171.5,45.3000030517578,-861.300048828125,1.33581947958775,0.0431251995569222,0.198518293590378,DLL
16.1,0.919345736503601,-2.2292788028717,7.98281621932983,-0.739333987236023,-0.358233988285065,-0.182927995920181,-1173.90002441406,42.9000015258789,-858.900024414062,1.33105867413887,0.109301216429575,0.271539847298456,DLL
16.1333333333333,0.0610105842351913,-1.80041038990021,8.57557582855225,-0.800309956073761,0.266770005226135,-0.92988395690918,-1159.5,48.9000015258789,-863.700012207031,1.3398912683262,0.009640456471566,0.210026087457076,DLL
16.1666666666667,-0.816465139389038,-2.0791449546814,10.0302591323853,0.533540010452271,1.265251994133,0.320124000310898,-1171.5,45.9000015258789,-861.300048828125,1.33950441689445,-0.0803836552905651,0.203558191115051,DLL
16.2,-0.180041030049324,-1.97327363491058,9.54396915435791,-0.579271972179413,-0.175305992364883,0.769822001457214,-1161.90002441406,42.9000015258789,-858.900024414062,1.33511061010626,-0.0197287857519146,0.204834537316135,DLL
16.2333333333333,-0.705808699131012,-1.89312255382538,10.4160614013672,0.320124000310898,-0.731711983680725,1.52439999580383,-1164.30004882812,36.9000015258789,-854.100036621094,1.32567217338778,-0.0645453223100029,0.17975868038268,DLL
16.2666666666667,0.0687864422798157,-2.02172327041626,9.70845890045166,-0.419209986925125,-0.922261953353882,0.663114011287689,-1166.70007324219,44.7000007629395,-849.300048828125,1.32154759293466,0.0071372778180794,0.205635135217835,DLL
16.3,-0.0257201474159956,-2.12759447097778,9.67077541351318,0.0685980021953583,-0.586893975734711,0.335367977619171,-1173.90002441406,44.1000022888184,-854.100036621094,1.31903297428727,-0.0015384972035608,0.216208620375194,DLL
16.3333333333333,0.16568560898304,-2.24363422393799,9.18328857421875,-0.228659987449646,-0.693601965904236,0.0152439996600151,-1173.90002441406,42.3000030517578,-849.300048828125,1.31789294885449,0.0182753752101983,0.239533725430247,DLL
16.3666666666667,0.39238178730011,-2.3937680721283,8.50858402252197,-0.640248000621796,-0.83841997385025,-0.160062000155449,-1178.70007324219,39.3000030517578,-863.700012207031,1.31654424268898,0.0453502320341702,0.274723251923605,DLL
16.4,-0.407335370779037,-2.13297772407532,10.1696271896362,0.381099998950958,-0.137196004390717,0.617381989955902,-1181.10009765625,39.9000015258789,-846.900024414062,1.31335125048564,-0.037429027625792,0.207468715349334,DLL
16.4333333333333,0.581993103027344,-2.37642192840576,9.05767917633057,1.77592599391937,0.0381099991500378,1.55488801002502,-1173.90002441406,40.5,-861.300048828125,1.3048233026901,0.058643160237596,0.252354232609367,DLL
16.4666666666667,0.45937380194664,-2.0731635093689,8.97334098815918,0.655492007732391,-0.609759986400604,0.320124000310898,-1161.90002441406,43.5,-854.100036621094,1.30370414341835,0.0509623914679821,0.226666155449252,DLL
16.5,0.634629666805267,-2.34352421760559,8.9177131652832,-0.0685980021953583,-0.99848198890686,0.403965979814529,-1164.30004882812,41.7000007629395,-844.500061035156,1.2986476125463,0.0697052699194707,0.256348778875983,DLL
16.5333333333333,0.0328978635370731,-2.08333206176758,9.32265663146973,0.525918006896973,-0.693601965904236,0.823175966739655,-1188.30004882812,38.1000022888184,-858.900024414062,1.29482419473773,0.0058580870584898,0.21984555090118,DLL
16.5666666666667,0.812876284122467,-2.43743252754211,9.03614616394043,0.945127964019775,0.198172003030777,1.2423859834671,-1178.70007324219,44.1000022888184,-854.100036621094,1.2867185564118,0.0835713772443221,0.260824344604671,DLL
16.6,-0.0693845823407173,-1.88773918151855,11.3545484542847,1.57013201713562,0.320124000310898,0.830797970294952,-1169.10009765625,48.3000030517578,-851.700012207031,1.28643487110424,-0.0043730735822995,0.164696947574279,DLL
16.6333333333333,0.400157660245895,-1.65506160259247,9.3238525390625,1.33385002613068,-0.0838419944047928,0.746955990791321,-1171.5,40.5,-842.100036621094,1.28220570557624,0.0408860840283654,0.173161884726975,DLL
16.6666666666667,0.275743901729584,-1.54500329494476,9.47039794921875,1.05945801734924,0.221037998795509,0.861285984516144,-1171.5,39.3000030517578,-854.100036621094,1.27799652951469,0.0283711030398499,0.160182415379773,DLL
16.7,0.941477060317993,-2.02531218528748,9.00922966003418,-0.320124000310898,-0.350611984729767,0.106707997620106,-1169.10009765625,47.7000007629395,-863.700012207031,1.2732512280137,0.100830139430044,0.220601031631261,DLL
16.7333333333333,0.869699895381927,-1.86620604991913,8.6264181137085,-0.449698001146317,-0.792688012123108,-0.533540010452271,-1157.10009765625,43.5,-861.300048828125,1.27596065377004,0.0998005638603469,0.213961582476129,DLL
16.7666666666667,0.697434723377228,-1.50253510475159,8.4709005355835,1.2500079870224,-0.37347799539566,-0.175305992364883,-1166.70007324219,44.7000007629395,-849.300048828125,1.27952722282934,0.0820194835803335,0.174316419875393,DLL
16.8,-0.0364867225289345,-1.29198884963989,9.50628662109375,1.50153398513794,0.129574000835419,0.442075997591019,-1171.5,39.3000030517578,-844.500061035156,1.27880148631779,-0.001790502570737,0.133603076961104,DLL
16.8333333333333,-0.331969350576401,-1.08443319797516,10.3269386291504,1.39482593536377,0.602137982845306,1.34147191047668,-1181.10009765625,43.5,-854.100036621094,1.27188367571276,-0.0323965517452149,0.102982308511623,DLL
16.8666666666667,0.459971934556961,-1.46305775642395,10.4369964599609,0.259148001670837,0.0304879993200302,1.47866797447205,-1166.70007324219,49.5000038146973,-858.900024414062,1.26412262403885,0.0411574627168356,0.137930368024373,DLL
16.9,1.23396897315979,-2.02890086174011,9.11330604553223,-0.403965979814529,-0.632625997066498,0.213415995240211,-1173.90002441406,45.9000015258789,-846.900024414062,1.25582105213013,0.129919067513622,0.217584286609935,DLL
16.9333333333333,0.241649761795998,-1.77827906608582,9.7957878112793,-0.891773998737335,-0.67835795879364,-0.960371971130371,-1173.90002441406,47.1000022888184,-849.300048828125,1.2631147364544,0.0285743278748245,0.182073688007208,DLL
16.9666666666667,0.407335370779037,-2.00258255004883,9.19405555725098,0.449698001146317,0.457319974899292,-0.152439996600151,-1161.90002441406,38.7000007629395,-861.300048828125,1.26322269127641,0.0422053402951296,0.212908891354017,DLL
17.0,0.278136491775513,-1.70231485366821,9.21977615356445,0.282013982534409,0.586893975734711,-0.228659987449646,-1164.30004882812,47.1000022888184,-846.900024414062,1.26614819888972,0.0289663451835589,0.182626859146357,DLL
17.0333333333333,0.0245238617062569,-1.46545028686523,9.21857929229736,0.868907988071442,0.967993974685669,0.731711983680725,-1164.30004882812,47.7000007629395,-856.500061035156,1.26339726891329,0.0013408848416181,0.15668303885751,DLL
17.0666666666667,0.13099330663681,-1.63950991630554,9.49492168426514,0.434453994035721,1.12805593013763,0.846041977405548,-1154.70007324219,36.9000015258789,-844.500061035156,1.25973177019007,0.0111965166694249,0.169958968962444,DLL
17.1,0.895420014858246,-2.43025493621826,8.66051197052002,-1.06708002090454,0.0762199983000755,0.457319974899292,-1161.90002441406,51.3000030517578,-837.300048828125,1.25222408668805,0.097055978537821,0.273300036547422,DLL
17.1333333333333,0.0514402948319912,-2.11144471168518,10.1965436935425,-1.30336201190948,-0.434453994035721,-0.221037998795509,-1164.30004882812,40.5,-851.700012207031,1.25649383056433,0.0082443263202397,0.2082762321061,DLL
17.1666666666667,0.626853823661804,-2.60431456565857,9.84304046630859,-0.304879993200302,-0.411587983369827,-0.0381099991500378,-1164.30004882812,41.7000007629395,-846.900024414062,1.25453557307081,0.060729072499752,0.257806214256421,DLL
17.2,1.11434030532837,-2.32019662857056,9.4375,0.708845973014832,-0.87652999162674,-0.396344006061554,-1173.90002441406,40.5,-851.700012207031,1.25658931999884,0.114313697324238,0.240290095435104,DLL
17.2333333333333,0.719565987586975,-1.88594484329224,9.31308650970459,1.54726600646973,0.182927995920181,-0.78506600856781,-1157.10009765625,45.9000015258789,-837.300048828125,1.26429847724289,0.0763459876233101,0.19788593295146,DLL
17.2666666666667,0.129198879003525,-1.44690787792206,9.53021240234375,1.34147191047668,1.47866797447205,-1.2423859834671,-1159.5,36.9000015258789,-851.700012207031,1.27451292552302,0.0123543929204852,0.14918291901667,DLL
17.3,0.0550291538238525,-1.53483486175537,9.15996170043945,1.34147191047668,1.64635193347931,-1.02134799957275,-1159.5,46.5,-861.300048828125,1.2809335686425,0.003621280663086,0.163271393342864,DLL
17.3333333333333,0.149535745382309,-1.86919677257538,8.89498424530029,0.175305992364883,1.17378795146942,-1.38720393180847,-1169.10009765625,42.3000030517578,-849.300048828125,1.28925392681252,0.0146964999348811,0.205878791826182,DLL
17.3666666666667,-0.528160214424133,-1.80220472812653,9.50209903717041,-0.945127964019775,0.434453994035721,-2.05031800270081,-1152.30004882812,42.9000015258789,-858.900024414062,1.3002829264084,-0.0531848215008511,0.189610774979979,DLL
17.4,-0.381615221500397,-2.2113344669342,8.87225437164307,-1.2347639799118,-0.0152439996600151,-1.46342396736145,-1161.90002441406,42.3000030517578,-854.100036621094,1.3099758925237,-0.0414106542612365,0.2449735123282,DLL
17.4333333333333,-0.692051410675049,-2.27473783493042,9.38785362243652,-0.99848198890686,0.0609759986400604,-0.907018005847931,-1173.90002441406,45.3000030517578,-868.500061035156,1.31399622812182,-0.07043737027551,0.239721636518859,DLL
17.4666666666667,-0.696836590766907,-2.32318735122681,9.32504844665527,-0.800309956073761,-0.0914639979600906,-0.617381989955902,-1166.70007324219,49.5000038146973,-868.500061035156,1.31725782185627,-0.0719362924265099,0.245510275119025,DLL
17.5,-0.774595141410828,-2.19219398498535,9.83287239074707,0.175305992364883,-0.236281991004944,0.175305992364883,-1169.10009765625,44.7000007629395,-856.500061035156,1.31425940577435,-0.0762820227287447,0.219742975137326,DLL
17.5333333333333,-0.503038227558136,-2.15451097488403,9.87115383148193,1.19665396213531,-0.297257989645004,0.609759986400604,-1161.90002441406,43.5,-854.100036621094,1.31077922699394,-0.0501951873472579,0.212934720636268,DLL
17.5666666666667,-0.613096535205841,-1.88175773620605,10.6116542816162,1.09756803512573,-0.87652999162674,0.541162014007568,-1149.90002441406,47.1000022888184,-851.700012207031,1.3053628882506,-0.0553635220727302,0.17445928694911,DLL
